'Start Wavelength	183.907
'End Wavelength	1046.922
'Gate Delay	5.000
'Gate Width (ms)	1.050
'Laser Output Level	0.000
'X Position	0.000
'Y Position	0.000
'Z Position	0.000
'Grid Point Number	1.000
'Shot Number	100.000
183.907	315.000
183.977	248.000
184.047	-70
184.116	846
184.186	1125
184.256	-42
184.325	-456
184.395	-478
184.465	682
184.534	25
184.604	-365
184.674	489
184.743	-187
184.813	837
184.883	258
184.952	-349
185.022	436
185.092	-291
185.161	233
185.231	608
185.301	1010
185.370	1580
185.440	-57
185.509	533
185.579	-34
185.649	-331
185.718	330
185.788	-38
185.857	529
185.927	555
185.996	-257
186.066	291
186.136	-346
186.205	173
186.275	151
186.344	490
186.414	394
186.483	442
186.553	1020
186.622	2145
186.692	447
186.761	244
186.831	-162
186.900	483
186.970	764
187.039	1199
187.109	991
187.178	1004
187.248	120
187.317	1360
187.387	597
187.456	993
187.526	1522
187.595	1104
187.664	68
187.734	696
187.803	1959
187.873	908
187.942	1062
188.012	659
188.081	533
188.150	903
188.220	1382
188.289	1926
188.358	882
188.428	1708
188.497	361
188.567	1099
188.636	1145
188.705	474
188.775	408
188.844	1123
188.913	988
188.983	381
189.052	573
189.121	501
189.191	382
189.260	1678
189.329	1266
189.399	1108
189.468	791
189.537	998
189.606	1220
189.676	1757
189.745	886
189.814	1381
189.883	-48
189.953	1188
190.022	2142
190.091	4213
190.161	6366
190.230	3729
190.299	590
190.368	1282
190.437	611
190.507	1039
190.576	655
190.645	1035
190.714	346
190.783	871
190.853	1626
190.922	844
190.991	972
191.060	1372
191.129	539
191.198	1470
191.268	507
191.337	1047
191.406	964
191.475	696
191.544	850
191.613	1325
191.682	717
191.752	999
191.821	770
191.890	868
191.959	529
192.028	827
192.097	1178
192.166	1284
192.235	452
192.304	1682
192.373	564
192.442	1332
192.511	600
192.580	536
192.650	366
192.719	686
192.788	1418
192.857	1060
192.926	1501
192.995	1751
193.064	1634
193.133	2839
193.202	3364
193.271	2751
193.340	1610
193.409	3347
193.478	3557
193.547	3849
193.615	5095
193.684	5727
193.753	3638
193.822	2200
193.891	1591
193.960	1896
194.029	1285
194.098	1382
194.167	217
194.236	1334
194.305	295
194.374	1098
194.443	914
194.512	2249
194.580	1673
194.649	2210
194.718	2278
194.787	1653
194.856	1172
194.925	2089
194.994	1767
195.062	2045
195.131	2087
195.200	3040
195.269	2882
195.338	1935
195.407	1143
195.475	1262
195.544	2628
195.613	1943
195.682	2564
195.751	3343
195.819	2800
195.888	2245
195.957	2869
196.026	4002
196.094	3604
196.163	2368
196.232	2862
196.301	2140
196.369	1859
196.438	1369
196.507	1417
196.576	1457
196.644	1689
196.713	2137
196.782	1546
196.850	2000
196.919	1630
196.988	1090
197.056	934
197.125	1512
197.194	1763
197.262	1457
197.331	1600
197.400	1665
197.468	1347
197.537	1196
197.606	1792
197.674	3453
197.743	6217
197.812	2836
197.880	5412
197.949	5449
198.017	5360
198.086	4888
198.155	2139
198.223	2460
198.292	7090
198.360	4599
198.429	2158
198.497	3224
198.566	3887
198.635	7228
198.703	2956
198.772	2953
198.840	7915
198.909	8394
198.977	2357
199.046	2998
199.114	2596
199.183	2262
199.251	1888
199.320	1858
199.388	2624
199.457	1338
199.525	2389
199.594	1962
199.662	1665
199.731	2012
199.799	2439
199.867	2176
199.936	2347
200.004	1884
200.073	2121
200.141	1582
200.210	1463
200.278	1440
200.346	2096
200.415	3632
200.483	3643
200.552	2279
200.620	1919
200.688	2401
200.757	2023
200.825	1624
200.893	1409
200.962	2556
201.030	1856
201.098	2182
201.167	2456
201.235	2283
201.303	2138
201.372	2557
201.440	1270
201.508	2905
201.577	2356
201.645	2509
201.713	2352
201.781	2949
201.850	3239
201.918	2183
201.986	1948
202.055	2887
202.123	1716
202.191	1920
202.259	1749
202.327	2409
202.396	1873
202.464	3147
202.532	3601
202.600	10845
202.669	7503
202.737	3011
202.805	2889
202.873	1931
202.941	2464
203.009	2867
203.078	2062
203.146	3263
203.214	1758
203.282	1853
203.350	2209
203.418	2319
203.487	2560
203.555	2050
203.623	2994
203.691	2366
203.759	1713
203.827	2473
203.895	1872
203.963	3552
204.031	2769
204.099	2318
204.168	2659
204.236	3044
204.304	2717
204.372	2842
204.440	2308
204.508	2218
204.576	2014
204.644	2137
204.712	1074
204.780	2165
204.848	1993
204.916	2205
204.984	2494
205.052	2909
205.120	2920
205.188	2474
205.256	2468
205.324	3323
205.392	2373
205.460	3251
205.528	3001
205.596	2740
205.664	2660
205.732	3135
205.799	8348
205.867	15427
205.935	4955
206.003	4027
206.071	2823
206.139	3083
206.207	2789
206.275	2615
206.343	2899
206.411	3151
206.478	2754
206.546	2830
206.614	2702
206.682	2400
206.750	3216
206.818	3871
206.885	4350
206.953	1897
207.021	3563
207.089	3641
207.157	1698
207.225	2594
207.292	2751
207.360	3047
207.428	3033
207.496	1975
207.563	2977
207.631	2672
207.699	2775
207.767	2948
207.834	1309
207.902	3504
207.970	3170
208.038	3149
208.105	2596
208.173	3578
208.241	3957
208.309	4809
208.376	4551
208.444	8151
208.512	5005
208.579	2123
208.647	4026
208.715	4929
208.782	3213
208.850	3713
208.918	3370
208.985	3364
209.053	3453
209.120	4211
209.188	2643
209.256	3829
209.323	2382
209.391	6381
209.459	4927
209.526	3624
209.594	2829
209.661	3130
209.729	3137
209.796	4027
209.864	3496
209.932	2652
209.999	4455
210.067	4796
210.134	4796
210.202	4058
210.269	6111
210.337	5917
210.404	4220
210.472	4221
210.539	3825
210.607	3481
210.674	4726
210.742	4764
210.809	3798
210.877	4112
210.944	6291
211.012	4048
211.079	6141
211.146	3585
211.214	3608
211.281	6410
211.349	7163
211.416	4839
211.484	5369
211.551	4420
211.618	3551
211.686	4335
211.753	2972
211.821	4595
211.888	4679
211.955	4712
212.023	3909
212.090	5121
212.157	5076
212.225	5079
212.292	9114
212.359	17206
212.427	34494
212.494	20560
212.561	8598
212.629	6440
212.696	5377
212.763	4735
212.831	4265
212.898	5187
212.965	2906
213.032	4807
213.100	5733
213.167	4950
213.234	5973
213.301	4654
213.369	3509
213.436	3958
213.503	3083
213.570	4724
213.638	6259
213.705	5224
213.772	4062
213.839	6780
213.906	7340
213.973	6224
214.041	4939
214.108	5404
214.175	5550
214.242	5165
214.309	4368
214.376	5186
214.444	4636
214.511	6022
214.578	5615
214.645	5540
214.712	5325
214.779	4925
214.846	4852
214.913	6313
214.980	6038
215.048	6693
215.115	8184
215.182	8109
215.249	6167
215.316	5549
215.383	5123
215.450	5482
215.517	5580
215.584	5126
215.651	4261
215.718	4478
215.785	5999
215.852	6398
215.919	6904
215.986	6928
216.053	6054
216.120	3914
216.187	6096
216.254	6430
216.321	4789
216.388	6708
216.455	6360
216.522	6205
216.589	8086
216.656	12605
216.722	12327
216.789	8963
216.856	8205
216.923	7285
216.990	6806
217.057	7021
217.124	8836
217.191	8490
217.258	9656
217.324	10817
217.391	10949
217.458	9005
217.525	7521
217.592	6078
217.659	5501
217.725	6644
217.792	7910
217.859	9708
217.926	5191
217.993	4944
218.059	4109
218.126	4037
218.193	4231
218.260	3399
218.327	3427
218.393	4084
218.460	4050
218.527	2644
218.594	4560
218.660	9626
218.727	10820
218.794	4637
218.860	4782
218.927	3777
218.994	3885
219.061	4217
219.127	5179
219.194	8889
219.261	4511
219.327	3173
219.394	4064
219.461	2264
219.527	3048
219.594	6220
219.661	5452
219.727	2854
219.794	4127
219.860	2931
219.927	4652
219.994	7663
220.060	13265
220.127	10992
220.193	7061
220.260	5567
220.326	8343
220.393	12767
220.460	16003
220.526	12135
220.593	8741
220.659	9042
220.726	8493
220.792	19174
220.859	18380
220.925	21573
220.992	26492
221.058	26920
221.125	27125
221.191	21602
221.258	10114
221.324	7467
221.391	7519
221.457	5054
221.524	5119
221.590	8226
221.657	21521
221.723	18462
221.789	15040
221.856	14954
221.922	8331
221.989	6668
222.055	5275
222.121	4037
222.188	7743
222.254	5667
222.321	4869
222.387	3866
222.453	3611
222.520	3826
222.586	3223
222.652	4426
222.719	3687
222.785	4642
222.851	4252
222.918	3338
222.984	4845
223.050	5473
223.116	3798
223.183	4037
223.249	2279
223.315	3577
223.382	2984
223.448	2810
223.514	2212
223.580	2870
223.647	3044
223.713	2954
223.779	3281
223.845	2687
223.911	4135
223.978	1865
224.044	3598
224.110	3507
224.176	3334
224.242	2553
224.309	2459
224.375	3147
224.441	3528
224.507	2315
224.573	2437
224.639	4022
224.705	2181
224.772	3403
224.838	2848
224.904	4713
224.970	3082
225.036	3340
225.102	4361
225.168	4766
225.234	3740
225.300	4473
225.366	3838
225.432	3702
225.499	2656
225.565	4580
225.631	4804
225.697	4335
225.763	5049
225.829	5713
225.895	6950
225.961	10884
226.027	10459
226.093	8232
226.159	9567
226.225	12904
226.291	26617
226.357	44620
226.423	26832
226.489	16464
226.554	10837
226.620	10194
226.686	12521
226.752	20142
226.818	27005
226.884	55482
226.950	52348
227.016	23298
227.082	14767
227.148	10897
227.214	10820
227.279	9969
227.345	7950
227.411	7527
227.477	8605
227.543	16414
227.609	19252
227.674	13007
227.740	7196
227.806	7591
227.872	5749
227.938	6391
228.003	11028
228.069	6900
228.135	4578
228.201	4485
228.267	4588
228.332	6995
228.398	7949
228.464	6245
228.530	4172
228.595	4923
228.661	3389
228.727	9432
228.792	8466
228.858	5435
228.924	4665
228.990	8522
229.055	5972
229.121	8384
229.187	5123
229.252	6821
229.318	4467
229.384	5699
229.449	7326
229.515	3351
229.581	2968
229.646	5789
229.712	5775
229.777	13025
229.843	14165
229.909	10387
229.974	10526
230.040	10634
230.105	6601
230.171	8540
230.236	9744
230.302	15632
230.368	13736
230.433	6676
230.499	7356
230.564	8429
230.630	6264
230.695	5333
230.761	4664
230.826	2384
230.892	9730
230.957	5228
231.023	4216
231.088	5463
231.154	4979
231.219	5781
231.284	7713
231.350	8948
231.415	4846
231.481	5169
231.546	2579
231.612	3792
231.677	3483
231.742	3075
231.808	5613
231.873	3782
231.939	2475
232.004	9439
232.069	10599
232.135	4941
232.200	4110
232.265	4350
232.331	3016
232.396	2442
232.461	2671
232.527	3541
232.592	2524
232.657	4527
232.723	9547
232.788	9833
232.853	4718
232.918	3830
232.984	3194
233.049	4508
233.114	9261
233.179	10488
233.245	12090
233.310	17721
233.375	5125
233.440	4774
233.506	4032
233.571	4348
233.636	3382
233.701	4789
233.766	9694
233.832	15958
233.897	6792
233.962	5975
234.027	9279
234.092	7800
234.157	6321
234.222	7313
234.288	9644
234.353	30417
234.418	31998
234.483	18056
234.548	11878
234.613	9212
234.678	8593
234.743	10712
234.808	32926
234.873	24682
234.938	10248
235.004	7861
235.069	7179
235.134	6985
235.199	6169
235.264	5008
235.329	3840
235.394	5899
235.459	9056
235.524	8624
235.589	7175
235.654	5454
235.719	3187
235.784	5568
235.849	7262
235.913	18200
235.978	20990
236.043	26800
236.108	10416
236.173	7862
236.238	11367
236.303	6699
236.368	7363
236.433	10999
236.498	21992
236.563	14759
236.627	22587
236.692	70269
236.757	65790
236.822	30202
236.887	24345
236.952	17934
237.017	13289
237.081	15590
237.146	17946
237.211	33569
237.276	68207
237.341	119041
237.405	69695
237.470	29812
237.535	23335
237.600	13656
237.664	10720
237.729	8881
237.794	11504
237.859	21714
237.923	21146
237.988	12088
238.053	16619
238.118	18637
238.182	38338
238.247	39721
238.312	22503
238.376	16896
238.441	13700
238.506	11301
238.570	6363
238.635	8238
238.700	5198
238.764	6829
238.829	16791
238.893	25271
238.958	11171
239.023	11691
239.087	7971
239.152	8686
239.216	6089
239.281	5332
239.346	5262
239.410	6112
239.475	8606
239.539	36375
239.604	35109
239.668	11634
239.733	7587
239.797	11674
239.862	27432
239.926	38022
239.991	16976
240.055	9240
240.120	6798
240.184	7248
240.249	6650
240.313	6503
240.378	6097
240.442	23032
240.507	39997
240.571	14049
240.635	18675
240.700	26369
240.764	9907
240.829	7855
240.893	4289
240.957	7473
241.022	19720
241.086	41334
241.151	22429
241.215	8567
241.279	10883
241.344	23825
241.408	11469
241.472	8018
241.537	9121
241.601	7816
241.665	6695
241.730	6709
241.794	8982
241.858	7324
241.922	7473
241.987	7832
242.051	6496
242.115	5732
242.179	6549
242.244	5690
242.308	7131
242.372	8570
242.436	11038
242.501	8085
242.565	5803
242.629	6621
242.693	6516
242.757	4854
242.822	7061
242.886	9027
242.950	8055
243.014	8871
243.078	9506
243.142	9828
243.206	8501
243.271	9989
243.335	9803
243.399	15018
243.463	44745
243.527	120969
243.591	46126
243.655	19688
243.719	11556
243.783	12521
243.847	18929
243.911	26018
243.975	32122
244.040	26669
244.104	12926
244.168	8543
244.232	16023
244.296	23335
244.360	22900
244.424	15456
244.488	12620
244.552	11179
244.615	7525
244.679	8577
244.743	10052
244.807	12371
244.871	7851
244.935	7256
244.999	5649
245.063	9035
245.127	9820
245.191	15597
245.255	16692
245.319	14250
245.383	12688
245.446	10076
245.510	7603
245.574	8867
245.638	9185
245.702	8953
245.766	24476
245.829	16343
245.893	11482
245.957	9499
246.021	10338
246.085	10713
246.149	14618
246.212	30502
246.276	46083
246.340	21918
246.404	15717
246.467	15022
246.531	26591
246.595	15760
246.659	14600
246.722	13082
246.786	17070
246.850	16838
246.913	23666
246.977	11225
247.041	10584
247.104	14010
247.168	11258
247.232	27808
247.295	60016
247.359	33789
247.423	14844
247.486	28519
247.550	19492
247.614	13778
247.677	18291
247.741	12526
247.804	10742
247.868	13203
247.932	24384
247.995	57505
248.059	24921
248.122	12333
248.186	16119
248.249	26878
248.313	84807
248.376	99255
248.440	64867
248.503	26226
248.567	20274
248.630	29090
248.694	40325
248.757	47549
248.821	96105
248.884	63033
248.948	52200
249.011	75816
249.075	109865
249.138	103624
249.202	42331
249.265	27552
249.328	37305
249.392	25809
249.455	19935
249.519	15149
249.582	19481
249.645	31337
249.709	25295
249.772	16790
249.835	16066
249.899	20199
249.962	15010
250.025	14833
250.089	33232
250.152	52297
250.215	27950
250.279	20424
250.342	20344
250.405	19319
250.468	17007
250.532	22408
250.595	33990
250.658	98827
250.721	175546
250.785	75694
250.848	40140
250.911	24318
250.974	20995
251.038	27178
251.101	57569
251.164	34815
251.227	34042
251.290	30940
251.354	41997
251.417	136385
251.480	157780
251.543	108415
251.606	240464
251.669	215280
251.732	93038
251.795	85195
251.859	85376
251.922	164778
251.985	114762
252.048	45320
252.111	35935
252.174	31998
252.237	53490
252.300	118196
252.363	121338
252.426	213054
252.489	111868
252.552	64842
252.615	44493
252.678	41449
252.741	84705
252.804	109597
252.867	213703
252.930	154348
252.993	89240
253.056	51818
253.119	43502
253.182	32289
253.245	50041
253.308	42474
253.371	41636
253.434	40378
253.497	36086
253.559	56918
253.622	46183
253.685	56647
253.748	63703
253.811	30066
253.874	38483
253.937	38716
254.000	26130
254.062	39543
254.125	63284
254.188	56106
254.251	55847
254.314	27377
254.376	46596
254.439	54793
254.502	46123
254.565	42605
254.628	74690
254.690	53050
254.753	30464
254.816	24453
254.878	27533
254.941	43040
255.004	48846
255.067	24341
255.129	25742
255.192	15589
255.255	12655
255.317	17397
255.380	13065
255.443	10052
255.505	10091
255.568	11118
255.631	12289
255.693	11891
255.756	9823
255.819	10850
255.881	9567
255.944	9117
256.006	9126
256.069	10981
256.132	8562
256.194	13689
256.257	40628
256.319	32062
256.382	30552
256.444	15940
256.507	11457
256.569	10623
256.632	11003
256.694	22265
256.757	38813
256.819	113281
256.882	56175
256.944	23323
257.007	19240
257.069	23448
257.132	17360
257.194	12529
257.257	12433
257.319	13784
257.381	13221
257.444	31514
257.506	120118
257.569	162647
257.631	104662
257.693	53314
257.756	26414
257.818	26266
257.880	15010
257.943	13547
258.005	12314
258.067	11542
258.130	11263
258.192	14968
258.254	34645
258.317	22620
258.379	13464
258.441	33769
258.503	36286
258.566	39867
258.628	60100
258.690	17042
258.753	15183
258.815	29639
258.877	18899
258.939	11508
259.001	10831
259.064	10418
259.126	14918
259.188	24030
259.250	14703
259.312	19763
259.375	54551
259.437	40052
259.499	14421
259.561	12574
259.623	13844
259.685	13345
259.747	13123
259.809	36198
259.872	79517
259.934	101143
259.996	108316
260.058	33792
260.120	15571
260.182	12963
260.244	10696
260.306	9339
260.368	11163
260.430	11165
260.492	23201
260.554	52463
260.616	47738
260.678	55759
260.740	87186
260.802	25387
260.864	17799
260.926	15009
260.988	15049
261.050	14698
261.112	32518
261.174	80804
261.236	69597
261.298	23062
261.359	35235
261.421	56589
261.483	18567
261.545	14295
261.607	10269
261.669	11182
261.731	21775
261.793	61029
261.854	29403
261.916	17664
261.978	14690
262.040	17774
262.102	14092
262.164	24999
262.225	21925
262.287	12705
262.349	29715
262.411	28283
262.472	13420
262.534	23469
262.596	58902
262.658	20454
262.719	12558
262.781	17308
262.843	53300
262.904	27726
262.966	17019
263.028	22209
263.090	78383
263.151	215934
263.213	81666
263.275	43409
263.336	20762
263.398	14655
263.459	11533
263.521	11961
263.583	27442
263.644	23105
263.706	10833
263.767	8210
263.829	8646
263.891	7398
263.952	6598
264.014	6492
264.075	14040
264.137	38036
264.198	19909
264.260	9438
264.321	8970
264.383	22101
264.444	59686
264.506	20727
264.567	12230
264.629	20224
264.690	48989
264.752	20901
264.813	12059
264.875	9339
264.936	9658
264.998	8734
265.059	7357
265.120	8400
265.182	13850
265.243	51617
265.305	63701
265.366	17930
265.427	11591
265.489	9574
265.550	6804
265.611	10754
265.673	10717
265.734	9438
265.795	6873
265.857	7335
265.918	7914
265.979	17560
266.040	85855
266.102	88383
266.163	27594
266.224	24078
266.286	14052
266.347	9815
266.408	9753
266.469	12326
266.530	10001
266.592	8340
266.653	17004
266.714	35524
266.775	12495
266.836	8417
266.898	7435
266.959	15197
267.020	12750
267.081	8430
267.142	6976
267.203	7922
267.264	6811
267.326	8823
267.387	6883
267.448	5461
267.509	7097
267.570	8389
267.631	5912
267.692	6467
267.753	7744
267.814	8040
267.875	15707
267.936	41241
267.997	21441
268.058	17617
268.119	11072
268.180	10813
268.241	8984
268.302	8418
268.363	6932
268.424	10117
268.485	9926
268.546	8146
268.607	5562
268.668	5631
268.729	6104
268.790	8884
268.851	9601
268.912	24234
268.972	32698
269.033	18212
269.094	8882
269.155	7484
269.216	5967
269.277	9483
269.338	7510
269.398	7208
269.459	10288
269.520	14898
269.581	18106
269.642	23214
269.702	15648
269.763	11473
269.824	9605
269.885	11500
269.945	19382
270.006	9165
270.067	7023
270.128	6900
270.188	7533
270.249	7768
270.310	6865
270.370	6781
270.431	8327
270.492	6580
270.553	8524
270.613	19747
270.674	39359
270.734	20299
270.795	10844
270.856	15032
270.916	15303
270.977	9356
271.038	11083
271.098	13341
271.159	18292
271.219	21964
271.280	9488
271.340	8444
271.401	11318
271.462	34422
271.522	17911
271.583	11695
271.643	12006
271.704	10946
271.764	12244
271.825	26611
271.885	80228
271.946	119672
272.006	42830
272.066	47125
272.127	88688
272.187	32627
272.248	18705
272.308	18282
272.369	55226
272.429	38212
272.489	28739
272.550	34153
272.610	29446
272.671	27014
272.731	23649
272.791	46176
272.852	24892
272.912	19529
272.972	12365
273.033	12199
273.093	20748
273.153	21387
273.214	15015
273.274	16174
273.334	45566
273.394	97555
273.455	43885
273.515	37777
273.575	87229
273.635	40518
273.696	45590
273.756	91337
273.816	41274
273.876	25033
273.936	46869
273.997	96263
274.057	29961
274.117	20560
274.177	26521
274.237	103048
274.297	103434
274.358	79937
274.418	72558
274.478	61516
274.538	26555
274.598	23172
274.658	71814
274.718	105380
274.778	44014
274.838	22989
274.898	42955
274.958	143295
275.018	99968
275.078	63288
275.138	29485
275.198	18341
275.258	14321
275.318	18129
275.378	33105
275.438	34639
275.498	23209
275.558	51847
275.618	117349
275.678	72384
275.738	41977
275.798	37278
275.858	22151
275.918	11838
275.978	14405
276.038	14793
276.098	11973
276.157	22405
276.217	68438
276.277	35279
276.337	23530
276.397	15009
276.457	17603
276.517	14213
276.576	10428
276.636	10044
276.696	18801
276.756	40790
276.815	35593
276.875	17238
276.935	19297
276.995	17471
277.055	10893
277.114	11959
277.174	14856
277.234	52189
277.293	28062
277.353	14606
277.413	11406
277.472	13498
277.532	13692
277.592	15290
277.651	42978
277.711	93541
277.771	35417
277.830	98253
277.890	92758
277.950	56577
278.009	153563
278.069	67914
278.128	57920
278.188	97369
278.248	43570
278.307	94372
278.367	69166
278.426	25126
278.486	16780
278.545	13376
278.605	12786
278.664	11880
278.724	14642
278.783	30466
278.843	86637
278.902	30762
278.962	19289
279.021	23039
279.081	31214
279.140	33299
279.199	23750
279.259	22418
279.318	23337
279.378	31634
279.437	55272
279.496	166550
279.556	406665
279.615	385932
279.675	127760
279.734	73014
279.793	93323
279.853	144008
279.912	59805
279.971	33582
280.031	31065
280.090	49482
280.149	92944
280.208	81076
280.268	275812
280.327	331980
280.386	100293
280.445	66300
280.505	61676
280.564	32738
280.623	26819
280.682	32662
280.742	50659
280.801	20591
280.860	14878
280.919	14214
280.978	14021
281.037	14379
281.097	11884
281.156	12982
281.215	12042
281.274	15087
281.333	53582
281.392	50345
281.451	13857
281.510	11505
281.569	11253
281.628	10298
281.688	9154
281.747	11594
281.806	12459
281.865	9823
281.924	9020
281.983	10920
282.042	6712
282.101	7966
282.160	8013
282.219	7333
282.278	9475
282.337	33661
282.396	27367
282.454	11209
282.513	13850
282.572	48731
282.631	33353
282.690	12619
282.749	10983
282.808	13711
282.867	13221
282.926	13243
282.985	8558
283.043	7431
283.102	8926
283.161	11543
283.220	26449
283.279	61419
283.338	21362
283.396	12820
283.455	11998
283.514	13011
283.573	20754
283.631	16964
283.690	11449
283.749	10742
283.808	22512
283.866	29700
283.925	11919
283.984	11239
284.043	16065
284.101	18222
284.160	12785
284.219	20250
284.277	17242
284.336	22728
284.395	66130
284.453	63861
284.512	22917
284.570	29673
284.629	27152
284.688	24011
284.746	26322
284.805	29967
284.863	37993
284.922	46704
284.981	55059
285.039	78386
285.098	130709
285.156	278227
285.215	442044
285.273	444167
285.332	328754
285.390	177165
285.449	112543
285.507	76791
285.566	56769
285.624	43723
285.683	34927
285.741	26519
285.799	23156
285.858	23453
285.916	20630
285.975	15582
286.033	13566
286.091	12703
286.150	11751
286.208	11996
286.267	15835
286.325	14789
286.383	21294
286.442	18856
286.500	11121
286.558	10040
286.616	9984
286.675	14361
286.733	13981
286.791	11959
286.850	13565
286.908	17204
286.966	29737
287.024	14254
287.083	9204
287.141	9356
287.199	10034
287.257	16570
287.315	11736
287.374	12805
287.432	28124
287.490	22496
287.548	13055
287.606	11340
287.664	10757
287.723	16691
287.781	24643
287.839	13474
287.897	14289
287.955	19438
288.013	28364
288.071	61667
288.129	193109
288.187	502305
288.245	281421
288.303	94715
288.361	54239
288.419	44717
288.477	31295
288.535	21976
288.593	16721
288.651	14029
288.709	11329
288.767	10644
288.825	11609
288.883	9392
288.941	9230
288.999	9830
289.057	8536
289.115	8457
289.173	10385
289.231	10825
289.289	11053
289.346	10630
289.404	10504
289.462	18723
289.520	19875
289.578	10792
289.636	6171
289.694	6444
289.751	5847
289.809	5787
289.867	6483
289.925	9770
289.983	12464
290.040	7619
290.098	5953
290.156	8991
290.214	11631
290.271	7917
290.329	6223
290.387	5855
290.444	5670
290.502	4873
290.560	6157
290.617	6981
290.675	7236
290.733	7268
290.790	9812
290.848	6854
290.906	10475
290.963	9741
291.021	9000
291.078	9098
291.136	9752
291.194	25035
291.251	63916
291.309	21220
291.366	9168
291.424	8851
291.481	9171
291.539	8826
291.596	9551
291.654	6372
291.711	5994
291.769	8370
291.826	19687
291.884	15453
291.941	6800
291.999	8489
292.056	9902
292.114	11158
292.171	8024
292.228	8599
292.286	11651
292.343	21691
292.401	28228
292.458	20591
292.515	14017
292.573	14414
292.630	14052
292.687	14487
292.745	11534
292.802	15594
292.859	36671
292.917	64039
292.974	41865
293.031	15425
293.089	10368
293.146	9463
293.203	8311
293.260	8100
293.318	15512
293.375	19816
293.432	11340
293.489	8265
293.546	8052
293.604	14723
293.661	35314
293.718	91666
293.775	53071
293.832	26290
293.889	22130
293.947	27282
294.004	20647
294.061	16948
294.118	27735
294.175	59169
294.232	73442
294.289	32748
294.346	16288
294.403	14118
294.460	15431
294.517	14192
294.574	10110
294.631	9797
294.688	13663
294.745	28133
294.802	95809
294.859	120725
294.916	56020
294.973	38454
295.030	25747
295.087	20976
295.144	14039
295.201	13031
295.258	10800
295.315	14206
295.372	34866
295.429	77456
295.486	36627
295.542	22675
295.599	41536
295.656	83616
295.713	55498
295.770	73202
295.827	32195
295.883	16946
295.940	16174
295.997	25049
296.054	27157
296.111	14554
296.167	10446
296.224	8041
296.281	7821
296.338	8954
296.394	8358
296.451	12468
296.508	29753
296.564	65017
296.621	44522
296.678	69772
296.734	116580
296.791	46797
296.848	23637
296.904	25285
296.961	51518
297.018	79724
297.074	66384
297.131	26570
297.187	19071
297.244	26574
297.301	67232
297.357	139710
297.414	54492
297.470	22632
297.527	15784
297.583	13666
297.640	13950
297.696	11559
297.753	9682
297.809	8213
297.866	6673
297.922	7535
297.979	6904
298.035	10717
298.092	16722
298.148	44651
298.204	49390
298.261	25691
298.317	33658
298.374	91318
298.430	62216
298.486	31856
298.543	26481
298.599	22743
298.656	22351
298.712	33880
298.768	79493
298.824	65068
298.881	23387
298.937	14933
298.993	12863
299.050	17357
299.106	15205
299.162	12043
299.218	12790
299.275	10520
299.331	12366
299.387	22273
299.443	73480
299.500	94399
299.556	41054
299.612	20916
299.668	20190
299.724	24520
299.780	28096
299.837	18509
299.893	23720
299.949	71145
300.005	97671
300.061	71109
300.117	119948
300.173	65312
300.229	30186
300.285	33888
300.341	41181
300.397	22884
300.453	14390
300.510	13585
300.566	15564
300.622	18405
300.678	44621
300.734	87317
300.790	74156
300.845	88268
300.901	59852
300.957	79778
301.013	67841
301.069	27531
301.125	19509
301.181	22073
301.237	16259
301.293	11841
301.349	9950
301.405	9675
301.461	9828
301.516	14300
301.572	14618
301.628	25446
301.684	24503
301.740	33770
301.796	57983
301.851	38361
301.907	57429
301.963	64289
302.019	79890
302.074	211977
302.130	228752
302.186	107492
302.242	44124
302.297	30507
302.353	29432
302.409	51962
302.464	51147
302.520	39848
302.576	82750
302.631	104334
302.687	61046
302.743	27790
302.798	15692
302.854	13750
302.910	14014
302.965	18342
303.021	33074
303.076	33262
303.132	36842
303.187	45982
303.243	25542
303.299	14214
303.354	10604
303.410	11012
303.465	9542
303.521	9327
303.576	10511
303.632	13512
303.687	23265
303.743	66040
303.798	66455
303.853	27399
303.909	14889
303.964	14712
304.020	19551
304.075	35324
304.130	29419
304.186	51446
304.241	54019
304.297	45634
304.352	24545
304.358	23695
304.407	16801
304.449	15820
304.463	15496
304.518	16842
304.539	16175
304.573	15125
304.629	15622
304.630	15764
304.684	23115
304.720	41696
304.739	50836
304.794	85645
304.811	73825
304.850	45207
304.902	22209
304.905	20772
304.960	15215
304.992	15152
305.015	15090
305.071	14894
305.083	14281
305.126	11967
305.173	10066
305.181	9792
305.236	8349
305.264	9604
305.292	11030
305.347	13747
305.354	14017
305.402	15545
305.445	15909
305.457	15987
305.512	18858
305.535	19849
305.567	21221
305.622	20334
305.626	20993
305.678	38590
305.716	69901
305.733	79974
305.788	101906
305.807	88261
305.843	65528
305.897	72605
305.898	72595
305.953	78674
305.988	53975
306.008	40936
306.063	26420
306.078	24046
306.118	18798
306.168	13458
306.173	13023
306.228	10741
306.259	10302
306.283	10159
306.338	9771
306.349	10110
306.393	11719
306.440	13731
306.448	14090
306.503	16367
306.530	17801
306.558	24925
306.613	56828
306.620	61532
306.668	85417
306.711	94514
306.723	93092
306.778	74369
306.801	56148
306.833	36531
306.888	19652
306.892	18967
306.943	14927
306.982	13352
306.997	12889
307.052	13147
307.072	13502
307.107	16631
307.162	24065
307.163	24204
307.217	41676
307.253	51549
307.272	52597
307.327	55995
307.343	51057
307.381	40695
307.434	33008
307.436	33894
307.491	67254
307.524	99212
307.546	104488
307.600	91730
307.614	80442
307.655	49406
307.704	26678
307.710	26287
307.765	34289
307.795	43291
307.819	52721
307.874	90214
307.885	91228
307.929	69565
307.975	40396
307.984	39066
308.038	45274
308.065	53287
308.093	90495
308.148	182665
308.156	202850
308.202	305620
308.246	387184
308.257	379093
308.312	213354
308.336	149981
308.366	114173
308.421	79085
308.426	75141
308.475	48641
308.517	34216
308.530	31852
308.585	27458
308.607	26191
308.639	28179
308.694	34554
308.697	35127
308.748	72919
308.787	113038
308.803	111596
308.857	84209
308.877	68232
308.912	54167
308.967	44539
308.967	44461
309.021	56779
309.058	68136
309.076	85163
309.130	147726
309.148	171430
309.185	289807
309.238	480834
309.239	482231
309.293	524472
309.328	495256
309.348	433548
309.402	219023
309.418	165101
309.457	117835
309.508	75110
309.511	74333
309.566	71987
309.598	73371
309.620	87838
309.674	132363
309.688	144399
309.729	138217
309.778	115808
309.783	113270
309.837	79151
309.868	62847
309.892	73707
309.946	104936
309.959	115132
310.001	145084
310.049	172741
310.055	166947
310.109	97867
310.139	58524
310.163	47355
310.218	31539
310.229	29032
310.272	24820
310.319	20688
310.326	20432
310.381	19462
310.409	19186
310.435	18980
310.489	18251
310.499	18294
310.543	19910
310.589	21041
310.598	20912
310.652	21034
310.679	20334
310.706	17654
310.760	12256
310.769	11460
310.814	10021
310.859	8975
310.868	9186
310.923	10449
310.948	11084
310.977	13318
311.031	17777
311.038	18429
311.085	17361
311.128	15409
311.139	15180
311.193	14175
311.218	13822
311.247	12553
311.301	9894
311.308	9570
311.356	10482
311.398	11526
311.410	11288
311.464	9979
311.488	9305
311.518	9636
311.572	10338
311.578	10436
311.626	15682
311.668	20287
311.680	20591
311.734	21576
311.758	21998
311.788	21951
311.842	21778
311.847	21728
311.896	28077
311.937	33641
311.950	33062
312.004	30204
312.027	28794
312.058	23915
312.112	15260
312.117	14385
312.165	13362
312.207	12487
312.297	20695
312.386	16666
312.476	16465
312.566	35518
312.656	16710
312.745	10289
312.835	12928
312.925	14782
313.015	15481
313.104	18746
313.194	10982
313.284	12977
313.374	17231
313.463	14522
313.553	11006
313.643	9895
313.732	8925
313.822	9884
313.912	12103
314.001	15432
314.091	16500
314.180	24798
314.270	21024
314.360	26809
314.449	20751
314.539	12032
314.628	11337
314.718	15497
314.808	24047
314.897	12651
314.987	12959
315.076	18219
315.166	25979
315.255	25343
315.345	22644
315.434	25143
315.524	22872
315.613	26877
315.703	33204
315.792	55335
315.881	183849
315.971	62744
316.060	50911
316.150	85646
316.239	89773
316.328	29560
316.418	13848
316.507	14527
316.597	20709
316.686	20187
316.775	39088
316.865	92221
316.954	18007
317.043	10979
317.133	13641
317.222	11735
317.311	11514
317.400	12439
317.490	21110
317.579	24758
317.668	20992
317.757	36996
317.847	88389
317.936	310687
318.025	109671
318.114	69000
318.203	39036
318.293	39502
318.382	74723
318.471	55515
318.560	73230
318.649	141844
318.738	31670
318.828	25635
318.917	29587
319.006	37276
319.095	94777
319.184	178153
319.273	97692
319.362	52121
319.451	21544
319.540	19739
319.629	46214
319.718	74595
319.807	35758
319.896	62070
319.985	214428
320.074	78064
320.163	28212
320.252	56320
320.341	36646
320.430	29644
320.519	39603
320.608	22154
320.697	18810
320.786	20220
320.875	26738
320.964	35939
321.053	55005
321.142	78645
321.230	80995
321.319	62681
321.408	136584
321.497	58834
321.586	59348
321.675	85064
321.764	73760
321.852	48247
321.941	79792
322.030	53131
322.119	59967
322.207	148189
322.296	123147
322.385	61535
322.474	63400
322.562	172315
322.651	87019
322.740	69940
322.829	107215
322.917	124496
323.006	61122
323.095	48550
323.183	41783
323.272	59655
323.361	98422
323.449	301906
323.538	99862
323.626	228487
323.715	133647
323.804	58342
323.892	216817
323.981	110372
324.069	38421
324.158	120234
324.246	104507
324.335	34373
324.424	50100
324.512	20089
324.601	28511
324.689	66343
324.778	125161
324.866	93952
324.954	24393
325.043	23280
325.131	55014
325.220	97130
325.308	112587
325.397	77266
325.485	43168
325.574	14508
325.662	13520
325.750	15295
325.839	13851
325.927	12114
326.015	21586
326.104	43238
326.192	61286
326.280	14547
326.369	14899
326.457	21721
326.545	39597
326.634	15714
326.722	11337
326.810	12954
326.898	12041
326.987	15134
327.075	40635
327.163	50852
327.251	26614
327.340	42655
327.428	59277
327.516	15700
327.604	16277
327.692	17290
327.781	23550
327.869	44755
327.957	25238
328.045	20740
328.133	11649
328.221	22200
328.309	15242
328.397	11890
328.485	17427
328.574	26132
328.662	87923
328.750	58684
328.838	25196
328.926	11836
329.014	10446
329.102	18836
329.190	52199
329.278	31705
329.366	9158
329.454	9137
329.542	9025
329.630	8534
329.718	9833
329.806	15329
329.893	13185
329.981	11821
330.069	14257
330.157	40625
330.245	111741
330.333	54860
330.421	16444
330.509	27523
330.597	104098
330.684	65438
330.772	25107
330.860	38168
330.948	46491
331.036	17331
331.123	8498
331.211	10552
331.299	15691
331.387	38497
331.475	69015
331.562	23333
331.650	11735
331.738	17091
331.825	27530
331.913	10327
332.001	9791
332.089	19789
332.176	48015
332.264	122416
332.352	84150
332.439	22877
332.527	15831
332.614	15799
332.702	24805
332.790	16801
332.877	53916
332.965	111235
333.052	27459
333.140	28006
333.228	66831
333.315	19056
333.403	19988
333.490	72113
333.578	57813
333.665	67203
333.753	32982
333.840	15781
333.928	22935
334.015	74850
334.103	91723
334.190	250862
334.278	60952
334.365	34147
334.452	24326
334.540	16988
334.627	26927
334.715	40145
334.802	77658
334.889	385507
334.977	326791
335.064	47467
335.151	22941
335.239	22088
335.326	28251
335.413	109245
335.501	137742
335.588	24472
335.675	17566
335.762	24075
335.850	40211
335.937	35059
336.024	90819
336.111	361894
336.199	141877
336.286	31325
336.373	17475
336.460	12975
336.547	13001
336.635	18348
336.722	16469
336.809	15825
336.896	26377
336.983	75172
337.070	169347
337.157	226166
337.245	235423
337.332	156677
337.419	23507
337.506	14292
337.593	18710
337.680	58616
337.767	160940
337.854	48386
337.941	60853
338.028	94766
338.115	29619
338.202	33269
338.289	68450
338.376	244729
338.463	69657
338.550	98720
338.637	97535
338.724	52793
338.811	83848
338.898	17436
338.984	11919
339.071	15900
339.158	20048
339.245	52603
339.332	33342
339.419	59002
339.506	52752
339.593	10038
339.679	11163
339.766	10003
339.853	17392
339.940	37023
340.027	13714
340.113	12349
340.200	20331
340.287	15335
340.374	20005
340.460	30845
340.547	15019
340.634	26953
340.720	98603
340.807	52976
340.894	10525
340.980	12979
341.067	11515
341.154	13935
341.240	21509
341.327	47585
341.414	15100
341.500	15567
341.587	12720
341.674	12200
341.760	32287
341.847	38331
341.933	12608
342.020	5642
342.106	7429
342.193	13856
342.279	26185
342.366	19199
342.452	33291
342.539	19033
342.625	43979
342.712	103602
342.798	41569
342.885	17721
342.971	7300
343.058	7029
343.144	8671
343.230	8669
343.317	8962
343.403	8987
343.490	6874
343.576	6923
343.662	10107
343.749	12458
343.835	18041
343.921	30798
344.008	155063
344.094	327521
344.180	75380
344.267	35207
344.353	110878
344.439	122923
344.525	51943
344.612	18798
344.698	17207
344.784	12237
344.870	8375
344.957	10133
345.043	19345
345.129	14334
345.215	31196
345.301	16577
345.387	10202
345.474	7588
345.560	9561
345.646	15349
345.732	12487
345.818	13318
345.904	12442
345.990	16605
346.076	19887
346.162	39149
346.249	14062
346.335	9282
346.421	12573
346.507	44119
346.593	142149
346.679	33763
346.765	12336
346.851	13323
346.937	11819
347.023	9440
347.108	13220
347.194	11035
347.280	9943
347.366	15783
347.452	48223
347.538	173698
347.624	126200
347.710	111760
347.796	22450
347.882	12639
347.967	10540
348.053	16294
348.139	12880
348.225	9612
348.311	11667
348.397	8648
348.482	14012
348.568	16497
348.654	9452
348.740	15189
348.825	15649
348.911	22421
348.997	83174
349.083	156409
349.168	30042
349.254	12378
349.340	11953
349.425	8062
349.511	16290
349.597	18762
349.682	36397
349.768	105592
349.854	45615
349.939	12113
350.025	9726
350.110	7839
350.196	6828
350.282	5657
350.367	8437
350.453	27963
350.538	27821
350.624	16628
350.709	14335
350.795	8104
350.880	10220
350.966	13123
351.051	26802
351.137	20515
351.222	11641
351.308	35597
351.393	92021
351.479	22956
351.564	10272
351.649	10207
351.735	8078
351.820	7285
351.906	9913
351.991	17653
352.076	64254
352.162	86328
352.247	19053
352.332	13934
352.418	26419
352.503	33766
352.588	135847
352.673	108148
352.759	26597
352.844	13067
352.929	15913
353.014	21958
353.100	15749
353.185	32558
353.270	44605
353.355	38150
353.441	12772
353.526	18231
353.611	37999
353.696	40550
353.781	23387
353.866	11510
353.952	13744
354.037	35888
354.122	79077
354.207	71311
354.292	25160
354.377	11146
354.462	10048
354.547	17264
354.632	15608
354.717	25473
354.802	37022
354.887	13972
354.972	9499
355.057	8140
355.142	7648
355.227	13172
355.312	24071
355.397	53233
355.482	126128
355.567	56811
355.652	45059
355.737	45062
355.822	126103
355.907	93150
355.991	17552
356.076	10054
356.161	9875
356.246	7904
356.331	11404
356.416	30911
356.501	186943
356.585	181828
356.670	30011
356.755	20547
356.840	33821
356.924	149965
357.009	462189
357.094	162212
357.179	43822
357.263	29824
357.348	30559
357.433	30237
357.517	26101
357.602	20141
357.687	16645
357.771	29446
357.856	70429
357.941	44400
358.025	100038
358.110	402507
358.195	178525
358.279	32595
358.364	28506
358.448	94797
358.533	236823
358.617	169237
358.702	166164
358.787	59615
358.871	36835
358.956	29674
359.040	11586
359.125	9178
359.209	11714
359.294	33880
359.378	54638
359.462	31861
359.547	20369
359.631	16096
359.716	9449
359.800	11548
359.885	20061
359.969	13865
360.053	11272
360.138	12588
360.222	20026
360.306	37925
360.391	28129
360.475	49470
360.559	101676
360.644	99965
360.728	71091
360.812	108943
360.896	271210
360.981	126454
361.065	70503
361.149	19385
361.233	19985
361.318	15862
361.402	19812
361.486	16947
361.570	12967
361.654	19570
361.739	50200
361.823	189203
361.907	258571
361.991	49006
362.075	35052
362.159	77664
362.243	52448
362.327	53465
362.411	62686
362.495	38053
362.580	19402
362.664	14214
362.748	13198
362.832	18664
362.916	33071
363.000	100716
363.084	266168
363.168	323878
363.252	78280
363.336	34843
363.420	46546
363.503	152865
363.587	161284
363.671	33889
363.755	26272
363.839	36549
363.923	19196
364.007	42716
364.091	50117
364.175	69560
364.258	234973
364.342	176398
364.426	206098
364.510	111275
364.594	52900
364.677	62243
364.761	243396
364.845	157009
364.929	65059
365.013	52934
365.096	45953
365.180	53128
365.264	65065
365.347	221838
365.431	93294
365.515	29162
365.598	16590
365.682	13360
365.766	29030
365.849	34101
365.933	21387
366.017	25907
366.100	19998
366.184	11622
366.267	13937
366.351	11711
366.435	10297
366.518	8470
366.602	8550
366.685	10352
366.769	13637
366.852	27241
366.936	46465
367.019	26332
367.103	21468
367.186	37280
367.270	13095
367.353	8172
367.436	11513
367.520	9905
367.603	16053
367.687	25856
367.770	45704
367.853	25574
367.937	75994
368.020	117546
368.104	31667
368.187	34386
368.270	44996
368.353	38926
368.437	73110
368.520	183010
368.603	92100
368.687	96834
368.770	161240
368.853	41046
368.936	44622
369.020	42224
369.103	17532
369.186	11233
369.269	13892
369.352	31647
369.436	43492
369.519	26658
369.602	13458
369.685	15028
369.768	17397
369.851	13785
369.934	9898
370.018	16671
370.101	38697
370.184	28808
370.267	21403
370.350	36497
370.433	56447
370.516	137867
370.599	184675
370.682	70083
370.765	96939
370.848	109505
370.931	200481
371.014	73642
371.097	19051
371.180	13696
371.263	9160
371.346	6383
371.429	9434
371.511	11691
371.594	24526
371.677	37688
371.760	41025
371.843	31807
371.926	142525
372.009	304447
372.091	94929
372.174	81597
372.257	174910
372.340	64707
372.423	60625
372.505	67805
372.588	28215
372.671	65863
372.754	199435
372.836	92398
372.919	77425
373.002	138990
373.085	43489
373.167	35313
373.250	89495
373.332	177636
373.415	226122
373.498	440767
373.580	164019
373.663	261950
373.746	307258
373.828	73853
373.911	35343
373.993	38985
374.076	142554
374.159	130307
374.241	63291
374.324	174206
374.406	106611
374.489	134299
374.571	362237
374.654	144714
374.736	78507
374.819	231120
374.901	321582
374.983	309925
375.066	55800
375.148	27812
375.231	113898
375.313	201829
375.395	76296
375.478	19867
375.560	15342
375.643	23553
375.725	79674
375.807	299740
375.890	270444
375.972	151939
376.054	82937
376.136	148321
376.219	57787
376.301	93611
376.383	251456
376.465	93556
376.548	74585
376.630	81704
376.712	220963
376.794	92429
376.877	14077
376.959	11341
377.041	14572
377.123	32000
377.205	35489
377.287	9208
377.369	9634
377.452	10988
377.534	9934
377.616	11569
377.698	10888
377.780	8998
377.862	12670
377.944	12506
378.026	7559
378.108	8801
378.190	9188
378.272	8764
378.354	6623
378.436	7279
378.518	20892
378.600	69715
378.682	55590
378.764	119587
378.846	86708
378.928	29164
379.010	39093
379.091	20143
379.173	11265
379.255	11248
379.337	18449
379.419	60994
379.501	164063
379.583	61163
379.664	21000
379.746	48897
379.828	117280
379.910	156328
379.991	128193
380.073	24722
380.155	17625
380.237	12930
380.318	10627
380.400	13133
380.482	32028
380.564	47858
380.645	50456
380.727	43505
380.809	23387
380.890	18006
380.972	14322
381.053	12326
381.135	16609
381.217	44156
381.298	122594
381.380	59695
381.461	51901
381.543	228939
381.624	254546
381.706	48717
381.787	29709
381.869	31401
381.951	95844
382.032	337896
382.113	207066
382.195	53685
382.276	38559
382.358	82578
382.439	199886
382.521	212222
382.602	316158
382.684	149993
382.765	301532
382.846	342548
382.928	493432
383.009	261033
383.090	203783
383.172	704071
383.253	954826
383.334	335498
383.416	325642
383.497	162607
383.578	93911
383.659	182540
383.741	623962
383.822	1365152
383.903	676856
383.984	262310
384.066	391672
384.147	233513
384.228	54024
384.309	44542
384.390	33729
384.471	24582
384.553	27707
384.634	39953
384.715	38740
384.796	20300
384.877	28790
384.958	108838
385.039	127368
385.120	44008
385.201	23448
385.282	30956
385.363	33580
385.444	28243
385.525	48300
385.606	154880
385.687	121463
385.768	35331
385.849	44919
385.930	159116
386.011	249371
386.092	68039
386.173	21251
386.254	19325
386.335	20240
386.416	22223
386.496	74347
386.577	116314
386.658	45710
386.739	31835
386.820	28859
386.901	24263
386.981	21115
387.062	15837
387.143	32923
387.224	116954
387.304	103269
387.385	42193
387.466	30769
387.547	34918
387.627	25190
387.708	48078
387.789	198993
387.869	229503
387.950	57902
388.031	14963
388.111	17812
388.192	46399
388.273	67419
388.353	37351
388.434	21992
388.514	41383
388.595	171796
388.676	216008
388.756	108553
388.837	112441
388.917	65533
388.998	17548
389.078	16107
389.159	14925
389.239	13812
389.320	24178
389.400	23100
389.480	47554
389.561	119550
389.641	53916
389.722	25595
389.802	39287
389.883	52704
389.963	140096
390.043	95957
390.124	38448
390.204	47572
390.284	136401
390.365	86018
390.445	113133
390.525	278493
390.605	221032
390.686	66216
390.766	25228
390.846	15461
390.927	12747
391.007	14057
391.087	17404
391.167	18868
391.247	15793
391.328	34965
391.408	44269
391.488	26862
391.568	12970
391.648	20993
391.728	27836
391.808	27605
391.888	31283
391.969	68291
392.049	104623
392.129	49277
392.209	57978
392.289	131847
392.369	74617
392.449	71626
392.529	48176
392.609	40886
392.689	52004
392.769	139844
392.849	116910
392.929	98028
393.009	211481
393.089	173780
393.169	198256
393.248	564320
393.328	1502200
393.408	1484863
393.488	534129
393.568	182310
393.648	91809
393.728	58446
393.807	43379
393.887	35669
393.967	30628
394.047	32633
394.127	36517
394.206	51079
394.286	155228
394.366	632170
394.446	636711
394.525	146901
394.605	43803
394.685	42679
394.764	93250
394.844	157353
394.924	105727
395.003	35368
395.083	25313
395.163	22362
395.242	21992
395.322	21635
395.402	16839
395.481	25390
395.561	68616
395.640	176397
395.720	136177
395.799	182303
395.879	129841
395.958	68574
396.038	221508
396.117	824826
396.197	855513
396.276	263300
396.356	103452
396.435	84577
396.515	65350
396.594	86813
396.673	166099
396.753	550803
396.832	1349041
396.912	1012618
396.991	295093
397.070	93771
397.150	51816
397.229	37369
397.308	48624
397.388	72397
397.467	37606
397.546	19802
397.625	17265
397.705	24134
397.784	24364
397.863	15322
397.942	11966
398.022	15313
398.101	56969
398.180	154859
398.259	76141
398.338	23010
398.417	18553
398.497	13738
398.576	14775
398.655	10806
398.734	10187
398.813	11829
398.892	51489
398.971	163213
399.050	75324
399.129	12606
399.208	7744
399.287	9803
399.366	7747
399.445	8667
399.524	9053
399.603	9620
399.682	21937
399.761	59204
399.840	173200
399.919	121164
399.998	19191
400.077	8604
400.156	7983
400.235	11818
400.313	9428
400.392	15642
400.471	65428
400.550	99839
400.629	28364
400.708	14739
400.786	14684
400.865	40226
400.944	43246
401.023	19582
401.102	6408
401.180	7260
401.259	9505
401.338	12028
401.416	15935
401.495	14118
401.574	12129
401.652	11086
401.731	16364
401.810	16087
401.888	8774
401.967	5596
402.046	8113
402.124	13676
402.203	19863
402.281	11954
402.360	16331
402.438	49732
402.517	35736
402.596	13121
402.674	14122
402.753	8937
402.831	8183
402.910	12099
402.988	51912
403.066	163099
403.145	85170
403.223	52478
403.302	130590
403.380	93038
403.459	94603
403.537	38469
403.615	16307
403.694	6621
403.772	5867
403.850	5485
403.929	6000
404.007	8116
404.085	22014
404.164	27016
404.242	9493
404.320	9631
404.398	17241
404.477	58696
404.555	270677
404.633	215424
404.711	30138
404.789	10581
404.868	11036
404.946	7973
405.024	4994
405.102	5053
405.180	4928
405.258	5692
405.336	7440
405.415	8289
405.493	20901
405.571	20299
405.649	7686
405.727	7926
405.805	13146
405.883	13497
405.961	13908
406.039	17006
406.117	8430
406.195	16178
406.273	70953
406.351	240228
406.429	130429
406.507	25497
406.585	10953
406.663	11212
406.740	15010
406.818	13616
406.896	8732
406.974	9165
407.052	24026
407.130	146928
407.208	189194
407.285	34790
407.363	8672
407.441	9576
407.519	8020
407.596	10414
407.674	28687
407.752	83297
407.830	79846
407.907	33419
407.985	13496
408.063	7949
408.141	6136
408.218	15667
408.296	16580
408.373	12542
408.451	12310
408.529	11786
408.606	5819
408.684	5472
408.762	4173
408.839	4345
408.917	3408
408.994	5227
409.072	5111
409.149	6771
409.227	11229
409.304	14665
409.382	11600
409.459	13752
409.537	19969
409.614	18731
409.692	11646
409.769	13314
409.846	20828
409.924	26428
410.001	20088
410.079	13049
410.156	10196
410.233	9737
410.311	8300
410.388	7413
410.465	9584
410.543	9637
410.620	7325
410.697	8747
410.775	10837
410.852	6228
410.929	11205
411.006	14325
411.083	8844
411.161	22538
411.238	22833
411.315	12808
411.392	7143
411.469	12270
411.547	12320
411.624	6337
411.701	6401
411.778	10562
411.855	24641
411.932	12782
412.009	6284
412.086	6598
412.163	8542
412.240	10854
412.317	13077
412.394	12030
412.471	4273
412.548	4846
412.625	6621
412.702	9963
412.779	19729
412.856	11788
412.933	5375
413.010	4885
413.087	11548
413.164	62206
413.241	78737
413.318	20797
413.395	12974
413.471	20973
413.548	9285
413.625	6470
413.702	10789
413.779	7688
413.855	3805
413.932	3453
414.009	3770
414.086	4339
414.162	4920
414.239	11900
414.316	60274
414.393	125357
414.469	41576
414.546	6288
414.623	4405
414.699	5339
414.776	7133
414.853	4722
414.929	6515
415.006	6742
415.082	8995
415.159	6571
415.236	4719
415.312	6855
415.389	16075
415.465	21288
415.542	10408
415.618	8091
415.695	12975
415.771	10539
415.848	8772
415.924	7955
416.000	6564
416.077	4692
416.153	3061
416.230	1863
416.306	3839
416.383	5772
416.459	4212
416.535	3216
416.612	3451
416.688	4648
416.764	4444
416.841	4275
416.917	5454
416.993	5553
417.069	8365
417.146	10854
417.222	12830
417.298	9017
417.374	5544
417.451	6724
417.527	10042
417.603	12173
417.679	8046
417.755	6231
417.831	4139
417.908	4134
417.984	2950
418.060	4826
418.136	18148
418.212	24386
418.288	8252
418.364	5339
418.440	6657
418.516	11183
418.592	17221
418.668	30562
418.744	43141
418.820	30089
418.896	8450
418.972	3743
419.048	6095
419.124	19917
419.200	14814
419.276	4164
419.352	2183
419.428	4078
419.504	6893
419.579	10437
419.655	6978
419.731	8666
419.807	29659
419.883	51675
419.959	34263
420.034	10414
420.110	21178
420.186	79970
420.262	55463
420.337	12380
420.413	10453
420.489	5203
420.565	5653
420.640	5363
420.716	6323
420.792	4452
420.867	6698
420.943	6524
421.019	13719
421.094	10615
421.170	6148
421.245	4699
421.321	6959
421.397	6300
421.472	16733
421.548	42886
421.623	28070
421.699	11550
421.774	11706
421.850	11230
421.925	20746
422.001	17397
422.076	13926
422.152	17481
422.227	28544
422.302	31879
422.378	46311
422.453	85384
422.529	196374
422.604	477498
422.679	637656
422.755	480364
422.830	198359
422.905	82279
422.981	46011
423.056	29195
423.131	22711
423.207	17788
423.282	18991
423.357	31822
423.432	21487
423.508	22409
423.583	47111
423.658	32416
423.733	12537
423.808	15572
423.883	17288
423.959	15296
424.034	12741
424.109	9687
424.184	6908
424.259	5230
424.334	5419
424.409	4663
424.484	6162
424.559	7724
424.634	6264
424.709	10519
424.784	13395
424.859	8738
424.934	15387
425.009	58930
425.084	91030
425.159	30521
425.234	7442
425.309	5332
425.384	16475
425.459	25632
425.534	9513
425.609	7698
425.683	5074
425.758	4550
425.833	6623
425.908	10148
425.983	39137
426.058	100102
426.132	40679
426.207	10506
426.282	15478
426.357	14054
426.431	5236
426.506	5493
426.581	7201
426.655	6694
426.730	6287
426.805	5903
426.879	6785
426.954	7395
427.029	18671
427.103	92319
427.178	203790
427.253	81278
427.327	11887
427.402	17138
427.476	37414
427.551	17155
427.625	8696
427.700	8842
427.774	5652
427.849	8048
427.923	5251
427.998	5912
428.072	8357
428.147	18698
428.221	74858
428.296	190933
428.370	88141
428.444	16691
428.519	20894
428.593	39529
428.667	32035
428.742	40849
428.816	40326
428.890	135648
428.965	187125
429.039	65563
429.113	45271
429.188	17353
429.262	6817
429.336	16187
429.410	45404
429.485	29797
429.559	33016
429.633	24855
429.707	10146
429.781	30344
429.855	154311
429.930	208897
430.004	121620
430.078	174604
430.152	146868
430.226	236011
430.300	210161
430.374	36810
430.448	17560
430.522	58948
430.596	159069
430.670	95382
430.744	223332
430.818	291929
430.892	56639
430.966	12123
431.040	6864
431.114	5001
431.188	4410
431.262	6330
431.336	6492
431.410	19541
431.484	51283
431.557	30798
431.631	6553
431.705	8878
431.779	39394
431.853	163774
431.927	103322
432.000	13981
432.074	6104
432.148	9096
432.222	7900
432.295	4163
432.369	4993
432.443	13901
432.516	86248
432.590	199208
432.664	67756
432.737	10321
432.811	3328
432.885	2867
432.958	3054
433.032	3152
433.106	1926
433.179	1537
433.253	2063
433.326	2554
433.400	1835
433.473	2852
433.547	1531
433.620	3464
433.694	10561
433.767	11775
433.841	5626
433.914	3372
433.988	2600
434.061	3014
434.134	3712
434.208	2044
434.281	902
434.355	3460
434.428	3845
434.501	3274
434.575	3168
434.648	3967
434.721	1776
434.795	2212
434.868	1612
434.941	2553
435.014	1671
435.088	3324
435.161	6518
435.234	12540
435.307	13612
435.381	7625
435.454	7409
435.527	10960
435.600	10686
435.673	7569
435.746	5427
435.819	4983
435.892	4823
435.966	3805
436.039	3784
436.112	4853
436.185	2431
436.258	2619
436.331	823
436.404	1579
436.477	1146
436.550	1886
436.623	2892
436.696	2107
436.769	3814
436.842	4818
436.915	4417
436.987	9148
437.060	3630
437.133	2861
437.206	1904
437.279	2943
437.352	2280
437.425	2536
437.498	4225
437.570	10687
437.643	9090
437.716	3393
437.789	3079
437.861	10006
437.934	27503
438.007	11583
438.080	3138
438.152	5270
438.225	15552
438.298	106044
438.370	262407
438.443	102093
438.516	26027
438.588	7057
438.661	2649
438.734	4211
438.806	6341
438.879	6524
438.951	8232
439.024	14231
439.096	5243
439.169	3364
439.241	2359
439.314	2861
439.386	8305
439.459	16237
439.531	23275
439.604	7225
439.676	2209
439.749	1870
439.821	1598
439.893	2567
439.966	3674
440.038	6806
440.110	6010
440.183	3285
440.255	3717
440.327	8557
440.400	47901
440.472	182012
440.544	106996
440.617	15351
440.689	11670
440.761	15963
440.833	23299
440.905	14501
440.978	3982
441.050	2027
441.122	2589
441.194	2797
441.266	3025
441.338	3336
441.411	10290
441.483	60483
441.555	80909
441.627	17639
441.699	12354
441.771	13528
441.843	5074
441.915	3696
441.987	3213
442.059	2986
442.131	6286
442.203	11115
442.275	12589
442.347	12188
442.419	17603
442.491	88320
442.563	202308
442.635	85389
442.706	53063
442.778	35604
442.850	7777
442.922	5648
442.994	6840
443.066	12547
443.137	9356
443.209	7606
443.281	13084
443.353	30094
443.425	114100
443.496	361563
443.568	334948
443.640	121245
443.711	26899
443.783	12217
443.855	7704
443.926	5303
443.998	6011
444.070	9540
444.141	8291
444.213	13119
444.285	14596
444.356	16041
444.428	14221
444.499	5694
444.571	3673
444.642	4977
444.714	5849
444.785	11127
444.857	15828
444.928	35923
445.000	20313
445.071	26380
445.143	29353
445.214	20166
445.285	32369
445.357	87714
445.428	250426
445.500	514445
445.571	331889
445.642	173501
445.714	75009
445.785	60493
445.856	20303
445.928	18239
445.999	13609
446.070	11455
446.141	11499
446.213	14803
446.284	9340
446.355	9543
446.426	6532
446.497	6737
446.569	12531
446.640	19021
446.711	13825
446.782	6482
446.853	12778
446.924	11822
446.995	7449
447.066	7561
447.138	13332
447.209	7396
447.280	1933
447.351	2437
447.422	2629
447.493	6009
447.564	8533
447.635	12909
447.706	5235
447.777	2679
447.847	2090
447.918	2909
447.989	7580
448.060	9760
448.131	24773
448.202	19768
448.273	12685
448.344	6582
448.414	3382
448.485	3506
448.556	2398
448.627	2054
448.698	2837
448.768	2042
448.839	4085
448.910	12628
448.981	10584
449.051	4493
449.122	2689
449.193	2081
449.263	3179
449.334	1949
449.405	5940
449.475	15573
449.546	11144
449.616	15147
449.687	11171
449.758	4227
449.828	3452
449.899	2990
449.969	2159
450.040	2866
450.110	8265
450.181	9589
450.251	3722
450.322	2397
450.392	3840
450.463	3196
450.533	2053
450.604	2945
450.674	2916
450.744	3828
450.815	2849
450.885	3213
450.955	2802
451.026	2721
451.096	2746
451.166	5710
451.237	16211
451.307	35682
451.377	13368
451.447	3126
451.518	3157
451.588	3655
451.658	4042
451.728	8845
451.799	37781
451.869	39085
451.939	9030
452.009	3299
452.079	2247
452.149	4712
452.219	11285
452.289	43912
452.360	29513
452.430	6566
452.500	6809
452.570	8829
452.640	13660
452.710	38839
452.780	51987
452.850	35143
452.920	29823
452.990	10900
453.060	6960
453.129	9912
453.199	13659
453.269	49947
453.339	97960
453.409	146020
453.479	154236
453.549	215631
453.619	226511
453.688	83391
453.758	14295
453.828	7596
453.898	4502
453.968	4778
454.037	3486
454.087	4394
454.107	4757
454.168	2870
454.177	2581
454.247	2361
454.249	2409
454.316	3217
454.330	3678
454.386	5243
454.411	11555
454.456	21655
454.492	25982
454.525	29877
454.574	15637
454.595	9503
454.655	5090
454.665	4467
454.734	6316
454.736	6576
454.804	13953
454.817	19132
454.873	38810
454.898	41849
454.943	46630
454.979	33112
455.013	21196
455.060	12296
455.082	8921
455.141	9581
455.152	9340
455.221	27909
455.222	28265
455.291	46089
455.303	41570
455.360	21980
455.384	22018
455.430	22799
455.465	22133
455.499	20575
455.546	31344
455.569	35567
455.627	23605
455.638	21673
455.707	5153
455.708	5163
455.777	3922
455.789	3911
455.846	3775
455.869	3576
455.916	3275
455.950	3635
455.985	3859
456.031	3888
456.054	3813
456.112	3677
456.124	3731
456.193	3712
456.193	3690
456.262	5092
456.274	5688
456.332	7978
456.355	9098
456.401	10366
456.436	8323
456.470	6330
456.516	3878
456.540	2822
456.597	2897
456.609	2941
456.678	2866
456.678	2852
456.747	2639
456.759	2645
456.817	2702
456.840	2720
456.886	2646
456.920	2559
456.955	2722
457.001	3520
457.024	4402
457.082	7067
457.093	7455
457.162	12488
457.163	12546
457.232	16104
457.243	15042
457.301	8461
457.324	6227
457.370	3788
457.405	3914
457.439	4149
457.485	4227
457.508	4151
457.566	4590
457.577	4755
457.646	5719
457.647	5759
457.715	11393
457.727	12540
457.784	18676
457.808	24280
457.853	31978
457.889	37108
457.922	37569
457.969	26128
457.991	25945
458.050	30877
458.060	31523
458.129	53223
458.130	53798
458.198	56476
458.211	50836
458.267	28608
458.292	20448
458.336	12786
458.372	12014
458.405	15451
458.453	22597
458.474	28051
458.533	51341
458.543	53307
458.611	89045
458.614	89379
458.680	60416
458.694	48819
458.749	22118
458.775	16034
458.818	9293
458.855	7363
458.887	6168
458.936	6021
458.955	5916
459.016	5907
459.024	5921
459.093	6008
459.097	6000
459.162	5822
459.177	6095
459.230	7334
459.257	7887
459.299	8264
459.338	8066
459.368	8090
459.418	8742
459.437	8395
459.499	6981
459.505	6945
459.574	5590
459.579	5547
459.643	4999
459.659	4788
459.711	4867
459.740	5293
459.780	5629
459.820	6039
459.849	6295
459.900	6998
459.917	7004
459.981	6834
459.986	6832
460.054	5917
460.061	5859
460.123	5702
460.141	5694
460.191	6980
460.222	8181
460.260	9002
460.302	10722
460.328	10421
460.382	7120
460.397	6878
460.462	6518
460.465	6587
460.534	9320
460.543	9668
460.602	23268
460.623	28764
460.671	41891
460.703	56159
460.739	55296
460.783	45987
460.808	39299
460.864	11929
460.876	9452
460.944	6663
460.945	6631
461.013	7408
461.024	7381
461.081	7409
461.104	7907
461.150	7603
461.184	6806
461.218	6513
461.264	6113
461.286	6098
461.345	6083
461.355	6045
461.423	6611
461.425	6603
461.491	7097
461.505	7371
461.559	15521
461.585	19416
461.628	30868
461.665	42935
461.696	47851
461.745	61331
461.764	55620
461.825	18923
461.832	17866
461.901	9284
461.905	9185
461.969	8029
461.985	7743
462.037	7688
462.065	7573
462.105	8684
462.145	9898
462.173	14119
462.225	22653
462.241	25069
462.305	38509
462.310	37628
462.378	21652
462.385	18962
462.446	10153
462.465	8519
462.514	7653
462.545	7813
462.582	7832
462.625	7751
462.650	7371
462.705	6610
462.718	6998
462.785	8701
462.786	8775
462.854	13646
462.865	14572
462.922	18424
462.945	20111
462.990	15119
463.025	9525
463.058	8424
463.104	7046
463.126	6605
463.184	6713
463.194	6917
463.262	8117
463.264	8167
463.330	8298
463.344	8274
463.398	9020
463.424	9385
463.466	9287
463.504	9278
463.533	9562
463.583	9706
463.601	9884
463.663	10429
463.669	10787
463.737	15209
463.743	15668
463.805	25069
463.823	27691
463.873	41840
463.903	51162
463.940	54918
463.982	60805
464.008	49995
464.062	20443
464.076	18565
464.142	8746
464.144	8630
464.211	7590
464.221	7562
464.279	7874
464.301	8018
464.347	9282
464.381	10159
464.414	11719
464.461	14001
464.482	14610
464.540	16619
464.550	16154
464.617	12032
464.620	11868
464.685	12294
464.699	12477
464.753	13584
464.779	14171
464.820	14392
464.859	14357
464.888	14410
464.938	14540
464.956	14992
465.018	16969
465.023	16708
465.091	12594
465.098	12130
465.158	11709
465.177	11717
465.226	11796
465.257	11779
465.293	12344
465.336	12810
465.361	14319
465.416	17939
465.428	19338
465.495	27049
465.496	27212
465.563	46753
465.575	50228
465.631	60907
465.654	65880
465.698	41206
465.734	18306
465.765	14751
465.813	10003
465.833	9744
465.893	10172
465.900	10255
465.968	10880
465.972	10908
466.035	10242
466.052	10068
466.102	10710
466.131	11026
466.170	10879
466.210	10665
466.237	10875
466.290	11310
466.304	11666
466.369	13117
466.372	13164
466.439	14056
466.449	14144
466.506	15430
466.528	15911
466.573	23909
466.607	29868
466.641	46758
466.687	70253
466.708	77797
466.766	99034
466.775	91340
466.842	31748
466.845	28859
466.909	18407
466.925	16137
466.977	15397
467.004	15047
467.044	15436
467.083	15864
467.111	16773
467.163	18368
467.178	18729
467.242	20124
467.245	20090
467.312	18734
467.321	18526
467.379	19490
467.400	19786
467.446	21334
467.480	22389
467.559	19924
467.638	16291
467.717	17422
467.796	20407
467.875	22531
467.955	19961
468.034	34912
468.113	83860
468.192	121694
468.271	28835
468.350	19583
468.429	24148
468.508	24707
468.588	19190
468.667	17863
468.746	18237
468.825	16930
468.904	14987
468.983	19227
469.062	32935
469.141	39395
469.220	14538
469.299	14496
469.378	15292
469.456	17917
469.535	16519
469.614	15792
469.693	17287
469.772	25795
469.851	35989
469.930	25855
470.009	15647
470.088	16491
470.166	20978
470.245	32540
470.324	38453
470.403	24711
470.482	17916
470.560	15702
470.639	17954
470.718	21268
470.797	16959
470.875	20654
470.954	29611
471.033	32753
471.111	12541
471.190	11913
471.269	11445
471.347	12038
471.426	13920
471.505	15794
471.583	16195
471.662	13846
471.740	13256
471.819	13016
471.898	12731
471.976	12805
472.055	12704
472.133	15911
472.212	23416
472.290	23937
472.369	14683
472.447	11794
472.526	10979
472.604	12274
472.683	14999
472.761	17142
472.839	13287
472.918	14200
472.996	14490
473.075	17927
473.153	16557
473.231	12839
473.310	16023
473.388	16472
473.466	14154
473.545	16333
473.623	23243
473.701	23313
473.780	14674
473.858	12512
473.936	16771
474.014	12719
474.093	16280
474.171	26934
474.249	38586
474.327	25025
474.405	11317
474.484	12123
474.562	12485
474.640	13229
474.718	13646
474.796	13638
474.874	12249
474.952	10663
475.030	11396
475.108	11941
475.187	14357
475.265	17108
475.343	29079
475.421	32925
475.499	14971
475.577	15911
475.655	21836
475.733	48223
475.811	85964
475.889	75941
475.966	50609
476.044	15957
476.122	22527
476.200	30331
476.278	24026
476.356	13788
476.434	15421
476.512	20701
476.590	29644
476.667	24071
476.745	13642
476.823	13678
476.901	13432
476.979	15078
477.056	13888
477.134	14124
477.212	15043
477.290	13710
477.367	11901
477.445	11414
477.523	11221
477.601	13267
477.678	12886
477.756	17465
477.834	19648
477.911	12976
477.989	13663
478.066	14137
478.144	15740
478.222	21115
478.299	37862
478.377	34698
478.454	12789
478.532	11880
478.609	12163
478.687	14980
478.764	11450
478.842	13892
478.919	15001
478.997	14682
479.074	11565
479.152	15837
479.229	20953
479.307	14372
479.384	9754
479.461	10518
479.539	12497
479.616	16652
479.694	13834
479.771	15147
479.848	16890
479.926	23418
480.003	25833
480.080	12708
480.157	11082
480.235	11526
480.312	11657
480.389	14985
480.467	28712
480.544	35015
480.621	16353
480.698	14776
480.775	18099
480.853	17446
480.930	13047
481.007	14255
481.084	17211
481.161	18267
481.238	16733
481.315	12236
481.392	10914
481.470	12590
481.547	14012
481.624	12686
481.701	12038
481.778	13260
481.855	15014
481.932	25855
482.009	46213
482.086	32337
482.163	15482
482.240	26860
482.317	49814
482.393	38708
482.470	15394
482.547	14853
482.624	12659
482.701	14634
482.778	13701
482.855	11768
482.932	11532
483.009	11345
483.085	14183
483.162	17635
483.239	16988
483.316	13698
483.393	13010
483.469	13238
483.546	15706
483.623	18205
483.699	13159
483.776	13711
483.853	16259
483.930	24589
484.006	70309
484.083	117502
484.160	47830
484.236	47011
484.313	38517
484.389	30060
484.466	27346
484.543	26897
484.619	28092
484.696	31406
484.772	32989
484.849	35419
484.925	25751
485.002	24943
485.078	28587
485.155	29366
485.231	24622
485.308	24869
485.384	26049
485.461	34077
485.537	67450
485.614	84174
485.690	28252
485.766	24391
485.843	26035
485.919	39678
485.995	44167
486.072	23164
486.148	21697
486.224	22120
486.301	24124
486.377	30394
486.453	30954
486.530	27283
486.606	31027
486.682	36750
486.758	54630
486.835	67647
486.911	50047
486.987	86858
487.063	95309
487.139	115859
487.215	74731
487.292	33527
487.368	27229
487.444	32657
487.520	42145
487.596	41258
487.672	64122
487.748	185047
487.824	277947
487.900	92253
487.976	36044
488.052	35191
488.128	42572
488.204	33629
488.280	27753
488.356	32590
488.432	82591
488.508	132908
488.584	42365
488.660	24790
488.736	24680
488.812	26786
488.888	32687
488.964	46866
489.039	108696
489.115	175502
489.191	103476
489.267	27475
489.343	23641
489.418	19686
489.494	18737
489.570	17243
489.646	20205
489.722	20354
489.797	21255
489.873	38475
489.949	95130
490.024	84802
490.100	20976
490.176	19763
490.251	26519
490.327	36169
490.403	21742
490.478	18495
490.554	15971
490.629	16528
490.705	16114
490.781	18639
490.856	17670
490.932	22835
491.007	23357
491.083	23246
491.158	20474
491.234	29106
491.309	71293
491.385	76123
491.460	22372
491.536	23362
491.611	19194
491.686	22741
491.762	31941
491.837	72325
491.913	125293
491.988	177135
492.063	221273
492.139	64982
492.214	34864
492.289	16950
492.365	16155
492.440	20364
492.515	22028
492.590	20685
492.666	15526
492.741	24940
492.816	42075
492.891	21249
492.967	15009
493.042	13831
493.117	12382
493.192	14387
493.267	18011
493.342	36773
493.418	43031
493.493	16169
493.568	12206
493.643	13552
493.718	20032
493.793	34957
493.868	39875
493.943	22923
494.018	15357
494.093	14016
494.168	15680
494.243	12294
494.318	12318
494.393	11298
494.468	12150
494.543	12295
494.618	15981
494.693	13294
494.768	13279
494.842	13278
494.917	11644
494.992	12773
495.067	12476
495.142	12206
495.217	14229
495.292	14747
495.366	18015
495.441	22771
495.516	30329
495.591	40993
495.665	157414
495.740	379177
495.815	165419
495.890	25073
495.964	16766
496.039	21196
496.114	16644
496.188	18945
496.263	19643
496.338	17110
496.412	20376
496.487	24493
496.561	25920
496.636	27824
496.710	19172
496.785	22248
496.860	26206
496.934	19451
497.009	19235
497.083	18124
497.158	17926
497.232	24244
497.307	31427
497.381	24356
497.455	29798
497.530	43385
497.604	27953
497.679	28795
497.753	49221
497.827	65777
497.902	55531
497.976	62114
498.050	155247
498.125	643742
498.199	676976
498.273	98714
498.348	59467
498.422	44472
498.496	42948
498.570	41299
498.645	30035
498.719	29860
498.793	40325
498.867	65891
498.941	85269
499.016	259756
499.090	713046
499.164	267660
499.238	28477
499.312	22947
499.386	29346
499.460	27478
499.534	27042
499.609	33471
499.683	50116
499.757	51123
499.831	109338
499.905	471457
499.979	462749
500.053	72576
500.127	67734
500.201	46606
500.275	29585
500.349	26764
500.422	30782
500.496	47328
500.570	99545
500.644	264243
500.718	495363
500.792	121033
500.866	27881
500.940	34825
501.013	31206
501.087	30889
501.161	50491
501.235	68169
501.309	149990
501.382	432409
501.456	396169
501.530	85557
501.603	137756
501.677	59196
501.751	22173
501.825	27791
501.898	54861
501.972	169576
502.046	113380
502.119	28737
502.193	73539
502.266	186005
502.340	95583
502.413	75980
502.487	161928
502.561	97972
502.634	30609
502.708	22530
502.781	19080
502.855	16303
502.928	13069
503.002	14176
503.075	13902
503.149	16667
503.222	16633
503.295	20479
503.369	25504
503.442	35025
503.516	124123
503.589	333429
503.662	226123
503.736	67056
503.809	147337
503.882	126589
503.956	170074
504.029	168823
504.102	120417
504.175	159735
504.249	57013
504.322	30992
504.395	25806
504.468	17154
504.542	17459
504.615	12678
504.688	11473
504.761	10970
504.834	18343
504.907	21005
504.980	35231
505.053	18168
505.127	21618
505.200	26731
505.273	26608
505.346	16599
505.419	13004
505.492	12018
505.565	9014
505.638	10372
505.711	10268
505.784	10645
505.857	8946
505.930	12527
506.003	9685
506.076	14441
506.149	19309
506.221	25482
506.294	21451
506.367	61765
506.440	226181
506.513	130836
506.586	27211
506.659	15391
506.731	12755
506.804	17270
506.877	26036
506.950	17839
507.022	11933
507.095	17180
507.168	23101
507.241	14282
507.313	10042
507.386	12885
507.459	22696
507.531	13861
507.604	10270
507.677	10331
507.749	7990
507.822	14649
507.894	25296
507.967	28852
508.040	15067
508.112	13897
508.185	12930
508.257	11946
508.330	20951
508.402	13319
508.475	12963
508.547	14986
508.620	14489
508.692	27604
508.765	17454
508.837	9453
508.909	10232
508.982	10626
509.054	13948
509.127	11901
509.199	9713
509.271	8959
509.344	8951
509.416	8569
509.488	10295
509.560	10804
509.633	11456
509.705	15395
509.777	13700
509.849	21347
509.922	13118
509.994	10603
510.066	10687
510.138	10039
510.210	20124
510.283	18103
510.355	16282
510.427	13440
510.499	13516
510.571	13970
510.643	13835
510.715	24325
510.787	21125
510.859	15669
510.931	18286
511.003	23176
511.076	21506
511.148	12487
511.219	12471
511.291	25178
511.363	31446
511.435	12779
511.507	9413
511.579	11309
511.651	11938
511.723	10791
511.795	11077
511.867	11074
511.939	16289
512.010	41848
512.082	34463
512.154	13826
512.226	13287
512.298	17901
512.369	26333
512.441	22144
512.513	23701
512.585	16465
512.656	17077
512.728	19635
512.800	13767
512.871	14938
512.943	14075
513.015	11394
513.086	13963
513.158	16323
513.230	16371
513.301	27284
513.373	35672
513.444	17212
513.516	13096
513.588	11593
513.659	15785
513.731	22079
513.802	17787
513.874	40710
513.945	78655
514.016	26877
514.088	13698
514.159	15624
514.231	22019
514.302	26392
514.374	18510
514.445	18439
514.516	45612
514.588	34147
514.659	18929
514.730	39554
514.802	32801
514.873	17911
514.944	17469
515.016	15941
515.087	20082
515.158	27389
515.229	41007
515.301	18827
515.372	20910
515.443	14611
515.514	12350
515.585	10972
515.656	13216
515.728	13279
515.799	11736
515.870	14416
515.941	15114
516.012	15268
516.083	18732
516.154	23361
516.225	34498
516.296	32660
516.367	27630
516.438	31260
516.509	41031
516.580	56180
516.651	177943
516.722	664472
516.793	325252
516.864	64181
516.935	59333
517.006	63372
517.077	84845
517.148	186880
517.219	713053
517.289	1159817
517.360	357470
517.431	115006
517.502	31813
517.573	27762
517.643	26194
517.714	28073
517.785	29808
517.856	32772
517.926	41571
517.997	49130
518.068	62519
518.138	83052
518.209	117761
518.280	451675
518.350	1695708
518.421	713966
518.492	86767
518.562	47726
518.633	46198
518.703	42267
518.774	73635
518.845	190036
518.915	194310
518.986	63707
519.056	44230
519.127	69826
519.197	109296
519.268	252390
519.338	169670
519.408	39264
519.479	44470
519.549	33022
519.620	21849
519.690	16331
519.760	16319
519.831	17084
519.901	17192
519.971	14171
520.042	16498
520.112	21272
520.182	23284
520.253	27264
520.323	17517
520.393	24334
520.463	36997
520.534	27434
520.604	55886
520.674	27790
520.744	28791
520.814	62302
520.885	57360
520.955	74838
521.025	290600
521.095	124428
521.165	21757
521.235	17683
521.305	15071
521.375	14027
521.445	16507
521.515	23044
521.585	27106
521.655	25354
521.725	20879
521.795	19488
521.865	12819
521.935	24276
522.005	23241
522.075	13489
522.145	15950
522.215	18661
522.285	28655
522.355	39192
522.424	82158
522.494	71023
522.564	32820
522.634	59740
522.704	176665
522.774	73323
522.843	18739
522.913	17628
522.983	23738
523.053	18969
523.122	17985
523.192	24739
523.262	97095
523.331	101300
523.401	20715
523.471	12693
523.540	13825
523.610	9998
523.680	10326
523.749	11324
523.819	16774
523.888	17256
523.958	10761
524.027	11916
524.097	14508
524.166	12078
524.236	14512
524.305	16431
524.375	11035
524.444	11129
524.514	13567
524.583	13242
524.653	17889
524.722	21517
524.791	13600
524.861	13269
524.930	11356
524.999	13234
525.069	20625
525.138	17519
525.207	21615
525.277	15117
525.346	14520
525.415	13608
525.484	15253
525.554	19664
525.623	20142
525.692	17023
525.761	19722
525.830	21207
525.900	25845
525.969	40521
526.038	62030
526.107	120211
526.176	365678
526.245	318260
526.314	103574
526.383	187742
526.452	261553
526.522	416956
526.591	458864
526.660	138115
526.729	69949
526.797	65038
526.867	124905
526.935	522083
527.004	966244
527.073	554824
527.142	60410
527.211	26842
527.280	23400
527.349	24091
527.418	12384
527.487	15033
527.555	11719
527.624	10538
527.693	8801
527.762	11562
527.831	8887
527.899	11304
527.968	10731
528.037	10686
528.106	15020
528.174	31024
528.243	25071
528.312	36864
528.380	51540
528.449	15542
528.518	11328
528.586	6943
528.655	9749
528.723	7932
528.792	9132
528.861	9885
528.929	8508
528.998	9701
529.066	7492
529.135	8520
529.203	7940
529.272	7485
529.340	9251
529.409	11113
529.477	9205
529.545	12747
529.614	17352
529.682	16827
529.751	22621
529.819	22692
529.887	15948
529.956	9623
530.024	11090
530.092	7415
530.161	13025
530.229	23196
530.297	12103
530.365	9732
530.434	8690
530.502	7399
530.570	8507
530.638	7210
530.707	10009
530.775	11895
530.843	9439
530.911	8665
530.979	8322
531.047	8360
531.115	9215
531.183	8214
531.252	9062
531.320	9712
531.388	8101
531.456	8724
531.524	7968
531.592	8741
531.660	12576
531.728	8968
531.796	8608
531.864	8531
531.932	9520
532.000	9612
532.067	10887
532.135	12626
532.203	14454
532.271	13804
532.339	26357
532.407	81030
532.475	50543
532.542	21125
532.610	21822
532.678	27500
532.746	120084
532.814	328285
532.881	88445
532.949	18144
533.017	12846
533.084	11248
533.152	10354
533.220	10006
533.287	13085
533.355	10343
533.423	10002
533.490	9006
533.558	10820
533.625	10364
533.693	13366
533.761	11005
533.828	12263
533.896	11778
533.963	25631
534.031	31754
534.098	46172
534.166	22509
534.233	11603
534.300	12405
534.368	12993
534.435	13182
534.503	14171
534.570	16539
534.637	16148
534.705	18452
534.772	20041
534.840	33987
534.907	159938
534.974	227759
535.041	33049
535.109	22308
535.176	13304
535.243	11551
535.310	12221
535.378	11556
535.445	9844
535.512	10293
535.579	10406
535.646	9876
535.714	11223
535.781	12929
535.848	13042
535.915	12861
535.982	10738
536.049	11586
536.116	13502
536.183	12489
536.250	13474
536.317	13139
536.384	16926
536.451	28158
536.518	29580
536.585	17968
536.652	23809
536.719	37200
536.786	29475
536.853	20596
536.920	31993
536.987	54962
537.053	45610
537.120	159664
537.187	146154
537.254	19665
537.321	14926
537.388	15602
537.454	11973
537.521	12100
537.588	11623
537.654	14163
537.721	16054
537.788	16695
537.855	13495
537.921	13450
537.988	14405
538.055	14474
538.121	13485
538.188	14878
538.254	25211
538.321	57299
538.388	34085
538.454	15371
538.521	15026
538.587	12637
538.654	12322
538.720	12691
538.787	13244
538.853	14660
538.920	18418
538.986	19650
539.053	15895
539.119	16852
539.185	16198
539.252	19646
539.318	30026
539.385	23484
539.451	17540
539.517	18705
539.583	20645
539.650	46041
539.716	125179
539.782	39640
539.849	15989
539.915	16052
539.981	17125
540.047	21856
540.114	19943
540.180	19525
540.246	17971
540.312	25694
540.378	53067
540.444	55116
540.510	49323
540.576	138948
540.643	50302
540.709	15713
540.775	15250
540.841	15552
540.907	21838
540.973	33579
541.039	29241
541.105	34403
541.171	17476
541.237	15725
541.303	16536
541.369	20383
541.435	25285
541.500	48651
541.566	31045
541.632	15648
541.698	13379
541.764	14279
541.830	13716
541.896	13455
541.961	15325
542.027	15127
542.093	15320
542.159	16422
542.224	17552
542.290	25696
542.356	46523
542.421	56851
542.487	23665
542.553	16609
542.618	18491
542.684	16908
542.750	15399
542.815	19479
542.881	33540
542.947	120629
543.012	92418
543.078	17707
543.143	15096
543.209	16766
543.274	16480
543.340	19022
543.405	43096
543.471	74733
543.536	19849
543.602	15535
543.667	14349
543.732	15040
543.798	13159
543.863	14709
543.928	12883
543.994	11944
544.059	13806
544.124	13203
544.190	14028
544.255	14584
544.320	15392
544.386	15602
544.451	24435
544.516	29337
544.581	25495
544.646	74502
544.712	119787
544.777	26698
544.842	19262
544.907	21681
544.972	17947
545.037	17937
545.102	20242
545.168	19205
545.233	21108
545.298	22568
545.363	25279
545.428	27509
545.493	47347
545.558	103756
545.623	46056
545.688	22108
545.753	20591
545.818	19078
545.883	20669
545.947	20127
546.012	23407
546.077	23957
546.142	23576
546.207	22409
546.272	31400
546.337	33158
546.401	25027
546.466	23159
546.531	22873
546.596	26624
546.661	26531
546.725	25716
546.790	23590
546.855	27085
546.919	26715
546.984	30103
547.049	33953
547.113	40313
547.178	38805
547.243	44204
547.307	49609
547.372	57788
547.436	61859
547.501	53354
547.565	57861
547.630	61034
547.695	59495
547.759	63352
547.823	58474
547.888	51895
547.952	51883
548.017	55429
548.081	60920
548.146	72953
548.210	66178
548.274	59616
548.339	59211
548.403	54051
548.468	49358
548.532	50182
548.596	51776
548.660	52377
548.725	58016
548.789	67699
548.853	67297
548.917	58057
548.982	68527
549.046	67069
549.110	48485
549.174	48133
549.238	53034
549.303	56554
549.367	60571
549.431	57963
549.495	53761
549.559	53878
549.623	61075
549.687	71182
549.751	80766
549.815	79697
549.879	78524
549.943	73409
550.007	78363
550.071	78725
550.135	78002
550.199	71213
550.263	66176
550.327	67237
550.391	77920
550.455	73316
550.519	74334
550.582	80444
550.646	96253
550.710	100657
550.774	89066
550.838	88459
550.901	92441
550.965	98167
551.029	102478
551.093	109409
551.156	127888
551.220	183120
551.284	218588
551.347	139181
551.411	167188
551.475	177959
551.538	101837
551.602	90100
551.666	83601
551.729	76923
551.793	75173
551.856	74342
551.920	71937
551.983	73768
552.047	71833
552.110	71153
552.174	71990
552.237	75502
552.301	69562
552.364	66605
552.428	65009
552.491	68070
552.554	69963
552.618	69924
552.681	72925
552.745	74343
552.808	95158
552.871	119631
552.934	87790
552.998	73924
553.061	70752
553.124	66612
553.187	64609
553.251	67267
553.314	66832
553.377	65549
553.440	71745
553.503	80924
553.567	87326
553.630	71443
553.693	69423
553.756	69913
553.819	68535
553.882	64924
553.945	65842
554.008	65087
554.071	66355
554.134	67802
554.197	61518
554.260	61194
554.323	64311
554.386	64882
554.449	66495
554.512	66638
554.575	62287
554.638	64107
554.701	61864
554.764	60552
554.827	58114
554.889	57138
554.952	52859
555.015	51454
555.078	53431
555.141	54623
555.203	54160
555.266	53755
555.329	54047
555.391	51378
555.454	53217
555.517	51736
555.580	48005
555.642	46547
555.705	45661
555.768	46480
555.830	45907
555.893	42727
555.955	42687
556.018	41738
556.080	42824
556.143	43057
556.206	42859
556.268	44206
556.330	45343
556.393	43428
556.455	42409
556.518	54988
556.580	55916
556.643	38368
556.705	36780
556.767	36102
556.830	37594
556.892	40025
556.955	55443
557.017	44822
557.079	36487
557.142	35571
557.204	39072
557.266	66476
557.328	58093
557.391	33673
557.453	30441
557.515	31508
557.577	37145
557.639	39772
557.701	32786
557.764	32301
557.826	33737
557.888	36519
557.950	37150
558.012	40097
558.074	51388
558.136	112500
558.198	289968
558.260	112687
558.322	45899
558.384	46574
558.446	52290
558.508	60264
558.570	74008
558.632	106615
558.694	150424
558.756	160555
558.818	489921
558.880	1236133
558.942	406526
559.003	310635
559.065	162196
559.127	65054
559.189	62055
559.251	68375
559.312	93781
559.374	231082
559.436	818901
559.498	416190
559.559	75169
559.621	62195
559.683	68601
559.744	113160
559.806	378817
559.868	595749
559.929	120098
559.991	65821
560.052	96364
560.114	277329
560.176	183978
560.237	156571
560.299	272231
560.360	65502
560.422	29663
560.483	26102
560.545	23410
560.606	22913
560.667	21631
560.729	21583
560.790	20234
560.852	20699
560.913	21121
560.974	19586
561.036	20571
561.097	20781
561.158	21758
561.220	22018
561.281	22194
561.342	22574
561.403	24563
561.465	31459
561.526	75697
561.587	100439
561.648	30090
561.709	21314
561.771	20056
561.832	19941
561.893	20254
561.954	19136
562.015	18647
562.076	19117
562.137	19025
562.198	18522
562.259	20292
562.320	19890
562.381	22124
562.442	32428
562.503	26498
562.564	19285
562.625	18819
562.686	18070
562.747	21131
562.808	19527
562.869	18585
562.930	22760
562.991	21191
563.051	20829
563.112	19813
563.173	18955
563.234	17702
563.294	18638
563.355	18446
563.416	19909
563.477	18313
563.537	18769
563.598	20731
563.659	19743
563.720	19794
563.780	19460
563.841	21658
563.901	19211
563.962	18713
564.023	19208
564.083	19358
564.144	20124
564.204	19147
564.265	19689
564.325	24004
564.386	47522
564.446	42923
564.507	19038
564.567	17567
564.628	17445
564.688	17713
564.749	17865
564.809	21483
564.869	27365
564.930	19272
564.990	18408
565.050	16007
565.111	17251
565.171	16017
565.231	15561
565.292	17343
565.352	15786
565.412	17911
565.472	19557
565.532	19897
565.593	18341
565.653	16552
565.713	18219
565.773	19104
565.833	23012
565.893	30977
565.953	19678
566.013	17741
566.074	19544
566.134	25942
566.194	42328
566.254	44773
566.314	27795
566.374	19590
566.434	19567
566.494	18207
566.554	18484
566.614	18858
566.673	18643
566.733	20098
566.793	20454
566.853	20797
566.913	19982
566.973	20623
567.033	22148
567.092	22421
567.152	21672
567.212	21876
567.272	22000
567.331	23251
567.391	22865
567.451	23804
567.511	33721
567.570	34297
567.630	21827
567.690	20190
567.749	21246
567.809	20932
567.868	23356
567.928	25201
567.988	29760
568.047	28708
568.107	31948
568.166	40374
568.226	61168
568.285	84601
568.345	67557
568.404	51967
568.464	45979
568.523	41806
568.582	42343
568.642	48157
568.701	57019
568.761	85068
568.820	139496
568.879	125822
568.939	91785
568.998	62455
569.057	46101
569.116	38793
569.176	32462
569.235	28031
569.294	25696
569.353	24312
569.413	23055
569.472	22104
569.531	20850
569.590	19253
569.649	18651
569.708	18413
569.767	20568
569.827	24781
569.886	21084
569.945	17804
570.004	18207
570.063	19267
570.122	19449
570.181	21397
570.240	22583
570.299	23445
570.358	23709
570.417	19162
570.475	16599
570.534	17962
570.593	19253
570.652	20636
570.711	21390
570.770	19464
570.829	22104
570.887	20550
570.946	22859
571.005	17409
571.064	17767
571.122	20348
571.181	22591
571.240	18362
571.299	16132
571.357	19037
571.416	19073
571.475	22524
571.533	23276
571.592	18394
571.650	20110
571.709	16547
571.768	17704
571.826	17655
571.885	15647
571.943	15271
572.002	16590
572.060	17079
572.119	15006
572.177	13760
572.236	14073
572.294	13771
572.352	15239
572.411	14175
572.469	15040
572.528	14555
572.586	14672
572.644	17200
572.703	23099
572.761	16356
572.819	14663
572.877	13675
572.936	12794
572.994	13645
573.052	13308
573.110	15591
573.169	15726
573.227	14611
573.285	14097
573.343	13886
573.401	15075
573.459	14150
573.517	13894
573.576	13947
573.634	14707
573.692	14774
573.750	15205
573.808	13612
573.866	16481
573.924	19304
573.982	20038
574.040	14182
574.098	14361
574.155	13870
574.213	13732
574.271	13280
574.329	13755
574.387	12649
574.445	11979
574.503	12419
574.560	12058
574.618	11932
574.676	11626
574.734	12269
574.792	12280
574.849	12762
574.907	11503
574.965	11368
575.022	10446
575.080	10779
575.138	13033
575.195	12491
575.253	13558
575.311	15627
575.368	12971
575.426	12530
575.483	12186
575.541	12479
575.598	12159
575.656	12995
575.713	12143
575.771	12472
575.828	11255
575.886	12121
575.943	13125
576.001	13533
576.058	12592
576.115	14866
576.173	18028
576.230	19884
576.287	22828
576.345	17050
576.402	13721
576.459	12689
576.517	14679
576.574	16390
576.631	17046
576.688	13664
576.746	13511
576.803	13648
576.860	11345
576.917	12637
576.974	12680
577.031	11849
577.089	12282
577.146	13586
577.203	13059
577.260	14642
577.317	14905
577.374	17841
577.431	16611
577.488	14000
577.545	12918
577.602	12840
577.659	13113
577.716	11865
577.773	11177
577.830	10099
577.886	12461
577.943	12279
578.000	11911
578.057	14294
578.114	12955
578.171	12258
578.227	12202
578.284	11828
578.341	12641
578.398	13248
578.454	14128
578.511	16914
578.568	20463
578.625	16150
578.681	12861
578.738	10303
578.794	12601
578.851	12957
578.908	12143
578.964	13549
579.021	13559
579.077	13042
579.134	12480
579.190	12492
579.247	11640
579.303	12481
579.360	10756
579.416	11325
579.473	11148
579.529	10253
579.586	12339
579.642	11882
579.698	11952
579.755	12315
579.811	11751
579.867	11548
579.924	10851
579.980	11356
580.036	12641
580.093	12220
580.149	12962
580.205	12778
580.261	12246
580.317	13731
580.374	16159
580.430	17313
580.486	16760
580.542	13459
580.598	13774
580.619	13940
580.654	14243
580.692	13566
580.710	13246
580.765	12571
580.767	12560
580.823	13033
580.838	12946
580.879	12727
580.911	12953
580.935	13147
580.984	12570
580.991	12498
581.047	13235
581.057	13105
581.103	12608
581.130	12355
581.159	12081
581.203	13143
581.215	13437
581.270	13422
581.276	13396
581.326	13170
581.349	13228
581.382	13410
581.422	13096
581.438	12941
581.494	13723
581.494	13714
581.550	13424
581.567	13861
581.606	14759
581.640	13896
581.661	13389
581.713	14684
581.717	14790
581.773	12486
581.786	12705
581.829	13467
581.859	13331
581.885	13233
581.932	13427
581.940	13474
581.996	14357
582.004	14331
582.052	14053
582.077	13820
582.107	13724
582.150	13968
582.163	13983
582.219	14190
582.223	14167
582.274	14155
582.296	14633
582.330	15266
582.368	15148
582.386	15109
582.441	14196
582.441	14196
582.497	13008
582.514	12938
582.552	12950
582.587	13570
582.608	13920
582.659	13878
582.663	13870
582.719	13848
582.732	14042
582.774	14710
582.805	14550
582.830	14487
582.877	14198
582.885	14109
582.941	13842
582.950	13797
582.996	13785
583.023	14530
583.052	15336
583.095	14405
583.107	14212
583.162	14826
583.168	14943
583.218	15302
583.240	14589
583.273	13763
583.313	14806
583.328	15250
583.384	14868
583.385	14843
583.439	13900
583.458	14013
583.494	14249
583.531	13963
583.549	13993
583.603	14467
583.605	14459
583.660	14418
583.676	14480
583.715	15131
583.748	15326
583.770	15392
583.820	15865
583.825	15888
583.881	15795
583.893	15658
583.936	15188
583.965	15425
583.991	15709
584.038	15917
584.046	15936
584.101	15391
584.110	15449
584.156	15867
584.183	15738
584.211	15454
584.255	15326
584.266	15377
584.321	15149
584.328	15288
584.376	16321
584.400	16173
584.431	16032
584.472	16118
584.486	16039
584.541	16838
584.545	16800
584.596	16814
584.617	16993
584.651	17343
584.689	18361
584.706	18668
584.761	18225
584.762	18222
584.816	18377
584.834	18645
584.871	19477
584.906	19279
584.926	19061
584.978	19618
584.980	19672
585.035	20816
585.051	21455
585.090	23018
585.123	24437
585.145	25449
585.195	26566
585.200	26717
585.254	29652
585.267	30419
585.309	33590
585.340	36435
585.364	38620
585.412	42206
585.419	42811
585.473	48635
585.484	50332
585.528	62220
585.556	73692
585.583	99840
585.628	162719
585.637	186995
585.692	393089
585.700	428147
585.747	536508
585.772	459100
585.801	284265
585.845	97401
585.856	77905
585.910	46384
585.917	43296
585.965	36488
585.989	33533
586.019	31230
586.061	29197
586.074	28979
586.128	29371
586.133	29419
586.183	30911
586.205	31439
586.237	31421
586.277	30742
586.292	30587
586.346	29990
586.349	29957
586.401	29795
586.421	29860
586.455	31425
586.493	34565
586.509	38176
586.564	50982
586.565	51456
586.618	78424
586.637	80713
586.672	64958
586.709	45863
586.727	41180
586.781	38011
586.781	38035
586.835	33696
586.853	32541
586.889	31295
586.925	30697
586.944	30748
586.996	31315
586.998	31380
587.052	32122
587.068	32447
587.106	32676
587.140	32614
587.161	32992
587.212	34317
587.215	34421
587.269	35658
587.284	35875
587.323	36028
587.356	36139
587.377	36669
587.427	38697
587.431	38853
587.485	39435
587.499	39645
587.539	40709
587.571	41661
587.593	42726
587.643	45031
587.648	45325
587.702	48039
587.715	48795
587.755	51354
587.786	52666
587.810	53540
587.858	55611
587.864	56096
587.917	60380
587.930	61491
587.971	66934
588.001	71014
588.025	73411
588.073	76778
588.079	77534
588.133	84432
588.145	86207
588.187	95256
588.217	101490
588.241	107797
588.288	120324
588.295	122476
588.348	142869
588.360	146878
588.402	164662
588.431	177929
588.456	191759
588.503	220546
588.510	225824
588.564	269234
588.575	278907
588.617	330252
588.646	368312
588.671	419478
588.718	527614
588.725	557907
588.778	811073
588.789	870025
588.832	1279993
588.861	1584456
588.886	1857169
588.932	2346812
588.939	2354100
588.993	2194635
589.004	2169763
589.047	1931734
589.075	1683933
589.100	1373883
589.147	832836
589.154	799103
589.207	587828
589.218	548626
589.261	506877
589.290	486195
589.314	508767
589.361	564890
589.368	594015
589.421	854874
589.433	917000
589.475	1372891
589.504	1716136
589.528	1894742
589.576	2132308
589.582	2094556
589.635	1648837
589.647	1532329
589.689	982465
589.718	623846
589.742	510268
589.790	317479
589.795	309083
589.849	239727
589.861	224927
589.902	202143
589.932	183800
589.955	165452
590.004	127245
590.009	125774
590.062	110769
590.075	106947
590.115	98398
590.146	91992
590.168	89540
590.218	83744
590.222	83485
590.275	78592
590.289	77295
590.328	75578
590.360	73587
590.381	71783
590.431	67260
590.435	67236
590.488	65017
590.503	64359
590.541	63104
590.574	61633
590.594	60933
590.645	58822
590.647	58866
590.700	57115
590.716	56456
590.753	55811
590.787	55098
590.806	54702
590.859	53253
590.859	53340
590.912	52201
590.930	51771
590.965	51876
591.001	51802
591.018	51732
591.071	51104
591.072	50991
591.124	50835
591.143	50694
591.177	51245
591.214	51556
591.230	51783
591.283	52410
591.285	52316
591.336	54887
591.356	55880
591.389	55152
591.427	53678
591.442	52773
591.495	49144
591.498	48767
591.547	47701
591.569	47200
591.600	47307
591.640	47085
591.653	47442
591.706	48590
591.711	48611
591.759	51499
591.782	52876
591.811	54810
591.853	57280
591.864	56220
591.917	49863
591.924	48856
591.969	48364
591.995	47987
592.022	49102
592.066	50531
592.075	51505
592.127	56949
592.137	57851
592.180	62989
592.208	65919
592.233	60951
592.279	50978
592.285	50992
592.338	50358
592.350	50100
592.390	48836
592.421	47694
592.443	48226
592.491	49073
592.495	49177
592.548	49108
592.562	48991
592.600	49529
592.633	49779
592.653	49189
592.704	47114
592.705	47438
592.775	50160
592.846	50622
592.916	52779
592.987	56117
593.058	52762
593.128	49226
593.199	48208
593.270	47198
593.341	48046
593.411	50627
593.482	51482
593.553	50021
593.623	50289
593.694	52465
593.764	57408
593.835	51373
593.906	49610
593.976	52446
594.047	56156
594.117	64718
594.188	64735
594.258	53651
594.329	52755
594.399	53863
594.470	54539
594.540	54934
594.611	56223
594.681	55582
594.751	58842
594.822	61097
594.892	63483
594.963	63414
595.033	63875
595.103	66214
595.174	70617
595.244	95314
595.314	109362
595.384	70717
595.455	67970
595.525	70753
595.595	70632
595.665	72135
595.736	69802
595.806	69956
595.876	71088
595.946	69951
596.016	72547
596.087	74402
596.157	74665
596.227	74144
596.297	78839
596.367	83551
596.437	91422
596.507	109257
596.577	121899
596.647	91396
596.717	89786
596.787	92096
596.857	90789
596.927	91181
596.997	90979
597.067	92080
597.137	94240
597.207	95114
597.277	95148
597.347	91761
597.417	90178
597.487	90554
597.557	93186
597.626	95743
597.696	102039
597.766	109274
597.836	123610
597.906	92429
597.975	84265
598.045	85265
598.115	87797
598.185	92503
598.254	104470
598.324	112304
598.394	114246
598.464	110912
598.533	105582
598.603	99026
598.672	99670
598.742	99774
598.812	100281
598.881	100728
598.951	99769
599.020	100211
599.090	104468
599.159	106642
599.229	100960
599.299	100403
599.368	103826
599.437	100297
599.507	95188
599.576	93684
599.646	91379
599.715	88937
599.785	91196
599.854	91186
599.924	95522
599.993	90801
600.062	87797
600.132	89227
600.201	97939
600.270	109847
600.340	113222
600.409	108135
600.478	106722
600.547	109763
600.617	101743
600.686	84312
600.755	80070
600.824	79826
600.894	74231
600.963	72664
601.032	71106
601.101	71437
601.170	67735
601.239	68628
601.308	73219
601.378	70044
601.447	67856
601.516	67710
601.585	72320
601.654	77966
601.723	70995
601.792	70705
601.861	73834
601.930	78289
601.999	81798
602.068	77276
602.137	86547
602.206	84431
602.275	80498
602.343	90188
602.412	88682
602.481	78643
602.550	79653
602.619	80461
602.688	82472
602.756	80825
602.825	80125
602.894	82282
602.963	84167
603.032	85720
603.100	85197
603.169	84983
603.238	86638
603.307	85430
603.375	85735
603.444	87789
603.513	89360
603.581	90193
603.650	92163
603.719	88984
603.787	91941
603.856	94160
603.924	97322
603.993	100742
604.061	101826
604.130	105920
604.198	109444
604.267	108153
604.335	111015
604.404	112573
604.472	111889
604.541	115508
604.609	114534
604.678	116341
604.746	115825
604.815	119282
604.883	121339
604.951	122136
605.020	122501
605.088	126751
605.156	126823
605.225	130115
605.293	128045
605.361	130196
605.429	131973
605.498	135160
605.566	140051
605.634	144959
605.702	147591
605.771	151602
605.839	152198
605.907	148314
605.975	143247
606.043	140098
606.111	140266
606.180	140269
606.248	138914
606.316	139027
606.384	143007
606.452	151846
606.520	159394
606.588	150115
606.656	146190
606.724	142547
606.792	134155
606.860	121228
606.928	110151
606.996	106870
607.064	105470
607.132	107985
607.200	114632
607.267	117278
607.335	120192
607.403	122108
607.471	118094
607.539	115667
607.607	115885
607.674	102829
607.742	105983
607.810	107386
607.878	106215
607.946	104935
608.013	110098
608.081	114125
608.149	115273
608.216	116676
608.284	121285
608.352	122221
608.419	122021
608.487	133478
608.555	119849
608.622	117501
608.690	124875
608.757	136273
608.825	140340
608.893	138395
608.960	137083
609.028	138864
609.095	144652
609.163	126494
609.230	112635
609.298	102634
609.365	107745
609.432	115995
609.500	125327
609.567	144699
609.635	163375
609.702	170247
609.769	164469
609.837	133431
609.904	113956
609.971	117920
610.039	140771
610.106	198839
610.173	416512
610.241	954461
610.308	458792
610.375	157029
610.442	123449
610.509	115783
610.577	115092
610.644	115682
610.711	118760
610.778	123079
610.845	126466
610.912	133845
610.980	140060
611.047	141455
611.114	140095
611.181	133149
611.248	131657
611.315	140403
611.382	141948
611.449	147380
611.516	149069
611.583	147234
611.650	150021
611.717	156253
611.784	158930
611.851	170134
611.918	191839
611.984	234214
612.051	364944
612.118	804256
612.185	1968806
612.252	1056406
612.319	261741
612.386	206638
612.452	185660
612.519	179078
612.586	189863
612.653	178106
612.719	176653
612.786	168283
612.853	154172
612.919	150138
612.986	154379
613.053	142995
613.120	135736
613.186	130363
613.253	134333
613.319	133906
613.386	133947
613.453	138471
613.519	143715
613.586	153232
613.652	172997
613.719	158583
613.785	151248
613.852	138141
613.918	136127
613.985	138998
614.051	149146
614.118	160449
614.184	151376
614.250	135625
614.317	138661
614.383	135846
614.449	138419
614.516	137558
614.582	142213
614.648	134277
614.715	135081
614.781	132799
614.847	132599
614.914	134341
614.980	129660
615.046	130112
615.112	132989
615.179	133455
615.245	138835
615.311	140721
615.377	160285
615.443	159533
615.509	147012
615.575	147253
615.642	146545
615.708	153208
615.774	163755
615.840	179845
615.906	206205
615.972	280872
616.038	476982
616.104	1016641
616.170	2373266
616.236	1744801
616.302	400769
616.368	288715
616.434	203160
616.500	187660
616.565	213899
616.631	270634
616.697	211984
616.763	228301
616.829	371611
616.895	673427
616.961	588670
617.026	232935
617.092	159515
617.158	146385
617.224	141849
617.289	130663
617.355	124584
617.421	124528
617.487	123704
617.552	114387
617.618	114441
617.684	114030
617.749	116533
617.815	110118
617.880	108604
617.946	108772
618.012	111545
618.077	111563
618.143	107371
618.208	107369
618.274	117488
618.339	116138
618.405	96786
618.470	98675
618.536	100095
618.601	102436
618.667	92803
618.732	88355
618.798	86826
618.863	87952
618.928	85914
618.994	89034
619.059	94590
619.124	113777
619.190	93899
619.255	85502
619.320	87635
619.386	84852
619.451	82956
619.516	80682
619.581	82902
619.647	84335
619.712	83356
619.777	80674
619.842	82608
619.907	85272
619.972	86570
620.038	86423
620.103	81237
620.168	79497
620.233	81283
620.298	82114
620.363	82410
620.428	85091
620.493	87211
620.558	87246
620.623	88540
620.688	87017
620.753	86475
620.818	88580
620.883	90257
620.948	90400
621.013	88001
621.078	87498
621.143	89339
621.207	94417
621.272	92182
621.337	92017
621.402	94999
621.467	105548
621.532	105286
621.596	93744
621.661	87623
621.726	84474
621.791	86474
621.855	88743
621.920	90876
621.985	96167
622.049	102000
622.114	98111
622.179	93080
622.243	95019
622.308	95303
622.373	100408
622.437	96722
622.502	91358
622.566	91840
622.631	90929
622.695	92835
622.760	94069
622.824	93095
622.889	94111
622.953	101032
623.018	127582
623.082	121916
623.147	98711
623.211	95453
623.276	96895
623.340	89511
623.404	86502
623.469	86256
623.533	87358
623.597	86150
623.662	84844
623.726	79141
623.790	75015
623.854	74912
623.919	76958
623.983	77327
624.047	79132
624.111	77834
624.176	81182
624.240	86347
624.304	90121
624.368	79452
624.432	80094
624.496	83956
624.560	93964
624.625	96234
624.689	86244
624.753	88649
624.817	83636
624.881	82086
624.945	75800
625.009	74611
625.073	75937
625.137	83118
625.201	96004
625.265	92097
625.329	78714
625.393	83609
625.456	81585
625.520	85049
625.584	92960
625.648	103732
625.712	138208
625.776	254263
625.839	261590
625.903	111962
625.967	81731
626.031	119335
626.095	167891
626.158	84644
626.222	61391
626.286	58955
626.349	55248
626.413	52732
626.477	57796
626.540	55243
626.604	53584
626.668	53577
626.731	52685
626.795	54324
626.858	54323
626.922	51644
626.986	51930
627.049	51260
627.113	53466
627.176	50492
627.240	49133
627.303	51315
627.366	50001
627.430	52354
627.493	50742
627.557	51188
627.620	51881
627.684	53347
627.747	53829
627.810	49056
627.874	45728
627.937	44798
628.000	48167
628.064	47024
628.127	39729
628.190	42115
628.253	40981
628.317	39982
628.380	38185
628.443	38736
628.506	39007
628.569	36579
628.632	34502
628.696	34620
628.759	34610
628.822	33616
628.885	33512
628.948	33618
629.011	33502
629.074	34546
629.137	31550
629.200	32162
629.263	34936
629.326	30280
629.389	30704
629.452	31169
629.515	32624
629.578	31185
629.641	34518
629.704	32018
629.767	32515
629.830	29890
629.892	29798
629.955	29823
630.018	33509
630.081	36428
630.144	42746
630.207	33455
630.269	35513
630.332	35795
630.395	30717
630.458	28389
630.520	27335
630.583	28387
630.646	28597
630.708	27735
630.771	27575
630.834	29444
630.896	28249
630.959	29000
631.021	27590
631.084	30125
631.146	32825
631.209	36333
631.272	28797
631.334	29027
631.397	30156
631.459	30239
631.522	33048
631.584	33497
631.646	35560
631.709	38574
631.771	45697
631.834	36683
631.896	32111
631.958	28513
632.021	30039
632.083	27079
632.145	29017
632.208	28244
632.270	29125
632.332	26424
632.395	26301
632.457	28067
632.519	25650
632.581	26934
632.643	24843
632.706	27477
632.768	24354
632.830	26423
632.892	25724
632.954	26430
633.016	27404
633.078	26431
633.141	26575
633.203	25976
633.265	25644
633.327	26705
633.389	27007
633.451	31277
633.513	35889
633.575	34774
633.637	34935
633.698	31714
633.760	28806
633.822	29635
633.884	29881
633.946	30274
634.008	30937
634.070	31968
634.132	35547
634.193	38069
634.255	42002
634.317	42715
634.379	42606
634.441	36056
634.502	32166
634.564	30959
634.626	29274
634.687	27845
634.749	26362
634.811	26118
634.873	23889
634.934	25886
634.996	25475
635.057	25356
635.119	25553
635.181	26351
635.242	27986
635.304	24789
635.365	28081
635.427	26052
635.488	27682
635.550	25653
635.611	27593
635.673	25905
635.734	30512
635.796	31493
635.857	35542
635.918	35578
635.980	40203
636.041	42036
636.102	46110
636.164	46613
636.225	43995
636.286	36645
636.348	33926
636.409	30680
636.470	27990
636.531	28597
636.593	28117
636.654	27653
636.715	23657
636.776	22677
636.838	21604
636.899	23401
636.960	22754
637.021	21290
637.082	21534
637.143	21917
637.204	18762
637.265	20051
637.326	21237
637.387	21223
637.448	19683
637.509	21341
637.570	20636
637.631	20294
637.692	18620
637.753	18198
637.814	19750
637.875	19232
637.936	19608
637.997	19922
638.058	20497
638.119	20911
638.179	19202
638.240	18823
638.301	19222
638.362	18553
638.423	18696
638.483	19646
638.544	16773
638.605	18220
638.666	16813
638.726	18472
638.787	18569
638.848	17573
638.908	16686
638.969	18276
639.030	17406
639.090	16735
639.151	18133
639.211	20577
639.272	26359
639.332	39411
639.393	24166
639.453	19920
639.514	21015
639.574	17881
639.635	15652
639.695	17202
639.756	17006
639.816	20247
639.877	23909
639.937	39459
639.997	46948
640.058	19976
640.118	15890
640.178	16719
640.239	15247
640.299	16356
640.359	15568
640.420	18008
640.480	19612
640.540	23226
640.600	21785
640.661	21783
640.721	20886
640.781	26666
640.841	17897
640.901	17512
640.961	18083
641.021	20266
641.082	24492
641.142	31496
641.202	19546
641.262	14464
641.322	15540
641.382	14412
641.442	15296
641.502	15002
641.562	16026
641.622	16089
641.682	17562
641.742	20474
641.802	19295
641.861	18407
641.921	18652
641.981	20806
642.041	19115
642.101	24130
642.161	15731
642.221	14655
642.280	13616
642.340	14490
642.400	13179
642.460	15490
642.519	13765
642.579	15877
642.639	15395
642.698	13299
642.758	17013
642.818	16137
642.877	15279
642.937	17686
642.997	20085
643.056	27181
643.116	16889
643.175	17396
643.235	15829
643.294	17028
643.354	18233
643.414	21461
643.473	25766
643.532	32873
643.592	46859
643.651	78542
643.711	142571
643.770	295393
643.830	744294
643.889	1407143
643.948	277284
644.008	53043
644.067	33411
644.126	25259
644.186	22243
644.245	19554
644.304	17121
644.363	18315
644.423	15018
644.482	16784
644.541	17235
644.600	17892
644.659	24468
644.719	30307
644.778	48489
644.837	84117
644.896	181573
644.955	390799
645.014	105057
645.073	26659
645.132	20409
645.191	18631
645.250	17782
645.309	19036
645.368	20379
645.427	28026
645.486	45971
645.545	72590
645.604	22501
645.663	16827
645.722	17211
645.781	19640
645.840	21885
645.898	29917
645.957	46355
646.016	71095
646.075	136306
646.134	276052
646.192	782209
646.251	980511
646.310	124943
646.369	39431
646.427	31621
646.486	21683
646.545	18722
646.603	17496
646.662	15793
646.721	15689
646.779	14974
646.838	17176
646.896	22048
646.955	29797
647.014	48658
647.072	96246
647.131	253179
647.189	99739
647.248	18354
647.306	15069
647.365	13392
647.423	11524
647.481	13343
647.540	11888
647.598	11814
647.657	10623
647.715	12287
647.773	9609
647.832	11324
647.890	9858
647.948	10685
648.007	11666
648.065	9693
648.123	10808
648.181	12622
648.240	11410
648.298	8569
648.356	9897
648.414	10793
648.472	10620
648.531	10187
648.589	10809
648.647	9414
648.705	10087
648.763	10839
648.821	11789
648.879	11743
648.937	13409
648.995	18026
649.053	23392
649.111	36648
649.169	61750
649.227	113667
649.285	247111
649.343	680048
649.401	264638
649.459	69399
649.516	38224
649.574	21006
649.632	27290
649.690	27948
649.748	26794
649.806	35675
649.863	66531
649.921	180493
649.979	98485
650.037	16903
650.094	10422
650.152	10841
650.210	9767
650.268	9532
650.325	10530
650.383	10692
650.440	8635
650.498	8506
650.556	8724
650.613	7493
650.671	9330
650.728	9957
650.786	11107
650.843	12463
650.901	8402
650.958	8433
651.016	8465
651.073	7030
651.131	7560
651.188	7640
651.246	8053
651.303	6417
651.360	7788
651.418	8163
651.475	7203
651.532	6515
651.590	7340
651.647	6504
651.704	7708
651.762	7811
651.819	8773
651.876	7089
651.933	7671
651.990	6942
652.048	6225
652.105	6998
652.162	7944
652.219	5589
652.276	6893
652.333	6633
652.390	6054
652.448	6814
652.505	6780
652.562	6316
652.619	6345
652.676	7569
652.733	7809
652.790	6592
652.847	5534
652.904	6870
652.961	5592
653.017	5596
653.074	6598
653.131	7416
653.188	5957
653.245	6666
653.302	6799
653.359	6296
653.415	6773
653.472	5185
653.529	7010
653.586	5120
653.642	6258
653.699	6396
653.756	5708
653.813	5453
653.869	6508
653.926	5496
653.983	5384
654.039	6096
654.096	5684
654.152	7206
654.209	5241
654.266	6387
654.322	6447
654.379	8183
654.435	8534
654.492	9699
654.548	14432
654.605	21588
654.661	9502
654.717	6811
654.774	7555
654.830	7422
654.887	7330
654.943	7101
655.000	7565
655.056	6900
655.112	7553
655.168	7163
655.225	6814
655.281	9123
655.337	12273
655.394	20315
655.450	14136
655.506	11868
655.562	20244
655.618	15385
655.675	6714
655.731	6399
655.787	6576
655.843	6503
655.899	6110
655.955	7496
656.011	7304
656.067	5753
656.123	7436
656.179	7453
656.235	7494
656.291	6059
656.347	8449
656.403	6651
656.459	8273
656.515	9223
656.571	8341
656.627	7192
656.683	7356
656.739	7020
656.795	6984
656.850	7688
656.906	9575
656.962	7602
657.018	5436
657.074	6838
657.129	8794
657.185	12269
657.241	22462
657.297	11520
657.352	6957
657.408	6206
657.464	7580
657.519	6492
657.575	5279
657.630	5508
657.686	5343
657.742	5319
657.797	5477
657.853	4828
657.908	6596
657.964	4598
658.019	5573
658.075	4927
658.130	6010
658.186	4601
658.241	6107
658.297	4844
658.352	5537
658.407	4936
658.463	4747
658.518	5401
658.573	5807
658.629	4499
658.684	5145
658.739	5266
658.795	5052
658.850	5813
658.905	5186
658.960	4833
659.016	5080
659.071	5204
659.126	6410
659.181	6574
659.236	12866
659.291	13226
659.346	7239
659.401	7113
659.457	6209
659.512	5261
659.567	6253
659.622	5774
659.677	5404
659.732	4923
659.787	6172
659.842	7971
659.897	9449
659.952	6408
660.007	5202
660.061	5873
660.116	5251
660.171	4222
660.226	4836
660.281	5197
660.336	4122
660.391	5525
660.445	4665
660.500	4893
660.555	5638
660.610	4870
660.664	5508
660.719	4863
660.774	5739
660.828	5746
660.883	6148
660.938	5867
660.992	3693
661.047	4390
661.101	4737
661.156	4443
661.211	4820
661.265	4215
661.320	5804
661.374	4369
661.429	4992
661.483	5131
661.538	4683
661.592	4382
661.647	5289
661.701	6166
661.755	5298
661.810	5534
661.864	4206
661.919	3902
661.973	6378
662.027	4957
662.081	4742
662.136	4627
662.190	6144
662.244	5567
662.299	5171
662.353	5203
662.407	5345
662.461	5209
662.515	5848
662.569	5454
662.624	5264
662.678	4954
662.732	5811
662.786	4833
662.840	6009
662.894	4834
662.948	5303
663.002	4962
663.056	4991
663.110	4067
663.164	5241
663.218	4576
663.272	5123
663.326	6194
663.380	6796
663.434	5344
663.488	4515
663.542	5802
663.595	4983
663.649	5115
663.703	5236
663.757	5028
663.811	5182
663.864	4659
663.918	5398
663.972	5252
664.026	4822
664.079	5096
664.133	5147
664.187	4860
664.240	4464
664.294	4689
664.348	5880
664.401	4282
664.455	4925
664.508	4446
664.562	5227
664.615	4720
664.669	4878
664.722	4381
664.776	5474
664.829	4537
664.883	4809
664.936	4380
664.990	5520
665.043	5902
665.097	6301
665.150	5979
665.203	5442
665.257	5575
665.310	5472
665.363	5659
665.417	5957
665.470	5259
665.523	6201
665.576	5979
665.630	5293
665.683	5743
665.736	6136
665.789	5426
665.842	6547
665.895	5565
665.949	5249
666.002	5586
666.055	5913
666.108	5971
666.161	5714
666.214	6146
666.267	5592
666.320	7884
666.373	6137
666.426	6805
666.479	6034
666.532	8210
666.585	8525
666.638	9644
666.691	8439
666.744	8973
666.796	8743
666.849	8303
666.902	6042
666.955	5440
667.008	5583
667.060	4202
667.113	4942
667.166	4462
667.219	5543
667.271	5043
667.324	6067
667.377	4856
667.430	5466
667.482	5701
667.535	5672
667.587	6186
667.640	7691
667.693	8660
667.745	15233
667.798	13057
667.850	7492
667.903	6135
667.955	5672
668.008	5657
668.060	7492
668.113	6802
668.165	6759
668.218	6383
668.270	6631
668.322	5996
668.375	5782
668.427	5858
668.479	5954
668.532	6604
668.584	5972
668.636	5689
668.689	6063
668.741	5849
668.793	6901
668.845	5749
668.898	6572
668.950	5599
669.002	6653
669.054	5393
669.106	5940
669.158	6450
669.211	5716
669.263	5965
669.315	6499
669.367	6506
669.419	6876
669.471	8460
669.523	8986
669.575	10742
669.627	8625
669.679	7113
669.731	7237
669.783	7326
669.835	8406
669.886	7646
669.938	6415
669.990	5313
670.042	4954
670.094	5523
670.146	5969
670.197	5890
670.249	7210
670.301	7354
670.353	9650
670.404	11580
670.456	14142
670.508	19745
670.560	30362
670.611	48886
670.663	82627
670.715	207213
670.766	291086
670.818	69766
670.869	14862
670.921	10468
670.972	9934
671.024	7816
671.075	8038
671.127	6328
671.178	7571
671.230	6475
671.281	7615
671.333	6991
671.384	8886
671.436	10896
671.487	13157
671.538	16755
671.590	24641
671.641	37680
671.692	66105
671.744	117581
671.795	65549
671.846	24308
671.897	13155
671.949	11634
672.000	9108
672.051	7573
672.102	7779
672.153	6981
672.204	7493
672.256	6793
672.307	6078
672.358	6290
672.409	7216
672.460	5691
672.511	6114
672.562	6074
672.613	6267
672.664	5880
672.715	6276
672.766	5110
672.817	5325
672.868	5933
672.919	5940
672.970	5328
673.021	5825
673.071	5170
673.122	5591
673.173	5227
673.224	5996
673.275	4532
673.326	5141
673.376	4453
673.427	6126
673.478	5312
673.528	6176
673.579	6002
673.630	4943
673.680	5933
673.731	4511
673.782	3883
673.832	5413
673.883	5712
673.934	4822
673.984	4650
674.035	4713
674.085	5628
674.136	6637
674.186	6419
674.237	8986
674.287	12589
674.338	6497
674.388	4828
674.438	6717
674.489	6284
674.539	6163
674.589	6018
674.640	5680
674.690	5543
674.740	5768
674.791	6262
674.841	5996
674.891	6289
674.942	5791
674.992	5466
675.042	4574
675.092	4148
675.142	5240
675.193	4359
675.243	5124
675.293	5225
675.343	4699
675.393	5025
675.443	5555
675.493	4967
675.543	4163
675.593	5416
675.643	4702
675.693	5318
675.743	5155
675.793	4475
675.843	5299
675.893	4189
675.943	5142
675.993	4226
676.043	4474
676.093	4831
676.142	4070
676.192	4782
676.242	5007
676.292	4804
676.341	5167
676.391	4830
676.441	3807
676.491	4784
676.540	3997
676.590	3743
676.640	4393
676.689	3776
676.739	3938
676.789	3516
676.838	3796
676.888	3570
676.937	3866
676.987	3697
677.037	3878
677.086	3416
677.136	4330
677.185	4096
677.235	4005
677.284	3509
677.333	3557
677.383	2989
677.432	3728
677.482	3226
677.531	5020
677.580	3542
677.630	3584
677.679	2825
677.728	4080
677.778	3454
677.827	3670
677.876	3274
677.925	3907
677.975	3761
678.024	4215
678.073	3734
678.122	4475
678.171	4405
678.220	4456
678.269	5541
678.319	5372
678.368	5276
678.417	4458
678.466	4161
678.515	4946
678.564	5184
678.613	4592
678.662	3377
678.711	4353
678.760	4740
678.809	4229
678.857	3705
678.906	4660
678.955	3747
679.004	4390
679.053	3934
679.102	3152
679.151	4224
679.199	2993
679.248	3769
679.297	4335
679.346	4425
679.394	4226
679.443	3447
679.492	4386
679.540	3710
679.589	4231
679.638	3801
679.686	3776
679.735	4496
679.784	4710
679.832	4283
679.881	3715
679.929	3413
679.978	3437
680.026	2809
680.075	3674
680.123	3387
680.172	2792
680.220	3569
680.268	3786
680.317	3034
680.365	3580
680.414	2289
680.462	3488
680.510	3381
680.559	3232
680.607	3033
680.655	3707
680.703	3402
680.752	2741
680.800	3134
680.848	3504
680.896	3472
680.945	3296
680.993	3124
681.041	2493
681.089	2697
681.137	3484
681.185	2869
681.233	2654
681.258	2682
681.281	2672
681.329	3278
681.377	3243
681.380	3279
681.425	3244
681.473	4277
681.502	4089
681.521	3888
681.569	3761
681.617	3707
681.624	3703
681.665	3410
681.713	4036
681.745	3323
681.761	2919
681.809	3277
681.857	4406
681.867	4268
681.904	3676
681.952	4308
681.989	4366
682.000	4324
682.048	4738
682.096	3874
682.111	4022
682.143	4216
682.191	5176
682.233	5007
682.239	4946
682.286	4531
682.334	4506
682.354	4486
682.382	4389
682.430	5264
682.476	4993
682.477	4954
682.525	4570
682.572	4539
682.598	4749
682.620	4882
682.667	5349
682.715	5748
682.720	5731
682.763	5239
682.810	5581
682.841	5577
682.857	5506
682.905	5355
682.952	6166
682.963	5978
683.000	5229
683.047	5968
683.085	6385
683.095	6452
683.142	6136
683.190	5514
683.206	5581
683.237	5673
683.284	6196
683.328	6301
683.332	6274
683.379	5855
683.426	6391
683.449	5987
683.473	5558
683.521	6411
683.568	6331
683.571	6361
683.615	6409
683.662	6437
683.693	6201
683.709	6026
683.757	6242
683.804	6544
683.814	6498
683.851	6212
683.898	7586
683.936	6945
683.945	6779
683.992	6588
684.039	7416
684.057	7582
684.086	7788
684.133	7340
684.179	7741
684.180	7724
684.227	8482
684.274	8714
684.300	8567
684.321	8368
684.368	7643
684.415	8101
684.422	8029
684.462	7525
684.509	7234
684.543	7679
684.556	7823
684.603	8044
684.649	7434
684.665	7522
684.696	7790
684.743	7952
684.786	7856
684.790	7832
684.837	8794
684.883	8966
684.908	9322
684.930	9472
684.977	10095
685.023	8865
685.029	8877
685.070	8746
685.117	8459
685.150	8725
685.164	8897
685.210	9713
685.257	10449
685.272	10186
685.303	9532
685.350	9936
685.393	10165
685.396	10189
685.443	10827
685.490	12151
685.514	12116
685.536	11742
685.583	11300
685.629	11198
685.636	11125
685.675	10741
685.722	10591
685.757	10770
685.768	10842
685.815	10640
685.861	11053
685.878	10925
685.908	10816
685.954	11459
686.000	11991
686.000	11994
686.047	13047
686.093	14543
686.121	14863
686.139	14516
686.185	13147
686.232	11755
686.242	11488
686.278	10824
686.324	10399
686.363	10091
686.370	10102
686.416	10211
686.463	10926
686.484	11127
686.509	11364
686.555	10785
686.601	10574
686.606	10695
686.647	11511
686.693	10258
686.727	10611
686.739	10761
686.785	10729
686.831	11041
686.848	10980
686.877	10824
686.923	10506
686.969	10140
686.969	10137
687.015	10901
687.061	11754
687.090	11372
687.107	11041
687.153	11679
687.199	11354
687.211	11218
687.245	11194
687.291	11607
687.332	12547
687.336	12601
687.382	12447
687.428	12507
687.453	12465
687.474	12315
687.520	12059
687.565	11577
687.574	11370
687.611	10880
687.657	11523
687.695	11717
687.702	11843
687.748	13003
687.794	13374
687.816	13648
687.839	13311
687.885	12971
687.931	11604
687.937	11537
687.976	11965
688.022	12033
688.058	13126
688.067	13316
688.113	12830
688.158	12495
688.179	12528
688.204	12652
688.249	12885
688.295	12809
688.300	12780
688.340	12688
688.386	13455
688.421	13369
688.431	13324
688.477	13272
688.522	13257
688.542	13369
688.567	13566
688.613	14034
688.658	13070
688.663	13122
688.703	13661
688.749	13015
688.784	13505
688.794	13640
688.839	13295
688.884	13551
688.905	13452
688.930	13270
688.975	13479
689.020	13235
689.026	13239
689.065	13476
689.110	13017
689.146	13264
689.155	13334
689.201	13101
689.246	12833
689.267	12954
689.291	13175
689.336	13599
689.381	13207
689.388	13187
689.426	12955
689.471	13142
689.509	13111
689.516	13184
689.561	13108
689.606	13183
689.630	13556
689.651	13816
689.696	13745
689.741	13477
689.750	13537
689.785	13799
689.830	13676
689.871	13484
689.875	13457
689.920	13449
689.965	13593
689.992	12989
690.010	12833
690.054	12904
690.099	13602
690.112	13684
690.144	13781
690.189	13501
690.233	13366
690.233	13383
690.278	13441
690.323	13473
690.354	13411
690.367	13494
690.412	13745
690.457	13756
690.474	13834
690.501	13750
690.546	13566
690.590	12920
690.595	12894
690.635	13040
690.680	13317
690.716	13102
690.724	13169
690.769	13378
690.813	14197
690.836	14401
690.857	14378
690.902	14047
690.946	14344
690.957	14270
690.991	14513
691.035	15124
691.077	15620
691.080	15673
691.124	16193
691.168	16670
691.198	16966
691.213	16872
691.257	16523
691.301	15814
691.318	15714
691.346	15684
691.390	15173
691.434	15075
691.439	15018
691.478	15142
691.522	15650
691.559	15608
691.567	15669
691.611	16211
691.655	16375
691.680	16424
691.699	16251
691.743	16321
691.787	15836
691.800	15763
691.831	15959
691.875	16377
691.919	16664
691.921	16634
691.964	16844
692.008	17453
692.041	17432
692.052	17304
692.096	17524
692.139	17069
692.162	16933
692.183	16919
692.227	16694
692.271	16872
692.282	16736
692.315	16521
692.359	16671
692.402	16449
692.403	16480
692.447	16554
692.490	17106
692.523	17119
692.534	17218
692.578	17168
692.622	17851
692.643	17867
692.666	17480
692.709	16887
692.753	16535
692.763	16367
692.797	16310
692.840	16208
692.884	15972
692.884	16004
692.928	16032
692.971	16493
693.004	16441
693.015	16415
693.059	16703
693.102	16700
693.124	16643
693.146	16815
693.189	16980
693.233	17585
693.245	17623
693.276	17727
693.320	17987
693.363	17788
693.365	17768
693.407	18093
693.450	17818
693.485	17809
693.493	17893
693.537	18162
693.580	18364
693.605	18344
693.624	18175
693.667	17949
693.710	17464
693.725	17399
693.753	18314
693.797	19109
693.840	20684
693.845	20730
693.883	19760
693.926	19200
693.966	18439
693.970	18416
694.013	17512
694.056	16941
694.086	16715
694.099	17001
694.142	17296
694.185	17885
694.206	17911
694.229	18112
694.272	19210
694.315	19776
694.326	19842
694.358	19842
694.401	19889
694.444	20414
694.446	20367
694.487	20064
694.530	19899
694.566	19728
694.573	19606
694.616	18399
694.659	17201
694.686	16693
694.702	16824
694.745	16751
694.787	16609
694.806	16601
694.830	16826
694.873	17024
694.916	17110
694.926	17121
694.959	17185
695.002	17113
695.044	17088
695.046	17053
695.087	17690
695.130	18124
695.166	18496
695.172	18544
695.215	18507
695.258	18663
695.286	18524
695.301	18418
695.343	18211
695.386	17839
695.406	17636
695.428	17849
695.471	18307
695.514	18620
695.526	18638
695.556	18864
695.599	19498
695.641	19727
695.646	19740
695.684	19411
695.726	18634
695.766	18135
695.769	18197
695.811	18554
695.854	18499
695.886	18725
695.896	18785
695.938	18400
695.981	18406
696.005	18275
696.023	18540
696.065	19016
696.108	19685
696.125	19850
696.150	19918
696.192	19944
696.235	19894
696.245	19881
696.277	19764
696.319	19517
696.361	19213
696.365	19141
696.404	18897
696.446	18557
696.485	18182
696.488	18268
696.530	18769
696.572	19342
696.604	19715
696.614	19660
696.656	19190
696.698	18875
696.724	18526
696.740	18648
696.783	18773
696.825	19105
696.844	19164
696.867	19414
696.909	19972
696.951	20145
696.964	20267
696.992	20074
697.034	19462
697.076	18913
697.083	18769
697.118	19470
697.160	20365
697.202	21112
697.203	21081
697.244	20719
697.286	20218
697.323	19670
697.327	19730
697.369	19847
697.411	20015
697.442	20023
697.453	20185
697.494	20713
697.536	21222
697.562	21438
697.578	21526
697.620	21678
697.661	21859
697.682	21849
697.703	22282
697.744	23099
697.786	23898
697.801	24103
697.828	24015
697.869	23828
697.911	23649
697.921	23545
697.952	22964
697.994	22121
698.035	21206
698.040	21045
698.077	20917
698.118	20713
698.160	20490
698.160	20434
698.201	20609
698.243	20722
698.279	20754
698.284	20867
698.325	21446
698.367	22021
698.399	22351
698.408	22278
698.449	21751
698.491	21200
698.518	20740
698.532	20810
698.573	20903
698.614	20966
698.638	20973
698.656	21128
698.697	21323
698.738	21545
698.757	21581
698.779	21790
698.820	22096
698.862	22391
698.877	22446
698.903	22656
698.944	22888
698.985	23129
698.996	23134
699.026	22875
699.067	22432
699.116	21847
699.235	21866
699.354	21679
699.474	23033
699.593	24755
699.713	22350
699.832	22222
699.951	23540
700.070	23117
700.190	20910
700.309	22059
700.428	23539
700.547	20977
700.667	21788
700.786	22176
700.905	20770
701.024	22661
701.143	19697
701.262	19098
701.381	20774
701.500	21242
701.619	23439
701.738	19285
701.857	19289
701.976	18421
702.095	18740
702.214	21848
702.333	21925
702.452	20264
702.571	18131
702.690	18570
702.809	19584
702.928	18290
703.047	18758
703.165	18352
703.284	18157
703.403	18618
703.522	21745
703.640	20978
703.759	25497
703.878	30809
703.997	19311
704.115	17938
704.234	18347
704.353	17746
704.471	17033
704.590	16149
704.708	16457
704.827	15902
704.946	16850
705.064	18039
705.183	17141
705.301	20566
705.420	28202
705.538	24138
705.656	20640
705.775	20359
705.893	23465
706.012	24621
706.130	22243
706.249	23222
706.367	23541
706.485	23949
706.604	22733
706.722	24176
706.840	29064
706.958	27352
707.077	22215
707.195	20123
707.313	20529
707.431	19198
707.549	19127
707.668	19495
707.786	21153
707.904	19923
708.022	19713
708.140	18656
708.258	19708
708.376	19938
708.494	19769
708.612	22332
708.730	31344
708.848	27968
708.966	26164
709.084	25475
709.202	23311
709.320	24570
709.438	24999
709.556	26118
709.674	24091
709.791	22988
709.909	22399
710.027	23868
710.145	23242
710.263	23171
710.380	23941
710.498	21949
710.616	22392
710.733	23298
710.851	22833
710.969	25044
711.086	22415
711.204	22271
711.322	23026
711.439	21776
711.557	22514
711.674	22190
711.792	21395
711.909	21577
712.027	20802
712.144	20176
712.262	21321
712.379	24122
712.497	34245
712.614	31598
712.732	28230
712.849	26599
712.966	30253
713.084	35344
713.201	27355
713.318	27998
713.436	26862
713.553	27143
713.670	29359
713.787	30861
713.905	30170
714.022	26556
714.139	28645
714.256	34835
714.373	45041
714.490	77174
714.608	211378
714.725	860438
714.842	616236
714.959	54095
715.076	33275
715.193	28546
715.310	27068
715.427	24117
715.544	23475
715.661	23879
715.778	23486
715.895	26412
716.011	25890
716.128	22881
716.245	25009
716.362	28752
716.479	28037
716.596	23098
716.713	22864
716.829	23098
716.946	22085
717.063	21558
717.180	20663
717.296	20452
717.413	20836
717.530	20518
717.646	19809
717.763	19633
717.880	18951
717.996	19495
718.113	19987
718.229	20148
718.346	18667
718.462	20776
718.579	27345
718.695	43902
718.812	31667
718.928	29431
719.045	20190
719.161	18242
719.277	18686
719.394	18576
719.510	20025
719.626	21471
719.743	27155
719.859	34294
719.975	65122
720.092	261496
720.208	451781
720.324	48676
720.440	23717
720.557	26065
720.673	39080
720.789	50568
720.905	94648
721.021	26466
721.137	18405
721.253	19014
721.369	18949
721.486	23463
721.602	29028
721.718	16940
721.834	15679
721.950	17435
722.066	16253
722.181	15616
722.297	18421
722.413	15736
722.529	16831
722.645	16336
722.761	15219
722.877	14491
722.993	15679
723.108	17891
723.224	16310
723.340	15382
723.456	14461
723.571	15135
723.687	14835
723.803	14335
723.918	14105
724.034	14701
724.150	14166
724.265	18844
724.381	40652
724.497	39032
724.612	14575
724.728	12850
724.843	13798
724.959	18240
725.074	38399
725.190	32994
725.305	15771
725.421	14415
725.536	12005
725.651	12253
725.767	13409
725.882	12684
725.997	12098
726.113	12866
726.228	10905
726.343	11781
726.459	10898
726.574	13133
726.689	11947
726.804	12494
726.920	12043
727.035	13281
727.150	11671
727.265	12137
727.380	12982
727.495	11458
727.610	11325
727.725	11637
727.841	10189
727.956	13479
728.071	14377
728.186	11199
728.301	10554
728.416	12068
728.531	10997
728.645	10522
728.760	13447
728.875	13752
728.990	13378
729.105	12489
729.220	12202
729.335	11531
729.449	10456
729.564	9635
729.679	9435
729.794	10083
729.908	11959
730.023	10634
730.138	8532
730.253	10282
730.367	9031
730.482	9393
730.596	10066
730.711	11223
730.826	11045
730.940	11044
731.055	11036
731.169	10407
731.284	9983
731.398	10016
731.513	11924
731.627	11851
731.742	14932
731.856	15486
731.970	12679
732.085	16520
732.199	22698
732.313	37564
732.428	102754
732.542	293498
732.656	125545
732.771	24802
732.885	15889
732.999	15044
733.113	14900
733.227	13655
733.342	12628
733.456	11883
733.570	11001
733.684	11705
733.798	11987
733.912	11547
734.026	10451
734.140	12225
734.254	13678
734.368	24443
734.482	22846
734.596	10485
734.710	10364
734.824	10296
734.938	9912
735.052	10655
735.166	12787
735.280	11853
735.393	10733
735.507	11694
735.621	15708
735.735	26761
735.849	11384
735.962	10444
736.076	11024
736.190	11744
736.303	16516
736.417	17877
736.531	10334
736.644	10237
736.758	9659
736.872	8785
736.985	9177
737.099	7934
737.212	9221
737.326	8261
737.439	9115
737.553	8880
737.666	9129
737.780	9296
737.893	9010
738.007	8044
738.120	8377
738.233	8369
738.347	8216
738.460	8369
738.573	10363
738.687	9399
738.800	10624
738.913	13454
739.026	9330
739.140	8906
739.253	7972
739.366	7718
739.479	8600
739.592	8468
739.705	8612
739.818	8649
739.932	8569
740.045	8568
740.158	8866
740.271	9008
740.384	7322
740.497	8446
740.610	10093
740.723	8640
740.836	9272
740.949	10619
741.062	13780
741.174	10658
741.287	8883
741.400	9202
741.513	9139
741.626	10817
741.739	8820
741.851	8721
741.964	8316
742.077	7837
742.189	8138
742.302	10488
742.415	9505
742.527	8693
742.640	7305
742.753	7724
742.865	6536
742.978	7103
743.090	7519
743.203	8059
743.316	7886
743.428	6477
743.541	6572
743.653	6007
743.766	6546
743.878	7883
743.990	9947
744.103	9631
744.215	8164
744.327	7241
744.440	10635
744.552	15246
744.664	7919
744.777	6991
744.889	5346
745.001	6594
745.113	6169
745.226	6114
745.338	6393
745.450	6211
745.562	5647
745.674	5860
745.786	6375
745.898	6183
746.010	6155
746.122	7102
746.234	6837
746.347	5542
746.459	6126
746.570	5468
746.682	7497
746.794	8093
746.906	6466
747.018	5357
747.130	6628
747.242	5323
747.354	6130
747.466	6396
747.577	5884
747.689	6263
747.801	5599
747.913	5503
748.024	5827
748.136	5458
748.248	5002
748.359	6033
748.471	5819
748.583	5002
748.694	5258
748.806	6280
748.918	8126
749.029	6118
749.141	6271
749.252	7864
749.364	9726
749.475	18279
749.587	9743
749.698	5222
749.809	5155
749.921	4913
750.032	4827
750.144	4850
750.255	4485
750.366	4566
750.478	4820
750.589	6046
750.700	5977
750.811	7201
750.923	8275
751.034	22107
751.145	15219
751.256	5668
751.367	4574
751.479	4033
751.590	4647
751.701	5077
751.812	4098
751.923	4817
752.034	4555
752.145	4297
752.256	4592
752.367	4039
752.478	4373
752.589	4808
752.700	5010
752.811	4176
752.922	5082
753.032	6144
753.143	5793
753.254	3636
753.365	5057
753.476	4407
753.586	4356
753.697	4542
753.808	5431
753.919	3677
754.029	3991
754.140	4652
754.251	4323
754.361	4315
754.472	4000
754.582	4792
754.693	4769
754.804	4539
754.914	3670
755.025	3039
755.135	4301
755.246	4820
755.356	3754
755.466	5427
755.577	4015
755.687	4555
755.798	4621
755.908	4737
756.018	4868
756.129	5022
756.239	3786
756.349	4502
756.460	4791
756.570	5366
756.680	4354
756.790	5365
756.900	6196
757.011	4094
757.121	3960
757.231	4298
757.341	4264
757.451	3731
757.561	3638
757.671	3811
757.781	3537
757.891	4515
758.001	4471
758.111	4392
758.221	4780
758.331	6871
758.441	6565
758.551	9914
758.661	7573
758.771	5759
758.880	5645
758.990	4887
759.100	4402
759.210	4537
759.320	4896
759.429	5541
759.539	4905
759.649	6373
759.758	6050
759.868	7180
759.978	6748
760.087	7216
760.197	7084
760.307	7270
760.416	5462
760.526	5184
760.635	5945
760.745	6547
760.854	6797
760.964	7787
761.073	7700
761.182	7001
761.292	6323
761.401	6795
761.511	5935
761.620	5347
761.729	5007
761.839	5326
761.948	5668
762.057	5116
762.166	4337
762.276	2986
762.385	5707
762.494	4439
762.603	4030
762.712	5773
762.822	5036
762.931	4737
763.040	3679
763.149	4276
763.258	3863
763.367	4475
763.476	5311
763.585	4453
763.694	4316
763.803	5220
763.912	6306
764.021	4577
764.130	4480
764.238	4218
764.347	4305
764.456	4824
764.565	4655
764.674	4847
764.783	3963
764.891	5359
765.000	5468
765.109	4597
765.217	4825
765.326	7440
765.435	7954
765.543	6401
765.652	6378
765.761	6845
765.869	9405
765.978	13381
766.086	23735
766.195	47650
766.303	147747
766.412	485062
766.520	302366
766.629	46347
766.737	19202
766.846	12335
766.954	9875
767.062	9109
767.171	7789
767.279	7265
767.387	5969
767.496	6437
767.604	5688
767.712	6337
767.820	5041
767.928	6131
768.037	5604
768.145	5522
768.253	5924
768.361	5468
768.469	4670
768.577	5274
768.685	5326
768.793	5704
768.901	4682
769.009	5815
769.117	5048
769.225	6394
769.333	8920
769.441	12328
769.549	21234
769.657	51419
769.765	195834
769.873	369009
769.981	71427
770.088	15527
770.196	10492
770.304	8654
770.412	7869
770.519	6622
770.627	7303
770.735	6119
770.842	5350
770.950	5689
771.058	5954
771.165	7191
771.273	6908
771.380	6196
771.488	7072
771.595	6295
771.703	6605
771.810	7197
771.918	5776
772.025	7102
772.133	6734
772.240	6814
772.348	7014
772.455	7726
772.562	7079
772.670	6430
772.777	5674
772.884	6789
772.991	5685
773.099	7249
773.206	5708
773.313	6945
773.420	6275
773.528	6404
773.635	6073
773.742	6663
773.849	6083
773.956	6264
774.063	6115
774.170	6392
774.277	6815
774.384	5812
774.491	6057
774.598	6887
774.705	7444
774.812	8903
774.919	7049
775.026	6123
775.133	6984
775.239	6339
775.346	6125
775.453	5530
775.560	5199
775.667	6279
775.773	4878
775.880	6661
775.987	5432
776.093	6049
776.200	7113
776.307	5816
776.413	5442
776.520	5746
776.627	6867
776.733	6334
776.840	4489
776.946	8729
777.053	7668
777.159	10403
777.266	6382
777.372	10448
777.478	7519
777.585	7459
777.691	5286
777.798	7001
777.904	6388
778.010	10441
778.117	8006
778.223	5569
778.329	5523
778.435	4978
778.542	5540
778.648	4959
778.754	4985
778.860	5278
778.966	5681
779.072	5723
779.178	5657
779.284	4981
779.391	5146
779.497	3629
779.603	6719
779.708	4095
779.815	5208
779.920	6750
780.026	7408
780.132	5113
780.238	4257
780.344	5308
780.450	5693
780.556	4466
780.661	4892
780.767	5199
780.873	4799
780.979	5329
781.085	4683
781.190	4327
781.296	4746
781.402	4721
781.507	4213
781.613	4639
781.719	3987
781.824	4203
781.930	4314
782.035	4796
782.141	4379
782.246	5740
782.352	4841
782.457	4762
782.563	4993
782.668	4407
782.773	4726
782.879	4142
782.984	5004
783.090	6935
783.195	10497
783.300	6984
783.405	4746
783.511	4191
783.616	4991
783.721	5455
783.826	4312
783.932	4952
784.037	4798
784.142	5075
784.247	3469
784.352	4370
784.457	3824
784.562	5853
784.667	3751
784.772	3868
784.877	2935
784.982	4551
785.087	4122
785.192	4846
785.297	3229
785.402	3716
785.507	4535
785.611	3867
785.716	4021
785.821	4565
785.926	3627
786.031	4506
786.135	4353
786.240	3164
786.345	2677
786.450	3732
786.554	3419
786.659	3169
786.763	2435
786.868	4673
786.973	4521
787.077	3603
787.182	3496
787.286	3867
787.391	3988
787.495	2814
787.600	3458
787.704	2911
787.809	3815
787.913	2913
788.017	3257
788.122	3909
788.226	2704
788.330	2834
788.435	3888
788.539	3598
788.643	3015
788.747	2530
788.852	3095
788.956	2133
789.060	4003
789.164	3059
789.268	2380
789.372	3495
789.476	3195
789.580	2865
789.684	3263
789.788	3359
789.892	3089
789.996	3978
790.100	2881
790.204	3412
790.308	3604
790.412	2829
790.516	2815
790.620	2632
790.724	3831
790.828	3421
790.931	3117
791.035	3483
791.139	3299
791.242	2275
791.346	3797
791.450	2675
791.554	2793
791.657	1815
791.761	3416
791.864	3888
791.968	2994
792.072	2981
792.175	2772
792.279	3534
792.382	3016
792.486	3674
792.589	3664
792.693	3851
792.796	2477
792.899	3401
793.003	3506
793.106	1545
793.209	2929
793.313	4095
793.416	1962
793.519	4455
793.623	7202
793.726	7865
793.829	3966
793.932	2963
794.035	2443
794.138	5462
794.242	3643
794.345	5148
794.448	5584
794.551	7333
794.654	7607
794.757	6435
794.860	5724
794.963	3464
795.066	2135
795.169	2508
795.272	1495
795.375	3445
795.477	1960
795.580	3030
795.683	1939
795.786	3217
795.889	2055
795.991	2896
796.094	4227
796.197	2508
796.300	2960
796.402	2023
796.505	1428
796.608	742
796.710	2722
796.813	2897
796.915	2215
797.018	3000
797.120	2651
797.223	632
797.326	2882
797.428	2085
797.530	2543
797.633	3087
797.735	4256
797.838	6716
797.940	4580
798.042	2148
798.145	2171
798.247	2434
798.349	606
798.452	2806
798.554	2732
798.656	1585
798.758	3130
798.860	2577
798.962	1821
799.065	1534
799.167	1749
799.269	3515
799.371	3582
799.473	4500
799.575	3300
799.677	4873
799.779	6319
799.881	5804
799.983	4341
800.085	1914
800.187	2051
800.289	2203
800.390	1885
800.492	2249
800.594	2786
800.696	1158
800.798	2162
800.899	1810
801.001	1584
801.103	2312
801.205	1552
801.306	2505
801.408	1460
801.509	1749
801.611	1672
801.713	1228
801.814	1859
801.916	1742
802.017	1437
802.119	1491
802.220	2590
802.322	698
802.423	5681
802.525	2529
802.626	2813
802.727	2857
802.829	2579
802.930	196
803.031	3253
803.133	1399
803.234	888
803.335	2327
803.436	684
803.538	2006
803.639	782
803.740	2420
803.841	1655
803.942	2439
804.043	1868
804.144	629
804.245	1765
804.346	1751
804.447	1678
804.548	4786
804.649	4130
804.750	2476
804.851	1077
804.952	1197
805.053	1632
805.154	460
805.255	2938
805.355	953
805.456	980
805.557	1067
805.658	313
805.758	2119
805.859	1845
805.960	1879
806.061	-13
806.161	1108
806.262	1834
806.362	1917
806.463	1008
806.564	2138
806.664	1747
806.765	2726
806.865	2357
806.966	2159
807.066	415
807.166	2500
807.267	2644
807.367	892
807.468	1991
807.568	312
807.668	2234
807.769	2092
807.869	888
807.969	1646
808.069	2106
808.170	1937
808.270	1384
808.370	2376
808.470	3403
808.570	1853
808.670	1074
808.770	2267
808.870	742
808.970	1813
809.070	791
809.170	1689
809.271	2489
809.370	1560
809.470	1879
809.570	240
809.670	203
809.770	1129
809.870	1650
809.970	1000
810.070	1182
810.169	1333
810.269	-400
810.369	2146
810.469	870
810.568	1229
810.668	1340
810.768	760
810.867	1208
810.967	1111
811.066	1007
811.166	1286
811.265	1948
811.365	938
811.464	1298
811.564	2182
811.663	1456
811.763	494
811.862	1683
811.962	2143
812.061	672
812.160	534
812.260	703
812.359	466
812.458	418
812.557	1887
812.657	1537
812.756	1338
812.855	896
812.954	763
813.053	1601
813.153	1344
813.252	883
813.351	1561
813.450	1143
813.549	842
813.648	1352
813.747	-359
813.846	1282
813.945	185
814.044	1753
814.143	1380
814.242	1118
814.341	1012
814.439	2150
814.538	1907
814.637	976
814.736	1013
814.835	2165
814.933	1353
815.032	1757
815.131	1945
815.229	2997
815.328	3335
815.427	2750
815.525	3563
815.624	2511
815.722	2262
815.821	3269
815.919	2097
816.018	2360
816.116	3708
816.215	2884
816.313	3687
816.412	3473
816.510	4302
816.609	6042
816.707	4698
816.805	4322
816.904	4280
817.002	5048
817.100	5334
817.198	6356
817.296	5569
817.395	5862
817.493	7965
817.591	7295
817.689	9839
817.787	11858
817.885	21965
817.983	38030
818.081	82953
818.179	202582
818.277	476798
818.375	332475
818.473	85650
818.571	35869
818.669	25135
818.767	21821
818.865	22636
818.963	26892
819.061	42371
819.158	72448
819.256	161663
819.354	389932
819.452	750230
819.549	410214
819.647	116436
819.745	49244
819.842	30706
819.940	22903
820.038	16027
820.135	13447
820.233	11032
820.330	7645
820.428	7915
820.525	7812
820.623	6115
820.720	5401
820.818	6471
820.915	5409
821.012	6076
821.110	3621
821.207	4369
821.304	3906
821.402	4624
821.499	4093
821.596	4967
821.693	4115
821.791	5355
821.888	5932
821.985	12035
822.082	7679
822.179	4844
822.276	2847
822.373	2974
822.470	3038
822.567	3269
822.664	1558
822.761	3971
822.858	1246
822.955	2670
823.052	2408
823.149	2484
823.246	2888
823.343	1847
823.440	3012
823.536	2328
823.633	1760
823.730	2292
823.827	2895
823.923	2517
824.020	3213
824.117	2295
824.213	2084
824.310	1683
824.407	1876
824.503	2888
824.600	1928
824.696	1699
824.793	2634
824.889	1706
824.986	1303
825.082	1583
825.179	2647
825.275	2461
825.371	1868
825.468	1802
825.564	490
825.660	3031
825.757	1795
825.853	2769
825.949	413
826.045	1682
826.142	1119
826.238	2109
826.334	2165
826.430	1489
826.526	917
826.622	1327
826.718	1489
826.814	1612
826.910	1850
827.006	963
827.102	568
827.198	2048
827.294	1311
827.390	1383
827.486	1635
827.582	-230
827.678	651
827.774	2510
827.869	427
827.965	2268
828.061	972
828.157	1642
828.252	1714
828.348	-117
828.444	1929
828.539	513
828.635	850
828.731	2615
828.826	874
828.922	1310
829.017	1587
829.113	2003
829.208	1588
829.304	1609
829.399	3024
829.495	1256
829.590	2039
829.685	1016
829.781	1918
829.876	990
829.971	1375
830.066	1540
830.162	1134
830.257	1144
830.352	1074
830.447	2370
830.543	2081
830.638	1098
830.733	2615
830.828	905
830.923	2017
831.018	1929
831.113	1814
831.208	1022
831.303	360
831.398	1485
831.493	1231
831.588	1455
831.683	944
831.778	721
831.873	994
831.967	2112
832.062	1667
832.157	-323
832.252	2410
832.346	1762
832.441	1848
832.536	3683
832.631	8609
832.725	5293
832.820	923
832.914	1283
833.009	1037
833.104	2639
833.198	3031
833.293	446
833.387	2019
833.482	930
833.576	1053
833.670	1924
833.765	1375
833.859	1125
833.954	1783
834.048	1925
834.142	1350
834.237	538
834.331	764
834.425	906
834.519	-217
834.613	1326
834.708	929
834.802	1478
834.896	938
834.990	1261
835.084	1060
835.178	1227
835.272	1072
835.366	342
835.460	1892
835.554	940
835.648	1255
835.742	-4
835.836	677
835.930	427
836.024	575
836.117	2749
836.211	1147
836.305	3710
836.399	3175
836.493	453
836.586	1621
836.680	547
836.774	283
836.867	1884
836.961	314
837.055	371
837.148	-332
837.242	454
837.335	755
837.429	495
837.522	1065
837.616	2609
837.709	5093
837.803	2773
837.896	1923
837.989	1195
838.083	3487
838.176	6493
838.269	3372
838.363	1522
838.456	936
838.549	3093
838.642	4787
838.735	9555
838.829	3412
838.922	220
839.015	1059
839.108	-73
839.201	850
839.294	1517
839.387	2070
839.480	368
839.573	2103
839.666	2613
839.759	392
839.852	447
839.945	1072
840.038	27
840.131	-254
840.223	1373
840.316	1129
840.409	980
840.502	301
840.594	2102
840.687	-381
840.780	1286
840.873	245
840.965	1378
841.058	2170
841.150	5558
841.243	2784
841.336	1339
841.428	391
841.521	479
841.613	888
841.706	1806
841.798	568
841.890	427
841.983	-281
842.075	1416
842.167	1249
842.260	1368
842.352	2860
842.444	3191
842.537	7486
842.629	7922
842.721	1321
842.813	636
842.905	591
842.997	1754
843.090	1116
843.182	3582
843.274	7424
843.366	17456
843.458	29503
843.550	14742
843.642	1803
843.734	1660
843.826	973
843.918	1932
844.009	1449
844.101	-413
844.193	902
844.285	270
844.377	1200
844.469	1775
844.560	1446
844.652	1103
844.744	448
844.835	1423
844.927	1521
845.019	1686
845.110	1020
845.202	542
845.293	-36
845.385	415
845.476	435
845.568	1297
845.659	1047
845.751	192
845.842	581
845.934	208
846.025	149
846.116	1175
846.208	408
846.299	436
846.390	677
846.482	1350
846.573	1606
846.664	3352
846.755	2811
846.846	3092
846.937	-1198
847.029	849
847.120	1209
847.211	36
847.302	1380
847.393	-344
847.484	241
847.575	-130
847.666	-118
847.757	522
847.847	1064
847.938	816
848.029	51
848.120	379
848.211	456
848.302	156
848.392	234
848.483	793
848.574	-278
848.664	-182
848.755	585
848.846	987
848.936	590
849.027	765
849.118	1383
849.208	795
849.299	3491
849.389	5958
849.480	15281
849.570	29621
849.661	57526
849.751	87262
849.841	25268
849.932	3995
850.022	1351
850.112	1426
850.203	1038
850.293	278
850.383	99
850.474	502
850.564	326
850.654	891
850.744	-134
850.834	636
850.924	628
851.014	389
851.104	404
851.194	1076
851.284	1628
851.374	1740
851.464	760
851.554	1767
851.644	1530
851.734	2456
851.824	1757
851.914	1032
852.004	931
852.094	-199
852.183	691
852.273	1186
852.363	713
852.452	725
852.542	116
852.632	527
852.721	1038
852.811	365
852.901	2245
852.990	1094
853.080	582
853.169	1761
853.259	2215
853.348	2365
853.438	3778
853.527	6036
853.617	8648
853.706	19101
853.795	34416
853.885	81547
853.974	151921
854.063	283993
854.152	382165
854.242	125306
854.331	22688
854.420	9809
854.509	6212
854.598	6949
854.687	5099
854.777	4300
854.866	2294
854.955	2651
855.044	813
855.133	1501
855.222	1809
855.311	1644
855.400	1375
855.488	1258
855.577	1175
855.666	1062
855.755	1868
855.844	1204
855.933	36
856.021	944
856.110	1016
856.199	274
856.288	439
856.376	755
856.465	78
856.554	286
856.642	210
856.731	1099
856.819	427
856.908	661
856.996	207
857.085	-168
857.173	378
857.262	878
857.350	184
857.438	366
857.527	-131
857.615	382
857.703	1162
857.792	64
857.880	-1022
857.968	557
858.056	434
858.145	917
858.233	555
858.321	-94
858.409	300
858.497	342
858.585	-861
858.673	438
858.761	67
858.849	106
858.937	586
859.025	1040
859.113	283
859.201	622
859.289	1724
859.377	-5
859.465	927
859.552	145
859.640	308
859.728	258
859.816	498
859.903	136
859.991	-632
860.079	208
860.166	70
860.254	153
860.342	331
860.429	-28
860.517	19
860.604	237
860.692	793
860.779	214
860.867	126
860.954	-4
861.042	773
861.129	943
861.216	816
861.304	-523
861.391	801
861.478	42
861.565	-141
861.653	690
861.740	545
861.827	663
861.914	854
862.001	439
862.089	880
862.176	-44
862.263	-449
862.350	61
862.437	-130
862.524	571
862.611	559
862.698	96
862.785	959
862.871	458
862.958	-361
863.045	368
863.132	468
863.219	549
863.306	-1024
863.392	1005
863.479	566
863.566	886
863.652	533
863.739	79
863.826	836
863.912	369
863.999	617
864.086	891
864.172	-48
864.259	326
864.345	514
864.432	879
864.518	710
864.604	-13
864.691	1100
864.777	174
864.863	1313
864.950	2468
865.036	2016
865.122	3871
865.209	3806
865.295	3642
865.381	4059
865.467	5549
865.553	6328
865.639	11050
865.726	18488
865.812	41295
865.898	78142
865.984	117100
866.070	223449
866.156	202246
866.242	47995
866.328	11916
866.414	5308
866.499	5618
866.585	5737
866.671	3457
866.757	3048
866.843	3923
866.928	2302
867.014	1743
867.100	2378
867.186	3183
867.271	3364
867.357	4582
867.442	4198
867.528	2582
867.614	2321
867.699	2050
867.785	2454
867.870	2375
867.956	3606
868.041	3009
868.127	2251
868.212	2984
868.297	3322
868.383	3262
868.468	3329
868.553	6232
868.639	6602
868.724	12861
868.809	8783
868.894	2326
868.979	1379
869.065	1880
869.150	1561
869.235	987
869.320	1027
869.405	1099
869.490	1351
869.575	1353
869.660	1298
869.745	2227
869.830	514
869.915	870
870.000	1210
870.085	991
870.169	1075
870.254	2254
870.339	179
870.424	-179
870.509	1484
870.593	1371
870.678	1545
870.763	1427
870.847	1510
870.932	1596
871.016	1113
871.101	1403
871.186	1229
871.270	2181
871.355	778
871.439	947
871.523	633
871.608	1103
871.692	327
871.777	1897
871.861	855
871.945	1472
872.030	855
872.114	121
872.198	1148
872.282	1059
872.367	198
872.451	1181
872.535	810
872.619	1238
872.703	581
872.787	280
872.871	630
872.955	1326
873.039	539
873.123	949
873.207	1567
873.291	1059
873.375	696
873.459	1578
873.543	1086
873.627	1037
873.711	754
873.794	830
873.878	-30
873.962	699
874.045	896
874.129	1011
874.137	1028
874.213	1196
874.245	928
874.296	495
874.352	722
874.380	832
874.460	321
874.464	300
874.547	10
874.568	232
874.631	891
874.676	690
874.714	513
874.784	1088
874.798	1199
874.881	1327
874.892	1227
874.965	622
874.999	968
875.048	1383
875.107	972
875.131	813
875.215	675
875.215	675
875.298	855
875.323	866
875.381	931
875.430	1335
875.465	1607
875.538	1008
875.548	920
875.631	572
875.646	488
875.714	91
875.753	46
875.798	39
875.861	354
875.881	414
875.964	500
875.968	491
876.047	480
876.076	414
876.130	270
876.183	534
876.213	697
876.291	1500
876.296	1555
876.379	1265
876.398	1201
876.462	891
876.506	895
876.545	930
876.613	1010
876.628	1015
876.711	539
876.721	533
876.794	655
876.828	1073
876.877	1598
876.935	1338
876.960	1246
877.043	800
877.043	802
877.125	1589
877.150	1508
877.208	1168
877.258	1254
877.291	1422
877.365	1325
877.374	1294
877.456	1825
877.472	1685
877.539	1240
877.579	1662
877.622	2044
877.687	1804
877.704	1733
877.787	875
877.794	906
877.869	1197
877.901	1106
877.952	993
878.008	844
878.034	812
878.115	1127
878.117	1135
878.199	834
878.222	771
878.282	627
878.329	1092
878.364	1283
878.437	1111
878.447	1107
878.529	389
878.544	434
878.611	752
878.651	677
878.694	667
878.758	1072
878.776	1137
878.858	1411
878.865	1354
878.941	636
878.972	498
879.023	270
879.078	611
879.105	915
879.185	1958
879.187	1972
879.269	752
879.292	886
879.351	1317
879.399	1158
879.433	1046
879.506	786
879.516	753
879.598	704
879.613	700
879.680	849
879.720	1237
879.762	1518
879.827	971
879.844	809
879.926	971
879.933	1007
880.007	1681
880.040	1558
880.089	1297
880.147	2361
880.171	2876
880.253	5731
880.254	5745
880.335	7490
880.360	8299
880.417	11214
880.467	16572
880.499	20013
880.574	21078
880.580	20668
880.662	6641
880.680	5112
880.744	2039
880.787	1327
880.825	1102
880.893	900
880.907	900
880.989	1052
881.000	1106
881.070	1334
881.106	1185
881.152	1003
881.213	796
881.233	750
881.315	479
881.319	496
881.396	1307
881.426	1406
881.478	974
881.532	785
881.559	944
881.639	1332
881.641	1336
881.722	1177
881.745	1132
881.803	1274
881.852	1553
881.885	1602
881.958	1572
881.966	1563
882.047	1444
882.064	1392
882.129	1188
882.171	1362
882.210	1928
882.277	2981
882.291	3144
882.372	2267
882.383	2270
882.454	1549
882.489	1120
882.535	946
882.596	1069
882.616	1084
882.697	691
882.702	681
882.778	787
882.808	896
882.859	717
882.914	249
882.940	255
883.020	795
883.021	805
883.102	1280
883.127	1500
883.183	1481
883.233	935
883.264	623
883.339	510
883.345	509
883.426	400
883.445	405
883.507	798
883.551	943
883.587	852
883.657	872
883.668	973
883.749	1318
883.763	1373
883.830	373
883.869	-129
883.910	229
883.975	1270
883.991	1335
884.072	579
884.081	526
884.152	948
884.187	1166
884.233	936
884.292	768
884.314	692
884.394	270
884.398	236
884.475	360
884.504	517
884.555	473
884.610	221
884.636	366
884.716	1294
884.716	1302
884.797	1172
884.821	1162
884.877	1068
884.927	1127
884.958	1216
885.033	881
885.038	843
885.118	570
885.139	431
885.199	556
885.244	737
885.279	829
885.350	844
885.359	902
885.439	1672
885.456	1749
885.520	872
885.561	348
885.600	483
885.667	1053
885.680	1132
885.760	994
885.773	1042
885.840	1052
885.878	970
885.920	1162
885.984	1241
886.000	1250
886.080	1499
886.089	1504
886.160	766
886.195	503
886.240	897
886.300	1365
886.320	1306
886.400	1057
886.406	1041
886.480	1380
886.511	1450
886.560	1549
886.616	1568
886.640	1532
886.720	1450
886.722	1447
886.800	1476
886.827	1408
886.879	1677
886.932	1993
886.959	1878
887.038	1452
887.039	1457
887.119	1525
887.143	1516
887.198	1234
887.248	1027
887.278	1133
887.354	1386
887.358	1371
887.437	909
887.459	813
887.517	1482
887.564	1869
887.596	1546
887.669	973
887.676	979
887.755	966
887.774	980
887.835	775
887.880	561
887.914	894
887.985	1551
887.994	1577
888.073	1683
888.090	1717
888.153	1933
888.195	2092
888.232	1882
888.300	1413
888.311	1413
888.391	1332
888.405	1333
888.470	1152
888.510	980
888.549	1195
888.615	1613
888.628	1613
888.708	1565
888.720	1543
888.787	1477
888.825	1417
888.866	1299
888.930	1175
888.945	1226
889.024	1428
889.035	1449
889.103	1243
889.140	1136
889.182	1143
889.245	1138
889.261	1203
889.340	1481
889.349	1511
889.419	1020
889.454	755
889.498	949
889.559	1240
889.577	1199
889.656	996
889.664	977
889.735	1272
889.768	1407
889.814	1263
889.873	1067
889.978	1864
890.083	1587
890.187	1666
890.292	1476
890.397	1074
890.501	1504
890.606	652
890.710	1079
890.815	2142
890.919	1686
891.024	979
891.128	1385
891.233	2404
891.337	1626
891.442	1110
891.546	1244
891.650	307
891.755	1489
891.859	2471
891.963	1846
892.068	1012
892.172	1651
892.276	899
892.380	1352
892.484	2155
892.589	1834
892.693	861
892.797	458
892.901	892
893.005	1191
893.109	1794
893.213	2116
893.317	1026
893.421	801
893.525	236
893.629	1167
893.733	1127
893.837	1206
893.941	435
894.045	1169
894.148	1063
894.252	1473
894.356	1389
894.460	1708
894.564	1171
894.667	1302
894.771	538
894.875	1039
894.978	1215
895.082	1321
895.186	1360
895.289	1006
895.393	1418
895.496	2318
895.600	517
895.703	913
895.807	1304
895.910	1187
896.014	1016
896.117	434
896.221	1034
896.324	726
896.427	497
896.531	540
896.634	626
896.737	663
896.840	1912
896.944	1105
897.047	1490
897.150	1572
897.253	517
897.356	1353
897.460	365
897.563	1057
897.666	1135
897.769	1048
897.872	1155
897.975	1333
898.078	1662
898.181	1308
898.284	569
898.387	1682
898.490	1379
898.593	1430
898.695	901
898.798	706
898.901	1570
899.004	1052
899.107	592
899.209	1087
899.312	1567
899.415	1038
899.518	976
899.620	553
899.723	-69
899.826	2454
899.928	2918
900.031	563
900.133	1194
900.236	690
900.338	752
900.441	889
900.543	380
900.646	1082
900.748	537
900.851	917
900.953	915
901.055	1765
901.158	1302
901.260	1231
901.362	232
901.465	927
901.567	1021
901.669	834
901.771	-395
901.873	948
901.976	789
902.078	1092
902.180	609
902.282	754
902.384	622
902.486	1310
902.588	1489
902.690	647
902.792	504
902.894	1742
902.996	712
903.098	789
903.200	737
903.302	880
903.404	157
903.505	600
903.607	593
903.709	1327
903.811	518
903.913	986
904.014	-180
904.116	673
904.218	597
904.319	1809
904.421	1435
904.523	1317
904.624	466
904.726	1271
904.827	837
904.929	1217
905.030	972
905.132	2073
905.233	471
905.335	701
905.436	275
905.537	110
905.639	900
905.740	1407
905.841	1305
905.943	1316
906.044	614
906.145	821
906.247	423
906.348	1253
906.449	343
906.550	753
906.651	828
906.752	1284
906.854	541
906.955	70
907.056	638
907.157	1177
907.258	173
907.359	1398
907.460	634
907.561	851
907.662	1020
907.762	927
907.863	909
907.964	1474
908.065	1133
908.166	546
908.267	-23
908.367	422
908.468	-139
908.569	471
908.670	1198
908.770	1484
908.871	1693
908.971	1239
909.072	1458
909.173	892
909.273	92
909.374	1146
909.474	-41
909.575	452
909.675	1027
909.776	1040
909.876	108
909.977	667
910.077	804
910.177	900
910.278	-38
910.378	427
910.478	559
910.579	723
910.679	239
910.779	1084
910.879	1132
910.980	301
911.080	472
911.180	1267
911.280	824
911.380	223
911.480	1163
911.580	968
911.680	435
911.780	850
911.880	917
911.980	1235
912.080	468
912.180	610
912.280	232
912.380	1170
912.480	621
912.580	217
912.679	201
912.779	1329
912.879	1594
912.979	839
913.078	-385
913.178	1054
913.278	228
913.377	1339
913.477	1019
913.577	657
913.676	978
913.776	1438
913.875	332
913.975	715
914.074	-3
914.174	496
914.273	68
914.373	729
914.472	1037
914.572	908
914.671	-385
914.770	899
914.870	1203
914.969	956
915.068	409
915.167	892
915.267	410
915.366	874
915.465	357
915.564	154
915.663	719
915.763	689
915.862	477
915.961	899
916.060	495
916.159	1137
916.258	405
916.357	540
916.456	1809
916.555	658
916.654	801
916.752	1486
916.851	402
916.950	1134
917.049	223
917.148	821
917.247	950
917.345	869
917.444	366
917.543	857
917.642	1339
917.740	1210
917.839	941
917.937	1302
918.036	695
918.135	620
918.233	192
918.332	1006
918.430	942
918.529	827
918.627	248
918.726	1997
918.824	633
918.923	1311
919.021	852
919.119	239
919.218	1081
919.316	225
919.414	40
919.512	1056
919.611	555
919.709	341
919.807	350
919.905	1226
920.003	890
920.102	1051
920.200	725
920.298	1081
920.396	74
920.494	1383
920.592	746
920.690	1811
920.788	930
920.886	1199
920.984	1442
921.082	1297
921.180	2219
921.277	1492
921.375	1698
921.473	1291
921.571	727
921.669	1647
921.766	1262
921.864	2411
921.962	2268
922.060	1795
922.157	1197
922.255	2299
922.352	1037
922.450	2267
922.548	1653
922.645	1904
922.743	2695
922.840	4019
922.938	4017
923.035	3623
923.133	2623
923.230	4379
923.327	4954
923.425	5088
923.522	4135
923.619	3554
923.717	3199
923.814	3589
923.911	3229
924.008	4456
924.106	3813
924.203	4307
924.300	3724
924.397	3841
924.494	4064
924.591	4062
924.688	3882
924.786	4321
924.883	4140
924.979	4108
925.077	4045
925.173	4032
925.270	3280
925.367	3840
925.464	4387
925.561	5017
925.658	4400
925.755	4660
925.852	4865
925.948	4220
926.045	4405
926.142	4061
926.239	4060
926.335	3580
926.432	3808
926.529	4584
926.625	4111
926.722	2724
926.818	2761
926.915	4665
927.011	3186
927.108	2718
927.204	3314
927.301	3336
927.397	3664
927.494	3943
927.590	2905
927.687	3753
927.783	3750
927.879	4077
927.976	2470
928.072	2218
928.168	2495
928.264	3814
928.361	3166
928.457	3359
928.553	2947
928.649	2940
928.745	3405
928.841	3424
928.937	3553
929.033	3148
929.129	2462
929.225	4261
929.321	3019
929.417	2452
929.513	2648
929.609	2747
929.705	2705
929.801	3201
929.897	1777
929.993	3248
930.089	2839
930.184	2772
930.280	3642
930.376	3966
930.471	1946
930.567	3372
930.663	2589
930.758	2366
930.854	2170
930.950	2449
931.045	2485
931.141	2653
931.236	3816
931.332	1950
931.427	2287
931.523	3232
931.618	3121
931.714	2220
931.809	2287
931.905	3413
932.000	1576
932.095	2905
932.191	3058
932.286	3513
932.381	1982
932.476	1959
932.572	1928
932.667	2714
932.762	1771
932.857	3652
932.952	3302
933.047	2884
933.142	2321
933.237	2159
933.332	2689
933.427	2511
933.522	2260
933.617	2346
933.712	2305
933.807	2557
933.902	2125
933.997	2872
934.092	1152
934.187	2030
934.282	2137
934.376	2947
934.471	1643
934.566	2391
934.661	1535
934.755	2626
934.850	2774
934.945	1868
935.039	1168
935.134	2513
935.228	2377
935.323	3437
935.417	2137
935.512	896
935.606	999
935.701	2983
935.795	2532
935.890	1979
935.984	1771
936.079	2559
936.173	2413
936.267	2283
936.362	1259
936.456	2309
936.550	2397
936.644	2564
936.738	1386
936.833	1621
936.927	987
937.021	2473
937.115	1494
937.209	1945
937.303	2401
937.397	2623
937.491	2280
937.585	2301
937.679	1776
937.773	2078
937.867	902
937.961	2046
938.055	1538
938.149	2939
938.243	1800
938.337	1834
938.430	1482
938.524	2656
938.618	1910
938.712	1921
938.805	1759
938.899	1592
938.993	2565
939.086	2121
939.180	1619
939.274	2716
939.367	2106
939.461	2741
939.554	1959
939.648	2716
939.741	1175
939.835	2810
939.928	2101
940.022	1578
940.115	1644
940.208	2383
940.302	1886
940.395	2430
940.488	1223
940.582	2114
940.675	930
940.768	2679
940.861	1953
940.954	1820
941.048	310
941.141	1598
941.234	969
941.327	3575
941.420	3621
941.513	3122
941.606	1439
941.699	2140
941.792	2126
941.885	1215
941.978	1355
942.071	1909
942.164	510
942.257	1570
942.349	1114
942.442	1764
942.535	150
942.628	1850
942.721	1710
942.813	886
942.906	2057
942.999	1352
943.091	225
943.184	1063
943.277	649
943.369	1837
943.462	415
943.554	1775
943.647	1298
943.739	2491
943.832	1950
943.924	128
944.017	689
944.109	739
944.201	813
944.294	1163
944.386	1557
944.478	1568
944.571	754
944.663	1370
944.755	752
944.847	256
944.940	599
945.032	792
945.124	-177
945.216	2512
945.308	849
945.400	2048
945.492	990
945.584	2098
945.676	1221
945.768	1380
945.860	1501
945.952	1898
946.044	782
946.136	721
946.228	1129
946.320	858
946.412	1820
946.503	893
946.595	1377
946.687	1101
946.779	220
946.870	1428
946.962	495
947.054	1456
947.145	969
947.237	681
947.329	1045
947.420	1129
947.512	340
947.603	481
947.695	711
947.786	670
947.878	727
947.969	1825
948.061	286
948.152	998
948.243	957
948.335	-128
948.426	513
948.517	1020
948.609	833
948.700	1267
948.791	1069
948.882	751
948.973	88
949.065	896
949.156	819
949.247	752
949.338	991
949.429	88
949.520	1157
949.611	504
949.702	926
949.793	820
949.884	1542
949.975	1114
950.066	494
950.157	925
950.247	1100
950.338	1090
950.429	591
950.520	1563
950.611	693
950.701	1140
950.792	1535
950.883	1200
950.973	557
951.064	1787
951.155	414
951.245	1934
951.336	943
951.427	1003
951.517	1701
951.608	1135
951.698	498
951.788	443
951.879	724
951.969	106
952.060	472
952.150	793
952.240	846
952.331	-360
952.421	1536
952.511	-79
952.602	331
952.692	495
952.782	216
952.872	51
952.962	121
953.052	446
953.143	-564
953.233	1605
953.323	854
953.413	1027
953.503	1011
953.593	1250
953.683	-163
953.773	384
953.863	867
953.953	680
954.042	449
954.132	25
954.222	1536
954.312	948
954.402	799
954.492	989
954.581	1299
954.671	965
954.761	-399
954.850	996
954.940	528
955.030	-246
955.119	125
955.209	928
955.298	456
955.388	781
955.477	1330
955.567	252
955.656	1292
955.746	275
955.835	-851
955.925	507
956.014	525
956.103	1188
956.193	366
956.282	1063
956.371	1082
956.461	1105
956.550	1111
956.639	922
956.728	-886
956.817	337
956.906	35
956.995	1153
957.085	225
957.174	364
957.263	-112
957.352	514
957.441	-136
957.530	692
957.619	509
957.708	733
957.796	661
957.885	505
957.974	580
958.063	1463
958.152	-669
958.241	0
958.329	-74
958.418	281
958.507	412
958.596	466
958.684	-101
958.773	728
958.861	91
958.950	165
959.039	414
959.127	327
959.216	121
959.304	1267
959.393	276
959.481	610
959.570	753
959.658	283
959.746	561
959.835	1362
959.923	1689
960.011	1050
960.100	-20
960.188	24
960.276	-231
960.365	-54
960.453	-82
960.541	-298
960.629	-276
960.717	330
960.805	-697
960.893	824
960.981	-642
961.069	1118
961.158	796
961.245	1467
961.333	19
961.421	-147
961.509	1058
961.597	937
961.685	477
961.773	-143
961.861	164
961.949	1417
962.036	-682
962.124	445
962.212	235
962.299	158
962.387	-464
962.475	431
962.562	-584
962.650	-154
962.738	125
962.825	-466
962.913	-208
963.000	479
963.088	718
963.175	381
963.263	111
963.350	371
963.438	-65
963.525	250
963.612	2334
963.700	6313
963.787	12131
963.874	4238
963.962	-339
964.049	45
964.136	-532
964.223	-714
964.310	237
964.398	-250
964.485	-70
964.572	1346
964.659	1192
964.746	2358
964.833	-90
964.920	68
965.007	136
965.094	607
965.181	70
965.268	25
965.355	336
965.441	359
965.528	-491
965.615	710
965.702	527
965.789	-406
965.875	-46
965.962	176
966.049	-858
966.136	481
966.222	-308
966.309	788
966.395	-120
966.482	873
966.569	-428
966.655	-356
966.742	-684
966.828	288
966.915	322
967.001	913
967.087	-472
967.174	-427
967.260	1281
967.347	1337
967.433	3250
967.519	8514
967.605	1608
967.692	-643
967.778	238
967.864	503
967.950	-20
968.036	-955
968.123	-554
968.209	-392
968.295	-819
968.381	1025
968.467	220
968.553	-692
968.639	625
968.725	-20
968.811	1784
968.897	1475
968.983	-4
969.069	-243
969.154	92
969.240	663
969.326	-103
969.412	-861
969.497	155
969.583	-1421
969.669	728
969.755	65
969.840	-343
969.926	423
970.012	101
970.097	1932
970.183	-32
970.268	779
970.354	1212
970.439	2413
970.525	5716
970.610	1138
970.696	278
970.781	62
970.866	-952
970.952	713
971.037	-1005
971.122	453
971.208	168
971.293	177
971.378	-1186
971.463	120
971.549	557
971.634	472
971.719	922
971.804	-213
971.889	548
971.974	129
972.059	393
972.144	720
972.229	256
972.314	-977
972.399	-35
972.484	264
972.569	917
972.654	-514
972.739	2906
972.824	1157
972.908	81
972.993	105
973.078	-755
973.163	-126
973.247	481
973.332	-1566
973.417	202
973.501	-1154
973.586	-6
973.671	4
973.755	270
973.840	853
973.924	572
974.009	808
974.093	-285
974.178	2294
974.262	1997
974.346	1892
974.431	54
974.515	381
974.600	-776
974.684	496
974.768	-787
974.852	719
974.937	-1568
975.021	275
975.105	-494
975.189	-191
975.273	208
975.358	-111
975.442	-974
975.526	638
975.610	-1234
975.694	-667
975.778	434
975.862	-116
975.946	-2046
976.030	1596
976.114	-299
976.198	-221
976.281	-696
976.365	984
976.449	-680
976.533	120
976.617	-202
976.700	-161
976.784	-426
976.868	4
976.951	913
977.035	-141
977.119	-467
977.202	-343
977.286	-639
977.369	-730
977.453	1097
977.536	-47
977.620	-862
977.703	408
977.787	-563
977.870	742
977.953	455
978.037	-469
978.120	1114
978.203	1437
978.287	1047
978.370	574
978.453	-342
978.536	701
978.620	1654
978.703	970
978.786	-1082
978.869	-1093
978.952	-993
979.035	454
979.118	-80
979.201	-541
979.284	604
979.367	-290
979.450	-304
979.533	-473
979.616	-618
979.699	-190
979.782	-301
979.865	218
979.948	-716
980.030	-306
980.113	34
980.196	-1144
980.279	391
980.361	-780
980.444	-502
980.526	238
980.609	125
980.692	-127
980.774	-71
980.857	-158
980.939	525
981.022	-16
981.104	36
981.187	4
981.269	307
981.352	-215
981.434	-1616
981.516	-890
981.599	64
981.681	68
981.763	-114
981.846	151
981.928	-882
982.010	-340
982.092	-901
982.174	182
982.256	-602
982.339	-911
982.421	-619
982.503	-171
982.585	-757
982.667	-285
982.749	-522
982.831	423
982.913	-1378
982.995	563
983.077	-771
983.158	1193
983.240	-376
983.322	429
983.404	549
983.486	-474
983.568	898
983.649	-253
983.731	-716
983.813	360
983.894	-140
983.976	-498
984.058	-530
984.139	1382
984.221	-1027
984.302	455
984.384	-304
984.465	406
984.547	139
984.628	-902
984.710	41
984.791	71
984.872	-346
984.954	389
985.035	-203
985.116	-368
985.198	-1124
985.279	1842
985.360	-1019
985.441	-330
985.522	164
985.604	-1082
985.685	-2085
985.766	874
985.847	492
985.928	-164
986.009	-323
986.090	-145
986.171	196
986.252	-171
986.333	-274
986.414	-490
986.495	577
986.576	288
986.656	104
986.737	-162
986.818	-508
986.899	-238
986.980	-577
987.060	653
987.141	-427
987.222	124
987.302	-476
987.383	519
987.464	-365
987.544	82
987.625	-270
987.705	613
987.786	197
987.866	193
987.947	42
988.027	816
988.108	-1107
988.188	238
988.268	-584
988.349	-246
988.429	-412
988.509	-13
988.589	-506
988.670	-1186
988.750	1027
988.830	-277
988.910	195
988.990	-271
989.070	-1137
989.151	34
989.231	157
989.311	188
989.391	-67
989.471	-190
989.551	-525
989.631	-31
989.711	233
989.791	-743
989.870	-862
989.950	1078
990.030	-410
990.110	-493
990.190	50
990.269	-231
990.349	-352
990.429	-124
990.509	-334
990.588	-181
990.668	597
990.747	76
990.827	102
990.907	521
990.986	-426
991.066	-295
991.145	-1589
991.225	241
991.304	-959
991.383	552
991.463	-383
991.542	78
991.622	-1309
991.701	-1035
991.780	-519
991.859	-109
991.939	-326
992.018	-109
992.097	-435
992.176	-86
992.256	-465
992.335	-503
992.414	319
992.493	-666
992.572	-483
992.651	416
992.730	-384
992.809	193
992.888	-606
992.967	59
993.046	204
993.125	-1051
993.203	-240
993.282	-575
993.361	-87
993.440	12
993.519	-1437
993.597	-464
993.676	-1083
993.755	390
993.834	-398
993.912	-822
993.991	-182
994.069	-930
994.148	-359
994.226	-533
994.305	-232
994.384	-359
994.462	118
994.540	-762
994.619	-1160
994.697	33
994.776	-955
994.854	663
994.932	-861
995.011	-7
995.089	-636
995.167	-730
995.245	-990
995.324	-995
995.402	137
995.480	-901
995.558	-854
995.636	-891
995.714	236
995.792	-570
995.870	-1025
995.948	-777
996.026	-594
996.104	-1412
996.182	-509
996.260	-834
996.338	139
996.416	-1281
996.494	-1459
996.572	179
996.649	-848
996.727	-1192
996.805	-563
996.883	215
996.960	-1153
997.038	65
997.116	-865
997.193	-787
997.271	-847
997.348	-252
997.426	-285
997.504	-982
997.581	-32
997.658	-231
997.736	-2426
997.813	-129
997.891	466
997.968	-726
998.046	-673
998.123	-770
998.200	-259
998.277	-1488
998.355	-775
998.432	-2069
998.509	-1156
998.586	-291
998.663	-919
998.741	-102
998.818	-580
998.895	-558
998.972	-424
999.049	-1349
999.126	-1406
999.203	-265
999.280	-188
999.357	-1758
999.434	-1380
999.511	-1135
999.587	-423
999.664	-844
999.741	-686
999.818	-478
999.895	-1413
999.971	-1081
1000.048	-1729
1000.125	-248
1000.202	-932
1000.278	-996
1000.355	-532
1000.431	-46
1000.508	-2363
1000.584	259
1000.661	-446
1000.738	-1633
1000.814	-476
1000.890	-55
1000.967	-1009
1001.043	-1224
1001.120	-1725
1001.196	-409
1001.272	-1013
1001.349	-670
1001.425	-155
1001.501	-411
1001.577	-1671
1001.654	-153
1001.730	-1305
1001.806	-817
1001.882	-1845
1001.958	423
1002.034	-1090
1002.110	-1088
1002.186	-1319
1002.262	-823
1002.338	-1258
1002.414	-856
1002.490	-217
1002.566	-935
1002.642	-1954
1002.718	-194
1002.794	-864
1002.870	-1652
1002.945	-509
1003.021	-513
1003.097	-898
1003.173	-594
1003.248	-1309
1003.324	-900
1003.400	-484
1003.475	-1680
1003.551	-590
1003.626	10
1003.702	-1957
1003.777	-1003
1003.853	-1786
1003.928	-1433
1004.004	-516
1004.079	-571
1004.155	-1090
1004.230	-2371
1004.305	-684
1004.381	-939
1004.456	-861
1004.531	-772
1004.607	-1019
1004.682	-617
1004.757	-1138
1004.832	-1421
1004.907	-1576
1004.982	-786
1005.057	-1128
1005.133	-1449
1005.208	-1502
1005.283	-1458
1005.358	-963
1005.433	-1925
1005.508	-770
1005.583	-1504
1005.657	-1081
1005.732	-301
1005.807	-1203
1005.882	-715
1005.957	-1497
1006.032	-949
1006.106	-1042
1006.181	-1524
1006.256	-1162
1006.331	-2028
1006.405	-1962
1006.480	-514
1006.554	-1631
1006.629	-84
1006.704	-1595
1006.778	-773
1006.853	-912
1006.927	-1298
1007.002	-1578
1007.076	-1039
1007.150	-1610
1007.225	-1007
1007.299	-2108
1007.373	-1125
1007.448	-1559
1007.522	290
1007.596	-914
1007.671	-1310
1007.745	-1583
1007.819	-1467
1007.893	-1563
1007.967	-1514
1008.041	-1670
1008.115	-602
1008.190	-1849
1008.264	-1024
1008.338	-1899
1008.412	-1070
1008.486	-882
1008.560	-765
1008.633	-1967
1008.707	-1165
1008.781	-1080
1008.855	-1061
1008.929	-1057
1009.003	-1747
1009.076	-1624
1009.150	-1146
1009.224	-783
1009.298	-1361
1009.371	-2381
1009.445	-1435
1009.519	-1379
1009.592	-1731
1009.666	-745
1009.739	-1357
1009.813	-1629
1009.886	-1184
1009.960	-2827
1010.033	-595
1010.107	-668
1010.180	-1840
1010.253	-1651
1010.327	-1785
1010.400	-777
1010.473	-1682
1010.547	-164
1010.620	-1913
1010.693	-841
1010.766	-1467
1010.840	-1326
1010.913	-1233
1010.986	-1759
1011.059	-1488
1011.132	-872
1011.205	-1044
1011.278	-2084
1011.351	-1286
1011.424	-1368
1011.497	-1481
1011.570	-1500
1011.643	-1044
1011.716	-1680
1011.789	-1275
1011.862	-1082
1011.934	-655
1012.007	-2441
1012.080	-1255
1012.153	-1093
1012.225	-644
1012.298	-2173
1012.371	-615
1012.443	-289
1012.516	-1184
1012.588	-1112
1012.661	-1114
1012.733	-2337
1012.806	115
1012.879	-1880
1012.951	-1082
1013.023	-1794
1013.096	-197
1013.168	-1794
1013.241	-536
1013.313	-1691
1013.385	-1733
1013.458	-1590
1013.530	-1429
1013.602	-2124
1013.674	-923
1013.746	-2090
1013.819	-1261
1013.891	-646
1013.963	-1452
1014.035	-1433
1014.107	-1201
1014.179	-1061
1014.251	-2785
1014.323	-875
1014.395	-721
1014.467	-1024
1014.539	-621
1014.611	-1515
1014.683	-817
1014.754	-1894
1014.826	-1570
1014.898	-980
1014.970	-1893
1015.042	-1398
1015.113	-1312
1015.185	-1839
1015.257	-2593
1015.328	-1599
1015.400	-1601
1015.471	-1369
1015.543	-1624
1015.615	-642
1015.686	-1279
1015.757	-1153
1015.829	-1384
1015.901	-2162
1015.972	-1636
1016.043	-2025
1016.115	-850
1016.186	-2276
1016.257	-2555
1016.328	-1665
1016.400	-133
1016.471	-2539
1016.542	-1525
1016.613	-2476
1016.685	-1226
1016.756	-1114
1016.827	-815
1016.898	-2121
1016.969	-1248
1017.040	-2196
1017.111	-1495
1017.182	-2021
1017.253	-1024
1017.324	-1165
1017.395	-1520
1017.466	-1371
1017.537	-1451
1017.608	-1457
1017.678	-1650
1017.749	-1366
1017.820	-1366
1017.891	-1835
1017.961	-2551
1018.032	-2324
1018.103	-1292
1018.173	-1967
1018.244	-1107
1018.315	-1769
1018.385	-1965
1018.456	-2311
1018.526	-1422
1018.597	-1891
1018.667	-1564
1018.738	-1831
1018.808	-1688
1018.878	-1940
1018.949	-1361
1019.019	-1363
1019.089	-1834
1019.160	-1473
1019.230	-1309
1019.300	-1849
1019.371	-1773
1019.441	-1219
1019.511	-1105
1019.581	-1736
1019.651	-887
1019.721	-1436
1019.791	-1389
1019.861	-1951
1019.931	-1336
1020.001	-1966
1020.071	-1449
1020.141	-1600
1020.211	-1471
1020.281	-2033
1020.351	-1997
1020.421	-1216
1020.491	-1328
1020.560	-2853
1020.630	-2364
1020.700	-1738
1020.770	-2232
1020.839	-2269
1020.909	-1866
1020.979	-2056
1021.048	-1780
1021.118	-1601
1021.187	-1172
1021.257	-1287
1021.326	-193
1021.396	-1646
1021.465	-1016
1021.535	-1375
1021.604	-2232
1021.674	-1864
1021.743	-1655
1021.812	-2306
1021.882	-1703
1021.951	-1885
1022.020	-2159
1022.089	-2006
1022.159	-1936
1022.228	-1618
1022.297	-1699
1022.366	-1711
1022.435	-1878
1022.504	-2156
1022.573	-1587
1022.642	-991
1022.711	-2120
1022.781	-1821
1022.849	-1530
1022.918	-2102
1022.987	-923
1023.056	-1604
1023.125	-1268
1023.194	-1134
1023.263	-1242
1023.331	-1990
1023.400	-1659
1023.469	-1858
1023.538	-1145
1023.606	-2335
1023.675	-1551
1023.744	-1591
1023.812	-1787
1023.881	-1145
1023.949	-1464
1024.018	-2001
1024.086	-1792
1024.155	-1351
1024.223	-1488
1024.292	-1856
1024.360	-1101
1024.429	-2168
1024.497	-1942
1024.565	-2164
1024.634	-1424
1024.702	-1871
1024.770	-988
1024.838	-1812
1024.907	-785
1024.975	-1646
1025.043	-685
1025.111	-1506
1025.179	-1033
1025.247	-1912
1025.315	-1648
1025.383	-1956
1025.451	-1291
1025.519	-2134
1025.587	-1721
1025.655	-1427
1025.723	-1879
1025.791	-1432
1025.859	-1000
1025.927	-1158
1025.995	-1798
1026.062	-885
1026.130	-1740
1026.198	-1757
1026.266	-2020
1026.333	-1430
1026.401	-1178
1026.469	-1486
1026.536	-1419
1026.604	-1853
1026.671	-1245
1026.739	-1701
1026.806	-1704
1026.874	-2373
1026.941	-883
1027.009	-2064
1027.076	-1533
1027.144	-1636
1027.211	-2085
1027.278	-1565
1027.345	-2025
1027.413	-2079
1027.480	-1912
1027.547	-2307
1027.614	-1522
1027.682	-1699
1027.749	-1827
1027.816	-1432
1027.883	-2205
1027.950	-1270
1028.017	-2223
1028.084	-1447
1028.151	-1519
1028.218	-1430
1028.285	-2089
1028.352	-2452
1028.419	-1244
1028.486	-2154
1028.553	-2386
1028.619	-2237
1028.686	-1757
1028.753	-1990
1028.820	-2245
1028.886	-2592
1028.953	-1333
1029.020	-1904
1029.086	-1391
1029.153	-1669
1029.220	-1694
1029.286	-1328
1029.353	-1510
1029.419	-1701
1029.486	-2031
1029.552	-1334
1029.619	-2237
1029.685	-1377
1029.751	-1580
1029.818	-741
1029.884	-1918
1029.951	-1031
1030.017	-2168
1030.083	-1765
1030.149	-1663
1030.216	-2102
1030.282	-1656
1030.348	-2815
1030.414	-2395
1030.480	-2417
1030.546	-1709
1030.612	-1802
1030.678	-1370
1030.744	-1279
1030.810	-1595
1030.876	-2061
1030.942	-1721
1031.008	-1930
1031.074	-2288
1031.140	-2280
1031.206	-1182
1031.272	-2250
1031.337	-1161
1031.403	-1561
1031.469	-1727
1031.534	-2387
1031.600	-1222
1031.666	-1860
1031.731	-1829
1031.797	-1516
1031.863	-1957
1031.928	-2419
1031.994	-2224
1032.059	-2039
1032.125	-2637
1032.190	-2144
1032.256	-2197
1032.321	-2777
1032.386	-1880
1032.452	-1695
1032.517	-1271
1032.582	-1667
1032.647	-1686
1032.713	-1500
1032.778	-1303
1032.843	-1667
1032.908	-1919
1032.974	-1676
1033.039	-1445
1033.104	-1709
1033.169	-1108
1033.234	-1570
1033.299	-1405
1033.364	-1620
1033.429	-434
1033.494	-1400
1033.559	-1778
1033.624	-2006
1033.688	-1936
1033.753	-2226
1033.818	-1528
1033.883	-2180
1033.948	-798
1034.013	-1779
1034.077	-1109
1034.142	-1515
1034.207	-638
1034.271	293
1034.336	431
1034.400	-441
1034.465	-316
1034.530	-1338
1034.594	-2492
1034.658	-2149
1034.723	-1216
1034.787	-2170
1034.852	-1446
1034.916	-1997
1034.981	-2408
1035.045	-1586
1035.109	-1518
1035.173	-2032
1035.238	-2552
1035.302	-1656
1035.366	-2598
1035.430	-2143
1035.495	-2247
1035.559	-2897
1035.623	-2025
1035.687	-2526
1035.751	-1294
1035.815	-1417
1035.879	-1597
1035.943	-1011
1036.007	-1999
1036.071	-2343
1036.135	-1910
1036.198	-1562
1036.262	-1635
1036.326	-2047
1036.390	-1920
1036.454	-1820
1036.517	-1235
1036.581	-2088
1036.645	-490
1036.709	-762
1036.772	-1260
1036.836	-2023
1036.900	-2019
1036.963	-1505
1037.026	-1720
1037.090	-2379
1037.154	-1755
1037.217	-2356
1037.280	-2127
1037.344	-2335
1037.407	-1878
1037.471	-2022
1037.534	-1535
1037.597	-2537
1037.661	-2030
1037.724	-2495
1037.787	-1262
1037.850	-2591
1037.913	-2352
1037.977	-1998
1038.040	-2134
1038.103	-2341
1038.166	-2304
1038.229	-2605
1038.292	-2003
1038.355	-1565
1038.418	-1867
1038.481	-2426
1038.544	-1660
1038.607	-2988
1038.670	-1430
1038.732	-2390
1038.795	-1594
1038.858	-2361
1038.921	-2172
1038.984	-2473
1039.046	-2584
1039.109	-1920
1039.172	-2079
1039.234	-2309
1039.297	-2209
1039.360	-2376
1039.422	-2253
1039.485	-2391
1039.547	-2138
1039.610	-2497
1039.672	-2426
1039.734	-2195
1039.797	-1824
1039.859	-2493
1039.922	-2597
1039.984	-2425
1040.046	-2354
1040.109	-2384
1040.171	-2176
1040.233	-2125
1040.295	-2940
1040.358	-2115
1040.420	-1111
1040.482	-2224
1040.544	-2426
1040.606	-2785
1040.668	-2445
1040.730	-2557
1040.792	-2568
1040.854	-1680
1040.916	-2380
1040.978	-2438
1041.040	-1879
1041.102	-2203
1041.164	-1803
1041.225	-2489
1041.287	-2018
1041.349	-2319
1041.411	-2183
1041.472	-1543
1041.534	-2069
1041.596	-2343
1041.657	-1852
1041.719	-2597
1041.781	-1912
1041.842	-1660
1041.904	-2133
1041.965	-2590
1042.027	-1309
1042.088	-2153
1042.150	-2297
1042.211	-2427
1042.272	-2063
1042.334	-2242
1042.395	-1853
1042.456	-1319
1042.518	-2039
1042.579	-2432
1042.640	-2501
1042.701	-2140
1042.763	-2148
1042.824	-2083
1042.885	-1558
1042.946	-2532
1043.007	-1893
1043.068	-2510
1043.129	-2481
1043.190	-1950
1043.251	-1390
1043.312	-2774
1043.373	-2497
1043.434	-2594
1043.495	-2635
1043.556	-2080
1043.616	-1986
1043.677	-2697
1043.738	-2700
1043.799	-2144
1043.859	-2425
1043.920	-3001
1043.981	-1868
1044.041	-1731
1044.102	-2282
1044.162	-2200
1044.223	-2508
1044.284	-1864
1044.344	-2106
1044.405	-3240
1044.465	-2025
1044.525	-2405
1044.586	-1830
1044.646	-1141
1044.707	-2177
1044.767	-2326
1044.827	-2399
1044.887	-1825
1044.948	-2272
1045.008	-2846
1045.068	-1446
1045.128	-2084
1045.188	-2292
1045.249	-2479
1045.309	-2374
1045.369	-1706
1045.429	-2757
1045.489	-2910
1045.549	-1809
1045.609	-2642
1045.669	-2492
1045.729	-2004
1045.789	-2061
1045.848	-1723
1045.908	-1700
1045.968	-1888
1046.028	-1442
1046.088	-2460
1046.147	-1988
1046.207	-1490
1046.267	-2264
1046.326	-2699
1046.386	-1565
1046.446	-2834
1046.505	-1450
1046.565	-1361
1046.624	-680
1046.684	-780
1046.743	-638
1046.803	-558
1046.862	-149
1046.922	0
