'Start Wavelength	183.907
'End Wavelength	1046.922
'Gate Delay	5.000
'Gate Width (ms)	1.050
'Laser Output Level	0.000
'X Position	0.000
'Y Position	0.000
'Z Position	0.000
'Grid Point Number	1.000
'Shot Number	100.000
183.907	583.000
183.977	135.000
184.047	-241
184.116	713
184.186	316
184.256	638
184.325	-220
184.395	-74
184.465	956
184.534	-367
184.604	-637
184.674	183
184.743	31
184.813	-130
184.883	517
184.952	490
185.022	131
185.092	966
185.161	-47
185.231	57
185.301	-146
185.370	542
185.440	-22
185.509	483
185.579	-714
185.649	428
185.718	414
185.788	713
185.857	334
185.927	742
185.996	-7
186.066	431
186.136	-512
186.205	581
186.275	-267
186.344	739
186.414	107
186.483	331
186.553	206
186.622	217
186.692	246
186.761	1078
186.831	-619
186.900	443
186.970	460
187.039	-359
187.109	1115
187.178	284
187.248	404
187.317	287
187.387	213
187.456	488
187.526	-239
187.595	553
187.664	-771
187.734	976
187.803	-269
187.873	983
187.942	-61
188.012	524
188.081	-4
188.150	-226
188.220	308
188.289	370
188.358	191
188.428	739
188.497	-49
188.567	1326
188.636	719
188.705	-306
188.775	-550
188.844	-218
188.913	-16
188.983	676
189.052	-15
189.121	752
189.191	-4
189.260	1035
189.329	519
189.399	954
189.468	58
189.537	269
189.606	570
189.676	409
189.745	323
189.814	678
189.883	-104
189.953	493
190.022	84
190.091	1285
190.161	379
190.230	875
190.299	-527
190.368	-263
190.437	-35
190.507	-474
190.576	-312
190.645	588
190.714	-377
190.783	-136
190.853	236
190.922	842
190.991	204
191.060	584
191.129	193
191.198	149
191.268	605
191.337	50
191.406	276
191.475	436
191.544	151
191.613	-227
191.682	-117
191.752	111
191.821	-23
191.890	402
191.959	371
192.028	883
192.097	418
192.166	901
192.235	-40
192.304	598
192.373	447
192.442	91
192.511	65
192.580	526
192.650	326
192.719	89
192.788	128
192.857	641
192.926	540
192.995	471
193.064	318
193.133	1319
193.202	316
193.271	470
193.340	-5
193.409	-181
193.478	1021
193.547	1266
193.615	1087
193.684	1640
193.753	146
193.822	1064
193.891	-163
193.960	1201
194.029	-240
194.098	825
194.167	-162
194.236	252
194.305	663
194.374	233
194.443	-612
194.512	103
194.580	1318
194.649	617
194.718	74
194.787	860
194.856	-373
194.925	495
194.994	358
195.062	1049
195.131	257
195.200	273
195.269	-197
195.338	61
195.407	398
195.475	425
195.544	-63
195.613	336
195.682	476
195.751	-218
195.819	-223
195.888	353
195.957	1225
196.026	432
196.094	-58
196.163	697
196.232	20
196.301	312
196.369	787
196.438	689
196.507	335
196.576	618
196.644	383
196.713	917
196.782	371
196.850	540
196.919	736
196.988	728
197.056	543
197.125	488
197.194	34
197.262	493
197.331	192
197.400	531
197.468	-260
197.537	-555
197.606	274
197.674	844
197.743	903
197.812	1288
197.880	231
197.949	355
198.017	780
198.086	297
198.155	-323
198.223	412
198.292	192
198.360	13
198.429	-204
198.497	59
198.566	192
198.635	1118
198.703	391
198.772	694
198.840	635
198.909	1159
198.977	348
199.046	217
199.114	260
199.183	480
199.251	279
199.320	1312
199.388	-88
199.457	484
199.525	-267
199.594	696
199.662	-15
199.731	1182
199.799	724
199.867	590
199.936	17
200.004	329
200.073	492
200.141	810
200.210	-1085
200.278	54
200.346	256
200.415	1034
200.483	365
200.552	680
200.620	764
200.688	628
200.757	451
200.825	614
200.893	-125
200.962	85
201.030	-28
201.098	258
201.167	142
201.235	107
201.303	23
201.372	1337
201.440	-72
201.508	1265
201.577	213
201.645	935
201.713	-409
201.781	46
201.850	555
201.918	709
201.986	212
202.055	1032
202.123	407
202.191	709
202.259	190
202.327	664
202.396	-432
202.464	506
202.532	265
202.600	1283
202.669	1044
202.737	569
202.805	388
202.873	1247
202.941	-332
203.009	550
203.078	307
203.146	727
203.214	-271
203.282	475
203.350	791
203.418	-26
203.487	835
203.555	891
203.623	-105
203.691	1093
203.759	-159
203.827	469
203.895	-138
203.963	842
204.031	-116
204.099	515
204.168	-359
204.236	1282
204.304	366
204.372	821
204.440	270
204.508	358
204.576	-75
204.644	359
204.712	834
204.780	486
204.848	545
204.916	523
204.984	661
205.052	1078
205.120	564
205.188	972
205.256	-193
205.324	644
205.392	184
205.460	685
205.528	-88
205.596	815
205.664	234
205.732	462
205.799	1348
205.867	2016
205.935	-217
206.003	752
206.071	-649
206.139	101
206.207	417
206.275	829
206.343	233
206.411	251
206.478	214
206.546	651
206.614	410
206.682	707
206.750	-44
206.818	1004
206.885	449
206.953	352
207.021	1187
207.089	1143
207.157	310
207.225	412
207.292	-14
207.360	-32
207.428	-60
207.496	302
207.563	524
207.631	944
207.699	-86
207.767	868
207.834	653
207.902	2
207.970	-96
208.038	994
208.105	292
208.173	505
208.241	976
208.309	1336
208.376	553
208.444	1852
208.512	896
208.579	1052
208.647	817
208.715	1601
208.782	798
208.850	1068
208.918	281
208.985	456
209.053	787
209.120	1330
209.188	-599
209.256	730
209.323	-452
209.391	926
209.459	689
209.526	753
209.594	497
209.661	519
209.729	475
209.796	568
209.864	401
209.932	322
209.999	1109
210.067	795
210.134	698
210.202	1015
210.269	375
210.337	1313
210.404	265
210.472	610
210.539	1026
210.607	907
210.674	-52
210.742	947
210.809	243
210.877	1119
210.944	1376
211.012	355
211.079	426
211.146	794
211.214	91
211.281	2175
211.349	905
211.416	1839
211.484	876
211.551	-68
211.618	699
211.686	1156
211.753	121
211.821	219
211.888	555
211.955	985
212.023	894
212.090	858
212.157	377
212.225	981
212.292	1583
212.359	1807
212.427	2754
212.494	1776
212.561	1144
212.629	1288
212.696	799
212.763	1583
212.831	354
212.898	1554
212.965	-172
213.032	1957
213.100	87
213.167	360
213.234	660
213.301	926
213.369	974
213.436	98
213.503	330
213.570	1497
213.638	541
213.705	753
213.772	-122
213.839	896
213.906	602
213.973	1423
214.041	866
214.108	1004
214.175	950
214.242	765
214.309	1033
214.376	685
214.444	458
214.511	1207
214.578	842
214.645	1936
214.712	1204
214.779	1191
214.846	989
214.913	1016
214.980	1505
215.048	1881
215.115	1478
215.182	1501
215.249	520
215.316	-277
215.383	960
215.450	1225
215.517	561
215.584	864
215.651	382
215.718	1147
215.785	916
215.852	1275
215.919	912
215.986	1348
216.053	536
216.120	282
216.187	232
216.254	1333
216.321	888
216.388	926
216.455	627
216.522	1182
216.589	1315
216.656	2092
216.722	1824
216.789	2357
216.856	1500
216.923	1847
216.990	1377
217.057	1628
217.124	876
217.191	1722
217.258	1677
217.324	2715
217.391	1804
217.458	1688
217.525	1494
217.592	1088
217.659	205
217.725	1195
217.792	283
217.859	2438
217.926	175
217.993	760
218.059	1354
218.126	1335
218.193	295
218.260	774
218.327	455
218.393	491
218.460	371
218.527	-80
218.594	354
218.660	499
218.727	928
218.794	39
218.860	647
218.927	217
218.994	-112
219.061	416
219.127	578
219.194	1475
219.261	526
219.327	489
219.394	199
219.461	201
219.527	1029
219.594	660
219.661	676
219.727	-228
219.794	825
219.860	450
219.927	1002
219.994	747
220.060	1310
220.127	1998
220.193	1089
220.260	1175
220.326	2179
220.393	3387
220.460	4028
220.526	2413
220.593	1718
220.659	2639
220.726	1275
220.792	3347
220.859	2995
220.925	4659
220.992	5513
221.058	5175
221.125	4022
221.191	2909
221.258	1406
221.324	1234
221.391	1213
221.457	860
221.524	-99
221.590	1518
221.657	2613
221.723	1235
221.789	2182
221.856	1982
221.922	712
221.989	1522
222.055	954
222.121	119
222.188	1583
222.254	1371
222.321	585
222.387	572
222.453	775
222.520	1224
222.586	450
222.652	660
222.719	614
222.785	706
222.851	975
222.918	308
222.984	244
223.050	1561
223.116	126
223.183	1470
223.249	-249
223.315	-331
223.382	498
223.448	660
223.514	55
223.580	-49
223.647	178
223.713	527
223.779	271
223.845	425
223.911	-195
223.978	437
224.044	783
224.110	365
224.176	521
224.242	-22
224.309	162
224.375	1136
224.441	645
224.507	78
224.573	-257
224.639	1026
224.705	523
224.772	-43
224.838	7
224.904	535
224.970	-29
225.036	311
225.102	193
225.168	1310
225.234	1479
225.300	717
225.366	687
225.432	614
225.499	651
225.565	508
225.631	1211
225.697	487
225.763	750
225.829	1221
225.895	1514
225.961	948
226.027	1502
226.093	1259
226.159	2510
226.225	2738
226.291	6922
226.357	8766
226.423	4471
226.489	3276
226.554	1985
226.620	2253
226.686	1683
226.752	3000
226.818	4992
226.884	11143
226.950	9097
227.016	4667
227.082	2810
227.148	2374
227.214	1069
227.279	2064
227.345	1006
227.411	1146
227.477	1724
227.543	2765
227.609	2417
227.674	1712
227.740	1304
227.806	1184
227.872	588
227.938	1042
228.003	1344
228.069	1190
228.135	184
228.201	835
228.267	364
228.332	920
228.398	78
228.464	1145
228.530	162
228.595	1059
228.661	11
228.727	666
228.792	1391
228.858	483
228.924	-875
228.990	2023
229.055	-236
229.121	466
229.187	148
229.252	635
229.318	673
229.384	754
229.449	367
229.515	-394
229.581	-59
229.646	921
229.712	147
229.777	1044
229.843	1092
229.909	853
229.974	1351
230.040	1307
230.105	915
230.171	472
230.236	807
230.302	1524
230.368	864
230.433	1140
230.499	388
230.564	1641
230.630	180
230.695	509
230.761	216
230.826	174
230.892	1199
230.957	-435
231.023	472
231.088	644
231.154	344
231.219	1113
231.284	210
231.350	1530
231.415	210
231.481	461
231.546	223
231.612	621
231.677	-303
231.742	333
231.808	1193
231.873	297
231.939	-857
232.004	1097
232.069	901
232.135	223
232.200	-222
232.265	262
232.331	33
232.396	143
232.461	-323
232.527	323
232.592	-434
232.657	1235
232.723	819
232.788	-36
232.853	932
232.918	875
232.984	-554
233.049	341
233.114	443
233.179	794
233.245	1301
233.310	1040
233.375	-431
233.440	858
233.506	209
233.571	68
233.636	-26
233.701	365
233.766	-191
233.832	1203
233.897	472
233.962	56
234.027	490
234.092	652
234.157	1031
234.222	130
234.288	418
234.353	3040
234.418	2187
234.483	2315
234.548	721
234.613	1104
234.678	831
234.743	497
234.808	2894
234.873	1649
234.938	1186
235.004	1395
235.069	393
235.134	874
235.199	1250
235.264	1233
235.329	-298
235.394	1355
235.459	1322
235.524	492
235.589	1458
235.654	596
235.719	-143
235.784	1111
235.849	610
235.913	1459
235.978	818
236.043	1211
236.108	985
236.173	498
236.238	675
236.303	134
236.368	1080
236.433	1975
236.498	1441
236.563	1880
236.627	4274
236.692	13698
236.757	10747
236.822	4183
236.887	2288
236.952	2606
237.017	1326
237.081	3010
237.146	2350
237.211	7983
237.276	12769
237.341	17254
237.405	9076
237.470	5031
237.535	2671
237.600	2340
237.664	1793
237.729	1111
237.794	2039
237.859	5946
237.923	1724
237.988	1650
238.053	1124
238.118	1781
238.182	2064
238.247	3457
238.312	1011
238.376	1453
238.441	108
238.506	2496
238.570	-155
238.635	967
238.700	756
238.764	1018
238.829	1064
238.893	1110
238.958	2242
239.023	1478
239.087	833
239.152	1272
239.216	-326
239.281	933
239.346	420
239.410	281
239.475	139
239.539	3609
239.604	1565
239.668	1923
239.733	811
239.797	2245
239.862	4234
239.926	3053
239.991	1105
240.055	973
240.120	875
240.184	1449
240.249	-218
240.313	616
240.378	649
240.442	1364
240.507	2010
240.571	1324
240.635	695
240.700	1646
240.764	591
240.829	805
240.893	-783
240.957	955
241.022	2495
241.086	2878
241.151	1175
241.215	592
241.279	1440
241.344	1098
241.408	687
241.472	143
241.537	1071
241.601	1396
241.665	-122
241.730	895
241.794	1129
241.858	1210
241.922	183
241.987	1227
242.051	-154
242.115	252
242.179	976
242.244	398
242.308	1344
242.372	1202
242.436	213
242.501	793
242.565	85
242.629	591
242.693	585
242.757	-65
242.822	386
242.886	831
242.950	212
243.014	545
243.078	962
243.142	1280
243.206	394
243.271	1074
243.335	841
243.399	2108
243.463	4817
243.527	11575
243.591	3310
243.655	2206
243.719	37
243.783	1854
243.847	1336
243.911	2399
243.975	2730
244.040	1154
244.104	1427
244.168	1144
244.232	1624
244.296	2514
244.360	1962
244.424	781
244.488	756
244.552	686
244.615	94
244.679	1342
244.743	364
244.807	458
244.871	354
244.935	930
244.999	-263
245.063	-23
245.127	1659
245.191	2298
245.255	465
245.319	1770
245.383	-301
245.446	2066
245.510	-39
245.574	1526
245.638	995
245.702	11
245.766	2533
245.829	2291
245.893	397
245.957	458
246.021	1462
246.085	836
246.149	727
246.212	4034
246.276	3647
246.340	2116
246.404	1038
246.467	2291
246.531	1410
246.595	2523
246.659	1915
246.722	695
246.786	1964
246.850	1367
246.913	1986
246.977	835
247.041	1380
247.104	1108
247.168	1308
247.232	4226
247.295	6163
247.359	2943
247.423	1276
247.486	2855
247.550	1976
247.614	1296
247.677	1318
247.741	1245
247.804	-93
247.868	2100
247.932	2317
247.995	5963
248.059	1371
248.122	449
248.186	2046
248.249	2618
248.313	9984
248.376	9901
248.440	5504
248.503	2198
248.567	2914
248.630	3256
248.694	4962
248.757	6425
248.821	9449
248.884	7088
248.948	5980
249.011	8620
249.075	11760
249.138	9665
249.202	4718
249.265	2898
249.328	3269
249.392	1954
249.455	2134
249.519	1624
249.582	2588
249.645	4061
249.709	2370
249.772	2029
249.835	1941
249.899	1778
249.962	1850
250.025	1456
250.089	4111
250.152	6001
250.215	3004
250.279	1896
250.342	1532
250.405	2463
250.468	1413
250.532	1905
250.595	3871
250.658	12048
250.721	18111
250.785	6376
250.848	4277
250.911	2085
250.974	1903
251.038	2493
251.101	6099
251.164	3175
251.227	3903
251.290	4134
251.354	4748
251.417	17241
251.480	13984
251.543	11869
251.606	28777
251.669	19841
251.732	9168
251.795	8951
251.859	9200
251.922	18727
251.985	10607
252.048	5139
252.111	2901
252.174	3431
252.237	6680
252.300	12350
252.363	13526
252.426	23728
252.489	9307
252.552	4920
252.615	3109
252.678	4685
252.741	8916
252.804	12072
252.867	24521
252.930	15151
252.993	8009
253.056	5939
253.119	3396
253.182	2360
253.245	3590
253.308	3609
253.371	2991
253.434	2661
253.497	3567
253.559	7064
253.622	4128
253.685	5017
253.748	6518
253.811	2216
253.874	3834
253.937	2662
254.000	2076
254.062	4756
254.125	5443
254.188	7157
254.251	4945
254.314	2027
254.376	3996
254.439	5556
254.502	5248
254.565	4897
254.628	8138
254.690	4815
254.753	2392
254.816	2553
254.878	2769
254.941	4469
255.004	4234
255.067	1792
255.129	2963
255.192	2002
255.255	478
255.317	2178
255.380	921
255.443	1158
255.505	880
255.568	279
255.631	806
255.693	1352
255.756	-518
255.819	1701
255.881	264
255.944	921
256.006	455
256.069	1009
256.132	642
256.194	1175
256.257	2395
256.319	1849
256.382	718
256.444	2345
256.507	1779
256.569	906
256.632	915
256.694	2345
256.757	9098
256.819	22244
256.882	7919
256.944	3616
257.007	3193
257.069	2858
257.132	1476
257.194	2617
257.257	1045
257.319	851
257.381	1323
257.444	7071
257.506	25772
257.569	26100
257.631	11459
257.693	6539
257.756	2210
257.818	2068
257.880	1545
257.943	1828
258.005	739
258.067	1646
258.130	1023
258.192	1913
258.254	2585
258.317	1426
258.379	1930
258.441	3569
258.503	4059
258.566	3534
258.628	3980
258.690	1553
258.753	1103
258.815	3316
258.877	1232
258.939	787
259.001	723
259.064	1087
259.126	751
259.188	2029
259.250	1637
259.312	1474
259.375	3788
259.437	2271
259.499	1698
259.561	1864
259.623	1234
259.685	1191
259.747	1096
259.809	2798
259.872	4152
259.934	10234
259.996	9996
260.058	3596
260.120	784
260.182	1178
260.244	836
260.306	760
260.368	1078
260.430	221
260.492	3057
260.554	5570
260.616	2191
260.678	6111
260.740	5298
260.802	1734
260.864	1765
260.926	750
260.988	1814
261.050	1089
261.112	5325
261.174	9526
261.236	4476
261.298	1656
261.359	2561
261.421	4338
261.483	175
261.545	2320
261.607	-9
261.669	880
261.731	1567
261.793	4509
261.854	866
261.916	2320
261.978	1617
262.040	1288
262.102	1291
262.164	1203
262.225	1293
262.287	812
262.349	2439
262.411	2688
262.472	894
262.534	1324
262.596	2316
262.658	2099
262.719	330
262.781	1332
262.843	1942
262.904	1863
262.966	1288
263.028	1605
263.090	6982
263.151	16842
263.213	6283
263.275	3999
263.336	1111
263.398	1660
263.459	-474
263.521	762
263.583	3764
263.644	2007
263.706	1447
263.767	405
263.829	1149
263.891	-101
263.952	265
264.014	321
264.075	2421
264.137	7322
264.198	2312
264.260	625
264.321	-51
264.383	3539
264.444	9604
264.506	2584
264.567	1095
264.629	4385
264.690	7044
264.752	3097
264.813	1124
264.875	933
264.936	875
264.998	1217
265.059	696
265.120	1423
265.182	2647
265.243	13802
265.305	12549
265.366	2940
265.427	1151
265.489	1095
265.550	696
265.611	1250
265.673	602
265.734	1509
265.795	902
265.857	535
265.918	579
265.979	4609
266.040	21621
266.102	15528
266.163	4808
266.224	3671
266.286	1649
266.347	519
266.408	824
266.469	638
266.530	601
266.592	544
266.653	1639
266.714	2767
266.775	1044
266.836	450
266.898	-199
266.959	1609
267.020	942
267.081	1353
267.142	215
267.203	151
267.264	-91
267.326	2053
267.387	477
267.448	-73
267.509	524
267.570	858
267.631	-494
267.692	-375
267.753	688
267.814	-17
267.875	2773
267.936	4164
267.997	1576
268.058	2800
268.119	239
268.180	583
268.241	209
268.302	573
268.363	719
268.424	810
268.485	501
268.546	5
268.607	-341
268.668	464
268.729	-693
268.790	-166
268.851	734
268.912	3579
268.972	3396
269.033	1091
269.094	-323
269.155	751
269.216	699
269.277	-250
269.338	402
269.398	45
269.459	-618
269.520	1563
269.581	2746
269.642	1896
269.702	397
269.763	1913
269.824	487
269.885	796
269.945	2176
270.006	923
270.067	-229
270.128	841
270.188	-595
270.249	1068
270.310	-401
270.370	1021
270.431	-171
270.492	349
270.553	237
270.613	2077
270.674	4392
270.734	1346
270.795	315
270.856	909
270.916	380
270.977	1752
271.038	617
271.098	1623
271.159	1814
271.219	1411
271.280	440
271.340	1386
271.401	354
271.462	1813
271.522	1253
271.583	467
271.643	343
271.704	494
271.764	976
271.825	4590
271.885	11051
271.946	12688
272.006	4750
272.066	7281
272.127	9111
272.187	3677
272.248	1969
272.308	1075
272.369	6799
272.429	2973
272.489	3697
272.550	3992
272.610	3778
272.671	2394
272.731	2426
272.791	2145
272.852	1524
272.912	1993
272.972	1097
273.033	1251
273.093	52
273.153	2357
273.214	798
273.274	842
273.334	6209
273.394	11626
273.455	3670
273.515	4923
273.575	9731
273.635	3230
273.696	4289
273.756	8892
273.816	2855
273.876	1919
273.936	3808
273.997	5753
274.057	1647
274.117	863
274.177	3345
274.237	14561
274.297	9751
274.358	5823
274.418	6814
274.478	5984
274.538	1716
274.598	888
274.658	4579
274.718	5568
274.778	1761
274.838	1350
274.898	2214
274.958	7062
275.018	8889
275.078	5417
275.138	1954
275.198	1246
275.258	565
275.318	1580
275.378	2877
275.438	4385
275.498	1607
275.558	4570
275.618	8045
275.678	6284
275.738	4758
275.798	4001
275.858	962
275.918	1038
275.978	1648
276.038	1136
276.098	182
276.157	2189
276.217	8165
276.277	3369
276.337	1750
276.397	641
276.457	1077
276.517	1289
276.576	443
276.636	108
276.696	1994
276.756	4520
276.815	2798
276.875	1531
276.935	995
276.995	823
277.055	667
277.114	736
277.174	1341
277.234	6454
277.293	1762
277.353	1006
277.413	1005
277.472	969
277.532	544
277.592	1283
277.651	5018
277.711	8158
277.771	1813
277.830	12225
277.890	8389
277.950	6101
278.009	15562
278.069	5297
278.128	5907
278.188	8581
278.248	3324
278.307	9287
278.367	4601
278.426	1255
278.486	523
278.545	1603
278.605	-181
278.664	355
278.724	494
278.783	4423
278.843	9441
278.902	2808
278.962	1402
279.021	1762
279.081	1531
279.140	1601
279.199	1574
279.259	2134
279.318	1114
279.378	2378
279.437	4139
279.496	14993
279.556	33740
279.615	22586
279.675	6413
279.734	4397
279.793	6647
279.853	11986
279.912	4271
279.971	2176
280.031	1504
280.090	5826
280.149	6935
280.208	5830
280.268	25716
280.327	22253
280.386	4802
280.445	6123
280.505	4501
280.564	3565
280.623	782
280.682	3112
280.742	5190
280.801	897
280.860	911
280.919	773
280.978	1015
281.037	317
281.097	-298
281.156	491
281.215	365
281.274	227
281.333	6589
281.392	4573
281.451	-196
281.510	1042
281.569	487
281.628	360
281.688	185
281.747	509
281.806	405
281.865	383
281.924	400
281.983	-443
282.042	-480
282.101	169
282.160	500
282.219	739
282.278	1183
282.337	3642
282.396	2572
282.454	1098
282.513	1215
282.572	7073
282.631	3009
282.690	966
282.749	-168
282.808	1885
282.867	835
282.926	1276
282.985	158
283.043	566
283.102	348
283.161	944
283.220	2880
283.279	6180
283.338	962
283.396	1027
283.455	810
283.514	1221
283.573	2193
283.631	2298
283.690	1256
283.749	905
283.808	2008
283.866	3885
283.925	-244
283.984	859
284.043	584
284.101	1430
284.160	1176
284.219	1406
284.277	684
284.336	2769
284.395	8579
284.453	6472
284.512	1643
284.570	3676
284.629	2503
284.688	1983
284.746	1601
284.805	2717
284.863	3223
284.922	4338
284.981	4158
285.039	8772
285.098	14961
285.156	35477
285.215	51738
285.273	51763
285.332	33298
285.390	16708
285.449	10956
285.507	7848
285.566	4711
285.624	4081
285.683	3046
285.741	2660
285.799	1895
285.858	1619
285.916	1310
285.975	1316
286.033	456
286.091	816
286.150	523
286.208	1021
286.267	1194
286.325	1369
286.383	2186
286.442	1809
286.500	529
286.558	496
286.616	-326
286.675	2052
286.733	1210
286.791	776
286.850	622
286.908	1917
286.966	3411
287.024	1011
287.083	717
287.141	471
287.199	1415
287.257	2057
287.315	1492
287.374	900
287.432	3524
287.490	1911
287.548	811
287.606	1020
287.664	242
287.723	1031
287.781	1805
287.839	950
287.897	698
287.955	1131
288.013	1801
288.071	6502
288.129	26779
288.187	65819
288.245	26634
288.303	9057
288.361	4821
288.419	3710
288.477	1829
288.535	1456
288.593	992
288.651	649
288.709	-138
288.767	869
288.825	-32
288.883	128
288.941	464
288.999	228
289.057	-410
289.115	-64
289.173	546
289.231	822
289.289	-294
289.346	348
289.404	757
289.462	2472
289.520	1881
289.578	640
289.636	-317
289.694	-352
289.751	209
289.809	475
289.867	-61
289.925	1014
289.983	851
290.040	373
290.098	566
290.156	762
290.214	368
290.271	222
290.329	365
290.387	560
290.444	-493
290.502	-268
290.560	471
290.617	968
290.675	280
290.733	72
290.790	500
290.848	-299
290.906	430
290.963	157
291.021	328
291.078	418
291.136	190
291.194	4519
291.251	8479
291.309	2316
291.366	131
291.424	1055
291.481	354
291.539	-108
291.596	862
291.654	236
291.711	98
291.769	149
291.826	1454
291.884	625
291.941	-491
291.999	211
292.056	-215
292.114	849
292.171	-1143
292.228	129
292.286	1318
292.343	2440
292.401	1748
292.458	1729
292.515	602
292.573	1352
292.630	1041
292.687	482
292.745	715
292.802	1627
292.859	5684
292.917	8056
292.974	3705
293.031	1169
293.089	851
293.146	921
293.203	309
293.260	351
293.318	539
293.375	2288
293.432	525
293.489	1042
293.546	360
293.604	1165
293.661	4156
293.718	11255
293.775	5883
293.832	2554
293.889	1987
293.947	1764
294.004	910
294.061	1722
294.118	3327
294.175	9973
294.232	13199
294.289	4879
294.346	2218
294.403	1666
294.460	1519
294.517	1126
294.574	919
294.631	1191
294.688	881
294.745	3723
294.802	15817
294.859	19272
294.916	5961
294.973	3219
295.030	2719
295.087	2178
295.144	1099
295.201	973
295.258	859
295.315	1061
295.372	4530
295.429	9091
295.486	3646
295.542	3756
295.599	9840
295.656	16471
295.713	8803
295.770	10134
295.827	3740
295.883	2412
295.940	1672
295.997	4340
296.054	2051
296.111	977
296.167	1735
296.224	598
296.281	340
296.338	439
296.394	483
296.451	1084
296.508	3744
296.564	9746
296.621	5892
296.678	12086
296.734	15084
296.791	6558
296.848	2968
296.904	4197
296.961	7882
297.018	11420
297.074	7356
297.131	3235
297.187	1951
297.244	3686
297.301	10528
297.357	16157
297.414	4426
297.470	2365
297.527	1856
297.583	1562
297.640	892
297.696	1754
297.753	836
297.809	737
297.866	259
297.922	1242
297.979	577
298.035	1142
298.092	1805
298.148	5907
298.204	5323
298.261	2162
298.317	5800
298.374	13547
298.430	6818
298.486	3468
298.543	1966
298.599	2160
298.656	2719
298.712	4949
298.768	10992
298.824	6354
298.881	1788
298.937	1790
298.993	1211
299.050	1867
299.106	1346
299.162	1236
299.218	649
299.275	1177
299.331	1862
299.387	3620
299.443	11486
299.500	13331
299.556	5892
299.612	2766
299.668	1887
299.724	3382
299.780	4118
299.837	2002
299.893	2932
299.949	12423
300.005	12789
300.061	12053
300.117	17342
300.173	8162
300.229	3442
300.285	4401
300.341	4863
300.397	1689
300.453	1273
300.510	449
300.566	831
300.622	2805
300.678	8722
300.734	15365
300.790	10943
300.845	11542
300.901	8455
300.957	12798
301.013	9163
301.069	3393
301.125	2279
301.181	2751
301.237	1872
301.293	491
301.349	674
301.405	741
301.461	612
301.516	1589
301.572	1236
301.628	3545
301.684	2589
301.740	4602
301.796	6983
301.851	5172
301.907	8328
301.963	8798
302.019	12383
302.074	30312
302.130	29703
302.186	14233
302.242	5166
302.297	3158
302.353	3506
302.409	7762
302.464	5272
302.520	5778
302.576	12042
302.631	14173
302.687	9252
302.743	3277
302.798	1312
302.854	915
302.910	1793
302.965	2130
303.021	4291
303.076	4691
303.132	5489
303.187	6685
303.243	3602
303.299	1936
303.354	1056
303.410	1674
303.465	1091
303.521	1083
303.576	204
303.632	2372
303.687	3927
303.743	10034
303.798	8091
303.853	3883
303.909	2205
303.964	2069
304.020	3100
304.075	5501
304.130	4621
304.186	9280
304.241	10233
304.297	8016
304.352	2352
304.358	2358
304.407	2399
304.449	2303
304.463	2273
304.518	2089
304.539	1574
304.573	745
304.629	2256
304.630	2280
304.684	3491
304.720	6446
304.739	7936
304.794	11557
304.811	9977
304.850	6039
304.902	2487
304.905	2268
304.960	2340
304.992	2254
305.015	2191
305.071	2172
305.083	1973
305.126	1217
305.173	1403
305.181	1438
305.236	1191
305.264	1008
305.292	871
305.347	1457
305.354	1521
305.402	1900
305.445	2261
305.457	2373
305.512	2803
305.535	2902
305.567	2953
305.622	3472
305.626	3560
305.678	5911
305.716	10916
305.733	12681
305.788	14394
305.807	12425
305.843	8943
305.897	10948
305.898	10967
305.953	10818
305.988	8037
306.008	6484
306.063	3747
306.078	3228
306.118	1966
306.168	1584
306.173	1588
306.228	1578
306.259	1420
306.283	1189
306.338	1338
306.349	1422
306.393	2024
306.440	2434
306.448	2438
306.503	1814
306.530	1803
306.558	2587
306.613	7183
306.620	7678
306.668	10835
306.711	13708
306.723	13845
306.778	10581
306.801	8348
306.833	5719
306.888	2804
306.892	2681
306.943	2109
306.982	2148
306.997	2164
307.052	1433
307.072	1387
307.107	1540
307.162	2465
307.163	2476
307.217	4020
307.253	5266
307.272	5644
307.327	5534
307.343	5448
307.381	4873
307.434	3166
307.436	3242
307.491	8264
307.524	11959
307.546	13058
307.600	13706
307.614	12503
307.655	7623
307.704	3929
307.710	3815
307.765	4574
307.795	5469
307.819	6667
307.874	10931
307.885	11006
307.929	9007
307.975	7263
307.984	7484
308.038	11276
308.065	14265
308.093	22852
308.148	45959
308.156	50758
308.202	79510
308.246	97149
308.257	94188
308.312	56170
308.336	40995
308.366	31420
308.421	19479
308.426	18406
308.475	11877
308.517	8261
308.530	7692
308.585	6042
308.607	5636
308.639	5491
308.694	5564
308.697	5598
308.748	9292
308.787	13729
308.803	13925
308.857	10832
308.877	9578
308.912	8635
308.967	8034
308.967	8038
309.021	10813
309.058	13529
309.076	17421
309.130	31569
309.148	37329
309.185	62455
309.238	103781
309.239	104219
309.293	116332
309.328	114096
309.348	100348
309.402	54492
309.418	42499
309.457	30001
309.508	17598
309.511	17270
309.566	14152
309.598	12853
309.620	13585
309.674	15935
309.688	16693
309.729	15877
309.778	13603
309.783	13351
309.837	10408
309.868	8979
309.892	10521
309.946	15295
309.959	16852
310.001	23892
310.049	30331
310.055	29286
310.109	17254
310.139	10442
310.163	8228
310.218	4712
310.229	4142
310.272	3506
310.319	2902
310.326	2868
310.381	2660
310.409	2660
310.435	2598
310.489	2303
310.499	2247
310.543	2486
310.589	2744
310.598	2696
310.652	2642
310.679	2565
310.706	2504
310.760	2254
310.769	2191
310.814	1945
310.859	1847
310.868	1903
310.923	2025
310.948	2227
310.977	2272
311.031	2106
311.038	2116
311.085	2467
311.128	2481
311.139	2410
311.193	2267
311.218	2117
311.247	2079
311.301	2159
311.308	2145
311.356	2313
311.398	2601
311.410	2577
311.464	2236
311.488	2149
311.518	2119
311.572	1987
311.578	1969
311.626	3116
311.668	4140
311.680	4086
311.734	3735
311.758	3555
311.788	3520
311.842	3539
311.847	3529
311.896	4553
311.937	5468
311.950	5490
312.004	5535
312.027	5520
312.058	4696
312.112	3240
312.117	3089
312.165	3073
312.207	3050
312.297	4413
312.386	4040
312.476	3070
312.566	6389
312.656	3184
312.745	2522
312.835	2366
312.925	3384
313.015	2646
313.104	3001
313.194	1646
313.284	3101
313.374	2547
313.463	3317
313.553	1610
313.643	1982
313.732	2300
313.822	1810
313.912	3250
314.001	3311
314.091	3063
314.180	5872
314.270	3661
314.360	3951
314.449	3627
314.539	2293
314.628	2007
314.718	2093
314.808	3556
314.897	2317
314.987	2771
315.076	2868
315.166	3851
315.255	3866
315.345	3949
315.434	3314
315.524	2930
315.613	3730
315.703	4786
315.792	5505
315.881	9777
315.971	5594
316.060	5672
316.150	8415
316.239	8487
316.328	3915
316.418	2258
316.507	2117
316.597	3065
316.686	3597
316.775	4046
316.865	9145
316.954	2655
317.043	1951
317.133	1159
317.222	2260
317.311	2126
317.400	1754
317.490	2703
317.579	3276
317.668	1607
317.757	3530
317.847	6706
317.936	18673
318.025	11284
318.114	6051
318.203	4390
318.293	6892
318.382	12820
318.471	10775
318.560	13911
318.649	30436
318.738	8060
318.828	4729
318.917	4355
319.006	4852
319.095	10825
319.184	36118
319.273	21400
319.362	11542
319.451	2976
319.540	4013
319.629	6740
319.718	12938
319.807	6555
319.896	10211
319.985	43209
320.074	18944
320.163	4434
320.252	5545
320.341	6028
320.430	6280
320.519	6736
320.608	4477
320.697	3688
320.786	3059
320.875	3636
320.964	5083
321.053	8117
321.142	11626
321.230	13967
321.319	8672
321.408	22867
321.497	10936
321.586	9083
321.675	9471
321.764	10923
321.852	6288
321.941	12332
322.030	9962
322.119	8400
322.207	22773
322.296	15811
322.385	9869
322.474	9104
322.562	25700
322.651	15711
322.740	9206
322.829	13822
322.917	12614
323.006	7863
323.095	6309
323.183	5035
323.272	8102
323.361	10766
323.449	32804
323.538	12960
323.626	22825
323.715	16586
323.804	7176
323.892	19546
323.981	14590
324.069	4371
324.158	9988
324.246	12178
324.335	4846
324.424	8556
324.512	3832
324.601	4959
324.689	8057
324.778	16047
324.866	10188
324.954	3812
325.043	2636
325.131	5392
325.220	9696
325.308	10828
325.397	7920
325.485	5829
325.574	2524
325.662	1949
325.750	3079
325.839	1978
325.927	2415
326.015	2720
326.104	3481
326.192	5803
326.280	2254
326.369	1903
326.457	4051
326.545	7010
326.634	3678
326.722	1374
326.810	1708
326.898	1582
326.987	2234
327.075	5283
327.163	6509
327.251	2783
327.340	6159
327.428	10634
327.516	3225
327.604	2098
327.692	1981
327.781	2709
327.869	4557
327.957	2616
328.045	2634
328.133	1653
328.221	2743
328.309	1873
328.397	2749
328.485	2871
328.574	4524
328.662	12886
328.750	7265
328.838	2693
328.926	1609
329.014	2102
329.102	3854
329.190	9170
329.278	6425
329.366	2212
329.454	1355
329.542	2030
329.630	1460
329.718	1717
329.806	2696
329.893	2696
329.981	3986
330.069	4287
330.157	14732
330.245	42180
330.333	27431
330.421	4989
330.509	4126
330.597	15632
330.684	12143
330.772	4106
330.860	5754
330.948	8626
331.036	4500
331.123	818
331.211	2420
331.299	2869
331.387	6762
331.475	13318
331.562	3833
331.650	2239
331.738	1693
331.825	3193
331.913	1926
332.001	1332
332.089	2935
332.176	5489
332.264	10223
332.352	9610
332.439	3395
332.527	2562
332.614	1881
332.702	2271
332.790	2201
332.877	4038
332.965	10677
333.052	3145
333.140	2429
333.228	5712
333.315	2513
333.403	1941
333.490	5819
333.578	5782
333.665	7102
333.753	4893
333.840	2296
333.928	3452
334.015	7169
334.103	11674
334.190	41928
334.278	14112
334.365	5487
334.452	3938
334.540	3038
334.627	3277
334.715	5560
334.802	8372
334.889	34651
334.977	43385
335.064	7680
335.151	3678
335.239	4083
335.326	5813
335.413	18854
335.501	33548
335.588	5488
335.675	2883
335.762	4111
335.850	8359
335.937	5771
336.024	12597
336.111	46823
336.199	25970
336.286	5782
336.373	2885
336.460	3105
336.547	1133
336.635	2367
336.722	2763
336.809	2601
336.896	3002
336.983	12663
337.070	33492
337.157	47129
337.245	26158
337.332	20595
337.419	3282
337.506	2588
337.593	3160
337.680	10126
337.767	37748
337.854	10101
337.941	10383
338.028	9569
338.115	3940
338.202	5474
338.289	7257
338.376	25218
338.463	10222
338.550	18385
338.637	23395
338.724	6345
338.811	8460
338.898	1679
338.984	1974
339.071	2440
339.158	2572
339.245	8088
339.332	6158
339.419	5301
339.506	5924
339.593	995
339.679	1699
339.766	1476
339.853	2356
339.940	5948
340.027	1806
340.113	2268
340.200	3567
340.287	2259
340.374	2829
340.460	5847
340.547	1894
340.634	4100
340.720	14112
340.807	10597
340.894	1520
340.980	2043
341.067	1200
341.154	2435
341.240	2537
341.327	8004
341.414	2765
341.500	2110
341.587	1897
341.674	2437
341.760	4334
341.847	6596
341.933	1649
342.020	693
342.106	674
342.193	2214
342.279	3782
342.366	2511
342.452	5516
342.539	3204
342.625	6234
342.712	17048
342.798	7279
342.885	3376
342.971	1766
343.058	982
343.144	1431
343.230	1583
343.317	1335
343.403	938
343.490	252
343.576	879
343.662	1227
343.749	1490
343.835	2123
343.921	4578
344.008	19941
344.094	52734
344.180	14642
344.267	5532
344.353	14157
344.439	17889
344.525	8298
344.612	4453
344.698	4274
344.784	2557
344.870	825
344.957	1420
345.043	3414
345.129	2408
345.215	4494
345.301	2888
345.387	1234
345.474	523
345.560	816
345.646	1721
345.732	1451
345.818	1862
345.904	1580
345.990	2404
346.076	1883
346.162	3742
346.249	1706
346.335	1346
346.421	1153
346.507	4849
346.593	20660
346.679	6850
346.765	2157
346.851	1821
346.937	1176
347.023	2746
347.108	2395
347.194	1919
347.280	1677
347.366	1982
347.452	5605
347.538	24774
347.624	20527
347.710	18303
347.796	2452
347.882	1784
347.967	1620
348.053	3267
348.139	1499
348.225	1666
348.311	1366
348.397	1110
348.482	1819
348.568	2690
348.654	1487
348.740	2422
348.825	2871
348.911	2738
348.997	9711
349.083	23508
349.168	4780
349.254	1386
349.340	2035
349.425	1380
349.511	2688
349.597	3079
349.682	4681
349.768	16990
349.854	9950
349.939	2140
350.025	1404
350.110	2797
350.196	866
350.282	628
350.367	946
350.453	2443
350.538	2880
350.624	2800
350.709	2194
350.795	1456
350.880	1178
350.966	2100
351.051	1825
351.137	2192
351.222	1922
351.308	4733
351.393	17491
351.479	4777
351.564	500
351.649	981
351.735	1042
351.820	910
351.906	1197
351.991	2004
352.076	8569
352.162	16955
352.247	3218
352.332	2218
352.418	3515
352.503	5561
352.588	22382
352.673	21269
352.759	4447
352.844	1611
352.929	1666
353.014	3151
353.100	1997
353.185	4263
353.270	5298
353.355	6704
353.441	1972
353.526	2327
353.611	4658
353.696	6235
353.781	4235
353.866	1477
353.952	2404
354.037	4307
354.122	12027
354.207	10234
354.292	4387
354.377	2290
354.462	1591
354.547	2467
354.632	1969
354.717	3666
354.802	5636
354.887	2219
354.972	851
355.057	1046
355.142	1130
355.227	1998
355.312	3200
355.397	6852
355.482	19397
355.567	10546
355.652	6557
355.737	7084
355.822	18854
355.907	18131
355.991	3321
356.076	2269
356.161	1839
356.246	972
356.331	1874
356.416	3319
356.501	25792
356.585	33306
356.670	4952
356.755	4299
356.840	4760
356.924	19745
357.009	69400
357.094	33674
357.179	6779
357.263	4941
357.348	4306
357.433	4783
357.517	4234
357.602	4020
357.687	2261
357.771	4751
357.856	12966
357.941	9020
358.025	13573
358.110	64404
358.195	37704
358.279	6083
358.364	3861
358.448	14393
358.533	41180
358.617	31130
358.702	28487
358.787	11978
358.871	5760
358.956	5467
359.040	2003
359.125	1174
359.209	1437
359.294	5163
359.378	11142
359.462	5041
359.547	2593
359.631	1570
359.716	869
359.800	1320
359.885	3357
359.969	1631
360.053	1867
360.138	1753
360.222	2528
360.306	5236
360.391	4168
360.475	7220
360.559	17753
360.644	15497
360.728	11599
360.812	13843
360.896	44328
360.981	22439
361.065	13639
361.149	2879
361.233	2075
361.318	1895
361.402	2557
361.486	3169
361.570	1503
361.654	2104
361.739	6018
361.823	24813
361.907	45850
361.991	10127
362.075	4512
362.159	11106
362.243	9886
362.327	9255
362.411	12970
362.495	6242
362.580	3456
362.664	2213
362.748	2110
362.832	3841
362.916	5983
363.000	20772
363.084	45655
363.168	58549
363.252	15595
363.336	5627
363.420	7231
363.503	27324
363.587	39870
363.671	7303
363.755	4243
363.839	6676
363.923	2968
364.007	5971
364.091	8506
364.175	9770
364.258	49357
364.342	43291
364.426	47464
364.510	27244
364.594	11947
364.677	10030
364.761	34751
364.845	30311
364.929	11055
365.013	9095
365.096	6486
365.180	8255
365.264	10187
365.347	48796
365.431	24274
365.515	6363
365.598	2118
365.682	2843
365.766	3808
365.849	7765
365.933	2397
366.017	4285
366.100	4297
366.184	902
366.267	1981
366.351	2084
366.435	983
366.518	999
366.602	870
366.685	1707
366.769	1812
366.852	5195
366.936	8316
367.019	4441
367.103	2829
367.186	9061
367.270	2560
367.353	823
367.436	1387
367.520	1036
367.603	1922
367.687	2608
367.770	6633
367.853	3440
367.937	9231
368.020	19816
368.104	4415
368.187	5194
368.270	7488
368.353	6723
368.437	6629
368.520	16585
368.603	12416
368.687	13332
368.770	29724
368.853	7788
368.936	7711
369.020	8518
369.103	2536
369.186	1807
369.269	1169
369.352	4483
369.436	7156
369.519	3782
369.602	1220
369.685	2707
369.768	2314
369.851	1560
369.934	1172
370.018	1578
370.101	4701
370.184	6079
370.267	3314
370.350	5590
370.433	8844
370.516	17834
370.599	24448
370.682	7653
370.765	16464
370.848	18051
370.931	33423
371.014	16205
371.097	2896
371.180	1696
371.263	1664
371.346	1026
371.429	1406
371.511	1160
371.594	3209
371.677	6773
371.760	8632
371.843	5833
371.926	20708
372.009	55662
372.091	21705
372.174	11802
372.257	26724
372.340	12939
372.423	9743
372.505	14902
372.588	5167
372.671	9092
372.754	32223
372.836	18236
372.919	12846
373.002	32460
373.085	9932
373.167	5787
373.250	13521
373.332	29017
373.415	33966
373.498	76270
373.580	32937
373.663	32409
373.746	49764
373.828	14119
373.911	6219
373.993	5981
374.076	25575
374.159	29549
374.241	9744
374.324	27907
374.406	21865
374.489	17948
374.571	58872
374.654	28764
374.736	11349
374.819	34846
374.901	50611
374.983	59276
375.066	12204
375.148	4672
375.231	19122
375.313	47028
375.395	18609
375.478	4174
375.560	1591
375.643	3637
375.725	9945
375.807	45026
375.890	40685
375.972	17323
376.054	9324
376.136	14375
376.219	6539
376.301	11727
376.383	40678
376.465	18308
376.548	10690
376.630	11225
376.712	35480
376.794	19460
376.877	2311
376.959	1294
377.041	2067
377.123	4765
377.205	8996
377.287	1649
377.369	1252
377.452	1299
377.534	1628
377.616	1152
377.698	687
377.780	725
377.862	1441
377.944	2213
378.026	351
378.108	1142
378.190	988
378.272	1162
378.354	574
378.436	1182
378.518	2769
378.600	13215
378.682	11055
378.764	18771
378.846	18432
378.928	4845
379.010	6467
379.091	4275
379.173	1962
379.255	1290
379.337	1794
379.419	7697
379.501	28609
379.583	13468
379.664	2530
379.746	6331
379.828	19837
379.910	27576
379.991	26198
380.073	4828
380.155	2221
380.237	2033
380.318	1542
380.400	1636
380.482	4556
380.564	7027
380.645	6920
380.727	7085
380.809	3749
380.890	3076
380.972	1496
381.053	2106
381.135	2272
381.217	5328
381.298	21840
381.380	12505
381.461	6624
381.543	32345
381.624	48518
381.706	10413
381.787	4596
381.869	4856
381.951	11220
382.032	54520
382.113	41515
382.195	9902
382.276	6746
382.358	10718
382.439	28753
382.521	32218
382.602	54541
382.684	25993
382.765	44440
382.846	46752
382.928	54517
383.009	32461
383.090	19329
383.172	68778
383.253	120313
383.334	46870
383.416	48654
383.497	27716
383.578	10808
383.659	17925
383.741	58354
383.822	170589
383.903	98098
383.984	33893
384.066	64435
384.147	45490
384.228	9686
384.309	5103
384.390	5100
384.471	3289
384.553	3117
384.634	5662
384.715	6091
384.796	2950
384.877	3570
384.958	16762
385.039	24461
385.120	9108
385.201	4217
385.282	6042
385.363	5299
385.444	4716
385.525	6341
385.606	22584
385.687	22616
385.768	6884
385.849	6467
385.930	25083
386.011	47848
386.092	15319
386.173	4291
386.254	3980
386.335	3779
386.416	4037
386.496	11147
386.577	23894
386.658	9669
386.739	5392
386.820	5248
386.901	4803
386.981	3978
387.062	2582
387.143	3868
387.224	19340
387.304	21478
387.385	8640
387.466	4335
387.547	7658
387.627	4032
387.708	7350
387.789	31019
387.869	42595
387.950	13313
388.031	2883
388.111	1493
388.192	8277
388.273	14692
388.353	8174
388.434	3275
388.514	5772
388.595	24311
388.676	39689
388.756	21583
388.837	20315
388.917	14438
388.998	2859
389.078	2273
389.159	2207
389.239	904
389.320	4087
389.400	1981
389.480	6444
389.561	20068
389.641	11092
389.722	2992
389.802	6581
389.883	7621
389.963	22479
390.043	14836
390.124	5464
390.204	5203
390.284	23967
390.365	16262
390.445	17459
390.525	36678
390.605	31045
390.686	12522
390.766	4975
390.846	2555
390.927	1266
391.007	1572
391.087	2239
391.167	1837
391.247	1723
391.328	4162
391.408	7378
391.488	5621
391.568	1328
391.648	2110
391.728	5190
391.808	3882
391.888	4790
391.969	10151
392.049	19286
392.129	9947
392.209	8033
392.289	22432
392.369	14422
392.449	14912
392.529	8950
392.609	6481
392.689	6947
392.769	20898
392.849	21255
392.929	14216
393.009	34806
393.089	26888
393.169	21442
393.248	58035
393.328	218743
393.408	266051
393.488	87388
393.568	24707
393.648	13061
393.728	6924
393.807	4783
393.887	5488
393.967	3877
394.047	5859
394.127	7328
394.206	11930
394.286	36329
394.366	154130
394.446	193636
394.525	56923
394.605	16033
394.685	9330
394.764	19851
394.844	33770
394.924	26341
395.003	7380
395.083	5012
395.163	4924
395.242	3390
395.322	3993
395.402	2227
395.481	4841
395.561	10515
395.640	37130
395.720	31870
395.799	39667
395.879	34371
395.958	19814
396.038	56343
396.117	200921
396.197	248599
396.276	98081
396.356	33454
396.435	21111
396.515	13945
396.594	12366
396.673	21808
396.753	61760
396.832	209963
396.912	184864
396.991	51445
397.070	15166
397.150	6250
397.229	5584
397.308	7417
397.388	15556
397.467	8774
397.546	3455
397.625	1002
397.705	3665
397.784	4193
397.863	1731
397.942	1772
398.022	1477
398.101	8236
398.180	33975
398.259	20573
398.338	5187
398.417	2162
398.497	1364
398.576	2322
398.655	1001
398.734	1004
398.813	1204
398.892	7611
398.971	35672
399.050	19444
399.129	1889
399.208	505
399.287	849
399.366	505
399.445	992
399.524	1507
399.603	174
399.682	2114
399.761	8119
399.840	35066
399.919	32714
399.998	3943
400.077	54
400.156	-270
400.235	1958
400.313	1396
400.392	778
400.471	9397
400.550	18789
400.629	5399
400.708	2399
400.786	1867
400.865	7363
400.944	9016
401.023	4254
401.102	-241
401.180	556
401.259	671
401.338	1092
401.416	2593
401.495	1361
401.574	1601
401.652	373
401.731	1975
401.810	1647
401.888	1031
401.967	-986
402.046	1201
402.124	753
402.203	2658
402.281	1634
402.360	1688
402.438	9911
402.517	8023
402.596	1571
402.674	1472
402.753	556
402.831	1047
402.910	935
402.988	5536
403.066	25448
403.145	17402
403.223	7423
403.302	21496
403.380	17675
403.459	18083
403.537	7607
403.615	2241
403.694	-104
403.772	671
403.850	125
403.929	317
404.007	208
404.085	3572
404.164	3646
404.242	1040
404.320	4064
404.398	17058
404.477	19256
404.555	43019
404.633	45446
404.711	16967
404.789	9284
404.868	2104
404.946	964
405.024	527
405.102	342
405.180	-1005
405.258	-280
405.336	571
405.415	-808
405.493	3025
405.571	3417
405.649	-156
405.727	-862
405.805	1450
405.883	2378
405.961	1281
406.039	2723
406.117	731
406.195	1355
406.273	6540
406.351	39303
406.429	28310
406.507	4788
406.585	1007
406.663	440
406.740	2080
406.818	827
406.896	954
406.974	402
407.052	2020
407.130	19946
407.208	37370
407.285	7741
407.363	785
407.441	-342
407.519	388
407.596	103
407.674	3988
407.752	14764
407.830	17886
407.907	7031
407.985	1702
408.063	1117
408.141	344
408.218	1881
408.296	2045
408.373	1313
408.451	827
408.529	823
408.606	103
408.684	29
408.762	-316
408.839	-287
408.917	-495
408.994	-622
409.072	-490
409.149	187
409.227	1842
409.304	1351
409.382	1579
409.459	1461
409.537	2648
409.614	2678
409.692	1447
409.769	1102
409.846	3008
409.924	4156
410.001	2385
410.079	2112
410.156	2365
410.233	1321
410.311	479
410.388	-221
410.465	978
410.543	671
410.620	589
410.697	601
410.775	1578
410.852	-501
410.929	1619
411.006	1684
411.083	407
411.161	3382
411.238	4750
411.315	1670
411.392	535
411.469	1083
411.547	1783
411.624	-576
411.701	-704
411.778	-331
411.855	2432
411.932	275
412.009	378
412.086	295
412.163	714
412.240	537
412.317	1689
412.394	686
412.471	530
412.548	-715
412.625	-351
412.702	561
412.779	3147
412.856	2330
412.933	-839
413.010	-474
413.087	560
413.164	7958
413.241	15658
413.318	3028
413.395	1926
413.471	1737
413.548	1021
413.625	400
413.702	340
413.779	116
413.855	-108
413.932	-578
414.009	-1247
414.086	247
414.162	468
414.239	1823
414.316	7986
414.393	22862
414.469	7881
414.546	210
414.623	-667
414.699	-312
414.776	447
414.853	134
414.929	1089
415.006	-341
415.082	795
415.159	358
415.236	404
415.312	-111
415.389	1274
415.465	2332
415.542	1725
415.618	-1063
415.695	1574
415.771	522
415.848	217
415.924	-165
416.000	500
416.077	-183
416.153	-2115
416.230	-1199
416.306	-552
416.383	288
416.459	-76
416.535	-696
416.612	-876
416.688	-657
416.764	-46
416.841	-746
416.917	-220
416.993	21
417.069	1149
417.146	199
417.222	2321
417.298	690
417.374	249
417.451	1004
417.527	271
417.603	534
417.679	1103
417.755	113
417.831	-383
417.908	-400
417.984	-618
418.060	-978
418.136	1838
418.212	2323
418.288	877
418.364	76
418.440	-233
418.516	1247
418.592	2448
418.668	3432
418.744	6060
418.820	4782
418.896	-15
418.972	-1042
419.048	-263
419.124	1832
419.200	1510
419.276	140
419.352	-1188
419.428	-137
419.504	-588
419.579	996
419.655	-170
419.731	116
419.807	3429
419.883	6518
419.959	5178
420.034	991
420.110	1797
420.186	12693
420.262	12303
420.337	2186
420.413	998
420.489	259
420.565	706
420.640	-881
420.716	596
420.792	-922
420.867	651
420.943	-964
421.019	1345
421.094	752
421.170	707
421.245	-611
421.321	814
421.397	75
421.472	2410
421.548	7159
421.623	7057
421.699	2347
421.774	2414
421.850	1138
421.925	2679
422.001	2864
422.076	3614
422.152	3865
422.227	6305
422.302	7462
422.378	11888
422.453	20681
422.529	49223
422.604	117755
422.679	169472
422.755	144842
422.830	69782
422.905	27803
422.981	13695
423.056	9339
423.131	7272
423.207	4726
423.282	4001
423.357	6574
423.432	4954
423.508	3620
423.583	7069
423.658	6121
423.733	2217
423.808	1887
423.883	2102
423.959	2441
424.034	1498
424.109	1823
424.184	500
424.259	-206
424.334	30
424.409	-154
424.484	18
424.559	660
424.634	-90
424.709	242
424.784	1116
424.859	222
424.934	967
425.009	8361
425.084	16687
425.159	6736
425.234	896
425.309	-408
425.384	1666
425.459	4055
425.534	1856
425.609	-279
425.683	682
425.758	-614
425.833	320
425.908	141
425.983	4166
426.058	16681
426.132	8323
426.207	561
426.282	2417
426.357	1625
426.431	-175
426.506	265
426.581	46
426.655	12
426.730	446
426.805	-332
426.879	542
426.954	-816
427.029	1847
427.103	11514
427.178	35611
427.253	18770
427.327	2106
427.402	1729
427.476	6310
427.551	3124
427.625	479
427.700	414
427.774	-461
427.849	934
427.923	-709
427.998	-293
428.072	-439
428.147	3163
428.221	10782
428.296	42244
428.370	25910
428.444	2599
428.519	2795
428.593	6845
428.667	6122
428.742	7431
428.816	7502
428.890	24454
428.965	47341
429.039	15837
429.113	9573
429.188	2851
429.262	483
429.336	879
429.410	7078
429.485	5392
429.559	5528
429.633	6197
429.707	384
429.781	2751
429.855	27566
429.930	50794
430.004	24458
430.078	35640
430.152	33720
430.226	48628
430.300	60536
430.374	10503
430.448	3134
430.522	7787
430.596	33401
430.670	21446
430.744	38264
430.818	65657
430.892	14595
430.966	1273
431.040	354
431.114	-878
431.188	-1488
431.262	-918
431.336	-83
431.410	2128
431.484	9164
431.557	5969
431.631	-178
431.705	81
431.779	5741
431.853	33397
431.927	30225
432.000	3860
432.074	717
432.148	646
432.222	719
432.295	-439
432.369	-274
432.443	117
432.516	10646
432.590	35188
432.664	16152
432.737	996
432.811	-256
432.885	-511
432.958	268
433.032	-1041
433.106	-981
433.179	-757
433.253	-663
433.326	-1210
433.400	-997
433.473	-592
433.547	-1275
433.620	-346
433.694	141
433.767	812
433.841	-184
433.914	-967
433.988	-633
434.061	-877
434.134	-1092
434.208	-975
434.281	-1126
434.355	-1019
434.428	-197
434.501	-1324
434.575	-1051
434.648	-880
434.721	-603
434.795	-1006
434.868	-615
434.941	-1600
435.014	-539
435.088	-966
435.161	-450
435.234	418
435.307	776
435.381	-486
435.454	-81
435.527	733
435.600	-222
435.673	84
435.746	-34
435.819	-99
435.892	152
435.966	-1026
436.039	-491
436.112	-141
436.185	-1477
436.258	-586
436.331	-1178
436.404	-958
436.477	-1506
436.550	-1324
436.623	-530
436.696	-1156
436.769	-745
436.842	-908
436.915	-241
436.987	-191
437.060	-492
437.133	-1086
437.206	-1081
437.279	-372
437.352	-262
437.425	-946
437.498	-637
437.570	1031
437.643	1811
437.716	-446
437.789	-546
437.861	468
437.934	4010
438.007	1788
438.080	-475
438.152	-541
438.225	1223
438.298	10871
438.370	46482
438.443	22543
438.516	4264
438.588	33
438.661	-627
438.734	-270
438.806	127
438.879	97
438.951	395
439.024	1054
439.096	-6
439.169	-1006
439.241	-308
439.314	-1940
439.386	318
439.459	690
439.531	1693
439.604	-647
439.676	-750
439.749	-1392
439.821	-822
439.893	-1429
439.966	-1204
440.038	-883
440.110	-354
440.183	-808
440.255	-855
440.327	-95
440.400	5731
440.472	29441
440.544	23290
440.617	1718
440.689	920
440.761	1270
440.833	3075
440.905	2169
440.978	-927
441.050	-127
441.122	-250
441.194	-710
441.266	-493
441.338	-1194
441.411	1062
441.483	7952
441.555	16393
441.627	3394
441.699	1762
441.771	793
441.843	81
441.915	-944
441.987	-474
442.059	-905
442.131	164
442.203	782
442.275	2270
442.347	1493
442.419	2112
442.491	14538
442.563	47492
442.635	24055
442.706	9918
442.778	8540
442.850	697
442.922	27
442.994	-145
443.066	1080
443.137	970
443.209	237
443.281	1105
443.353	4429
443.425	19062
443.496	80687
443.568	89410
443.640	34369
443.711	5913
443.783	409
443.855	660
443.926	-924
443.998	239
444.070	1347
444.141	566
444.213	418
444.285	2641
444.356	1083
444.428	1425
444.499	-554
444.571	-168
444.642	-540
444.714	-372
444.785	615
444.857	1930
444.928	6464
445.000	3750
445.071	4217
445.143	5544
445.214	3124
445.285	5149
445.357	16958
445.428	46798
445.500	122202
445.571	88233
445.642	46772
445.714	16865
445.785	13562
445.856	3261
445.928	1718
445.999	1646
446.070	602
446.141	1238
446.213	2030
446.284	1175
446.355	-8
446.426	695
446.497	-299
446.569	610
446.640	2520
446.711	1065
446.782	-1309
446.853	-173
446.924	411
446.995	509
447.066	-162
447.138	1644
447.209	801
447.280	-346
447.351	-1044
447.422	-1182
447.493	-510
447.564	225
447.635	422
447.706	401
447.777	-801
447.847	-456
447.918	-1093
447.989	248
448.060	275
448.131	3953
448.202	2856
448.273	2295
448.344	76
448.414	-92
448.485	-871
448.556	-513
448.627	-990
448.698	-466
448.768	-533
448.839	-211
448.910	745
448.981	1598
449.051	-677
449.122	252
449.193	-683
449.263	-434
449.334	-501
449.405	-439
449.475	1907
449.546	1426
449.616	1780
449.687	1715
449.758	-303
449.828	-409
449.899	-868
449.969	-623
450.040	-879
450.110	-290
450.181	-211
450.251	-262
450.322	-1119
450.392	44
450.463	-622
450.533	46
450.604	-573
450.674	-962
450.744	180
450.815	-650
450.885	-8
450.955	-379
451.026	-1166
451.096	-622
451.166	-168
451.237	1767
451.307	7422
451.377	2576
451.447	-916
451.518	-491
451.588	-665
451.658	209
451.728	-15
451.799	6904
451.869	8680
451.939	1834
452.009	-847
452.079	-758
452.149	952
452.219	1239
452.289	8597
452.360	7526
452.430	247
452.500	-420
452.570	399
452.640	2505
452.710	6128
452.780	10768
452.850	6467
452.920	5381
452.990	1508
453.060	1286
453.129	1090
453.199	1698
453.269	7545
453.339	20598
453.409	33708
453.479	30120
453.549	47052
453.619	54171
453.688	21397
453.758	2423
453.828	938
453.898	437
453.968	-297
454.037	176
454.087	-420
454.107	-673
454.168	-45
454.177	32
454.247	-95
454.249	-75
454.316	81
454.330	15
454.386	-281
454.411	1377
454.456	3836
454.492	5442
454.525	6856
454.574	3395
454.595	1915
454.655	55
454.665	-235
454.734	812
454.736	863
454.804	1706
454.817	3105
454.873	8051
454.898	8687
454.943	9485
454.979	5820
455.013	2674
455.060	1110
455.082	594
455.141	1907
455.152	2121
455.221	5074
455.222	5266
455.291	14175
455.303	13785
455.360	11232
455.384	15535
455.430	21975
455.465	17431
455.499	13140
455.546	10748
455.569	9398
455.627	5730
455.638	5194
455.707	544
455.708	558
455.777	224
455.789	322
455.846	806
455.869	427
455.916	-357
455.950	79
455.985	410
456.031	258
456.054	194
456.112	562
456.124	630
456.193	-253
456.193	-268
456.262	1031
456.274	1030
456.332	730
456.355	933
456.401	1252
456.436	855
456.470	344
456.516	304
456.540	333
456.597	-374
456.609	-523
456.678	333
456.678	324
456.747	97
456.759	106
456.817	258
456.840	139
456.886	-132
456.920	-152
456.955	-169
457.001	345
457.024	566
457.082	230
457.093	185
457.162	1091
457.163	1106
457.232	1298
457.243	1253
457.301	546
457.324	430
457.370	722
457.405	856
457.439	816
457.485	1151
457.508	1307
457.566	401
457.577	235
457.646	1353
457.647	1371
457.715	3112
457.727	3449
457.784	6124
457.808	7556
457.853	9354
457.889	11915
457.922	11944
457.969	7762
457.991	7535
458.050	8775
458.060	9250
458.129	15925
458.130	16157
458.198	17795
458.211	16657
458.267	9211
458.292	5874
458.336	3448
458.372	3214
458.405	4382
458.453	6261
458.474	8322
458.533	16293
458.543	17185
458.611	28583
458.614	28867
458.680	19054
458.694	15413
458.749	6837
458.775	4561
458.818	2855
458.855	2127
458.887	1811
458.936	1492
458.955	1339
459.016	1518
459.024	1540
459.093	1077
459.097	1101
459.162	1875
459.177	1880
459.230	1695
459.257	1991
459.299	2268
459.338	2202
459.368	2194
459.418	2607
459.437	2573
459.499	1577
459.505	1481
459.574	647
459.579	665
459.643	1252
459.659	1314
459.711	1619
459.740	1624
459.780	1605
459.820	2048
459.849	2271
459.900	2039
459.917	1977
459.981	2259
459.986	2244
460.054	2532
460.061	2468
460.123	2253
460.141	2349
460.191	3087
460.222	3487
460.260	3880
460.302	4300
460.328	3881
460.382	3123
460.397	3137
460.462	2832
460.465	2870
460.534	4380
460.543	4528
460.602	12771
460.623	16196
460.671	27278
460.703	37053
460.739	36225
460.783	33521
460.808	28453
460.864	7080
460.876	5558
460.944	2952
460.945	2918
461.013	2297
461.024	2298
461.081	2952
461.104	3089
461.150	2323
461.184	2016
461.218	2413
461.264	2550
461.286	2387
461.345	2317
461.355	2414
461.423	2927
461.425	2941
461.491	2656
461.505	2590
461.559	4594
461.585	5675
461.628	10285
461.665	14489
461.696	16734
461.745	21875
461.764	19005
461.825	6028
461.832	5785
461.901	3574
461.905	3504
461.969	2770
461.985	2665
462.037	2946
462.065	2927
462.105	2743
462.145	3042
462.173	4964
462.225	8048
462.241	8925
462.305	13638
462.310	13331
462.378	8064
462.385	7248
462.446	3625
462.465	2748
462.514	2724
462.545	3128
462.582	3248
462.625	2848
462.650	2592
462.705	2341
462.718	2453
462.785	3197
462.786	3230
462.854	4810
462.865	5081
462.922	6599
462.945	7422
462.990	5623
463.025	3624
463.058	2898
463.104	2182
463.126	2267
463.184	2455
463.194	2466
463.262	2357
463.264	2363
463.330	2952
463.344	3103
463.398	3679
463.424	3793
463.466	3284
463.504	3040
463.533	3385
463.583	3933
463.601	4066
463.663	4193
463.669	4255
463.737	5131
463.743	5194
463.805	8197
463.823	9179
463.873	14990
463.903	18589
463.940	20197
463.982	22254
464.008	18131
464.062	8139
464.076	7374
464.142	3348
464.144	3330
464.211	3166
464.221	3157
464.279	3022
464.301	3042
464.347	3587
464.381	3956
464.414	4491
464.461	5243
464.482	5601
464.540	6604
464.550	6327
464.617	4122
464.620	4035
464.685	5131
464.699	5441
464.753	6477
464.779	6915
464.820	7220
464.859	7617
464.888	7477
464.938	7019
464.956	7342
465.018	8484
465.023	8346
465.091	6292
465.098	6073
465.158	5544
465.177	5429
465.226	5778
465.257	5919
465.293	6069
465.336	6206
465.361	6588
465.416	7526
465.428	8105
465.495	11155
465.496	11221
465.563	18753
465.575	20066
465.631	26345
465.654	29207
465.698	19215
465.734	10095
465.765	8355
465.813	5904
465.833	5887
465.893	6183
465.900	6157
465.968	5889
465.972	5846
466.035	5543
466.052	5501
466.102	5567
466.131	5573
466.170	5753
466.210	5878
466.237	5979
466.290	6189
466.304	6367
466.369	7028
466.372	7042
466.439	7110
466.449	7101
466.506	7286
466.528	7348
466.573	10185
466.607	12276
466.641	18893
466.687	28041
466.708	31714
466.766	41911
466.775	38851
466.842	15180
466.845	14024
466.909	9049
466.925	7898
466.977	8348
467.004	8588
467.044	8464
467.083	8332
467.111	9093
467.163	10492
467.178	10859
467.242	12265
467.245	12215
467.312	10726
467.321	10509
467.379	10590
467.400	10591
467.446	11426
467.480	11996
467.559	11143
467.638	8855
467.717	8152
467.796	10094
467.875	9490
467.955	10395
468.034	13937
468.113	33752
468.192	51910
468.271	17463
468.350	8729
468.429	11083
468.508	11436
468.588	9557
468.667	9575
468.746	9448
468.825	9168
468.904	7626
468.983	8626
469.062	13770
469.141	17333
469.220	8838
469.299	7048
469.378	8564
469.456	10435
469.535	9653
469.614	9096
469.693	9369
469.772	10576
469.851	15814
469.930	12204
470.009	8082
470.088	7740
470.166	6847
470.245	8148
470.324	10670
470.403	9519
470.482	7956
470.560	8082
470.639	8579
470.718	9115
470.797	7128
470.875	8632
470.954	12862
471.033	15065
471.111	7393
471.190	5948
471.269	6341
471.347	6167
471.426	5810
471.505	8234
471.583	9692
471.662	8370
471.740	8098
471.819	7285
471.898	6987
471.976	6663
472.055	7190
472.133	7695
472.212	10804
472.290	11117
472.369	7932
472.447	6642
472.526	6788
472.604	6816
472.683	7329
472.761	7304
472.839	6467
472.918	5819
472.996	6974
473.075	8133
473.153	8622
473.231	6124
473.310	7509
473.388	7303
473.466	7846
473.545	8112
473.623	9769
473.701	8122
473.780	7321
473.858	5773
473.936	8559
474.014	6782
474.093	8103
474.171	11605
474.249	16171
474.327	10659
474.405	6455
474.484	5383
474.562	5771
474.640	6487
474.718	6878
474.796	7699
474.874	6769
474.952	5607
475.030	6088
475.108	5492
475.187	7002
475.265	7190
475.343	10266
475.421	13443
475.499	7637
475.577	7035
475.655	9101
475.733	16710
475.811	31142
475.889	29353
475.966	21521
476.044	6703
476.122	8022
476.200	10207
476.278	9724
476.356	5865
476.434	6307
476.512	7831
476.590	10562
476.667	9080
476.745	5247
476.823	6156
476.901	6515
476.979	6567
477.056	6144
477.134	7124
477.212	6883
477.290	6522
477.367	5778
477.445	5572
477.523	5295
477.601	5087
477.678	6189
477.756	6418
477.834	7825
477.911	5557
477.989	5837
478.066	5694
478.144	5950
478.222	7550
478.299	11509
478.377	12254
478.454	6452
478.532	5021
478.609	5207
478.687	6015
478.764	4844
478.842	5210
478.919	5770
478.997	5491
479.074	4918
479.152	5912
479.229	8487
479.307	5430
479.384	5289
479.461	3736
479.539	5256
479.616	6179
479.694	5425
479.771	6188
479.848	6537
479.926	7554
480.003	10529
480.080	5709
480.157	5578
480.235	5159
480.312	4919
480.389	5680
480.467	8203
480.544	12598
480.621	6777
480.698	5494
480.775	6682
480.853	7151
480.930	6138
481.007	5607
481.084	7511
481.161	8684
481.238	7998
481.315	4977
481.392	4949
481.470	5485
481.547	5726
481.624	5154
481.701	5163
481.778	5041
481.855	5998
481.932	8975
482.009	16822
482.086	12699
482.163	6082
482.240	8152
482.317	15023
482.393	12794
482.470	6284
482.547	5787
482.624	4540
482.701	5538
482.778	5934
482.855	4235
482.932	5153
483.009	3823
483.085	5541
483.162	7330
483.239	6891
483.316	5510
483.393	5314
483.469	4782
483.546	6270
483.623	6443
483.699	4967
483.776	5426
483.853	6549
483.930	9285
484.006	23210
484.083	45803
484.160	25494
484.236	29957
484.313	24656
484.389	18483
484.466	17245
484.543	15388
484.619	15759
484.696	16110
484.772	17154
484.849	18240
484.925	14824
485.002	13772
485.078	15174
485.155	14594
485.231	14480
485.308	13182
485.384	14501
485.461	15039
485.537	26794
485.614	36045
485.690	15588
485.766	12551
485.843	13075
485.919	16796
485.995	18537
486.072	12090
486.148	11680
486.224	11153
486.301	12146
486.377	13666
486.453	14500
486.530	13866
486.606	17614
486.682	20719
486.758	24574
486.835	29397
486.911	20660
486.987	34447
487.063	34307
487.139	35598
487.215	29340
487.292	17605
487.368	14753
487.444	15050
487.520	19230
487.596	20849
487.672	26480
487.748	60732
487.824	104110
487.900	50909
487.976	19686
488.052	16667
488.128	18873
488.204	15565
488.280	14154
488.356	15382
488.432	28052
488.508	49644
488.584	19379
488.660	11916
488.736	11850
488.812	10705
488.888	15019
488.964	16557
489.039	29911
489.115	48839
489.191	35955
489.267	12493
489.343	11210
489.418	10315
489.494	9833
489.570	8596
489.646	10480
489.722	10198
489.797	11444
489.873	13788
489.949	34675
490.024	34508
490.100	10537
490.176	9489
490.251	11291
490.327	13365
490.403	9968
490.478	9409
490.554	7683
490.629	8196
490.705	8504
490.781	8757
490.856	9020
490.932	10129
491.007	9431
491.083	9581
491.158	8904
491.234	11875
491.309	24793
491.385	29836
491.460	10282
491.536	8923
491.611	9095
491.686	9257
491.762	11967
491.837	19331
491.913	34921
491.988	44399
492.063	62753
492.139	23357
492.214	15064
492.289	8173
492.365	6733
492.440	8769
492.515	9854
492.590	8828
492.666	7298
492.741	8928
492.816	15963
492.891	9013
492.967	7982
493.042	6127
493.117	8221
493.192	8821
493.267	14023
493.342	44314
493.418	75184
493.493	17355
493.568	6892
493.643	6033
493.718	8590
493.793	12307
493.868	12595
493.943	8127
494.018	7272
494.093	6882
494.168	7049
494.243	5192
494.318	5769
494.393	5325
494.468	5499
494.543	5380
494.618	5754
494.693	5781
494.768	5670
494.842	6490
494.917	4258
494.992	5766
495.067	5249
495.142	4825
495.217	4874
495.292	5970
495.366	5997
495.441	8246
495.516	11298
495.591	12364
495.665	34351
495.740	93774
495.815	51748
495.890	10681
495.964	7149
496.039	8535
496.114	7183
496.188	9464
496.263	8881
496.338	7251
496.412	8428
496.487	10369
496.561	9601
496.636	10495
496.710	8539
496.785	8932
496.860	11132
496.934	8392
497.009	8544
497.083	7315
497.158	9338
497.232	9480
497.307	11839
497.381	9987
497.455	11536
497.530	17573
497.604	12651
497.679	11960
497.753	18610
497.827	26016
497.902	22090
497.976	25661
498.050	45244
498.125	178811
498.199	234894
498.273	40326
498.348	22828
498.422	19622
498.496	17673
498.570	17740
498.645	14970
498.719	13908
498.793	15396
498.867	23433
498.941	31324
499.016	65470
499.090	218712
499.164	105891
499.238	12908
499.312	8331
499.386	11017
499.460	11202
499.534	10072
499.609	11514
499.683	19524
499.757	19606
499.831	30309
499.905	132149
499.979	163887
500.053	26819
500.127	22091
500.201	13863
500.275	10170
500.349	9438
500.422	10330
500.496	14352
500.570	26354
500.644	70119
500.718	165103
500.792	49898
500.866	11178
500.940	13354
501.013	12432
501.087	9895
501.161	17357
501.235	22602
501.309	44514
501.382	133613
501.456	151115
501.530	29780
501.603	48845
501.677	23833
501.751	7490
501.825	10149
501.898	16175
501.972	56602
502.046	46227
502.119	11027
502.193	21088
502.266	63400
502.340	38933
502.413	24187
502.487	57147
502.561	35656
502.634	11550
502.708	6818
502.781	6697
502.855	6309
502.928	4659
503.002	4639
503.075	4887
503.149	5303
503.222	6760
503.295	6749
503.369	10032
503.442	12233
503.516	34978
503.589	108493
503.662	85718
503.736	23075
503.809	48696
503.882	47314
503.956	56630
504.029	65556
504.102	37839
504.175	53328
504.249	25779
504.322	12458
504.395	10153
504.468	6398
504.542	6295
504.615	4593
504.688	4156
504.761	3461
504.834	6711
504.907	5973
504.980	10055
505.053	6602
505.127	6179
505.200	10346
505.273	9791
505.346	5922
505.419	3555
505.492	3699
505.565	3913
505.638	3621
505.711	4005
505.784	3631
505.857	3597
505.930	4938
506.003	2975
506.076	5738
506.149	6357
506.221	8631
506.294	8970
506.367	16445
506.440	73858
506.513	51924
506.586	10028
506.659	6040
506.731	4206
506.804	3996
506.877	7397
506.950	6124
507.022	4675
507.095	5059
507.168	8279
507.241	4345
507.313	3996
507.386	3043
507.459	6112
507.531	3248
507.604	3276
507.677	4098
507.749	2265
507.822	4429
507.894	8856
507.967	13259
508.040	8273
508.112	6581
508.185	6525
508.257	5469
508.330	9000
508.402	6173
508.475	5395
508.547	6267
508.620	6015
508.692	10425
508.765	7293
508.837	4671
508.909	4959
508.982	4713
509.054	5675
509.127	4501
509.199	4067
509.271	3779
509.344	4127
509.416	4204
509.488	4292
509.560	5127
509.633	4620
509.705	5514
509.777	4896
509.849	7883
509.922	5471
509.994	5199
510.066	5270
510.138	4280
510.210	10888
510.283	10523
510.355	9018
510.427	7433
510.499	6928
510.571	6353
510.643	6456
510.715	9299
510.787	9018
510.859	6477
510.931	7904
511.003	9206
511.076	9425
511.148	5031
511.219	6062
511.291	9965
511.363	13825
511.435	6362
511.507	5167
511.579	5418
511.651	5715
511.723	5362
511.795	5133
511.867	4796
511.939	6158
512.010	13214
512.082	13777
512.154	4998
512.226	6211
512.298	7952
512.369	12909
512.441	9816
512.513	8767
512.585	6591
512.656	7460
512.728	7976
512.800	6980
512.871	6809
512.943	6316
513.015	5429
513.086	5988
513.158	7194
513.230	6063
513.301	9048
513.373	10873
513.444	6482
513.516	5604
513.588	5848
513.659	5693
513.731	7415
513.802	6257
513.874	11000
513.945	20827
514.016	8452
514.088	6567
514.159	5549
514.231	8310
514.302	11850
514.374	8713
514.445	8238
514.516	16994
514.588	14846
514.659	7639
514.730	14963
514.802	12934
514.873	8117
514.944	10255
515.016	8336
515.087	9404
515.158	10550
515.229	17527
515.301	8992
515.372	10849
515.443	8686
515.514	6280
515.585	4548
515.656	5605
515.728	5115
515.799	5674
515.870	5676
515.941	6346
516.012	5769
516.083	7592
516.154	7664
516.225	10483
516.296	9520
516.367	8254
516.438	8757
516.509	10402
516.580	13775
516.651	29707
516.722	116660
516.793	82233
516.864	16513
516.935	16509
517.006	16422
517.077	21196
517.148	38798
517.219	103645
517.289	217958
517.360	102178
517.431	44054
517.502	9927
517.573	8892
517.643	8704
517.714	8957
517.785	11454
517.856	9863
517.926	11824
517.997	12491
518.068	15154
518.138	19042
518.209	22996
518.280	63657
518.350	277710
518.421	159719
518.492	22197
518.562	13544
518.633	14851
518.703	14784
518.774	25609
518.845	54291
518.915	63528
518.986	25498
519.056	16545
519.127	20231
519.197	30654
519.268	76141
519.338	69508
519.408	14340
519.479	14103
519.549	10158
519.620	8333
519.690	6581
519.760	6623
519.831	6250
519.901	7252
519.971	6000
520.042	6890
520.112	7679
520.182	8524
520.253	8918
520.323	6885
520.393	8049
520.463	13624
520.534	6946
520.604	18326
520.674	10580
520.744	9368
520.814	17821
520.885	20271
520.955	21839
521.025	91822
521.095	52311
521.165	9525
521.235	7309
521.305	5345
521.375	5774
521.445	6681
521.515	6770
521.585	8614
521.655	8252
521.725	7282
521.795	8187
521.865	4162
521.935	9588
522.005	9642
522.075	4990
522.145	6793
522.215	5891
522.285	9722
522.355	12706
522.424	24659
522.494	24984
522.564	12361
522.634	14127
522.704	45524
522.774	24434
522.843	6902
522.913	5938
522.983	6732
523.053	6212
523.122	6088
523.192	6654
523.262	19006
523.331	27992
523.401	6814
523.471	4321
523.540	5871
523.610	4201
523.680	3785
523.749	4722
523.819	6698
523.888	6750
523.958	5148
524.027	4273
524.097	5187
524.166	4159
524.236	4404
524.305	6328
524.375	4145
524.444	4433
524.514	6374
524.583	4615
524.653	6522
524.722	7515
524.791	5450
524.861	4773
524.930	3514
524.999	3890
525.069	6787
525.138	5526
525.207	8096
525.277	6012
525.346	4901
525.415	4966
525.484	5094
525.554	6392
525.623	7507
525.692	6732
525.761	7123
525.830	8588
525.900	9356
525.969	13292
526.038	22998
526.107	34003
526.176	114327
526.245	118492
526.314	37957
526.383	57510
526.452	91403
526.522	123043
526.591	166850
526.660	45521
526.729	23712
526.797	22810
526.867	35023
526.935	134473
527.004	287118
527.073	215736
527.142	26821
527.211	10591
527.280	8367
527.349	8094
527.418	4444
527.487	5058
527.555	3824
527.624	3826
527.693	3545
527.762	3905
527.831	3220
527.899	4786
527.968	4391
528.037	2703
528.106	4948
528.174	8181
528.243	8863
528.312	9733
528.380	14734
528.449	4526
528.518	4798
528.586	1994
528.655	4634
528.723	2962
528.792	2663
528.861	3058
528.929	2667
528.998	3604
529.066	3170
529.135	3755
529.203	3285
529.272	3362
529.340	6058
529.409	6104
529.477	4382
529.545	5436
529.614	8384
529.682	6263
529.751	9884
529.819	9318
529.887	7963
529.956	5442
530.024	6539
530.092	4829
530.161	5874
530.229	7477
530.297	5923
530.365	5669
530.434	5003
530.502	5380
530.570	5148
530.638	4259
530.707	5525
530.775	6275
530.843	4819
530.911	4964
530.979	5284
531.047	4995
531.115	6792
531.183	4878
531.252	5648
531.320	5821
531.388	4840
531.456	4829
531.524	4015
531.592	5383
531.660	7028
531.728	5645
531.796	4862
531.864	4654
531.932	5382
532.000	5224
532.067	5311
532.135	6377
532.203	7767
532.271	6968
532.339	9804
532.407	20816
532.475	17121
532.542	8893
532.610	9764
532.678	10573
532.746	27849
532.814	95686
532.881	34360
532.949	8288
533.017	6844
533.084	6036
533.152	6073
533.220	5665
533.287	6531
533.355	6509
533.423	5695
533.490	5623
533.558	5195
533.625	5998
533.693	6511
533.761	6022
533.828	7223
533.896	5790
533.963	9705
534.031	13310
534.098	17206
534.166	10467
534.233	6540
534.300	7335
534.368	7435
534.435	5882
534.503	7074
534.570	8245
534.637	7689
534.705	7642
534.772	9581
534.840	12413
534.907	46562
534.974	82713
535.041	15182
535.109	7932
535.176	6482
535.243	5832
535.310	5095
535.378	4388
535.445	4909
535.512	4830
535.579	5560
535.646	4689
535.714	5566
535.781	7368
535.848	5920
535.915	7337
535.982	7007
536.049	6505
536.116	7497
536.183	6377
536.250	5996
536.317	5537
536.384	6710
536.451	7345
536.518	9101
536.585	5457
536.652	8311
536.719	9693
536.786	7577
536.853	7167
536.920	9397
536.987	13466
537.053	11596
537.120	39459
537.187	50974
537.254	7589
537.321	5015
537.388	6902
537.454	4807
537.521	3662
537.588	3870
537.654	5685
537.721	6315
537.788	7609
537.855	4265
537.921	5448
537.988	4846
538.055	5208
538.121	4794
538.188	5523
538.254	6356
538.321	11061
538.388	9562
538.454	5238
538.521	5181
538.587	5011
538.654	4592
538.720	4578
538.787	4392
538.853	5443
538.920	6540
538.986	6346
539.053	5394
539.119	5107
539.185	5725
539.252	6054
539.318	9024
539.385	8580
539.451	7021
539.517	7376
539.583	7916
539.650	11492
539.716	37198
539.782	15332
539.849	4391
539.915	5583
539.981	5680
540.047	5972
540.114	6522
540.180	6374
540.246	4675
540.312	7466
540.378	12116
540.444	13941
540.510	12381
540.576	39384
540.643	18715
540.709	4965
540.775	5725
540.841	4864
540.907	7781
540.973	11437
541.039	7696
541.105	8844
541.171	6418
541.237	5331
541.303	6543
541.369	7088
541.435	6486
541.500	9982
541.566	7237
541.632	4595
541.698	4957
541.764	5651
541.830	5296
541.896	4069
541.961	5629
542.027	5163
542.093	6444
542.159	5275
542.224	5133
542.290	8874
542.356	10936
542.421	13619
542.487	9038
542.553	6124
542.618	7337
542.684	5888
542.750	6089
542.815	6363
542.881	9689
542.947	30452
543.012	32381
543.078	5644
543.143	4911
543.209	5591
543.274	4971
543.340	6619
543.405	10774
543.471	22810
543.536	8341
543.602	5069
543.667	4634
543.732	6153
543.798	4693
543.863	6433
543.928	4286
543.994	4425
544.059	4974
544.124	5079
544.190	4347
544.255	5833
544.320	5665
544.386	4986
544.451	7820
544.516	8040
544.581	7587
544.646	18739
544.712	38055
544.777	10275
544.842	6837
544.907	7210
544.972	6246
545.037	6920
545.102	7416
545.168	6469
545.233	7388
545.298	7262
545.363	8579
545.428	9447
545.493	13287
545.558	27224
545.623	16946
545.688	7298
545.753	8096
545.818	6356
545.883	7297
545.947	6518
546.012	7401
546.077	7794
546.142	8385
546.207	7359
546.272	9106
546.337	8868
546.401	9197
546.466	8030
546.531	6342
546.596	8682
546.661	8954
546.725	9301
546.790	8050
546.855	9160
546.919	7961
546.984	9508
547.049	10103
547.113	11764
547.178	12358
547.243	13307
547.307	15251
547.372	16523
547.436	17909
547.501	15456
547.565	16709
547.630	16543
547.695	16962
547.759	18064
547.823	18418
547.888	17311
547.952	15624
548.017	15878
548.081	18784
548.146	21194
548.210	20878
548.274	17445
548.339	16730
548.403	16915
548.468	15529
548.532	14944
548.596	15478
548.660	14687
548.725	17427
548.789	17866
548.853	20694
548.917	16888
548.982	19576
549.046	21397
549.110	14428
549.174	14368
549.238	15967
549.303	16566
549.367	18796
549.431	17275
549.495	16357
549.559	16173
549.623	18118
549.687	20712
549.751	23512
549.815	23734
549.879	24682
549.943	21511
550.007	22937
550.071	23657
550.135	23841
550.199	21551
550.263	20801
550.327	20518
550.391	23386
550.455	23402
550.519	22736
550.582	23789
550.646	27616
550.710	30481
550.774	27696
550.838	27107
550.901	28455
550.965	30138
551.029	31395
551.093	34938
551.156	40265
551.220	54701
551.284	64402
551.347	42100
551.411	49223
551.475	58292
551.538	33794
551.602	29343
551.666	26532
551.729	25392
551.793	25367
551.856	24650
551.920	24566
551.983	24658
552.047	24478
552.110	24390
552.174	24397
552.237	24204
552.301	23582
552.364	22529
552.428	22588
552.491	22546
552.554	23073
552.618	23135
552.681	23860
552.745	23678
552.808	25874
552.871	28475
552.934	26454
552.998	23421
553.061	25146
553.124	23607
553.187	24826
553.251	24939
553.314	26092
553.377	26560
553.440	31924
553.503	56507
553.567	106721
553.630	41275
553.693	26638
553.756	26571
553.819	25080
553.882	25315
553.945	25812
554.008	24510
554.071	24798
554.134	25510
554.197	23055
554.260	23880
554.323	25350
554.386	24916
554.449	24875
554.512	26138
554.575	23401
554.638	23782
554.701	23763
554.764	24255
554.827	23211
554.889	21926
554.952	21397
555.015	19816
555.078	20877
555.141	22291
555.203	21067
555.266	20726
555.329	21953
555.391	19233
555.454	20555
555.517	20407
555.580	18503
555.642	17969
555.705	17530
555.768	17658
555.830	18955
555.893	16805
555.955	16583
556.018	16112
556.080	16363
556.143	16833
556.206	16885
556.268	16552
556.330	16294
556.393	15554
556.455	16489
556.518	18117
556.580	19027
556.643	14524
556.705	14348
556.767	13349
556.830	14713
556.892	14149
556.955	16138
557.017	15155
557.079	13493
557.142	13626
557.204	13792
557.266	18578
557.328	18715
557.391	12022
557.453	11626
557.515	11725
557.577	12883
557.639	13742
557.701	12307
557.764	11530
557.826	12429
557.888	13528
557.950	13489
558.012	15256
558.074	16927
558.136	30683
558.198	85849
558.260	45026
558.322	15273
558.384	15247
558.446	18526
558.508	20291
558.570	25065
558.632	31588
558.694	44385
558.756	49783
558.818	115060
558.880	353821
558.942	161069
559.003	93123
559.065	62636
559.127	23488
559.189	22055
559.251	23078
559.312	30057
559.374	57218
559.436	218595
559.498	161193
559.559	29849
559.621	22294
559.683	23170
559.744	33937
559.806	93694
559.868	190771
559.929	52720
559.991	23979
560.052	28644
560.114	77669
560.176	68080
560.237	42359
560.299	86420
560.360	28370
560.422	11423
560.483	10942
560.545	9364
560.606	9083
560.667	7939
560.729	7892
560.790	8217
560.852	8545
560.913	8257
560.974	8218
561.036	7449
561.097	8729
561.158	8842
561.220	8894
561.281	8589
561.342	7392
561.403	9425
561.465	9396
561.526	17389
561.587	26044
561.648	11185
561.709	7833
561.771	8660
561.832	7019
561.893	7300
561.954	8167
562.015	7679
562.076	8233
562.137	7090
562.198	6857
562.259	8465
562.320	7908
562.381	7982
562.442	10173
562.503	9290
562.564	7972
562.625	7006
562.686	7011
562.747	7703
562.808	7592
562.869	6859
562.930	9260
562.991	9299
563.051	8651
563.112	7846
563.173	8011
563.234	7135
563.294	7962
563.355	7416
563.416	7552
563.477	7185
563.537	7659
563.598	7900
563.659	7797
563.720	7433
563.780	7835
563.841	8296
563.901	7861
563.962	7327
564.023	7940
564.083	8267
564.144	7589
564.204	7840
564.265	7238
564.325	9647
564.386	14393
564.446	16338
564.507	8315
564.567	6964
564.628	6801
564.688	7541
564.749	8462
564.809	8553
564.869	9002
564.930	7808
564.990	7721
565.050	7214
565.111	7480
565.171	7455
565.231	7071
565.292	8218
565.352	6829
565.412	8352
565.472	6259
565.532	7826
565.593	7300
565.653	6780
565.713	6946
565.773	8190
565.833	8425
565.893	11103
565.953	8490
566.013	7766
566.074	8371
566.134	9984
566.194	12870
566.254	16364
566.314	11537
566.374	9152
566.434	8975
566.494	8262
566.554	8330
566.614	9622
566.673	8999
566.733	9501
566.793	9180
566.853	11085
566.913	10671
566.973	10231
567.033	10119
567.092	10004
567.152	10510
567.212	11239
567.272	10779
567.331	11431
567.391	10663
567.451	12180
567.511	13367
567.570	14627
567.630	11234
567.690	10890
567.749	11514
567.809	10735
567.868	12581
567.928	13913
567.988	15066
568.047	15929
568.107	18879
568.166	23982
568.226	31763
568.285	45619
568.345	45463
568.404	38153
568.464	32348
568.523	29728
568.582	29288
568.642	31007
568.701	35775
568.761	48077
568.820	71313
568.879	80116
568.939	66793
568.998	50569
569.057	37534
569.116	30939
569.176	24626
569.235	19577
569.294	17710
569.353	15028
569.413	14715
569.472	13666
569.531	11271
569.590	10798
569.649	10830
569.708	11252
569.767	10406
569.827	11413
569.886	9358
569.945	9419
570.004	9678
570.063	9395
570.122	9195
570.181	9889
570.240	10043
570.299	10594
570.358	9889
570.417	8682
570.475	7956
570.534	8945
570.593	8512
570.652	8358
570.711	8645
570.770	8324
570.829	8392
570.887	8309
570.946	9043
571.005	7785
571.064	7685
571.122	7207
571.181	8693
571.240	7611
571.299	7382
571.357	8595
571.416	8239
571.475	9067
571.533	9641
571.592	7601
571.650	8117
571.709	8505
571.768	7953
571.826	7884
571.885	7379
571.943	7526
572.002	7117
572.060	8026
572.119	6805
572.177	6724
572.236	7426
572.294	6523
572.352	7023
572.411	6958
572.469	7017
572.528	7272
572.586	7706
572.644	6934
572.703	8879
572.761	7955
572.819	6673
572.877	6582
572.936	5815
572.994	6702
573.052	5867
573.110	6085
573.169	6831
573.227	6761
573.285	6620
573.343	6457
573.401	6130
573.459	7193
573.517	5887
573.576	6648
573.634	6660
573.692	6676
573.750	6637
573.808	5829
573.866	6451
573.924	8395
573.982	8280
574.040	7605
574.098	7318
574.155	6411
574.213	6859
574.271	5553
574.329	5892
574.387	6922
574.445	6604
574.503	5422
574.560	5516
574.618	6156
574.676	6186
574.734	5787
574.792	6153
574.849	5492
574.907	5730
574.965	5537
575.022	6078
575.080	5973
575.138	6398
575.195	6164
575.253	6476
575.311	6424
575.368	6144
575.426	6099
575.483	7019
575.541	5495
575.598	5226
575.656	5379
575.713	6484
575.771	6612
575.828	6715
575.886	5792
575.943	7831
576.001	6121
576.058	6554
576.115	6848
576.173	7064
576.230	8120
576.287	8727
576.345	7933
576.402	6808
576.459	6950
576.517	6274
576.574	7358
576.631	7525
576.688	7123
576.746	6486
576.803	6867
576.860	6356
576.917	6826
576.974	6394
577.031	5922
577.089	5963
577.146	6670
577.203	6022
577.260	7446
577.317	6987
577.374	7215
577.431	7360
577.488	7250
577.545	7004
577.602	7077
577.659	6609
577.716	6705
577.773	8112
577.830	7404
577.886	7280
577.943	5953
578.000	6853
578.057	7094
578.114	7970
578.171	8844
578.227	9766
578.284	9512
578.341	7672
578.398	8232
578.454	6383
578.511	7761
578.568	7924
578.625	7411
578.681	6973
578.738	6777
578.794	6808
578.851	6671
578.908	6882
578.964	7319
579.021	8162
579.077	7595
579.134	6720
579.190	7083
579.247	6534
579.303	6722
579.360	7174
579.416	6605
579.473	6353
579.529	6886
579.586	6565
579.642	6342
579.698	6458
579.755	7759
579.811	7307
579.867	8306
579.924	6657
579.980	7679
580.036	8524
580.093	9298
580.149	11770
580.205	13515
580.261	10688
580.317	9263
580.374	9132
580.430	9247
580.486	8642
580.542	8842
580.598	7934
580.619	7854
580.654	7717
580.692	7561
580.710	7484
580.765	8561
580.767	8596
580.823	7952
580.838	7955
580.879	7961
580.911	7800
580.935	7695
580.984	7437
580.991	7399
581.047	8286
581.057	8173
581.103	7712
581.130	8134
581.159	8561
581.203	9314
581.215	9505
581.270	9764
581.276	9660
581.326	8620
581.349	8602
581.382	8588
581.422	8914
581.438	9068
581.494	8533
581.494	8538
581.550	8674
581.567	8600
581.606	8460
581.640	8776
581.661	8957
581.713	8998
581.717	9003
581.773	9059
581.786	9062
581.829	9028
581.859	9271
581.885	9481
581.932	9501
581.940	9512
581.996	8991
582.004	9180
582.052	10132
582.077	9790
582.107	9343
582.150	9625
582.163	9727
582.219	9837
582.223	9815
582.274	9623
582.296	9815
582.330	10033
582.368	10508
582.386	10734
582.441	10409
582.441	10405
582.497	10360
582.514	10314
582.552	10310
582.587	11170
582.608	11667
582.659	11908
582.663	11905
582.719	11659
582.732	11589
582.774	11660
582.805	11133
582.830	10632
582.877	11915
582.885	12125
582.941	11787
582.950	11984
582.996	13102
583.023	13539
583.052	14009
583.095	14175
583.107	14260
583.162	14911
583.168	15054
583.218	15928
583.240	15642
583.273	15012
583.313	14375
583.328	14201
583.384	13687
583.385	13659
583.439	12771
583.458	12773
583.494	12811
583.531	12950
583.549	13167
583.603	13404
583.605	13405
583.660	13525
583.676	13461
583.715	13252
583.748	13356
583.770	13459
583.820	13326
583.825	13322
583.881	13485
583.893	13640
583.936	14199
583.965	13761
583.991	13305
584.038	14390
584.046	14604
584.101	14023
584.110	14125
584.156	14873
584.183	15010
584.211	15038
584.255	15290
584.266	15368
584.321	14863
584.328	14872
584.376	15137
584.400	15436
584.431	15955
584.472	16421
584.486	16492
584.541	16590
584.545	16537
584.596	15822
584.617	16001
584.651	16579
584.689	16967
584.706	17154
584.761	17656
584.762	17647
584.816	18231
584.834	18532
584.871	19087
584.906	18635
584.926	18492
584.978	19284
584.980	19335
585.035	19963
585.051	20180
585.090	20868
585.123	21526
585.145	21921
585.195	22515
585.200	22648
585.254	23975
585.267	24447
585.309	26396
585.340	28332
585.364	29668
585.412	31115
585.419	31240
585.473	31417
585.484	31627
585.528	34816
585.556	38012
585.583	44388
585.628	60268
585.637	67242
585.692	121360
585.700	132979
585.747	191904
585.772	188570
585.801	141670
585.845	66986
585.856	56517
585.910	36846
585.917	34770
585.965	31373
585.989	30553
586.019	30324
586.061	29250
586.074	29131
586.128	29370
586.133	29360
586.183	30195
586.205	30477
586.237	30564
586.277	30375
586.292	30440
586.346	30996
586.349	30975
586.401	32012
586.421	32096
586.455	32095
586.493	32490
586.509	33577
586.564	37991
586.565	38090
586.618	48349
586.637	50575
586.672	48083
586.709	42178
586.727	40179
586.781	38579
586.781	38650
586.835	38631
586.853	38595
586.889	38065
586.925	37702
586.944	38104
586.996	39437
586.998	39564
587.052	41270
587.068	41670
587.106	42807
587.140	43518
587.161	43882
587.212	44756
587.215	44976
587.269	47673
587.284	48340
587.323	49616
587.356	50436
587.377	51440
587.427	53718
587.431	54033
587.485	57159
587.499	57772
587.539	59592
587.571	60776
587.593	62208
587.643	64923
587.648	65404
587.702	69919
587.715	70895
587.755	74572
587.786	77062
587.810	79545
587.858	83986
587.864	84836
587.917	92386
587.930	93826
587.971	100030
588.001	104545
588.025	108681
588.073	116658
588.079	118377
588.133	131360
588.145	134111
588.187	146301
588.217	155048
588.241	163938
588.288	180253
588.295	183637
588.348	210642
588.360	216014
588.402	241847
588.431	259792
588.456	279690
588.503	317837
588.510	325990
588.564	388379
588.575	401223
588.617	475514
588.646	526915
588.671	590300
588.718	712142
588.725	738264
588.778	936974
588.789	976070
588.832	1099492
588.861	1175333
588.886	1126740
588.932	990711
588.939	970164
588.993	764499
589.004	738643
589.047	996855
589.075	1160752
589.100	1188943
589.147	1183698
589.154	1161933
589.207	968948
589.218	928849
589.261	843013
589.290	787231
589.314	794071
589.361	809730
589.368	826612
589.421	959572
589.433	986867
589.475	1082411
589.504	1141136
589.528	1076963
589.576	901128
589.582	911867
589.635	1027775
589.647	1048423
589.689	1059596
589.718	1042786
589.742	927871
589.790	694417
589.795	678620
589.849	520996
589.861	484042
589.902	416306
589.932	365240
589.955	339350
590.004	283025
590.009	280200
590.062	242021
590.075	232167
590.115	213001
590.146	197343
590.168	189684
590.218	171066
590.222	170612
590.275	158314
590.289	154608
590.328	145993
590.360	138302
590.381	135355
590.431	126995
590.435	126908
590.488	118592
590.503	116040
590.541	112537
590.574	108641
590.594	107164
590.645	102244
590.647	102364
590.700	96693
590.716	94765
590.753	93063
590.787	90758
590.806	89799
590.859	86282
590.859	86539
590.912	84800
590.930	83945
590.965	82452
591.001	80602
591.018	80505
591.071	79106
591.072	78823
591.124	76741
591.143	75682
591.177	75103
591.214	73834
591.230	73794
591.283	73044
591.285	72758
591.336	71834
591.356	71126
591.389	70418
591.427	69098
591.442	68774
591.495	66530
591.498	66148
591.547	65558
591.569	64953
591.600	64447
591.640	63073
591.653	63383
591.706	63956
591.711	63805
591.759	64051
591.782	63738
591.811	64806
591.853	65922
591.864	65683
591.917	63177
591.924	62591
591.969	61621
591.995	60718
592.022	61075
592.066	61166
592.075	61660
592.127	63270
592.137	63354
592.180	65437
592.208	66413
592.233	64844
592.279	61111
592.285	61150
592.338	59673
592.350	59129
592.390	59197
592.421	58884
592.443	58453
592.491	56821
592.495	57033
592.548	57129
592.562	56950
592.600	57313
592.633	57249
592.653	57476
592.704	57203
592.705	57509
592.775	56208
592.846	55590
592.916	56695
592.987	57614
593.058	56354
593.128	55129
593.199	54204
593.270	54161
593.341	52733
593.411	53212
593.482	54106
593.553	54785
593.623	52744
593.694	53786
593.764	54824
593.835	54843
593.906	53280
593.976	52632
594.047	54654
594.117	56899
594.188	58613
594.258	54304
594.329	52757
594.399	53516
594.470	54664
594.540	54225
594.611	54453
594.681	53013
594.751	53259
594.822	55378
594.892	56887
594.963	56533
595.033	57734
595.103	58559
595.174	59307
595.244	64395
595.314	74712
595.384	61220
595.455	60933
595.525	60307
595.595	60882
595.665	61230
595.736	60614
595.806	60703
595.876	62483
595.946	60660
596.016	61915
596.087	63309
596.157	65122
596.227	64456
596.297	65837
596.367	68666
596.437	72449
596.507	76859
596.577	82853
596.647	74615
596.717	72787
596.787	73054
596.857	74174
596.927	73832
596.997	75135
597.067	75258
597.137	77915
597.207	79296
597.277	77726
597.347	76476
597.417	74510
597.487	76187
597.557	77501
597.626	77799
597.696	79719
597.766	82074
597.836	87711
597.906	77745
597.975	72184
598.045	72159
598.115	72464
598.185	76609
598.254	83057
598.324	87804
598.394	89808
598.464	88178
598.533	87070
598.603	83381
598.672	82594
598.742	81310
598.812	83483
598.881	83840
598.951	84047
599.020	83870
599.090	88214
599.159	89498
599.229	87363
599.299	84910
599.368	89089
599.437	88405
599.507	84289
599.576	84415
599.646	84488
599.715	86458
599.785	83463
599.854	83777
599.924	84784
599.993	84414
600.062	85831
600.132	85616
600.201	88471
600.270	96999
600.340	100201
600.409	100191
600.478	100902
600.547	102106
600.617	101187
600.686	91832
600.755	87400
600.824	85687
600.894	85086
600.963	86057
601.032	85864
601.101	86979
601.170	87282
601.239	86094
601.308	87935
601.378	89792
601.447	89257
601.516	90798
601.585	93729
601.654	95961
601.723	95080
601.792	96203
601.861	100930
601.930	105907
601.999	110102
602.068	106748
602.137	107723
602.206	108983
602.275	108565
602.343	110925
602.412	113437
602.481	110932
602.550	110118
602.619	112280
602.688	112420
602.756	114635
602.825	113239
602.894	116825
602.963	116438
603.032	115516
603.100	119756
603.169	114957
603.238	118939
603.307	116539
603.375	114312
603.444	121302
603.513	115040
603.581	115367
603.650	121907
603.719	107432
603.787	102954
603.856	104249
603.924	106145
603.993	108704
604.061	110346
604.130	113618
604.198	116545
604.267	117118
604.335	119650
604.404	120274
604.472	123246
604.541	123156
604.609	125450
604.678	128836
604.746	128296
604.815	135780
604.883	133556
604.951	129656
605.020	131572
605.088	129044
605.156	121150
605.225	120809
605.293	122292
605.361	122895
605.429	122034
605.498	124715
605.566	123688
605.634	128870
605.702	131624
605.771	132943
605.839	136497
605.907	128222
605.975	130535
606.043	128451
606.111	121489
606.180	130277
606.248	128749
606.316	125793
606.384	129853
606.452	119159
606.520	104887
606.588	104017
606.656	101993
606.724	102070
606.792	97173
606.860	89168
606.928	82756
606.996	80074
607.064	78720
607.132	79315
607.200	83446
607.267	86468
607.335	86822
607.403	88975
607.471	88477
607.539	85747
607.607	85774
607.674	77807
607.742	78199
607.810	79613
607.878	77315
607.946	77139
608.013	80483
608.081	81493
608.149	82733
608.216	83180
608.284	88743
608.352	85526
608.419	85359
608.487	90222
608.555	85449
608.622	83824
608.690	86249
608.757	91453
608.825	96348
608.893	94802
608.960	92316
609.028	92226
609.095	93976
609.163	89195
609.230	82413
609.298	75472
609.365	76501
609.432	83001
609.500	85505
609.567	97605
609.635	109961
609.702	117688
609.769	114973
609.837	97882
609.904	83800
609.971	83122
610.039	89472
610.106	109560
610.173	181500
610.241	392851
610.308	389115
610.375	194724
610.442	107236
610.509	87947
610.577	85461
610.644	85604
610.711	87318
610.778	89391
610.845	90971
610.912	95833
610.980	99936
611.047	109415
611.114	104581
611.181	95420
611.248	94259
611.315	97040
611.382	98605
611.449	101494
611.516	104465
611.583	103163
611.650	104401
611.717	104402
611.784	107330
611.851	111153
611.918	117216
611.984	127967
612.051	166010
612.118	291961
612.185	672372
612.252	630287
612.319	183300
612.386	137902
612.452	126352
612.519	120587
612.586	120473
612.653	121635
612.719	120765
612.786	117532
612.853	110680
612.919	107638
612.986	109940
613.053	104271
613.120	100014
613.186	96690
613.253	97004
613.319	97985
613.386	97741
613.453	99534
613.519	103212
613.586	102784
613.652	112614
613.719	106696
613.785	106208
613.852	102899
613.918	102234
613.985	104702
614.051	112276
614.118	128732
614.184	136035
614.250	104996
614.317	103962
614.383	101494
614.449	104941
614.516	102856
614.582	103441
614.648	101443
614.715	101578
614.781	101408
614.847	101916
614.914	101909
614.980	99180
615.046	98224
615.112	100695
615.179	101885
615.245	105229
615.311	109404
615.377	123087
615.443	135549
615.509	116796
615.575	112091
615.642	109196
615.708	111023
615.774	114771
615.840	121908
615.906	133264
615.972	160545
616.038	233228
616.104	401931
616.170	790839
616.236	922564
616.302	277730
616.368	177254
616.434	144773
616.500	130113
616.565	131901
616.631	152938
616.697	142996
616.763	136920
616.829	167319
616.895	267773
616.961	303939
617.026	173001
617.092	119854
617.158	113648
617.224	111543
617.289	107147
617.355	103200
617.421	101837
617.487	102921
617.552	99578
617.618	97183
617.684	98449
617.749	100198
617.815	95014
617.880	92950
617.946	93974
618.012	97330
618.077	99362
618.143	96472
618.208	94746
618.274	99574
618.339	103564
618.405	91288
618.470	90763
618.536	91042
618.601	92626
618.667	88857
618.732	86266
618.798	85579
618.863	83887
618.928	82491
618.994	84261
619.059	86633
619.124	92165
619.190	87185
619.255	84632
619.320	83464
619.386	83405
619.451	84139
619.516	82825
619.581	83151
619.647	85495
619.712	86467
619.777	84269
619.842	84499
619.907	85782
619.972	87407
620.038	86583
620.103	84795
620.168	84663
620.233	85454
620.298	86273
620.363	86938
620.428	86579
620.493	87539
620.558	90353
620.623	91439
620.688	91258
620.753	89420
620.818	90497
620.883	91580
620.948	91064
621.013	91805
621.078	90999
621.143	91271
621.207	92773
621.272	91847
621.337	92224
621.402	92411
621.467	95671
621.532	96732
621.596	95845
621.661	90564
621.726	89395
621.791	90008
621.855	91396
621.920	91647
621.985	93614
622.049	96363
622.114	95100
622.179	93916
622.243	95365
622.308	97113
622.373	98053
622.437	100187
622.502	95212
622.566	93702
622.631	93417
622.695	94739
622.760	94120
622.824	94105
622.889	94125
622.953	97283
623.018	104401
623.082	108134
623.147	98084
623.211	96198
623.276	96129
623.340	92979
623.404	91959
623.469	92194
623.533	91478
623.597	90957
623.662	90927
623.726	87538
623.790	83936
623.854	83245
623.919	84340
623.983	83950
624.047	83477
624.111	83444
624.176	84619
624.240	86791
624.304	89471
624.368	84916
624.432	86205
624.496	85306
624.560	88920
624.625	91068
624.689	85838
624.753	88678
624.817	85920
624.881	84654
624.945	80160
625.009	78787
625.073	79310
625.137	81587
625.201	85086
625.265	87113
625.329	80189
625.393	80325
625.456	80993
625.520	79863
625.584	83352
625.648	87505
625.712	95708
625.776	130970
625.839	147165
625.903	97788
625.967	71833
626.031	80788
626.095	107529
626.158	82025
626.222	65201
626.286	62471
626.349	60881
626.413	57812
626.477	57929
626.540	57822
626.604	57628
626.668	56630
626.731	55993
626.795	55248
626.858	54817
626.922	53257
626.986	53256
627.049	52349
627.113	54752
627.176	53005
627.240	51497
627.303	50711
627.366	51318
627.430	51358
627.493	50634
627.557	50277
627.620	50706
627.684	49737
627.747	49995
627.810	48272
627.874	45491
627.937	43282
628.000	45945
628.064	45394
628.127	41226
628.190	41879
628.253	41950
628.317	40045
628.380	37565
628.443	38029
628.506	39234
628.569	36994
628.632	35951
628.696	35310
628.759	34940
628.822	34296
628.885	34026
628.948	34250
629.011	33897
629.074	32294
629.137	32735
629.200	33003
629.263	34115
629.326	30854
629.389	30636
629.452	30878
629.515	30705
629.578	30921
629.641	30897
629.704	30990
629.767	31847
629.830	30722
629.892	29304
629.955	28784
630.018	29709
630.081	30395
630.144	31909
630.207	29322
630.269	31307
630.332	29041
630.395	29638
630.458	26937
630.520	26608
630.583	27243
630.646	26488
630.708	25978
630.771	26370
630.834	28188
630.896	26248
630.959	25936
631.021	25398
631.084	26702
631.146	26531
631.209	29316
631.272	26221
631.334	26384
631.397	25084
631.459	25440
631.522	26380
631.584	25922
631.646	26589
631.709	27947
631.771	30359
631.834	28283
631.896	26550
631.958	24390
632.021	25312
632.083	24761
632.145	24924
632.208	24035
632.270	25485
632.332	23597
632.395	24417
632.457	24893
632.519	23356
632.581	24203
632.643	23100
632.706	24482
632.768	22503
632.830	23466
632.892	23837
632.954	23697
633.016	24114
633.078	23496
633.141	22910
633.203	22809
633.265	24082
633.327	22478
633.389	23382
633.451	23520
633.513	25899
633.575	25656
633.637	24775
633.698	25550
633.760	24793
633.822	24007
633.884	23906
633.946	23757
634.008	23454
634.070	25405
634.132	26599
634.193	26561
634.255	26056
634.317	27345
634.379	26321
634.441	25142
634.502	25334
634.564	23502
634.626	22411
634.687	23155
634.749	22574
634.811	22415
634.873	21096
634.934	21131
634.996	21216
635.057	22038
635.119	21952
635.181	22889
635.242	22593
635.304	20415
635.365	23246
635.427	21598
635.488	22525
635.550	21696
635.611	22178
635.673	21619
635.734	22595
635.796	23821
635.857	24722
635.918	24354
635.980	25378
636.041	26046
636.102	26543
636.164	26703
636.225	26002
636.286	23898
636.348	23472
636.409	22169
636.470	21180
636.531	22892
636.593	21994
636.654	23104
636.715	20722
636.776	20124
636.838	19841
636.899	19539
636.960	19997
637.021	19181
637.082	19444
637.143	19514
637.204	18480
637.265	18814
637.326	19380
637.387	19295
637.448	19092
637.509	19190
637.570	19007
637.631	19048
637.692	18788
637.753	18860
637.814	18307
637.875	18183
637.936	19114
637.997	18515
638.058	19687
638.119	20187
638.179	18540
638.240	18744
638.301	18588
638.362	17861
638.423	18548
638.483	19328
638.544	17744
638.605	18813
638.666	16507
638.726	18760
638.787	18697
638.848	18095
638.908	18531
638.969	18021
639.030	17449
639.090	16330
639.151	16784
639.211	18500
639.272	20011
639.332	24011
639.393	21211
639.453	17770
639.514	17836
639.574	17534
639.635	17024
639.695	17844
639.756	16079
639.816	17593
639.877	17558
639.937	21006
639.997	24838
640.058	17495
640.118	17277
640.178	16227
640.239	16512
640.299	16351
640.359	17101
640.420	16586
640.480	17708
640.540	17526
640.600	18210
640.661	18578
640.721	16670
640.781	20364
640.841	18672
640.901	17070
640.961	17791
641.021	16993
641.082	16784
641.142	19628
641.202	17883
641.262	14782
641.322	15532
641.382	15156
641.442	16482
641.502	16452
641.562	17086
641.622	15485
641.682	15715
641.742	16181
641.802	17002
641.861	16134
641.921	16323
641.981	16497
642.041	16947
642.101	17321
642.161	16847
642.221	15193
642.280	15300
642.340	14104
642.400	14551
642.460	15626
642.519	15751
642.579	15655
642.639	16177
642.698	13544
642.758	17001
642.818	15755
642.877	15611
642.937	15606
642.997	16924
643.056	20122
643.116	15942
643.175	16776
643.235	15601
643.294	16000
643.354	16832
643.414	17001
643.473	18221
643.532	20485
643.592	22668
643.651	31466
643.711	48899
643.770	88731
643.830	189500
643.889	480151
643.948	194288
644.008	35182
644.067	22971
644.126	19317
644.186	16564
644.245	17020
644.304	14668
644.363	16582
644.423	14407
644.482	15053
644.541	14370
644.600	14193
644.659	16867
644.719	18257
644.778	23110
644.837	32162
644.896	57600
644.955	140094
645.014	77099
645.073	23542
645.132	16577
645.191	15925
645.250	15090
645.309	16169
645.368	15521
645.427	18438
645.486	21255
645.545	38062
645.604	19876
645.663	14707
645.722	14282
645.781	15816
645.840	15471
645.898	17237
645.957	21771
646.016	28190
646.075	46164
646.134	83904
646.192	194638
646.251	392615
646.310	95326
646.369	24835
646.427	19750
646.486	16553
646.545	15769
646.603	14473
646.662	14243
646.721	13557
646.779	11887
646.838	12572
646.896	14625
646.955	16485
647.014	22235
647.072	33313
647.131	84351
647.189	67298
647.248	16114
647.306	13146
647.365	12174
647.423	11730
647.481	11975
647.540	10476
647.598	11005
647.657	11236
647.715	12338
647.773	9522
647.832	12253
647.890	10218
647.948	10595
648.007	11139
648.065	10189
648.123	11118
648.181	12751
648.240	11395
648.298	12396
648.356	9943
648.414	10967
648.472	10726
648.531	10270
648.589	9934
648.647	9099
648.705	10359
648.763	10336
648.821	10055
648.879	9680
648.937	10428
648.995	11789
649.053	12372
649.111	15742
649.169	23485
649.227	37444
649.285	69273
649.343	203896
649.401	157766
649.459	32259
649.516	24915
649.574	15839
649.632	22131
649.690	31125
649.748	19311
649.806	20510
649.863	36266
649.921	60508
649.979	60060
650.037	13885
650.094	9075
650.152	9760
650.210	8635
650.268	9105
650.325	8877
650.383	9191
650.440	7637
650.498	8511
650.556	7984
650.613	7572
650.671	8959
650.728	8787
650.786	8260
650.843	9008
650.901	7307
650.958	8473
651.016	7857
651.073	7212
651.131	7530
651.188	5744
651.246	7683
651.303	6998
651.360	7292
651.418	7033
651.475	7613
651.532	6213
651.590	8304
651.647	5705
651.704	6459
651.762	6975
651.819	6996
651.876	6018
651.933	6699
651.990	6806
652.048	5599
652.105	6512
652.162	7431
652.219	6718
652.276	6538
652.333	7034
652.390	6044
652.448	6962
652.505	6608
652.562	7643
652.619	7373
652.676	9843
652.733	12652
652.790	6996
652.847	4942
652.904	7275
652.961	5103
653.017	5826
653.074	7554
653.131	6898
653.188	5105
653.245	6481
653.302	6244
653.359	5844
653.415	6734
653.472	5604
653.529	6209
653.586	5168
653.642	5599
653.699	6343
653.756	5409
653.813	5530
653.869	6438
653.926	5350
653.983	5266
654.039	6488
654.096	5854
654.152	6298
654.209	4490
654.266	5865
654.322	5330
654.379	6754
654.435	6250
654.492	6558
654.548	7835
654.605	10452
654.661	8100
654.717	6159
654.774	5964
654.830	6033
654.887	6142
654.943	5589
655.000	6840
655.056	5808
655.112	5878
655.168	5440
655.225	6317
655.281	6643
655.337	7549
655.394	9687
655.450	8991
655.506	7510
655.562	9241
655.618	10979
655.675	4468
655.731	5733
655.787	5450
655.843	6347
655.899	5479
655.955	6101
656.011	5625
656.067	4068
656.123	5540
656.179	5968
656.235	5972
656.291	4921
656.347	6772
656.403	5529
656.459	5800
656.515	6488
656.571	5572
656.627	6363
656.683	5275
656.739	5812
656.795	5453
656.850	5859
656.906	6013
656.962	6385
657.018	4748
657.074	6036
657.129	6517
657.185	7118
657.241	12551
657.297	10654
657.352	6338
657.408	5238
657.464	7049
657.519	5586
657.575	5129
657.630	5800
657.686	4838
657.742	5281
657.797	5920
657.853	5832
657.908	6496
657.964	4353
658.019	5663
658.075	5529
658.130	5678
658.186	4123
658.241	5626
658.297	4512
658.352	4609
658.407	5583
658.463	4798
658.518	5018
658.573	5519
658.629	5210
658.684	4716
658.739	6317
658.795	4106
658.850	5268
658.905	4027
658.960	5377
659.016	5065
659.071	4559
659.126	6310
659.181	4834
659.236	7198
659.291	8594
659.346	5866
659.401	6115
659.457	6458
659.512	8753
659.567	7411
659.622	5482
659.677	5065
659.732	4420
659.787	5417
659.842	5535
659.897	6937
659.952	5635
660.007	5759
660.061	4995
660.116	4419
660.171	4578
660.226	5478
660.281	5743
660.336	4548
660.391	5890
660.445	4926
660.500	5285
660.555	5123
660.610	4836
660.664	5495
660.719	4718
660.774	4467
660.828	4725
660.883	5491
660.938	5776
660.992	4302
661.047	5321
661.101	5366
661.156	4813
661.211	4199
661.265	4997
661.320	5011
661.374	5280
661.429	4772
661.483	5257
661.538	3741
661.592	4863
661.647	4626
661.701	5660
661.755	5270
661.810	5611
661.864	4125
661.919	4124
661.973	4974
662.027	5351
662.081	5042
662.136	4446
662.190	4948
662.244	6173
662.299	4519
662.353	5428
662.407	4603
662.461	3754
662.515	5119
662.569	4704
662.624	5668
662.678	4949
662.732	4542
662.786	4208
662.840	5020
662.894	5040
662.948	4820
663.002	4164
663.056	5608
663.110	4093
663.164	4082
663.218	4475
663.272	4671
663.326	5475
663.380	5012
663.434	5444
663.488	4580
663.542	4539
663.595	4445
663.649	3714
663.703	5126
663.757	4128
663.811	3871
663.864	4463
663.918	5293
663.972	4165
664.026	5318
664.079	4365
664.133	5671
664.187	4941
664.240	4513
664.294	4956
664.348	4519
664.401	5224
664.455	4151
664.508	4000
664.562	4330
664.615	5058
664.669	3670
664.722	4374
664.776	4790
664.829	4383
664.883	4054
664.936	4574
664.990	3760
665.043	4936
665.097	4244
665.150	6207
665.203	4788
665.257	5063
665.310	4587
665.363	4980
665.417	4903
665.470	4884
665.523	4601
665.576	5282
665.630	4392
665.683	4352
665.736	5189
665.789	5530
665.842	4415
665.895	4685
665.949	5255
666.002	4036
666.055	4179
666.108	5275
666.161	4894
666.214	5671
666.267	4635
666.320	5834
666.373	5377
666.426	4796
666.479	4585
666.532	4635
666.585	5099
666.638	6536
666.691	5164
666.744	5876
666.796	5233
666.849	5404
666.902	5228
666.955	4575
667.008	4420
667.060	4433
667.113	3798
667.166	4816
667.219	4637
667.271	4913
667.324	4545
667.377	4641
667.430	4929
667.482	5425
667.535	5841
667.587	5584
667.640	5226
667.693	5075
667.745	7230
667.798	8444
667.850	5394
667.903	4806
667.955	4332
668.008	4935
668.060	5253
668.113	5367
668.165	5623
668.218	4830
668.270	5104
668.322	4497
668.375	4097
668.427	5966
668.479	4004
668.532	5001
668.584	5323
668.636	4537
668.689	5119
668.741	4838
668.793	5188
668.845	4587
668.898	5415
668.950	4747
669.002	4670
669.054	4465
669.106	4271
669.158	4760
669.211	4734
669.263	5200
669.315	5781
669.367	6756
669.419	5322
669.471	5157
669.523	6156
669.575	6757
669.627	6230
669.679	5223
669.731	5098
669.783	5708
669.835	5947
669.886	5392
669.938	5478
669.990	5991
670.042	5052
670.094	5390
670.146	6012
670.197	5503
670.249	7709
670.301	8345
670.353	10792
670.404	13342
670.456	19456
670.508	28049
670.560	45199
670.611	76847
670.663	133091
670.715	273706
670.766	450414
670.818	241526
670.869	57112
670.921	24479
670.972	16825
671.024	12459
671.075	10745
671.127	8815
671.178	7865
671.230	7153
671.281	7088
671.333	6800
671.384	6572
671.436	6560
671.487	8126
671.538	7612
671.590	9790
671.641	13360
671.692	20588
671.744	36866
671.795	36775
671.846	15682
671.897	7860
671.949	7158
672.000	6369
672.051	5036
672.102	5532
672.153	4202
672.204	4775
672.256	4969
672.307	4249
672.358	4339
672.409	4746
672.460	4552
672.511	4210
672.562	3323
672.613	4411
672.664	3973
672.715	4313
672.766	4101
672.817	4111
672.868	3915
672.919	4728
672.970	4301
673.021	4131
673.071	3458
673.122	3908
673.173	3955
673.224	3819
673.275	4250
673.326	3834
673.376	3512
673.427	3324
673.478	3857
673.528	4058
673.579	3490
673.630	3832
673.680	5546
673.731	3840
673.782	3358
673.832	3337
673.883	4249
673.934	2979
673.984	3763
674.035	3492
674.085	3885
674.136	4533
674.186	3869
674.237	4348
674.287	5697
674.338	5478
674.388	3989
674.438	3222
674.489	3528
674.539	4277
674.589	4428
674.640	3619
674.690	3289
674.740	3174
674.791	3735
674.841	4045
674.891	4525
674.942	3796
674.992	3344
675.042	3558
675.092	2285
675.142	2562
675.193	2961
675.243	3011
675.293	3488
675.343	3660
675.393	3965
675.443	4114
675.493	3568
675.543	2672
675.593	3783
675.643	3885
675.693	3839
675.743	3430
675.793	3207
675.843	3309
675.893	3783
675.943	3277
675.993	2692
676.043	3160
676.093	3312
676.142	2342
676.192	3084
676.242	2713
676.292	2690
676.341	3255
676.391	3243
676.441	3780
676.491	2953
676.540	2737
676.590	2839
676.640	3184
676.689	3120
676.739	2158
676.789	2136
676.838	3604
676.888	3543
676.937	2537
676.987	3258
677.037	2409
677.086	2106
677.136	2438
677.185	2238
677.235	1867
677.284	3125
677.333	1888
677.383	1077
677.432	2950
677.482	3165
677.531	2205
677.580	2173
677.630	2749
677.679	2552
677.728	1828
677.778	3236
677.827	3458
677.876	2397
677.925	2071
677.975	2866
678.024	2048
678.073	2861
678.122	3233
678.171	3092
678.220	3019
678.269	4326
678.319	2912
678.368	2412
678.417	3101
678.466	1975
678.515	3488
678.564	3304
678.613	3757
678.662	2178
678.711	3023
678.760	2714
678.809	2344
678.857	1654
678.906	3251
678.955	3164
679.004	3716
679.053	2891
679.102	2466
679.151	2451
679.199	2466
679.248	2499
679.297	2789
679.346	2786
679.394	2257
679.443	3232
679.492	3060
679.540	2728
679.589	3405
679.638	2836
679.686	2869
679.735	3099
679.784	2034
679.832	2346
679.881	2133
679.929	2504
679.978	1544
680.026	3183
680.075	2485
680.123	2711
680.172	1977
680.220	1688
680.268	2014
680.317	1174
680.365	1935
680.414	2485
680.462	2139
680.510	2586
680.559	2393
680.607	2344
680.655	2646
680.703	2279
680.752	2330
680.800	2267
680.848	2187
680.896	2170
680.945	1279
680.993	1679
681.041	2873
681.089	2563
681.137	1866
681.185	2410
681.233	1681
681.258	2023
681.281	2310
681.329	2371
681.377	1600
681.380	1704
681.425	2905
681.473	3193
681.502	3060
681.521	2900
681.569	2831
681.617	2102
681.624	2271
681.665	3089
681.713	2992
681.745	2911
681.761	2816
681.809	2885
681.857	3679
681.867	3554
681.904	2964
681.952	3185
681.989	3136
682.000	3066
682.048	3566
682.096	2938
682.111	3217
682.143	3732
682.191	3104
682.233	4490
682.239	4654
682.286	3536
682.334	4326
682.354	3987
682.382	3471
682.430	3410
682.476	3938
682.477	3915
682.525	3410
682.572	4518
682.598	4335
682.620	4104
682.667	4252
682.715	5292
682.720	5223
682.763	4291
682.810	4316
682.841	4950
682.857	5204
682.905	4167
682.952	4654
682.963	4665
683.000	4619
683.047	4622
683.085	4998
683.095	5062
683.142	4719
683.190	4718
683.206	4795
683.237	4811
683.284	5438
683.328	5230
683.332	5187
683.379	5325
683.426	5880
683.449	5672
683.473	5382
683.521	4930
683.568	5279
683.571	5340
683.615	5877
683.662	5625
683.693	6082
683.709	6219
683.757	5347
683.804	5766
683.814	5737
683.851	5661
683.898	6245
683.936	6259
683.945	6216
683.992	5747
684.039	6297
684.057	6264
684.086	6210
684.133	7227
684.179	5974
684.180	5906
684.227	7280
684.274	7043
684.300	6987
684.321	6932
684.368	6544
684.415	6921
684.422	6965
684.462	7027
684.509	6762
684.543	6952
684.556	7026
684.603	7184
684.649	7272
684.665	7429
684.696	7604
684.743	7692
684.786	7564
684.790	7539
684.837	7311
684.883	7916
684.908	8164
684.930	8373
684.977	8261
685.023	7979
685.029	7949
685.070	7550
685.117	8373
685.150	8879
685.164	9080
685.210	8798
685.257	9357
685.272	9333
685.303	9145
685.350	9336
685.393	8736
685.396	8670
685.443	8648
685.490	9358
685.514	9071
685.536	8907
685.583	9216
685.629	9371
685.636	9462
685.675	9563
685.722	9058
685.757	9242
685.768	9397
685.815	9070
685.861	9855
685.878	9968
685.908	10051
685.954	10217
686.000	10122
686.000	10113
686.047	10319
686.093	10859
686.121	11282
686.139	11359
686.185	10993
686.232	10961
686.242	10831
686.278	10388
686.324	10776
686.363	9845
686.370	9698
686.416	9829
686.463	10255
686.484	10437
686.509	10727
686.555	10389
686.601	10620
686.606	10646
686.647	10488
686.693	9990
686.727	10446
686.739	10656
686.785	10234
686.831	10646
686.848	10681
686.877	10766
686.923	11037
686.969	11047
686.969	11045
687.015	10773
687.061	11335
687.090	11471
687.107	11507
687.153	11784
687.199	11409
687.211	11303
687.245	11053
687.291	11269
687.332	11703
687.336	11752
687.382	11525
687.428	12179
687.453	11873
687.474	11458
687.520	11685
687.565	10979
687.574	11037
687.611	11651
687.657	11657
687.695	12014
687.702	12120
687.748	12217
687.794	13220
687.816	13395
687.839	13228
687.885	12348
687.931	12038
687.937	12002
687.976	12014
688.022	12249
688.058	11935
688.067	11913
688.113	12474
688.158	12556
688.179	12710
688.204	12829
688.249	12925
688.295	13033
688.300	13052
688.340	13249
688.386	13545
688.421	13131
688.431	13003
688.477	13069
688.522	13342
688.542	13216
688.567	13251
688.613	12969
688.658	13463
688.663	13508
688.703	13717
688.749	13771
688.784	14151
688.794	14254
688.839	13693
688.884	13915
688.905	13644
688.930	13401
688.975	13605
689.020	13232
689.026	13253
689.065	13661
689.110	14097
689.146	14174
689.155	14180
689.201	13925
689.246	14052
689.267	14087
689.291	14100
689.336	14442
689.381	14265
689.388	14202
689.426	14033
689.471	14295
689.509	14441
689.516	14467
689.561	13930
689.606	13776
689.630	13873
689.651	14075
689.696	14004
689.741	14163
689.750	14213
689.785	14435
689.830	14386
689.871	14225
689.875	14220
689.920	14326
689.965	14427
689.992	14238
690.010	14148
690.054	14130
690.099	14183
690.112	14247
690.144	14680
690.189	14840
690.233	14709
690.233	14726
690.278	14857
690.323	14817
690.354	14776
690.367	14878
690.412	14931
690.457	15118
690.474	15244
690.501	15372
690.546	15130
690.590	14996
690.595	15009
690.635	15729
690.680	15924
690.716	16214
690.724	16361
690.769	17698
690.813	18278
690.836	18521
690.857	19647
690.902	22658
690.946	25738
690.957	26538
690.991	33807
691.035	43230
691.077	52944
691.080	53111
691.124	51575
691.168	50031
691.198	49229
691.213	45684
691.257	35701
691.301	26046
691.318	22114
691.346	21188
691.390	19759
691.434	17973
691.439	17797
691.478	17443
691.522	17020
691.559	16656
691.567	16751
691.611	17307
691.655	17445
691.680	17312
691.699	17010
691.743	17166
691.787	16690
691.800	16682
691.831	17302
691.875	17449
691.919	17979
691.921	17960
691.964	17816
692.008	17637
692.041	17642
692.052	17735
692.096	17460
692.139	17847
692.162	17824
692.183	17618
692.227	17605
692.271	16706
692.282	16602
692.315	16884
692.359	17277
692.402	17489
692.403	17521
692.447	17314
692.490	17142
692.523	16989
692.534	17108
692.578	17794
692.622	17914
692.643	18059
692.666	17831
692.709	17400
692.753	16731
692.763	16578
692.797	16941
692.840	17224
692.884	17784
692.884	17821
692.928	17781
692.971	18126
693.004	17989
693.015	17992
693.059	18148
693.102	18258
693.124	18219
693.146	18217
693.189	18283
693.233	18165
693.245	18173
693.276	18842
693.320	19668
693.363	20348
693.365	20328
693.407	20840
693.450	21466
693.485	22033
693.493	22483
693.537	24306
693.580	26458
693.605	27609
693.624	30242
693.667	36337
693.710	42719
693.725	45041
693.753	58762
693.797	80363
693.840	102709
693.845	104954
693.883	103118
693.926	99531
693.966	96874
693.970	94792
694.013	71874
694.056	49301
694.086	33300
694.099	32014
694.142	28141
694.185	24485
694.206	22492
694.229	22109
694.272	21356
694.315	20743
694.326	20472
694.358	20331
694.401	20500
694.444	20443
694.446	20379
694.487	20192
694.530	20379
694.566	20518
694.573	20493
694.616	19773
694.659	19324
694.686	18834
694.702	18837
694.745	18948
694.787	18889
694.806	18803
694.830	18804
694.873	18970
694.916	19041
694.926	19007
694.959	19103
695.002	19175
695.044	19117
695.046	19073
695.087	19056
695.130	19200
695.166	19100
695.172	19194
695.215	19466
695.258	19921
695.286	20020
695.301	20040
695.343	20155
695.386	20296
695.406	20230
695.428	20095
695.471	19905
695.514	19541
695.526	19449
695.556	19891
695.599	20420
695.641	20798
695.646	20786
695.684	20655
695.726	20708
695.766	20554
695.769	20571
695.811	20013
695.854	19621
695.886	19243
695.896	19308
695.938	19382
695.981	19358
696.005	19373
696.023	19562
696.065	19900
696.108	20192
696.125	20206
696.150	20496
696.192	21065
696.235	21662
696.245	21749
696.277	21832
696.319	21805
696.361	21830
696.365	21769
696.404	21704
696.446	21833
696.485	21693
696.488	21745
696.530	21666
696.572	21811
696.604	21729
696.614	21743
696.656	21638
696.698	21545
696.724	21348
696.740	21216
696.783	20936
696.825	20645
696.844	20339
696.867	20472
696.909	20901
696.951	21190
696.964	21246
696.992	21210
697.034	21015
697.076	20838
697.083	20741
697.118	20912
697.160	21236
697.202	21514
697.203	21464
697.244	21181
697.286	20931
697.323	20654
697.327	20725
697.369	20913
697.411	20982
697.442	21039
697.453	21135
697.494	21282
697.536	21442
697.562	21488
697.578	21571
697.620	21659
697.661	21710
697.682	21666
697.703	21788
697.744	21919
697.786	22133
697.801	22125
697.828	22507
697.869	23078
697.911	23572
697.921	23641
697.952	23078
697.994	22251
698.035	21438
698.040	21272
698.077	21411
698.118	21620
698.160	21765
698.160	21707
698.201	21786
698.243	21759
698.279	21673
698.284	21782
698.325	22299
698.367	22783
698.399	23064
698.408	23058
698.449	22790
698.491	22521
698.518	22276
698.532	22476
698.573	22903
698.614	23353
698.638	23527
698.656	23592
698.697	23609
698.738	23633
698.757	23586
698.779	23658
698.820	23662
698.862	23666
698.877	23602
698.903	23770
698.944	23942
698.985	24116
698.996	24102
699.026	24005
699.067	23780
699.116	23451
699.235	23227
699.354	22591
699.474	22197
699.593	22974
699.713	22742
699.832	22248
699.951	23105
700.070	22861
700.190	22081
700.309	22741
700.428	22171
700.547	22542
700.667	21951
700.786	22448
700.905	20855
701.024	20412
701.143	20779
701.262	20833
701.381	21237
701.500	21679
701.619	21699
701.738	20909
701.857	21352
701.976	21188
702.095	21536
702.214	20595
702.333	21211
702.452	20645
702.571	20079
702.690	20747
702.809	20401
702.928	20554
703.047	19902
703.165	20411
703.284	19724
703.403	19113
703.522	20031
703.640	20243
703.759	19191
703.878	22602
703.997	19537
704.115	20212
704.234	18464
704.353	19392
704.471	20069
704.590	19385
704.708	17933
704.827	18287
704.946	18755
705.064	19155
705.183	18344
705.301	19904
705.420	24254
705.538	24613
705.656	22341
705.775	21620
705.893	27572
706.012	38331
706.130	22214
706.249	21933
706.367	21398
706.485	21781
706.604	20858
706.722	20999
706.840	21702
706.958	23885
707.077	22999
707.195	20129
707.313	20173
707.431	19520
707.549	19146
707.668	20232
707.786	19887
707.904	20585
708.022	18827
708.140	19787
708.258	18659
708.376	18924
708.494	19255
708.612	20546
708.730	24036
708.848	25589
708.966	22473
709.084	21817
709.202	20875
709.320	21317
709.438	21781
709.556	21787
709.674	20994
709.791	21985
709.909	20600
710.027	21391
710.145	20749
710.263	21217
710.380	20341
710.498	21759
710.616	19965
710.733	19504
710.851	19658
710.969	20209
711.086	20354
711.204	19873
711.322	19638
711.439	19332
711.557	19257
711.674	19443
711.792	19036
711.909	19248
712.027	21156
712.144	18940
712.262	19143
712.379	19676
712.497	24535
712.614	25855
712.732	22670
712.849	22037
712.966	21398
713.084	23234
713.201	21752
713.318	22613
713.436	21763
713.553	22290
713.670	21394
713.787	22137
713.905	22557
714.022	22268
714.139	21214
714.256	23045
714.373	24278
714.490	29141
714.608	42965
714.725	138306
714.842	229537
714.959	34132
715.076	22069
715.193	20848
715.310	19652
715.427	19722
715.544	19799
715.661	19142
715.778	18317
715.895	20405
716.011	19467
716.128	19196
716.245	18433
716.362	20050
716.479	20295
716.596	18444
716.713	18509
716.829	18634
716.946	18908
717.063	17775
717.180	17654
717.296	17508
717.413	18290
717.530	17457
717.646	17443
717.763	16859
717.880	15806
717.996	16871
718.113	16649
718.229	16226
718.346	15987
718.462	16238
718.579	17439
718.695	19713
718.812	19044
718.928	17517
719.045	15941
719.161	15099
719.277	15443
719.394	16099
719.510	16562
719.626	15474
719.743	18480
719.859	19718
719.975	22967
720.092	47267
720.208	125017
720.324	35451
720.440	16683
720.557	17306
720.673	18358
720.789	21064
720.905	29422
721.021	21347
721.137	15409
721.253	15828
721.369	14594
721.486	16572
721.602	17528
721.718	15409
721.834	13778
721.950	15744
722.066	14055
722.181	13599
722.297	14353
722.413	15414
722.529	13889
722.645	14283
722.761	13705
722.877	13708
722.993	12492
723.108	14521
723.224	13941
723.340	14083
723.456	13554
723.571	13621
723.687	13291
723.803	14276
723.918	12523
724.034	13477
724.150	13482
724.265	13475
724.381	15344
724.497	20002
724.612	13588
724.728	12995
724.843	12425
724.959	14355
725.074	15238
725.190	19246
725.305	12553
725.421	13317
725.536	12185
725.651	11900
725.767	12275
725.882	11963
725.997	11107
726.113	12428
726.228	11268
726.343	13058
726.459	11424
726.574	12744
726.689	11948
726.804	11604
726.920	11593
727.035	11976
727.150	12277
727.265	11859
727.380	11953
727.495	11589
727.610	10737
727.725	11333
727.841	11878
727.956	16115
728.071	17453
728.186	11845
728.301	11322
728.416	11482
728.531	11361
728.645	10399
728.760	10711
728.875	12085
728.990	10612
729.105	10518
729.220	10312
729.335	11368
729.449	10219
729.564	10466
729.679	10185
729.794	10608
729.908	9951
730.023	10720
730.138	9862
730.253	10006
730.367	10075
730.482	10118
730.596	9974
730.711	11117
730.826	11259
730.940	11199
731.055	9504
731.169	11173
731.284	9827
731.398	10356
731.513	10135
731.627	10495
731.742	10921
731.856	12412
731.970	10865
732.085	11404
732.199	12673
732.313	14603
732.428	23271
732.542	57483
732.656	53450
732.771	16213
732.885	12245
732.999	12108
733.113	12564
733.227	12582
733.342	11205
733.456	11905
733.570	11319
733.684	10772
733.798	11038
733.912	10900
734.026	10124
734.140	11852
734.254	11275
734.368	12527
734.482	14744
734.596	11227
734.710	11229
734.824	10564
734.938	10339
735.052	9950
735.166	11177
735.280	11432
735.393	10558
735.507	9878
735.621	10491
735.735	13761
735.849	11477
735.962	10013
736.076	9361
736.190	11159
736.303	10903
736.417	12011
736.531	9836
736.644	11200
736.758	8981
736.872	10863
736.985	8766
737.099	9418
737.212	9428
737.326	10236
737.439	9212
737.553	9011
737.666	8965
737.780	9153
737.893	8358
738.007	9475
738.120	10001
738.233	9369
738.347	9453
738.460	9104
738.573	10058
738.687	9188
738.800	10020
738.913	10460
739.026	9643
739.140	9843
739.253	9070
739.366	8929
739.479	8484
739.592	8723
739.705	9413
739.818	8586
739.932	8338
740.045	8781
740.158	9539
740.271	9933
740.384	9031
740.497	8210
740.610	9098
740.723	9451
740.836	7940
740.949	9341
741.062	9261
741.174	9051
741.287	8436
741.400	9228
741.513	8449
741.626	8475
741.739	9332
741.851	8534
741.964	8301
742.077	7999
742.189	8254
742.302	9464
742.415	7963
742.527	8432
742.640	8013
742.753	7185
742.865	8318
742.978	7517
743.090	8363
743.203	8668
743.316	8512
743.428	8713
743.541	8806
743.653	7795
743.766	8075
743.878	8609
743.990	8512
744.103	8713
744.215	8474
744.327	8991
744.440	7850
744.552	9719
744.664	8084
744.777	8663
744.889	7656
745.001	8542
745.113	7063
745.226	8292
745.338	8372
745.450	8394
745.562	8648
745.674	8026
745.786	7831
745.898	8230
746.010	8056
746.122	7369
746.234	7370
746.347	7687
746.459	7839
746.570	8328
746.682	7765
746.794	8219
746.906	7647
747.018	7599
747.130	7949
747.242	7157
747.354	8017
747.466	8570
747.577	8112
747.689	7428
747.801	7486
747.913	7879
748.024	7610
748.136	7976
748.248	8001
748.359	7940
748.471	7350
748.583	7742
748.694	7614
748.806	8655
748.918	8930
749.029	8668
749.141	7718
749.252	7934
749.364	7533
749.475	8848
749.587	9106
749.698	7870
749.809	8224
749.921	9113
750.032	7243
750.144	6975
750.255	7626
750.366	7409
750.478	6924
750.589	8518
750.700	7560
750.811	8858
750.923	8416
751.034	8383
751.145	9922
751.256	8463
751.367	7692
751.479	8592
751.590	7131
751.701	7650
751.812	7203
751.923	8162
752.034	7612
752.145	7475
752.256	6528
752.367	7797
752.478	6187
752.589	7669
752.700	7295
752.811	7140
752.922	6903
753.032	7970
753.143	7941
753.254	6968
753.365	7856
753.476	8341
753.586	7540
753.697	7321
753.808	7649
753.919	7652
754.029	6804
754.140	8208
754.251	7245
754.361	8217
754.472	7804
754.582	7120
754.693	8512
754.804	8161
754.914	7778
755.025	7809
755.135	7038
755.246	7835
755.356	6996
755.466	7923
755.577	7739
755.687	6923
755.798	7054
755.908	8414
756.018	7518
756.129	7371
756.239	7182
756.349	7984
756.460	7589
756.570	7179
756.680	8481
756.790	8169
756.900	8622
757.011	8021
757.121	7907
757.231	7993
757.341	8176
757.451	7509
757.561	7667
757.671	8469
757.781	7281
757.891	8131
758.001	8084
758.111	8777
758.221	8253
758.331	8527
758.441	8443
758.551	8337
758.661	9272
758.771	8086
758.880	8616
758.990	9359
759.100	8293
759.210	9108
759.320	9381
759.429	9790
759.539	8648
759.649	9333
759.758	8977
759.868	9972
759.978	9070
760.087	10149
760.197	9482
760.307	9380
760.416	10091
760.526	9910
760.635	10536
760.745	10735
760.854	10788
760.964	10270
761.073	11883
761.182	11343
761.292	10969
761.401	11791
761.511	10953
761.620	10828
761.729	12250
761.839	12219
761.948	12046
762.057	12418
762.166	12577
762.276	12194
762.385	13059
762.494	13706
762.603	12736
762.712	13926
762.822	14854
762.931	14722
763.040	15286
763.149	15520
763.258	16530
763.367	16846
763.476	17190
763.585	18867
763.694	18713
763.803	20344
763.912	21220
764.021	21971
764.130	22153
764.238	24800
764.347	25292
764.456	28366
764.565	28438
764.674	31346
764.783	33759
764.891	36439
765.000	41080
765.109	45223
765.217	51434
765.326	60626
765.435	70052
765.543	83598
765.652	102458
765.761	130936
765.869	171768
765.978	233657
766.086	328713
766.195	467640
766.303	620277
766.412	584322
766.520	477763
766.629	582678
766.737	495795
766.846	360293
766.954	258030
767.062	192882
767.171	147991
767.279	117875
767.387	95050
767.496	79002
767.604	68585
767.712	59858
767.820	54891
767.928	49826
768.037	45162
768.145	43452
768.253	40562
768.361	40265
768.469	39693
768.577	39988
768.685	41748
768.793	43333
768.901	47155
769.009	53911
769.117	62535
769.225	78408
769.333	103182
769.441	149241
769.549	229074
769.657	375789
769.765	563538
769.873	510135
769.981	503340
770.088	423596
770.196	272801
770.304	180331
770.412	127440
770.519	96561
770.627	77298
770.735	64125
770.842	53555
770.950	47688
771.058	40225
771.165	37554
771.273	33003
771.380	29473
771.488	28132
771.595	27051
771.703	25565
771.810	23956
771.918	21838
772.025	22115
772.133	19421
772.240	19859
772.348	19317
772.455	18850
772.562	16662
772.670	16781
772.777	15932
772.884	16220
772.991	14873
773.099	14897
773.206	13644
773.313	14354
773.420	13706
773.528	13003
773.635	11835
773.742	13130
773.849	11568
773.956	13064
774.063	12054
774.170	11724
774.277	11947
774.384	11870
774.491	10629
774.598	11593
774.705	10516
774.812	11467
774.919	11105
775.026	10314
775.133	10578
775.239	10916
775.346	10844
775.453	10043
775.560	10274
775.667	9457
775.773	8991
775.880	10051
775.987	9557
776.093	9700
776.200	9511
776.307	9289
776.413	9502
776.520	8540
776.627	9227
776.733	9046
776.840	7991
776.946	9640
777.053	8560
777.159	9016
777.266	7696
777.372	8396
777.478	7531
777.585	8443
777.691	7592
777.798	7843
777.904	8254
778.010	8971
778.117	8716
778.223	7975
778.329	7274
778.435	7571
778.542	8102
778.648	7598
778.754	6766
778.860	7665
778.966	6748
779.072	7462
779.178	7167
779.284	7879
779.391	6156
779.497	8235
779.603	10550
779.708	12072
779.815	22877
779.920	68909
780.026	174262
780.132	50676
780.238	11493
780.344	9471
780.450	7485
780.556	6975
780.661	6929
780.767	7807
780.873	5603
780.979	6768
781.085	5533
781.190	6709
781.296	5870
781.402	5834
781.507	6028
781.613	6039
781.719	4730
781.824	6326
781.930	6193
782.035	6600
782.141	5424
782.246	6765
782.352	5540
782.457	5939
782.563	6102
782.668	5863
782.773	5659
782.879	5362
782.984	5224
783.090	5864
783.195	6100
783.300	6379
783.405	5526
783.511	5482
783.616	6232
783.721	6001
783.826	5139
783.932	6335
784.037	5388
784.142	5580
784.247	5140
784.352	6060
784.457	5070
784.562	5464
784.667	4822
784.772	5711
784.877	4663
784.982	5343
785.087	4598
785.192	4864
785.297	4911
785.402	5219
785.507	4718
785.611	4505
785.716	4304
785.821	4116
785.926	3971
786.031	4863
786.135	5241
786.240	5451
786.345	4411
786.450	5065
786.554	3741
786.659	4638
786.763	4120
786.868	4540
786.973	4978
787.077	4351
787.182	4065
787.286	4699
787.391	4729
787.495	4587
787.600	3478
787.704	4411
787.809	4306
787.913	4438
788.017	4019
788.122	4794
788.226	4292
788.330	3961
788.435	4153
788.539	4202
788.643	4234
788.747	4556
788.852	3694
788.956	4767
789.060	4083
789.164	4459
789.268	3218
789.372	4269
789.476	4299
789.580	4139
789.684	4056
789.788	4250
789.892	3395
789.996	4640
790.100	3679
790.204	3340
790.308	3512
790.412	4528
790.516	4100
790.620	4006
790.724	3107
790.828	4478
790.931	3767
791.035	4711
791.139	4290
791.242	3589
791.346	4581
791.450	4071
791.554	4201
791.657	3328
791.761	4662
791.864	4873
791.968	4165
792.072	4151
792.175	3624
792.279	4002
792.382	3945
792.486	4313
792.589	4202
792.693	4403
792.796	2780
792.899	5056
793.003	4187
793.106	3174
793.209	4495
793.313	4520
793.416	3108
793.519	4432
793.623	3576
793.726	4827
793.829	3598
793.932	3911
794.035	2469
794.138	4850
794.242	3869
794.345	4617
794.448	7689
794.551	13381
794.654	39208
794.757	108931
794.860	34746
794.963	7282
795.066	3519
795.169	5114
795.272	4184
795.375	4752
795.477	3419
795.580	3763
795.683	2902
795.786	3305
795.889	2352
795.991	4101
796.094	3372
796.197	3703
796.300	4074
796.402	3050
796.505	2960
796.608	3296
796.710	2729
796.813	3062
796.915	2991
797.018	3840
797.120	2045
797.223	2220
797.326	3330
797.428	3978
797.530	3184
797.633	3019
797.735	3325
797.838	4319
797.940	3614
798.042	3308
798.145	2893
798.247	3967
798.349	2249
798.452	2985
798.554	2597
798.656	2746
798.758	3945
798.860	2852
798.962	3131
799.065	2564
799.167	2067
799.269	3549
799.371	2235
799.473	3433
799.575	2290
799.677	3127
799.779	4012
799.881	2953
799.983	3445
800.085	3777
800.187	2705
800.289	2245
800.390	2262
800.492	3337
800.594	3601
800.696	3260
800.798	2336
800.899	2271
801.001	2534
801.103	2729
801.205	2103
801.306	1919
801.408	2011
801.509	2690
801.611	2531
801.713	2770
801.814	2341
801.916	2992
802.017	2559
802.119	2229
802.220	2846
802.322	1713
802.423	3774
802.525	2628
802.626	2953
802.727	2924
802.829	2906
802.930	1950
803.031	3751
803.133	2186
803.234	2328
803.335	2563
803.436	1382
803.538	2815
803.639	1880
803.740	2529
803.841	2462
803.942	2559
804.043	2599
804.144	1925
804.245	1859
804.346	2386
804.447	1958
804.548	2802
804.649	3161
804.750	2644
804.851	2292
804.952	2850
805.053	2642
805.154	1927
805.255	3037
805.355	2448
805.456	2084
805.557	2606
805.658	1746
805.758	2945
805.859	2435
805.960	3397
806.061	2091
806.161	2007
806.262	2396
806.362	2301
806.463	2464
806.564	2949
806.664	2697
806.765	2455
806.865	2469
806.966	2492
807.066	2304
807.166	2921
807.267	2738
807.367	1945
807.468	2337
807.568	2106
807.668	4109
807.769	2911
807.869	2432
807.969	2405
808.069	3477
808.170	2511
808.270	2114
808.370	1856
808.470	2713
808.570	1754
808.670	1917
808.770	2083
808.870	1936
808.970	2067
809.070	1960
809.170	2137
809.271	2773
809.370	1876
809.470	1520
809.570	2499
809.670	1468
809.770	2476
809.870	1894
809.970	2908
810.070	1658
810.169	2588
810.269	724
810.369	3223
810.469	2033
810.568	1445
810.668	1122
810.768	2210
810.867	2037
810.967	2436
811.066	1498
811.166	2582
811.265	2113
811.365	2115
811.464	2042
811.564	2586
811.663	1883
811.763	1938
811.862	2706
811.962	2172
812.061	2099
812.160	2046
812.260	1732
812.359	2480
812.458	2682
812.557	4601
812.657	7751
812.756	4907
812.855	2555
812.954	1795
813.053	2128
813.153	2836
813.252	1606
813.351	2739
813.450	2063
813.549	2063
813.648	1880
813.747	2021
813.846	2266
813.945	2552
814.044	2414
814.143	2241
814.242	2505
814.341	2282
814.439	1700
814.538	2855
814.637	1830
814.736	2587
814.835	2117
814.933	2153
815.032	3328
815.131	2026
815.229	2537
815.328	4119
815.427	3111
815.525	3353
815.624	3263
815.722	3047
815.821	3125
815.919	4066
816.018	2249
816.116	3140
816.215	2959
816.313	4071
816.412	2645
816.510	3236
816.609	4045
816.707	3938
816.805	2888
816.904	4419
817.002	4038
817.100	5413
817.198	3923
817.296	4849
817.395	4518
817.493	6057
817.591	5009
817.689	7236
817.787	8170
817.885	11318
817.983	19002
818.081	35043
818.179	77430
818.277	177215
818.375	203133
818.473	77538
818.571	28433
818.669	17175
818.767	14288
818.865	13243
818.963	15520
819.061	20788
819.158	33824
819.256	63771
819.354	131946
819.452	257395
819.549	225453
819.647	95908
819.745	39416
819.842	22918
819.940	15943
820.038	11753
820.135	9118
820.233	8293
820.330	7218
820.428	5935
820.525	5950
820.623	5290
820.720	4232
820.818	4950
820.915	4544
821.012	4294
821.110	3481
821.207	4148
821.304	3085
821.402	3805
821.499	3992
821.596	3259
821.693	2452
821.791	2956
821.888	3569
821.985	4259
822.082	3127
822.179	4283
822.276	2282
822.373	2882
822.470	2109
822.567	2811
822.664	2285
822.761	3596
822.858	1415
822.955	3232
823.052	2006
823.149	2508
823.246	2391
823.343	2020
823.440	2641
823.536	2850
823.633	2352
823.730	2460
823.827	1821
823.923	2406
824.020	2772
824.117	2333
824.213	1319
824.310	3486
824.407	1543
824.503	2547
824.600	2142
824.696	2177
824.793	2469
824.889	2381
824.986	2218
825.082	2145
825.179	1130
825.275	2497
825.371	2547
825.468	3178
825.564	1079
825.660	2261
825.757	2254
825.853	2869
825.949	1019
826.045	2200
826.142	1382
826.238	2922
826.334	2821
826.430	1440
826.526	1728
826.622	1960
826.718	1884
826.814	1642
826.910	2482
827.006	1699
827.102	855
827.198	2316
827.294	1811
827.390	2557
827.486	1884
827.582	1644
827.678	1484
827.774	2954
827.869	1136
827.965	2466
828.061	1254
828.157	2272
828.252	1931
828.348	969
828.444	2367
828.539	872
828.635	1842
828.731	2361
828.826	1564
828.922	2168
829.017	1298
829.113	2285
829.208	1303
829.304	1652
829.399	2526
829.495	1708
829.590	2410
829.685	1167
829.781	1865
829.876	2344
829.971	1052
830.066	1526
830.162	708
830.257	2262
830.352	977
830.447	2213
830.543	767
830.638	689
830.733	1831
830.828	1486
830.923	1860
831.018	1624
831.113	1813
831.208	2275
831.303	1099
831.398	1750
831.493	1127
831.588	3033
831.683	1310
831.778	1851
831.873	1433
831.967	1574
832.062	1841
832.157	1153
832.252	1362
832.346	1510
832.441	2543
832.536	2053
832.631	2947
832.725	3692
832.820	2046
832.914	2299
833.009	1761
833.104	2289
833.198	2155
833.293	831
833.387	1713
833.482	1557
833.576	1606
833.670	2116
833.765	1054
833.859	1504
833.954	1890
834.048	2408
834.142	1616
834.237	1266
834.331	1194
834.425	1831
834.519	1526
834.613	1769
834.708	1875
834.802	1125
834.896	1511
834.990	1438
835.084	857
835.178	1017
835.272	1092
835.366	1590
835.460	2070
835.554	1550
835.648	539
835.742	1405
835.836	1417
835.930	112
836.024	1058
836.117	2280
836.211	1218
836.305	1524
836.399	1856
836.493	1249
836.586	1792
836.680	1487
836.774	1240
836.867	1849
836.961	722
837.055	755
837.148	664
837.242	1096
837.335	254
837.429	1163
837.522	1349
837.616	1864
837.709	2029
837.803	1613
837.896	1147
837.989	1467
838.083	2019
838.176	1853
838.269	2198
838.363	1660
838.456	548
838.549	1969
838.642	1540
838.735	2887
838.829	2665
838.922	1043
839.015	1375
839.108	1143
839.201	1125
839.294	1910
839.387	445
839.480	1159
839.573	1335
839.666	2292
839.759	1662
839.852	1598
839.945	1635
840.038	1008
840.131	1076
840.223	2098
840.316	1575
840.409	1753
840.502	159
840.594	1855
840.687	492
840.780	2163
840.873	726
840.965	1571
841.058	1406
841.150	2000
841.243	1180
841.336	1465
841.428	886
841.521	534
841.613	1265
841.706	1213
841.798	179
841.890	1159
841.983	165
842.075	1496
842.167	282
842.260	1217
842.352	1993
842.444	2165
842.537	2201
842.629	3878
842.721	1809
842.813	1344
842.905	405
842.997	1551
843.090	437
843.182	1692
843.274	1509
843.366	4763
843.458	6832
843.550	6244
843.642	2082
843.734	1577
843.826	1307
843.918	1590
844.009	930
844.101	15
844.193	891
844.285	686
844.377	1295
844.469	1517
844.560	628
844.652	1019
844.744	1216
844.835	1533
844.927	1237
845.019	1446
845.110	887
845.202	1533
845.293	964
845.385	574
845.476	1198
845.568	1751
845.659	499
845.751	1687
845.842	999
845.934	928
846.025	463
846.116	1162
846.208	1267
846.299	2214
846.390	1428
846.482	1334
846.573	982
846.664	2242
846.755	1365
846.846	1973
846.937	624
847.029	882
847.120	38
847.211	706
847.302	1756
847.393	841
847.484	1671
847.575	1001
847.666	649
847.757	191
847.847	90
847.938	2007
848.029	642
848.120	573
848.211	1345
848.302	515
848.392	750
848.483	1367
848.574	244
848.664	820
848.755	1201
848.846	917
848.936	2
849.027	1127
849.118	1187
849.208	470
849.299	644
849.389	1731
849.480	1429
849.570	2869
849.661	3638
849.751	7234
849.841	3819
849.932	1630
850.022	481
850.112	495
850.203	816
850.293	687
850.383	561
850.474	858
850.564	385
850.654	1308
850.744	1320
850.834	1027
850.924	-68
851.014	1392
851.104	738
851.194	612
851.284	617
851.374	1732
851.464	1425
851.554	941
851.644	621
851.734	1805
851.824	2166
851.914	3996
852.004	6333
852.094	9150
852.183	2432
852.273	1678
852.363	144
852.452	594
852.542	1038
852.632	-47
852.721	1150
852.811	1068
852.901	876
852.990	1034
853.080	1449
853.169	1338
853.259	815
853.348	668
853.438	1265
853.527	1450
853.617	1265
853.706	2676
853.795	3231
853.885	6461
853.974	12702
854.063	21856
854.152	39716
854.242	23567
854.331	4206
854.420	1472
854.509	1226
854.598	1269
854.687	1404
854.777	1700
854.866	1179
854.955	1344
855.044	679
855.133	678
855.222	607
855.311	385
855.400	577
855.488	1365
855.577	509
855.666	599
855.755	933
855.844	1436
855.933	1048
856.021	1993
856.110	1375
856.199	707
856.288	48
856.376	582
856.465	81
856.554	579
856.642	866
856.731	1492
856.819	894
856.908	1170
856.996	89
857.085	417
857.173	619
857.262	1638
857.350	1021
857.438	946
857.527	914
857.615	76
857.703	846
857.792	27
857.880	-411
857.968	6
858.056	609
858.145	325
858.233	731
858.321	1013
858.409	1112
858.497	795
858.585	420
858.673	1139
858.761	-213
858.849	800
858.937	-567
859.025	809
859.113	735
859.201	247
859.289	1444
859.377	717
859.465	706
859.552	1417
859.640	216
859.728	1141
859.816	507
859.903	1528
859.991	-408
860.079	1544
860.166	823
860.254	1064
860.342	653
860.429	1058
860.517	663
860.604	1171
860.692	376
860.779	590
860.867	530
860.954	194
861.042	125
861.129	1132
861.216	755
861.304	728
861.391	1055
861.478	751
861.565	371
861.653	1395
861.740	142
861.827	644
861.914	303
862.001	639
862.089	293
862.176	852
862.263	1
862.350	553
862.437	659
862.524	400
862.611	-40
862.698	993
862.785	1147
862.871	902
862.958	-7
863.045	402
863.132	1101
863.219	747
863.306	-197
863.392	720
863.479	-441
863.566	418
863.652	1215
863.739	161
863.826	-246
863.912	257
863.999	565
864.086	687
864.172	-378
864.259	410
864.345	419
864.432	1661
864.518	-121
864.604	1058
864.691	287
864.777	798
864.863	364
864.950	1243
865.036	15
865.122	2234
865.209	1669
865.295	1497
865.381	1914
865.467	1115
865.553	1613
865.639	1522
865.726	2280
865.812	4222
865.898	6946
865.984	10605
866.070	16409
866.156	26319
866.242	9676
866.328	3473
866.414	531
866.499	893
866.585	902
866.671	1421
866.757	1472
866.843	2074
866.928	961
867.014	1240
867.100	1620
867.186	1702
867.271	1544
867.357	1886
867.442	1146
867.528	1300
867.614	1077
867.699	1775
867.785	1616
867.870	1619
867.956	869
868.041	1489
868.127	1053
868.212	1076
868.297	1078
868.383	993
868.468	1349
868.553	3268
868.639	1853
868.724	3832
868.809	3918
868.894	1850
868.979	1652
869.065	1859
869.150	536
869.235	1656
869.320	516
869.405	1138
869.490	1223
869.575	2073
869.660	1092
869.745	1358
869.830	166
869.915	1043
870.000	624
870.085	179
870.169	353
870.254	1438
870.339	567
870.424	120
870.509	592
870.593	915
870.678	658
870.763	969
870.847	752
870.932	1449
871.016	1162
871.101	584
871.186	371
871.270	1812
871.355	421
871.439	1147
871.523	644
871.608	921
871.692	187
871.777	965
871.861	1516
871.945	567
872.030	392
872.114	1178
872.198	506
872.282	599
872.367	654
872.451	-516
872.535	212
872.619	1137
872.703	599
872.787	759
872.871	-241
872.955	860
873.039	844
873.123	1060
873.207	863
873.291	304
873.375	378
873.459	1064
873.543	100
873.627	141
873.711	683
873.794	136
873.878	131
873.962	494
874.045	325
874.129	541
874.137	480
874.213	-132
874.245	258
874.296	887
874.352	-45
874.380	-498
874.460	221
874.464	249
874.547	38
874.568	388
874.631	1418
874.676	814
874.714	312
874.784	945
874.798	1071
874.881	1866
874.892	1679
874.965	371
874.999	337
875.048	308
875.107	599
875.131	708
875.215	-4
875.215	-4
875.298	183
875.323	281
875.381	593
875.430	865
875.465	1033
875.538	516
875.548	446
875.631	640
875.646	491
875.714	-258
875.753	238
875.798	814
875.861	215
875.881	33
875.964	1193
875.968	1129
876.047	-8
876.076	392
876.130	1104
876.183	757
876.213	600
876.291	773
876.296	777
876.379	227
876.398	276
876.462	473
876.506	403
876.545	327
876.613	486
876.628	524
876.711	-46
876.721	21
876.794	638
876.828	329
876.877	-208
876.935	86
876.960	235
877.043	67
877.043	69
877.125	629
877.150	665
877.208	750
877.258	248
877.291	-132
877.365	74
877.374	114
877.456	540
877.472	542
877.539	468
877.579	459
877.622	435
877.687	591
877.704	648
877.787	742
877.794	709
877.869	374
877.901	570
877.952	848
878.008	186
878.034	-67
878.115	182
878.117	186
878.199	-207
878.222	-5
878.282	440
878.329	442
878.364	507
878.437	676
878.447	679
878.529	21
878.544	161
878.611	732
878.651	347
878.694	109
878.758	612
878.776	698
878.858	69
878.865	94
878.941	585
878.972	361
879.023	-208
879.078	-53
879.105	203
879.185	485
879.187	482
879.269	459
879.292	387
879.351	201
879.399	195
879.433	232
879.506	-250
879.516	-289
879.598	-137
879.613	-23
879.680	240
879.720	622
879.762	1120
879.827	37
879.844	-232
879.926	275
879.933	299
880.007	159
880.040	72
880.089	157
880.147	288
880.171	394
880.253	1003
880.254	1003
880.335	587
880.360	632
880.417	1086
880.467	1183
880.499	1323
880.574	2221
880.580	2221
880.662	1244
880.680	929
880.744	127
880.787	-62
880.825	-216
880.893	-0
880.907	16
880.989	-261
881.000	-230
881.070	488
881.106	402
881.152	137
881.213	304
881.233	321
881.315	295
881.319	292
881.396	454
881.426	485
881.478	415
881.532	361
881.559	379
881.639	150
881.641	148
881.722	180
881.745	319
881.803	604
881.852	597
881.885	495
881.958	216
881.966	187
882.047	199
882.064	61
882.129	170
882.171	681
882.210	645
882.277	608
882.291	665
882.372	509
882.383	492
882.454	680
882.489	701
882.535	554
882.596	255
882.616	187
882.697	747
882.702	743
882.778	467
882.808	358
882.859	189
882.914	44
882.940	102
883.020	386
883.021	386
883.102	53
883.127	82
883.183	393
883.233	489
883.264	393
883.339	165
883.345	167
883.426	144
883.445	198
883.507	182
883.551	-69
883.587	-175
883.657	227
883.668	384
883.749	921
883.763	1056
883.830	866
883.869	626
883.910	293
883.975	-153
883.991	-136
884.072	100
884.081	118
884.152	202
884.187	116
884.233	-55
884.292	365
884.314	440
884.394	-219
884.398	-237
884.475	-15
884.504	171
884.555	263
884.610	267
884.636	274
884.716	151
884.716	148
884.797	-107
884.821	-127
884.877	276
884.927	520
884.958	464
885.033	275
885.038	274
885.118	450
885.139	418
885.199	161
885.244	238
885.279	366
885.350	195
885.359	143
885.439	71
885.456	-22
885.520	137
885.561	331
885.600	144
885.667	-157
885.680	-72
885.760	409
885.773	509
885.840	413
885.878	263
885.920	392
885.984	549
886.000	503
886.080	430
886.089	397
886.160	399
886.195	570
886.240	562
886.300	243
886.320	289
886.400	849
886.406	853
886.480	784
886.511	877
886.560	857
886.616	706
886.640	427
886.720	-364
886.722	-384
886.800	384
886.827	687
886.879	181
886.932	-338
886.959	-127
887.038	361
887.039	355
887.119	-191
887.143	-319
887.198	179
887.248	700
887.278	671
887.354	485
887.358	500
887.437	729
887.459	820
887.517	751
887.564	589
887.596	561
887.669	713
887.676	669
887.755	-126
887.774	-259
887.835	331
887.880	728
887.914	514
887.985	26
887.994	40
888.073	63
888.090	138
888.153	420
888.195	430
888.232	250
888.300	131
888.311	180
888.391	360
888.405	402
888.470	584
888.510	672
888.549	533
888.615	432
888.628	427
888.708	222
888.720	213
888.787	382
888.825	392
888.866	290
888.930	240
888.945	323
889.024	686
889.035	740
889.103	265
889.140	-26
889.182	-208
889.245	-404
889.261	-289
889.340	256
889.349	319
889.419	-357
889.454	-701
889.498	-493
889.559	-158
889.577	-190
889.656	-321
889.664	-329
889.735	322
889.768	638
889.814	593
889.873	534
889.978	871
890.083	589
890.187	648
890.292	-344
890.397	624
890.501	465
890.606	179
890.710	319
890.815	-117
890.919	379
891.024	1024
891.128	-310
891.233	510
891.337	463
891.442	-276
891.546	98
891.650	546
891.755	170
891.859	1263
891.963	13
892.068	37
892.172	-647
892.276	850
892.380	27
892.484	-42
892.589	298
892.693	583
892.797	-346
892.901	-101
893.005	108
893.109	414
893.213	-205
893.317	215
893.421	142
893.525	601
893.629	104
893.733	628
893.837	119
893.941	-281
894.045	721
894.148	593
894.252	744
894.356	533
894.460	627
894.564	203
894.667	-21
894.771	-367
894.875	219
894.978	90
895.082	-801
895.186	381
895.289	752
895.393	630
895.496	175
895.600	-205
895.703	591
895.807	-206
895.910	-18
896.014	372
896.117	-57
896.221	-233
896.324	448
896.427	240
896.531	-308
896.634	-396
896.737	701
896.840	-215
896.944	149
897.047	514
897.150	-305
897.253	-545
897.356	-5
897.460	106
897.563	397
897.666	-77
897.769	235
897.872	295
897.975	440
898.078	309
898.181	-202
898.284	161
898.387	520
898.490	569
898.593	-87
898.695	313
898.798	-554
898.901	104
899.004	8
899.107	281
899.209	186
899.312	291
899.415	363
899.518	-56
899.620	388
899.723	159
899.826	-79
899.928	292
900.031	-724
900.133	74
900.236	-428
900.338	-192
900.441	-610
900.543	-157
900.646	-686
900.748	593
900.851	-81
900.953	117
901.055	614
901.158	543
901.260	-262
901.362	-67
901.465	199
901.567	-115
901.669	-453
901.771	-40
901.873	-790
901.976	-100
902.078	114
902.180	-124
902.282	230
902.384	687
902.486	245
902.588	76
902.690	-139
902.792	-1
902.894	441
902.996	-111
903.098	-675
903.200	665
903.302	498
903.404	-56
903.505	-770
903.607	-161
903.709	731
903.811	295
903.913	-625
904.014	175
904.116	-664
904.218	-119
904.319	573
904.421	96
904.523	-91
904.624	-683
904.726	-206
904.827	-578
904.929	65
905.030	358
905.132	774
905.233	418
905.335	-159
905.436	100
905.537	470
905.639	-531
905.740	-748
905.841	-361
905.943	22
906.044	67
906.145	-699
906.247	-50
906.348	-490
906.449	272
906.550	-343
906.651	140
906.752	-701
906.854	-436
906.955	253
907.056	-409
907.157	331
907.258	-54
907.359	-61
907.460	-275
907.561	128
907.662	722
907.762	69
907.863	-378
907.964	419
908.065	183
908.166	-120
908.267	3
908.367	-7
908.468	514
908.569	108
908.670	-23
908.770	-940
908.871	90
908.971	352
909.072	-449
909.173	-774
909.273	224
909.374	-434
909.474	105
909.575	27
909.675	444
909.776	-379
909.876	105
909.977	-171
910.077	246
910.177	-464
910.278	132
910.378	-315
910.478	200
910.579	-75
910.679	48
910.779	18
910.879	-478
910.980	-165
911.080	-104
911.180	-938
911.280	-77
911.380	-175
911.480	328
911.580	-942
911.680	-425
911.780	-178
911.880	478
911.980	-711
912.080	46
912.180	428
912.280	-39
912.380	-406
912.480	1
912.580	-680
912.679	282
912.779	378
912.879	329
912.979	-463
913.078	-347
913.178	440
913.278	-470
913.377	-11
913.477	-386
913.577	244
913.676	90
913.776	-760
913.875	768
913.975	-275
914.074	680
914.174	307
914.273	-20
914.373	175
914.472	-586
914.572	-109
914.671	-419
914.770	-630
914.870	-86
914.969	-16
915.068	299
915.167	234
915.267	57
915.366	-124
915.465	-663
915.564	-215
915.663	174
915.763	-219
915.862	-91
915.961	-429
916.060	-782
916.159	138
916.258	102
916.357	32
916.456	-25
916.555	206
916.654	-511
916.752	448
916.851	348
916.950	-145
917.049	29
917.148	364
917.247	121
917.345	317
917.444	-199
917.543	-518
917.642	375
917.740	-173
917.839	576
917.937	17
918.036	252
918.135	-1216
918.233	87
918.332	286
918.430	-267
918.529	-93
918.627	-331
918.726	21
918.824	159
918.923	-736
919.021	300
919.119	19
919.218	279
919.316	-595
919.414	158
919.512	-641
919.611	1
919.709	506
919.807	-162
919.905	-617
920.003	-388
920.102	-129
920.200	-141
920.298	-107
920.396	386
920.494	583
920.592	-675
920.690	409
920.788	469
920.886	483
920.984	484
921.082	200
921.180	749
921.277	295
921.375	-407
921.473	-820
921.571	127
921.669	469
921.766	30
921.864	277
921.962	155
922.060	39
922.157	-386
922.255	342
922.352	238
922.450	102
922.548	1031
922.645	359
922.743	554
922.840	400
922.938	166
923.035	-49
923.133	783
923.230	188
923.327	814
923.425	740
923.522	663
923.619	634
923.717	844
923.814	667
923.911	636
924.008	513
924.106	1142
924.203	250
924.300	897
924.397	726
924.494	415
924.591	785
924.688	99
924.786	1406
924.883	1056
924.979	1020
925.077	293
925.173	822
925.270	253
925.367	419
925.464	493
925.561	348
925.658	719
925.755	79
925.852	104
925.948	1345
926.045	14
926.142	548
926.239	923
926.335	-173
926.432	902
926.529	501
926.625	819
926.722	95
926.818	1281
926.915	-70
927.011	243
927.108	-514
927.204	271
927.301	129
927.397	255
927.494	645
927.590	-29
927.687	348
927.783	1316
927.879	305
927.976	764
928.072	-239
928.168	211
928.264	-211
928.361	-190
928.457	644
928.553	562
928.649	55
928.745	186
928.841	64
928.937	638
929.033	896
929.129	542
929.225	-226
929.321	617
929.417	217
929.513	-91
929.609	-67
929.705	-134
929.801	32
929.897	253
929.993	857
930.089	572
930.184	644
930.280	102
930.376	-680
930.471	-103
930.567	170
930.663	-219
930.758	-188
930.854	218
930.950	-199
931.045	253
931.141	223
931.236	1194
931.332	365
931.427	-133
931.523	416
931.618	1055
931.714	509
931.809	-141
931.905	-228
932.000	-60
932.095	-122
932.191	390
932.286	1054
932.381	271
932.476	-545
932.572	367
932.667	279
932.762	189
932.857	-62
932.952	-184
933.047	529
933.142	565
933.237	234
933.332	189
933.427	199
933.522	716
933.617	-193
933.712	634
933.807	-119
933.902	175
933.997	-120
934.092	9
934.187	-218
934.282	770
934.376	-127
934.471	127
934.566	246
934.661	517
934.755	151
934.850	-202
934.945	728
935.039	-63
935.134	355
935.228	71
935.323	179
935.417	1262
935.512	-21
935.606	-212
935.701	-389
935.795	-445
935.890	-18
935.984	336
936.079	269
936.173	236
936.267	374
936.362	-278
936.456	221
936.550	-101
936.644	405
936.738	-344
936.833	-349
936.927	520
937.021	-414
937.115	346
937.209	-426
937.303	813
937.397	-733
937.491	-615
937.585	-83
937.679	469
937.773	-126
937.867	728
937.961	-3
938.055	61
938.149	209
938.243	-410
938.337	-1067
938.430	-221
938.524	248
938.618	-587
938.712	226
938.805	173
938.899	-5
938.993	491
939.086	-365
939.180	343
939.274	-249
939.367	-159
939.461	436
939.554	197
939.648	47
939.741	-54
939.835	1230
939.928	-267
940.022	277
940.115	683
940.208	146
940.302	559
940.395	59
940.488	468
940.582	27
940.675	256
940.768	-356
940.861	-469
940.954	231
941.048	-261
941.141	-61
941.234	-26
941.327	379
941.420	548
941.513	182
941.606	-244
941.699	-195
941.792	-416
941.885	-184
941.978	696
942.071	-326
942.164	-175
942.257	-504
942.349	-532
942.442	-3
942.535	20
942.628	343
942.721	-85
942.813	-669
942.906	474
942.999	248
943.091	-257
943.184	387
943.277	-341
943.369	-179
943.462	-435
943.554	235
943.647	-285
943.739	-326
943.832	10
943.924	1
944.017	59
944.109	-423
944.201	275
944.294	-423
944.386	-136
944.478	-219
944.571	182
944.663	418
944.755	-202
944.847	-162
944.940	161
945.032	-494
945.124	-38
945.216	548
945.308	75
945.400	127
945.492	-224
945.584	-545
945.676	-186
945.768	276
945.860	83
945.952	163
946.044	-39
946.136	-334
946.228	-496
946.320	-541
946.412	-197
946.503	-357
946.595	-443
946.687	13
946.779	423
946.870	-105
946.962	339
947.054	-345
947.145	-86
947.237	-404
947.329	489
947.420	132
947.512	-34
947.603	-385
947.695	-221
947.786	-21
947.878	-10
947.969	-148
948.061	-81
948.152	212
948.243	-45
948.335	-649
948.426	-525
948.517	-518
948.609	450
948.700	-175
948.791	-430
948.882	119
948.973	-458
949.065	19
949.156	135
949.247	-248
949.338	-408
949.429	57
949.520	208
949.611	-867
949.702	277
949.793	-312
949.884	-301
949.975	66
950.066	-880
950.157	-257
950.247	-805
950.338	271
950.429	-167
950.520	274
950.611	143
950.701	-757
950.792	-76
950.883	498
950.973	-191
951.064	-542
951.155	268
951.245	-305
951.336	-457
951.427	-613
951.517	322
951.608	-338
951.698	244
951.788	-215
951.879	-720
951.969	-256
952.060	-220
952.150	-159
952.240	167
952.331	-1094
952.421	526
952.511	-888
952.602	-634
952.692	-213
952.782	204
952.872	590
952.962	238
953.052	463
953.143	-568
953.233	35
953.323	-209
953.413	-458
953.503	23
953.593	40
953.683	-243
953.773	-554
953.863	-56
953.953	-1107
954.042	-273
954.132	-456
954.222	-163
954.312	-803
954.402	-691
954.492	-552
954.581	446
954.671	-592
954.761	-704
954.850	631
954.940	-57
955.030	-170
955.119	-52
955.209	204
955.298	-90
955.388	-723
955.477	482
955.567	-656
955.656	87
955.746	-194
955.835	-96
955.925	-667
956.014	-57
956.103	-165
956.193	154
956.282	-633
956.371	343
956.461	-992
956.550	-891
956.639	-368
956.728	-1118
956.817	-876
956.906	-713
956.995	-699
957.085	-1067
957.174	-368
957.263	-112
957.352	-806
957.441	-474
957.530	233
957.619	-146
957.708	-569
957.796	-1354
957.885	-425
957.974	-211
958.063	354
958.152	-155
958.241	97
958.329	-840
958.418	-617
958.507	348
958.596	-472
958.684	-932
958.773	1184
958.861	-361
958.950	-502
959.039	-11
959.127	28
959.216	-5
959.304	-380
959.393	-668
959.481	-508
959.570	430
959.658	12
959.746	-471
959.835	414
959.923	518
960.011	-63
960.100	910
960.188	-227
960.276	-290
960.365	-251
960.453	-125
960.541	-709
960.629	211
960.717	-553
960.805	-745
960.893	-971
960.981	-389
961.069	640
961.158	-613
961.245	-242
961.333	-802
961.421	-228
961.509	-478
961.597	389
961.685	-83
961.773	-731
961.861	-480
961.949	-263
962.036	-510
962.124	18
962.212	-609
962.299	-570
962.387	-408
962.475	-844
962.562	-978
962.650	-255
962.738	-244
962.825	-373
962.913	-284
963.000	-266
963.088	-910
963.175	-476
963.263	72
963.350	-292
963.438	-664
963.525	-516
963.612	-515
963.700	260
963.787	3345
963.874	2755
963.962	369
964.049	-497
964.136	-612
964.223	-431
964.310	-1172
964.398	-178
964.485	-686
964.572	-362
964.659	138
964.746	-36
964.833	-415
964.920	-161
965.007	-239
965.094	-293
965.181	-770
965.268	-873
965.355	-784
965.441	-313
965.528	-559
965.615	-743
965.702	-67
965.789	-1137
965.875	-733
965.962	-309
966.049	-613
966.136	99
966.222	-653
966.309	35
966.395	-225
966.482	9
966.569	-864
966.655	-507
966.742	-1037
966.828	-962
966.915	-1001
967.001	-179
967.087	-1211
967.174	-603
967.260	-875
967.347	100
967.433	244
967.519	2132
967.605	1100
967.692	-363
967.778	-532
967.864	201
967.950	-412
968.036	-1223
968.123	-358
968.209	-109
968.295	-488
968.381	303
968.467	-651
968.553	-1969
968.639	78
968.725	-1413
968.811	-334
968.897	309
968.983	-631
969.069	-795
969.154	-430
969.240	-548
969.326	-1159
969.412	-1194
969.497	-828
969.583	-596
969.669	-438
969.755	-748
969.840	-313
969.926	-84
970.012	-787
970.097	-360
970.183	-277
970.268	-486
970.354	-154
970.439	-86
970.525	1395
970.610	-57
970.696	223
970.781	-706
970.866	-1138
970.952	-262
971.037	-527
971.122	-434
971.208	-426
971.293	-419
971.378	-1198
971.463	-786
971.549	-364
971.634	-621
971.719	-305
971.804	-821
971.889	219
971.974	-868
972.059	-543
972.144	-1246
972.229	-760
972.314	-1022
972.399	-1173
972.484	-762
972.569	-311
972.654	-396
972.739	899
972.824	150
972.908	-1215
972.993	-807
973.078	-882
973.163	-421
973.247	-16
973.332	-1331
973.417	-373
973.501	-1632
973.586	-567
973.671	-758
973.755	-858
973.840	-914
973.924	-1426
974.009	-712
974.093	-852
974.178	-658
974.262	-605
974.346	-629
974.431	-563
974.515	-716
974.600	-875
974.684	-726
974.768	-957
974.852	309
974.937	-1648
975.021	-215
975.105	-1091
975.189	-754
975.273	-1044
975.358	-1431
975.442	-686
975.526	-1132
975.610	-1428
975.694	-1626
975.778	-360
975.862	-701
975.946	-1998
976.030	1079
976.114	-965
976.198	-858
976.281	-507
976.365	-486
976.449	-448
976.533	-1260
976.617	-1005
976.700	-915
976.784	-62
976.868	-1477
976.951	-538
977.035	-837
977.119	-1515
977.202	-535
977.286	-166
977.369	-257
977.453	-493
977.536	-1203
977.620	-826
977.703	-284
977.787	-1546
977.870	-1198
977.953	-82
978.037	-1001
978.120	-512
978.203	-386
978.287	206
978.370	540
978.453	-867
978.536	-1596
978.620	-116
978.703	-1225
978.786	-611
978.869	-1998
978.952	-1500
979.035	-92
979.118	-689
979.201	-305
979.284	256
979.367	-724
979.450	-1147
979.533	-718
979.616	-997
979.699	-1485
979.782	-1006
979.865	-698
979.948	-816
980.030	-1661
980.113	-707
980.196	-1689
980.279	-197
980.361	-1161
980.444	-1472
980.526	-1009
980.609	-789
980.692	-1275
980.774	-499
980.857	-1252
980.939	-1321
981.022	-530
981.104	-2136
981.187	-1374
981.269	-692
981.352	-1055
981.434	-1331
981.516	-1329
981.599	-486
981.681	-1474
981.763	-1335
981.846	-1810
981.928	-429
982.010	-1032
982.092	-1914
982.174	-143
982.256	-1355
982.339	-1603
982.421	-700
982.503	-490
982.585	-548
982.667	-1160
982.749	-1002
982.831	-1126
982.913	-1372
982.995	-1068
983.077	-748
983.158	-530
983.240	-605
983.322	-1320
983.404	-775
983.486	-1550
983.568	-962
983.649	-1083
983.731	-265
983.813	-952
983.894	-848
983.976	-1223
984.058	-1041
984.139	-1266
984.221	-639
984.302	-612
984.384	-1531
984.465	-1961
984.547	238
984.628	-1021
984.710	-1136
984.791	-775
984.872	-604
984.954	-1739
985.035	-741
985.116	-1511
985.198	-1885
985.279	-878
985.360	-1462
985.441	-989
985.522	-803
985.604	-855
985.685	-2337
985.766	-309
985.847	-133
985.928	-1375
986.009	-1218
986.090	-1234
986.171	-1011
986.252	-841
986.333	-1424
986.414	-1487
986.495	-1017
986.576	-1366
986.656	-231
986.737	-990
986.818	-1138
986.899	-1402
986.980	-1586
987.060	-346
987.141	-1451
987.222	-945
987.302	-957
987.383	-958
987.464	-926
987.544	-737
987.625	-1100
987.705	-553
987.786	-473
987.866	-1284
987.947	-834
988.027	-1544
988.108	-1034
988.188	-583
988.268	-768
988.349	-1343
988.429	-608
988.509	-1402
988.589	-1092
988.670	-1558
988.750	-748
988.830	-1663
988.910	-1333
988.990	-282
989.070	-283
989.151	-592
989.231	-1361
989.311	-875
989.391	-628
989.471	-862
989.551	-1054
989.631	-2065
989.711	-865
989.791	-1198
989.870	-868
989.950	-1042
990.030	-1254
990.110	-1092
990.190	-1331
990.269	-1655
990.349	-1559
990.429	-913
990.509	-398
990.588	-1530
990.668	-341
990.747	-495
990.827	-350
990.907	-1152
990.986	-1395
991.066	-775
991.145	-1514
991.225	-736
991.304	-951
991.383	-1258
991.463	-1183
991.542	-1003
991.622	-1081
991.701	-836
991.780	-906
991.859	-1365
991.939	-569
992.018	-1438
992.097	-1541
992.176	-1147
992.256	-605
992.335	-1630
992.414	-230
992.493	-778
992.572	-1120
992.651	6
992.730	-680
992.809	-840
992.888	-1692
992.967	-1490
993.046	-2090
993.125	-1505
993.203	-1047
993.282	-1249
993.361	-1145
993.440	-1072
993.519	-1189
993.597	-885
993.676	-1625
993.755	-217
993.834	-908
993.912	-1901
993.991	141
994.069	-792
994.148	-827
994.226	-918
994.305	-1228
994.384	-2345
994.462	-218
994.540	-1915
994.619	-1418
994.697	-1137
994.776	-1158
994.854	-1116
994.932	-1921
995.011	-732
995.089	-1236
995.167	-826
995.245	-580
995.324	-1613
995.402	-43
995.480	-1861
995.558	-1303
995.636	-1805
995.714	-1282
995.792	-359
995.870	-1266
995.948	-670
996.026	-948
996.104	-1533
996.182	-780
996.260	-1654
996.338	-959
996.416	-1494
996.494	-1177
996.572	-293
996.649	-1104
996.727	-2101
996.805	-1172
996.883	-714
996.960	-948
997.038	-1086
997.116	-335
997.193	-1588
997.271	-276
997.348	-1007
997.426	-1247
997.504	-1323
997.581	93
997.658	-191
997.736	-1257
997.813	-1778
997.891	-1058
997.968	-1605
998.046	-758
998.123	-2335
998.200	-979
998.277	-1787
998.355	-976
998.432	-1751
998.509	-617
998.586	-201
998.663	-681
998.741	-741
998.818	-1265
998.895	-841
998.972	-630
999.049	-1091
999.126	-525
999.203	-1752
999.280	-1478
999.357	-1759
999.434	-1170
999.511	-938
999.587	-473
999.664	-1599
999.741	-130
999.818	-588
999.895	-1590
999.971	-1700
1000.048	-911
1000.125	-485
1000.202	-2114
1000.278	-1282
1000.355	-1214
1000.431	-1027
1000.508	-1264
1000.584	-1153
1000.661	-1075
1000.738	-2025
1000.814	-766
1000.890	-1131
1000.967	-479
1001.043	-1407
1001.120	-1666
1001.196	-939
1001.272	-1678
1001.349	-364
1001.425	-1220
1001.501	-1152
1001.577	-1659
1001.654	-29
1001.730	-961
1001.806	-1216
1001.882	-1370
1001.958	-1056
1002.034	-1411
1002.110	-784
1002.186	-1162
1002.262	-784
1002.338	-1796
1002.414	-434
1002.490	-883
1002.566	-1135
1002.642	-2046
1002.718	-710
1002.794	-1439
1002.870	-787
1002.945	-1283
1003.021	-1143
1003.097	-2387
1003.173	-769
1003.248	-1341
1003.324	-1762
1003.400	-1015
1003.475	-2174
1003.551	-705
1003.626	-1494
1003.702	-1805
1003.777	-1373
1003.853	-1622
1003.928	-1570
1004.004	-1694
1004.079	-971
1004.155	-1591
1004.230	-1678
1004.305	-1140
1004.381	-1030
1004.456	-880
1004.531	-1740
1004.607	-1115
1004.682	-1709
1004.757	-534
1004.832	-1479
1004.907	-834
1004.982	-1578
1005.057	-1748
1005.133	-1590
1005.208	-1243
1005.283	-1518
1005.358	-821
1005.433	-1745
1005.508	-1118
1005.583	-1516
1005.657	-1797
1005.732	-1524
1005.807	-2021
1005.882	-1579
1005.957	-421
1006.032	-1362
1006.106	-1708
1006.181	-523
1006.256	-19
1006.331	-1814
1006.405	-1362
1006.480	-1159
1006.554	-1131
1006.629	-1463
1006.704	-1925
1006.778	-1569
1006.853	-619
1006.927	-2053
1007.002	-2391
1007.076	-1903
1007.150	-1264
1007.225	-828
1007.299	-1330
1007.373	-1283
1007.448	-1469
1007.522	-1309
1007.596	-1235
1007.671	-1946
1007.745	-1727
1007.819	-1553
1007.893	-1787
1007.967	-1079
1008.041	-1789
1008.115	-667
1008.190	-1103
1008.264	-978
1008.338	-1512
1008.412	-1633
1008.486	-1312
1008.560	-1661
1008.633	-2260
1008.707	-2093
1008.781	-785
1008.855	-1800
1008.929	-1587
1009.003	-2040
1009.076	-1595
1009.150	-1518
1009.224	-1648
1009.298	-1314
1009.371	-1374
1009.445	-879
1009.519	-1521
1009.592	-2443
1009.666	-1070
1009.739	-763
1009.813	-1678
1009.886	-856
1009.960	-2315
1010.033	-585
1010.107	-1422
1010.180	-1470
1010.253	-1429
1010.327	-1640
1010.400	-1660
1010.473	-1457
1010.547	-818
1010.620	-1002
1010.693	-189
1010.766	-1184
1010.840	-1422
1010.913	-1046
1010.986	-1124
1011.059	-1292
1011.132	-931
1011.205	-1112
1011.278	-1537
1011.351	-1587
1011.424	-1077
1011.497	-1527
1011.570	-1586
1011.643	-2518
1011.716	-1424
1011.789	-1658
1011.862	-894
1011.934	-815
1012.007	-2624
1012.080	-1741
1012.153	-1068
1012.225	-1179
1012.298	-1576
1012.371	-2805
1012.443	-778
1012.516	-2590
1012.588	-1070
1012.661	-1021
1012.733	-2451
1012.806	-1187
1012.879	-1333
1012.951	-1485
1013.023	-631
1013.096	-1425
1013.168	-1349
1013.241	-1330
1013.313	-1389
1013.385	-2279
1013.458	-1338
1013.530	-2068
1013.602	-2220
1013.674	-1690
1013.746	-1401
1013.819	-1140
1013.891	-893
1013.963	-1780
1014.035	-559
1014.107	-1667
1014.179	-1165
1014.251	-2200
1014.323	-511
1014.395	-1934
1014.467	-1038
1014.539	-1543
1014.611	-898
1014.683	-1959
1014.754	-898
1014.826	-1458
1014.898	-778
1014.970	-1975
1015.042	-526
1015.113	-2034
1015.185	-2401
1015.257	-2395
1015.328	-1991
1015.400	-2043
1015.471	-1795
1015.543	-2840
1015.615	-1673
1015.686	-1057
1015.757	-1501
1015.829	-1486
1015.901	-1318
1015.972	-2002
1016.043	-1456
1016.115	-1355
1016.186	-2070
1016.257	-2316
1016.328	-831
1016.400	-1609
1016.471	-2065
1016.542	-1714
1016.613	-2212
1016.685	-1813
1016.756	-1256
1016.827	-1388
1016.898	-1831
1016.969	-1771
1017.040	-1390
1017.111	-1416
1017.182	-1926
1017.253	-1377
1017.324	-2215
1017.395	-1576
1017.466	-1437
1017.537	-2126
1017.608	-1626
1017.678	-1798
1017.749	-1350
1017.820	-1475
1017.891	-1792
1017.961	-2132
1018.032	-1619
1018.103	-1520
1018.173	-2053
1018.244	-2055
1018.315	-1834
1018.385	-737
1018.456	-1706
1018.526	-1520
1018.597	-1480
1018.667	-1008
1018.738	-1503
1018.808	-1244
1018.878	-1831
1018.949	-1551
1019.019	-1578
1019.089	-1746
1019.160	-1136
1019.230	-2526
1019.300	-1264
1019.371	-2158
1019.441	-1638
1019.511	-1813
1019.581	-1510
1019.651	-2195
1019.721	-2269
1019.791	-2025
1019.861	-1136
1019.931	-1477
1020.001	-1591
1020.071	-1945
1020.141	-1431
1020.211	-2587
1020.281	-1479
1020.351	-1917
1020.421	-1685
1020.491	-1143
1020.560	-1704
1020.630	-2190
1020.700	-1901
1020.770	-2779
1020.839	-1654
1020.909	-2597
1020.979	-2006
1021.048	-1768
1021.118	-1706
1021.187	-2776
1021.257	-2034
1021.326	-1750
1021.396	-2183
1021.465	-1983
1021.535	-1324
1021.604	-2234
1021.674	-2084
1021.743	-1839
1021.812	-1530
1021.882	-1615
1021.951	-2232
1022.020	-1747
1022.089	-2347
1022.159	-2226
1022.228	-1662
1022.297	-1818
1022.366	-1462
1022.435	-2213
1022.504	-1487
1022.573	-1917
1022.642	-1653
1022.711	-2011
1022.781	-884
1022.849	-1753
1022.918	-1891
1022.987	-1344
1023.056	-2330
1023.125	-2412
1023.194	-1591
1023.263	-2224
1023.331	-1404
1023.400	-1122
1023.469	-1603
1023.538	-1100
1023.606	-2642
1023.675	-1999
1023.744	-2329
1023.812	-1972
1023.881	-1374
1023.949	-1358
1024.018	-2275
1024.086	-1824
1024.155	-1398
1024.223	-2065
1024.292	-2289
1024.360	-1503
1024.429	-1258
1024.497	-2603
1024.565	-2265
1024.634	-1684
1024.702	-1703
1024.770	-2493
1024.838	-1394
1024.907	-1142
1024.975	-2105
1025.043	-1999
1025.111	-1596
1025.179	-1845
1025.247	-2289
1025.315	-1133
1025.383	-2239
1025.451	-1370
1025.519	-1935
1025.587	-1897
1025.655	-2052
1025.723	-2861
1025.791	-1223
1025.859	-1544
1025.927	-1523
1025.995	-1979
1026.062	-2026
1026.130	-1761
1026.198	-1592
1026.266	-2081
1026.333	-2238
1026.401	-1864
1026.469	-1964
1026.536	-1182
1026.604	-2210
1026.671	-2031
1026.739	-1742
1026.806	-1642
1026.874	-1756
1026.941	-2236
1027.009	-1768
1027.076	-2549
1027.144	-1422
1027.211	-1949
1027.278	-2514
1027.345	-2253
1027.413	-1894
1027.480	-2167
1027.547	-2232
1027.614	-2091
1027.682	-2013
1027.749	-1992
1027.816	-1813
1027.883	-1263
1027.950	-1205
1028.017	-1761
1028.084	-1458
1028.151	-2310
1028.218	-2354
1028.285	-1685
1028.352	-1747
1028.419	-2119
1028.486	-1432
1028.553	-1766
1028.619	-2366
1028.686	-2244
1028.753	-2667
1028.820	-2656
1028.886	-2581
1028.953	-2006
1029.020	-2121
1029.086	-1814
1029.153	-2008
1029.220	-1821
1029.286	-2104
1029.353	-2215
1029.419	-1783
1029.486	-2359
1029.552	-1691
1029.619	-1730
1029.685	-1521
1029.751	-2316
1029.818	-1817
1029.884	-1704
1029.951	-1333
1030.017	-1468
1030.083	-1545
1030.149	-1277
1030.216	-2005
1030.282	-2337
1030.348	-2013
1030.414	-1362
1030.480	-1773
1030.546	-1800
1030.612	-1780
1030.678	-2949
1030.744	-1874
1030.810	-1824
1030.876	-1512
1030.942	-1768
1031.008	-1782
1031.074	-2314
1031.140	-1916
1031.206	-1198
1031.272	-1587
1031.337	-1724
1031.403	-1773
1031.469	-1850
1031.534	-2299
1031.600	-1337
1031.666	-2117
1031.731	-2363
1031.797	-1660
1031.863	-2286
1031.928	-1240
1031.994	-2094
1032.059	-2216
1032.125	-1807
1032.190	-1936
1032.256	-1857
1032.321	-2329
1032.386	-2621
1032.452	-1444
1032.517	-1903
1032.582	-2052
1032.647	-1389
1032.713	-1817
1032.778	-2455
1032.843	-1495
1032.908	-2588
1032.974	-2181
1033.039	-2235
1033.104	-1105
1033.169	-2751
1033.234	-1525
1033.299	-1112
1033.364	-1879
1033.429	-2219
1033.494	-1620
1033.559	-2436
1033.624	-1880
1033.688	-1780
1033.753	-2572
1033.818	-2374
1033.883	-1799
1033.948	-1663
1034.013	-1643
1034.077	-2284
1034.142	-1728
1034.207	-2034
1034.271	-2078
1034.336	-798
1034.400	-1694
1034.465	-2173
1034.530	-1801
1034.594	-1869
1034.658	-2052
1034.723	-2320
1034.787	-2040
1034.852	-2819
1034.916	-1720
1034.981	-2120
1035.045	-2039
1035.109	-2253
1035.173	-612
1035.238	-2261
1035.302	-3271
1035.366	-2108
1035.430	-2491
1035.495	-1738
1035.559	-1443
1035.623	-2216
1035.687	-2538
1035.751	-2549
1035.815	-1886
1035.879	-2272
1035.943	-1773
1036.007	-2552
1036.071	-2161
1036.135	-2418
1036.198	-1699
1036.262	-2214
1036.326	-1608
1036.390	-2151
1036.454	-1772
1036.517	-1554
1036.581	-1936
1036.645	-1453
1036.709	-2144
1036.772	-1963
1036.836	-2704
1036.900	-1718
1036.963	-2149
1037.026	-2206
1037.090	-1818
1037.154	-1777
1037.217	-1822
1037.280	-2563
1037.344	-1956
1037.407	-2487
1037.471	-2523
1037.534	-2112
1037.597	-1855
1037.661	-2624
1037.724	-1810
1037.787	-2233
1037.850	-2308
1037.913	-2069
1037.977	-735
1038.040	-1778
1038.103	-2216
1038.166	-2124
1038.229	-1155
1038.292	-1603
1038.355	-1640
1038.418	-1773
1038.481	-2362
1038.544	-2293
1038.607	-1712
1038.670	-2368
1038.732	-1997
1038.795	-1722
1038.858	-1936
1038.921	-2177
1038.984	-1290
1039.046	-2504
1039.109	-2318
1039.172	-1937
1039.234	-2848
1039.297	-1332
1039.360	-1872
1039.422	-1823
1039.485	-1825
1039.547	-2838
1039.610	-1975
1039.672	-1578
1039.734	-2362
1039.797	-2367
1039.859	-1939
1039.922	-1734
1039.984	-2325
1040.046	-2145
1040.109	-2014
1040.171	-1979
1040.233	-2386
1040.295	-2053
1040.358	-1854
1040.420	-2431
1040.482	-1743
1040.544	-2596
1040.606	-2072
1040.668	-2407
1040.730	-1657
1040.792	-2132
1040.854	-2065
1040.916	-1805
1040.978	-2272
1041.040	-1624
1041.102	-952
1041.164	-1677
1041.225	-2041
1041.287	-1957
1041.349	-1498
1041.411	-1819
1041.472	-1226
1041.534	-2139
1041.596	-2141
1041.657	-1886
1041.719	-1967
1041.781	-2180
1041.842	-2304
1041.904	-1707
1041.965	-1731
1042.027	-2329
1042.088	-2065
1042.150	-2665
1042.211	-2328
1042.272	-1173
1042.334	-2498
1042.395	-1652
1042.456	-2339
1042.518	-1944
1042.579	-1981
1042.640	-1982
1042.701	-1815
1042.763	-2381
1042.824	-3099
1042.885	-2582
1042.946	-2460
1043.007	-1131
1043.068	-1826
1043.129	-2644
1043.190	-2012
1043.251	-1805
1043.312	-2029
1043.373	-1394
1043.434	-2698
1043.495	-2061
1043.556	-1729
1043.616	-2187
1043.677	-1525
1043.738	-1921
1043.799	-1940
1043.859	-2203
1043.920	-1961
1043.981	-1698
1044.041	-1787
1044.102	-1727
1044.162	-1499
1044.223	-2236
1044.284	-1761
1044.344	-2535
1044.405	-2016
1044.465	-2171
1044.525	-2693
1044.586	-1378
1044.646	-2037
1044.707	-2529
1044.767	-1343
1044.827	-2203
1044.887	-1889
1044.948	-1638
1045.008	-1414
1045.068	-2029
1045.128	-1701
1045.188	-2737
1045.249	-1660
1045.309	-1369
1045.369	-1198
1045.429	-1733
1045.489	-1545
1045.549	-2026
1045.609	-2652
1045.669	-1943
1045.729	-1354
1045.789	-1745
1045.848	-2054
1045.908	-2171
1045.968	-1860
1046.028	-2025
1046.088	-1735
1046.147	-1611
1046.207	-2178
1046.267	-1128
1046.326	-1399
1046.386	-1955
1046.446	-717
1046.505	-1160
1046.565	-663
1046.624	-1709
1046.684	-1365
1046.743	-782
1046.803	-1248
1046.862	-317
1046.922	0
