'Start Wavelength	183.907
'End Wavelength	1046.922
'Gate Delay	5.000
'Gate Width (ms)	1.050
'Laser Output Level	0.000
'X Position	0.000
'Y Position	0.000
'Z Position	0.000
'Grid Point Number	1.000
'Shot Number	100.000
183.907	286.000
183.977	-295.000
184.047	310
184.116	-425
184.186	581
184.256	453
184.325	-558
184.395	-376
184.465	13
184.534	985
184.604	-84
184.674	-503
184.743	-534
184.813	133
184.883	-169
184.952	51
185.022	78
185.092	376
185.161	-71
185.231	176
185.301	-1
185.370	686
185.440	322
185.509	663
185.579	-173
185.649	830
185.718	478
185.788	-36
185.857	-491
185.927	-488
185.996	226
186.066	-944
186.136	184
186.205	401
186.275	149
186.344	-588
186.414	268
186.483	-118
186.553	383
186.622	532
186.692	-464
186.761	835
186.831	-83
186.900	-428
186.970	172
187.039	185
187.109	1457
187.178	455
187.248	197
187.317	786
187.387	97
187.456	393
187.526	980
187.595	638
187.664	-106
187.734	702
187.803	599
187.873	973
187.942	771
188.012	170
188.081	327
188.150	-9
188.220	968
188.289	213
188.358	869
188.428	553
188.497	39
188.567	301
188.636	7
188.705	158
188.775	398
188.844	-76
188.913	1082
188.983	277
189.052	60
189.121	270
189.191	459
189.260	1023
189.329	1855
189.399	1066
189.468	455
189.537	656
189.606	1084
189.676	725
189.745	798
189.814	943
189.883	256
189.953	628
190.022	2250
190.091	5121
190.161	6398
190.230	2614
190.299	833
190.368	838
190.437	874
190.507	832
190.576	1216
190.645	455
190.714	14
190.783	-120
190.853	953
190.922	404
190.991	818
191.060	256
191.129	446
191.198	757
191.268	364
191.337	666
191.406	1399
191.475	11
191.544	167
191.613	888
191.682	182
191.752	69
191.821	1052
191.890	283
191.959	612
192.028	828
192.097	706
192.166	236
192.235	-158
192.304	831
192.373	1126
192.442	167
192.511	906
192.580	1098
192.650	216
192.719	598
192.788	120
192.857	515
192.926	594
192.995	158
193.064	1777
193.133	1212
193.202	1789
193.271	1453
193.340	1954
193.409	380
193.478	1539
193.547	1571
193.615	2857
193.684	2009
193.753	1456
193.822	1926
193.891	440
193.960	818
194.029	525
194.098	1069
194.167	899
194.236	587
194.305	712
194.374	144
194.443	502
194.512	-105
194.580	1708
194.649	909
194.718	1583
194.787	877
194.856	-44
194.925	586
194.994	680
195.062	472
195.131	1911
195.200	627
195.269	1251
195.338	876
195.407	453
195.475	1485
195.544	583
195.613	614
195.682	625
195.751	1189
195.819	977
195.888	1658
195.957	2199
196.026	1584
196.094	1562
196.163	1532
196.232	1504
196.301	1720
196.369	1283
196.438	1236
196.507	1275
196.576	1615
196.644	735
196.713	928
196.782	929
196.850	488
196.919	922
196.988	957
197.056	481
197.125	1236
197.194	966
197.262	1181
197.331	1155
197.400	1402
197.468	1206
197.537	1330
197.606	1588
197.674	3546
197.743	7010
197.812	2825
197.880	7463
197.949	4301
198.017	6167
198.086	3711
198.155	1779
198.223	2746
198.292	9128
198.360	4036
198.429	2352
198.497	1963
198.566	5239
198.635	8095
198.703	2001
198.772	3245
198.840	11061
198.909	11243
198.977	3327
199.046	1818
199.114	1592
199.183	1795
199.251	1718
199.320	1698
199.388	347
199.457	12
199.525	1788
199.594	945
199.662	1184
199.731	1244
199.799	977
199.867	826
199.936	586
200.004	1446
200.073	977
200.141	1024
200.210	722
200.278	261
200.346	1396
200.415	1777
200.483	716
200.552	1354
200.620	1045
200.688	1179
200.757	1256
200.825	1775
200.893	1650
200.962	1365
201.030	1338
201.098	781
201.167	1830
201.235	1399
201.303	1170
201.372	1691
201.440	900
201.508	1122
201.577	1113
201.645	1477
201.713	1742
201.781	645
201.850	1432
201.918	1084
201.986	1125
202.055	1247
202.123	1244
202.191	1074
202.259	1004
202.327	1109
202.396	1235
202.464	1116
202.532	1425
202.600	5558
202.669	2925
202.737	1626
202.805	379
202.873	1276
202.941	1549
203.009	1671
203.078	912
203.146	1016
203.214	1058
203.282	1163
203.350	1919
203.418	299
203.487	1418
203.555	1150
203.623	1042
203.691	1326
203.759	1561
203.827	1280
203.895	2039
203.963	2121
204.031	784
204.099	1334
204.168	2113
204.236	1818
204.304	1875
204.372	2332
204.440	1725
204.508	1857
204.576	1336
204.644	1662
204.712	1081
204.780	1982
204.848	1307
204.916	1322
204.984	1861
205.052	2122
205.120	1731
205.188	2183
205.256	1561
205.324	1539
205.392	2201
205.460	2721
205.528	2708
205.596	2368
205.664	2264
205.732	2841
205.799	10309
205.867	15646
205.935	4725
206.003	3197
206.071	2266
206.139	2614
206.207	2656
206.275	2153
206.343	1771
206.411	1838
206.478	1507
206.546	1834
206.614	2049
206.682	1267
206.750	2179
206.818	2307
206.885	2180
206.953	831
207.021	2433
207.089	2138
207.157	1103
207.225	2286
207.292	1883
207.360	2291
207.428	1680
207.496	1787
207.563	2074
207.631	1948
207.699	2177
207.767	2058
207.834	1649
207.902	2853
207.970	2152
208.038	1748
208.105	2391
208.173	3117
208.241	4279
208.309	3031
208.376	3359
208.444	5667
208.512	3840
208.579	2019
208.647	2724
208.715	2660
208.782	1731
208.850	2335
208.918	2600
208.985	3395
209.053	2573
209.120	3067
209.188	2158
209.256	2409
209.323	2195
209.391	3017
209.459	3904
209.526	2206
209.594	2486
209.661	2104
209.729	2915
209.796	2741
209.864	2344
209.932	1845
209.999	3367
210.067	3113
210.134	3089
210.202	3217
210.269	3506
210.337	2558
210.404	2790
210.472	3247
210.539	2136
210.607	2338
210.674	3389
210.742	2275
210.809	3096
210.877	3584
210.944	4079
211.012	2670
211.079	3353
211.146	2811
211.214	3075
211.281	2886
211.349	2828
211.416	3331
211.484	3992
211.551	3420
211.618	3926
211.686	3773
211.753	3733
211.821	3102
211.888	3119
211.955	2884
212.023	3170
212.090	4063
212.157	4386
212.225	4830
212.292	10308
212.359	22768
212.427	55172
212.494	24791
212.561	9105
212.629	6817
212.696	5413
212.763	4818
212.831	4785
212.898	3487
212.965	3452
213.032	3849
213.100	3371
213.167	3274
213.234	4317
213.301	3839
213.369	3542
213.436	3054
213.503	3444
213.570	3965
213.638	3940
213.705	3941
213.772	2531
213.839	4199
213.906	4712
213.973	3570
214.041	3561
214.108	3666
214.175	3356
214.242	3220
214.309	3876
214.376	3857
214.444	3502
214.511	4273
214.578	3932
214.645	4287
214.712	4244
214.779	3711
214.846	4134
214.913	4274
214.980	4417
215.048	4028
215.115	5620
215.182	4900
215.249	4870
215.316	3514
215.383	3825
215.450	3558
215.517	3662
215.584	3941
215.651	3792
215.718	3520
215.785	4668
215.852	3410
215.919	3816
215.986	4244
216.053	3827
216.120	3818
216.187	4715
216.254	4164
216.321	3687
216.388	4589
216.455	4616
216.522	4291
216.589	5102
216.656	8392
216.722	8404
216.789	5827
216.856	5233
216.923	5287
216.990	4338
217.057	4853
217.124	5384
217.191	4727
217.258	5699
217.324	5877
217.391	7010
217.458	4959
217.525	4489
217.592	4749
217.659	4175
217.725	5774
217.792	7897
217.859	7191
217.926	4178
217.993	4401
218.059	4583
218.126	3861
218.193	3403
218.260	3484
218.327	3803
218.393	4416
218.460	3701
218.527	4303
218.594	4365
218.660	7318
218.727	7034
218.794	3870
218.860	4401
218.927	3791
218.994	3300
219.061	3678
219.127	4790
219.194	6492
219.261	3938
219.327	3153
219.394	4076
219.461	2973
219.527	3632
219.594	5880
219.661	4408
219.727	2874
219.794	4676
219.860	3308
219.927	4275
219.994	5265
220.060	8205
220.127	5638
220.193	4911
220.260	5068
220.326	6445
220.393	8896
220.460	10132
220.526	7962
220.593	6191
220.659	6383
220.726	8538
220.792	23308
220.859	15708
220.925	15380
220.992	17969
221.058	26935
221.125	31653
221.191	24277
221.258	9076
221.324	6577
221.391	6249
221.457	5096
221.524	5317
221.590	9598
221.657	33672
221.723	23778
221.789	20945
221.856	17298
221.922	10248
221.989	7610
222.055	5103
222.121	4950
222.188	6280
222.254	5224
222.321	4853
222.387	3885
222.453	4257
222.520	4640
222.586	4257
222.652	4263
222.719	4549
222.785	3885
222.851	3910
222.918	3915
222.984	4052
223.050	3978
223.116	4014
223.183	4420
223.249	3841
223.315	3041
223.382	3334
223.448	3908
223.514	3175
223.580	2991
223.647	3332
223.713	3490
223.779	4837
223.845	4142
223.911	4949
223.978	2972
224.044	3634
224.110	3499
224.176	4115
224.242	3501
224.309	3939
224.375	3865
224.441	4313
224.507	3687
224.573	3261
224.639	3365
224.705	3135
224.772	3392
224.838	3570
224.904	4406
224.970	3262
225.036	2646
225.102	3708
225.168	3464
225.234	3358
225.300	2979
225.366	3431
225.432	4118
225.499	3502
225.565	4197
225.631	4565
225.697	5234
225.763	5774
225.829	5649
225.895	6938
225.961	9775
226.027	8056
226.093	7175
226.159	8456
226.225	10656
226.291	19663
226.357	28514
226.423	15656
226.489	10043
226.554	7782
226.620	7901
226.686	9198
226.752	12688
226.818	19393
226.884	42671
226.950	34363
227.016	14881
227.082	10213
227.148	7527
227.214	8089
227.279	7239
227.345	6556
227.411	5540
227.477	4979
227.543	5682
227.609	8349
227.674	6793
227.740	4912
227.806	5151
227.872	5352
227.938	4941
228.003	7396
228.069	5140
228.135	4027
228.201	4861
228.267	4078
228.332	5104
228.398	5043
228.464	5697
228.530	3544
228.595	3577
228.661	4122
228.727	6551
228.792	5531
228.858	4124
228.924	4374
228.990	7029
229.055	4453
229.121	7447
229.187	4902
229.252	4541
229.318	3817
229.384	4260
229.449	5255
229.515	3289
229.581	3256
229.646	4544
229.712	5038
229.777	9650
229.843	9930
229.909	7892
229.974	8886
230.040	8501
230.105	7263
230.171	8672
230.236	11512
230.302	17597
230.368	11149
230.433	7129
230.499	7453
230.564	8758
230.630	6245
230.695	6237
230.761	5862
230.826	4787
230.892	7858
230.957	5687
231.023	5252
231.088	4996
231.154	5703
231.219	5855
231.284	6630
231.350	7061
231.415	5076
231.481	4506
231.546	5405
231.612	4989
231.677	4697
231.742	3711
231.808	5347
231.873	4376
231.939	3766
232.004	7898
232.069	7146
232.135	5163
232.200	4528
232.265	4339
232.331	4305
232.396	3152
232.461	3997
232.527	4639
232.592	3440
232.657	4602
232.723	6986
232.788	5613
232.853	4541
232.918	4297
232.984	3660
233.049	3610
233.114	5375
233.179	5417
233.245	8094
233.310	7950
233.375	4235
233.440	4902
233.506	3682
233.571	3544
233.636	4264
233.701	4518
233.766	6354
233.832	6265
233.897	3494
233.962	3107
234.027	5294
234.092	4622
234.157	4225
234.222	4472
234.288	6841
234.353	18224
234.418	13587
234.483	9548
234.548	7780
234.613	6940
234.678	8326
234.743	7544
234.808	16936
234.873	10611
234.938	7546
235.004	6682
235.069	6540
235.134	6193
235.199	5932
235.264	5420
235.329	5142
235.394	5866
235.459	6673
235.524	5703
235.589	5730
235.654	5537
235.719	4561
235.784	5238
235.849	6217
235.913	9246
235.978	10906
236.043	9966
236.108	6008
236.173	5371
236.238	6542
236.303	4972
236.368	5332
236.433	8407
236.498	12561
236.563	9642
236.627	18644
236.692	59633
236.757	44737
236.822	18617
236.887	14047
236.952	12440
237.017	10560
237.081	11583
237.146	13214
237.211	24271
237.276	61028
237.341	95824
237.405	40820
237.470	18700
237.535	13648
237.600	10944
237.664	9246
237.729	7539
237.794	9039
237.859	14464
237.923	10419
237.988	7611
238.053	9625
238.118	10041
238.182	28639
238.247	23202
238.312	10334
238.376	6776
238.441	6899
238.506	7983
238.570	5058
238.635	5946
238.700	5525
238.764	5799
238.829	11789
238.893	12581
238.958	8420
239.023	7595
239.087	5602
239.152	6662
239.216	5049
239.281	5689
239.346	5846
239.410	5305
239.475	6331
239.539	25001
239.604	18182
239.668	7502
239.733	5081
239.797	5710
239.862	7521
239.926	15914
239.991	7472
240.055	5050
240.120	5564
240.184	4344
240.249	4463
240.313	4497
240.378	5361
240.442	13599
240.507	22235
240.571	8113
240.635	10728
240.700	11420
240.764	5400
240.829	3841
240.893	3722
240.957	6246
241.022	13469
241.086	19286
241.151	9072
241.215	4999
241.279	7119
241.344	10126
241.408	8518
241.472	7090
241.537	8602
241.601	7703
241.665	6393
241.730	7574
241.794	7985
241.858	7145
241.922	7744
241.987	7263
242.051	7131
242.115	5800
242.179	7215
242.244	6576
242.308	7166
242.372	7783
242.436	8840
242.501	7327
242.565	5306
242.629	5855
242.693	6783
242.757	5229
242.822	7425
242.886	7468
242.950	6728
243.014	6710
243.078	7633
243.142	7949
243.206	7244
243.271	9179
243.335	10190
243.399	18893
243.463	68584
243.527	149403
243.591	46122
243.655	17946
243.719	12470
243.783	12763
243.847	20288
243.911	24220
243.975	17565
244.040	10610
244.104	9480
244.168	6572
244.232	8778
244.296	14144
244.360	21499
244.424	8802
244.488	7163
244.552	7214
244.615	5356
244.679	6007
244.743	6331
244.807	6556
244.871	5505
244.935	5928
244.999	4863
245.063	5671
245.127	7719
245.191	14554
245.255	14446
245.319	8039
245.383	6502
245.446	6719
245.510	4328
245.574	6284
245.638	6394
245.702	6017
245.766	13761
245.829	8679
245.893	7127
245.957	6180
246.021	6596
246.085	6265
246.149	8689
246.212	18897
246.276	29196
246.340	12288
246.404	9485
246.467	9559
246.531	12321
246.595	9368
246.659	8087
246.722	7551
246.786	7994
246.850	9298
246.913	11637
246.977	6193
247.041	6877
247.104	7228
247.168	8543
247.232	17100
247.295	40014
247.359	16574
247.423	9355
247.486	13077
247.550	8935
247.614	7250
247.677	9551
247.741	6848
247.804	5656
247.868	8434
247.932	16379
247.995	35848
248.059	11680
248.122	7099
248.186	9276
248.249	16082
248.313	64650
248.376	57490
248.440	37661
248.503	13684
248.567	12788
248.630	15180
248.694	19938
248.757	28106
248.821	68673
248.884	33002
248.948	33669
249.011	49454
249.075	78938
249.138	62100
249.202	22496
249.265	16658
249.328	19523
249.392	13985
249.455	12870
249.519	10843
249.582	13906
249.645	22557
249.709	22147
249.772	24887
249.835	17265
249.899	14303
249.962	13204
250.025	12490
250.089	27850
250.152	31627
250.215	15877
250.279	13573
250.342	13889
250.405	14190
250.468	14568
250.532	20274
250.595	37864
250.658	156761
250.721	225847
250.785	74250
250.848	37258
250.911	24099
250.974	22165
251.038	27942
251.101	45854
251.164	25582
251.227	25348
251.290	27931
251.354	53503
251.417	209262
251.480	191909
251.543	151268
251.606	366613
251.669	258556
251.732	100650
251.795	85136
251.859	98239
251.922	232014
251.985	121406
252.048	46778
252.111	32923
252.174	28639
252.237	43677
252.300	90335
252.363	125127
252.426	267385
252.489	104919
252.552	47046
252.615	34126
252.678	33928
252.741	74985
252.804	130745
252.867	284274
252.930	135634
252.993	63715
253.056	36944
253.119	29548
253.182	25592
253.245	49809
253.308	31767
253.371	20246
253.434	18314
253.497	17855
253.559	34504
253.622	22907
253.685	21481
253.748	19526
253.811	11587
253.874	15846
253.937	13684
254.000	12329
254.062	23446
254.125	35685
254.188	28614
254.251	21986
254.314	11620
254.376	18524
254.439	18561
254.502	15566
254.565	23604
254.628	38005
254.690	17670
254.753	10030
254.816	9060
254.878	11564
254.941	25409
255.004	25173
255.067	9793
255.129	8984
255.192	6567
255.255	5979
255.317	7195
255.380	5208
255.443	4291
255.505	5157
255.568	4758
255.631	5252
255.693	5766
255.756	4800
255.819	5928
255.881	4618
255.944	4477
256.006	4530
256.069	4713
256.132	5066
256.194	6358
256.257	16208
256.319	11054
256.382	11007
256.444	8290
256.507	7645
256.569	6917
256.632	8086
256.694	11564
256.757	31961
256.819	84679
256.882	35910
256.944	15455
257.007	12183
257.069	11994
257.132	9930
257.194	8813
257.257	7796
257.319	7576
257.381	10012
257.444	23758
257.506	106441
257.569	95561
257.631	34801
257.693	21871
257.756	13391
257.818	11645
257.880	8479
257.943	8009
258.005	7050
258.067	6334
258.130	7706
258.192	8254
258.254	12406
258.317	8509
258.379	7982
258.441	18901
258.503	17551
258.566	22599
258.628	26064
258.690	8997
258.753	9547
258.815	13515
258.877	8951
258.939	7636
259.001	7689
259.064	7345
259.126	8556
259.188	10157
259.250	8372
259.312	8329
259.375	14839
259.437	10134
259.499	7849
259.561	6859
259.623	8034
259.685	8138
259.747	8574
259.809	23280
259.872	37782
259.934	67232
259.996	53671
260.058	16047
260.120	8854
260.182	7486
260.244	7330
260.306	6132
260.368	5558
260.430	6133
260.492	14596
260.554	20431
260.616	11389
260.678	29114
260.740	35414
260.802	9803
260.864	9126
260.926	6763
260.988	8160
261.050	8240
261.112	21589
261.174	48649
261.236	30682
261.298	11481
261.359	17193
261.421	21188
261.483	7910
261.545	7552
261.607	4993
261.669	7227
261.731	11498
261.793	20668
261.854	9526
261.916	7782
261.978	9008
262.040	9989
262.102	7447
262.164	9179
262.225	7236
262.287	6330
262.349	13679
262.411	10525
262.472	6470
262.534	11466
262.596	20362
262.658	7505
262.719	5200
262.781	8257
262.843	19967
262.904	9422
262.966	9765
263.028	16164
263.090	82930
263.151	186522
263.213	55285
263.275	25061
263.336	13046
263.398	9836
263.459	7449
263.521	7116
263.583	13085
263.644	8956
263.706	5138
263.767	4032
263.829	5046
263.891	3804
263.952	2855
264.014	3632
264.075	9946
264.137	22758
264.198	9214
264.260	4177
264.321	5296
264.383	13560
264.444	34226
264.506	10592
264.567	7501
264.629	16480
264.690	32356
264.752	11630
264.813	6466
264.875	5443
264.936	6485
264.998	4380
265.059	4558
265.120	5176
265.182	9156
265.243	38275
265.305	35571
265.366	9807
265.427	6298
265.489	5944
265.550	4320
265.611	5440
265.673	5286
265.734	5477
265.795	4683
265.857	3621
265.918	4857
265.979	13101
266.040	69020
266.102	50850
266.163	15236
266.224	11822
266.286	7615
266.347	4887
266.408	5019
266.469	5602
266.530	4408
266.592	3902
266.653	8085
266.714	11232
266.775	4975
266.836	3760
266.898	4079
266.959	8879
267.020	6674
267.081	4900
267.142	4561
267.203	4100
267.264	2532
267.326	5009
267.387	4461
267.448	3144
267.509	4815
267.570	4019
267.631	3259
267.692	3712
267.753	4985
267.814	4210
267.875	9547
267.936	17388
267.997	12321
268.058	9897
268.119	6113
268.180	5258
268.241	3657
268.302	4267
268.363	3540
268.424	4492
268.485	4690
268.546	3387
268.607	3280
268.668	3739
268.729	3653
268.790	3383
268.851	5250
268.912	12117
268.972	11619
269.033	6242
269.094	4608
269.155	4362
269.216	4053
269.277	4334
269.338	3835
269.398	4095
269.459	4967
269.520	6342
269.581	8106
269.642	8601
269.702	6344
269.763	5426
269.824	5109
269.885	6210
269.945	7716
270.006	5034
270.067	3928
270.128	4544
270.188	4249
270.249	4751
270.310	3428
270.370	4345
270.431	4153
270.492	2622
270.553	5073
270.613	7671
270.674	15321
270.734	6895
270.795	5265
270.856	6666
270.916	4767
270.977	4365
271.038	4774
271.098	4865
271.159	7756
271.219	6125
271.280	5060
271.340	4688
271.401	4704
271.462	10755
271.522	5955
271.583	4962
271.643	4954
271.704	4537
271.764	5682
271.825	13989
271.885	53632
271.946	68159
272.006	19827
272.066	34321
272.127	55558
272.187	15376
272.248	9560
272.308	11891
272.369	39322
272.429	19155
272.489	12087
272.550	11798
272.610	12123
272.671	9121
272.731	9401
272.791	12780
272.852	7977
272.912	6473
272.972	4793
273.033	4361
273.093	7104
273.153	7880
273.214	6699
273.274	7522
273.334	29544
273.394	48564
273.455	15317
273.515	17896
273.575	37695
273.635	15338
273.696	22480
273.756	49496
273.816	16518
273.876	10867
273.936	22274
273.997	32885
274.057	9307
274.117	8582
274.177	13346
274.237	61979
274.297	48453
274.358	27011
274.418	36787
274.478	23828
274.538	10132
274.598	9503
274.658	26664
274.718	29812
274.778	12445
274.838	8571
274.898	18825
274.958	45024
275.018	51180
275.078	29752
275.138	10882
275.198	7298
275.258	6058
275.318	7328
275.378	10630
275.438	10509
275.498	9315
275.558	23855
275.618	46603
275.678	29502
275.738	16672
275.798	14484
275.858	9107
275.918	4627
275.978	6512
276.038	5325
276.098	5124
276.157	9894
276.217	22821
276.277	10564
276.337	7563
276.397	5176
276.457	5386
276.517	4853
276.576	3972
276.636	3385
276.696	5848
276.756	15248
276.815	10903
276.875	4764
276.935	6314
276.995	5202
277.055	3769
277.114	4116
277.174	7993
277.234	20556
277.293	8614
277.353	5525
277.413	4131
277.472	3781
277.532	4610
277.592	5397
277.651	14679
277.711	21342
277.771	8816
277.830	31133
277.890	22036
277.950	21246
278.009	60467
278.069	19575
278.128	19128
278.188	22591
278.248	11062
278.307	26480
278.367	15771
278.426	7105
278.486	5393
278.545	4092
278.605	4288
278.664	4647
278.724	6055
278.783	20540
278.843	49611
278.902	13043
278.962	7636
279.021	7153
279.081	8663
279.140	7883
279.199	8092
279.259	7107
279.318	8736
279.378	11462
279.437	20944
279.496	70439
279.556	232653
279.615	153901
279.675	36038
279.734	22238
279.793	30701
279.853	44390
279.912	17305
279.971	10075
280.031	9917
280.090	18209
280.149	30136
280.208	31225
280.268	162826
280.327	138881
280.386	29234
280.445	22600
280.505	19525
280.564	12007
280.623	9827
280.682	14385
280.742	17531
280.801	7340
280.860	5049
280.919	5086
280.978	5339
281.037	5202
281.097	4688
281.156	4627
281.215	4219
281.274	7113
281.333	30387
281.392	19781
281.451	6437
281.510	4793
281.569	3679
281.628	3516
281.688	4077
281.747	5547
281.806	4820
281.865	4226
281.924	3519
281.983	3277
282.042	3382
282.101	3438
282.160	3450
282.219	3718
282.278	4023
282.337	12718
282.396	7848
282.454	4183
282.513	5801
282.572	18820
282.631	10406
282.690	4147
282.749	3180
282.808	4919
282.867	5136
282.926	4072
282.985	2852
283.043	1977
283.102	3412
283.161	4350
283.220	12654
283.279	24590
283.338	7644
283.396	4776
283.455	4841
283.514	4373
283.573	6905
283.631	5209
283.690	4952
283.749	4109
283.808	9177
283.866	8445
283.925	4001
283.984	4839
284.043	5646
284.101	5358
284.160	3827
284.219	7825
284.277	5869
284.336	7390
284.395	25946
284.453	20351
284.512	7361
284.570	9311
284.629	7374
284.688	6559
284.746	6289
284.805	7258
284.863	8385
284.922	9289
284.981	11293
285.039	17161
285.098	37132
285.156	103992
285.215	330886
285.273	283045
285.332	104679
285.390	50360
285.449	31480
285.507	22712
285.566	16709
285.624	12298
285.683	9549
285.741	7057
285.799	7063
285.858	6356
285.916	5755
285.975	5021
286.033	4438
286.091	4275
286.150	3800
286.208	4669
286.267	6259
286.325	4853
286.383	7375
286.442	7252
286.500	4839
286.558	3440
286.616	3931
286.675	5605
286.733	5127
286.791	4194
286.850	5237
286.908	6575
286.966	11033
287.024	5199
287.083	5333
287.141	4870
287.199	5178
287.257	6015
287.315	5564
287.374	6137
287.432	12551
287.490	8676
287.548	6974
287.606	6244
287.664	5590
287.723	9056
287.781	11574
287.839	8446
287.897	11639
287.955	17523
288.013	34517
288.071	84154
288.129	289442
288.187	604101
288.245	284687
288.303	102105
288.361	58648
288.419	42474
288.477	30703
288.535	22213
288.593	16078
288.651	11560
288.709	8934
288.767	6595
288.825	6577
288.883	6570
288.941	5680
288.999	5501
289.057	4778
289.115	5563
289.173	5075
289.231	5588
289.289	5517
289.346	4622
289.404	4977
289.462	6789
289.520	6791
289.578	4134
289.636	3835
289.694	3602
289.751	3994
289.809	3132
289.867	4284
289.925	4994
289.983	4611
290.040	3460
290.098	3597
290.156	3833
290.214	3151
290.271	2405
290.329	3370
290.387	2836
290.444	3054
290.502	2727
290.560	3722
290.617	3686
290.675	3639
290.733	3025
290.790	3879
290.848	2620
290.906	4042
290.963	3522
291.021	3230
291.078	3320
291.136	4060
291.194	15705
291.251	28229
291.309	8035
291.366	4489
291.424	3681
291.481	3233
291.539	2535
291.596	3273
291.654	1830
291.711	2459
291.769	3082
291.826	5638
291.884	4073
291.941	2686
291.999	2122
292.056	2889
292.114	3628
292.171	1873
292.228	2254
292.286	3338
292.343	6167
292.401	7684
292.458	5950
292.515	4445
292.573	4302
292.630	3830
292.687	4307
292.745	3534
292.802	6807
292.859	18950
292.917	24530
292.974	11800
293.031	5004
293.089	3704
293.146	2939
293.203	3456
293.260	3111
293.318	4172
293.375	7315
293.432	4773
293.489	3602
293.546	3430
293.604	6175
293.661	20178
293.718	51549
293.775	23548
293.832	9007
293.889	6316
293.947	5399
294.004	4448
294.061	5822
294.118	12709
294.175	27209
294.232	39563
294.289	14145
294.346	7818
294.403	7702
294.460	5844
294.517	4782
294.574	4409
294.631	4018
294.688	6938
294.745	17049
294.802	63487
294.859	65311
294.916	21356
294.973	9494
295.030	8723
295.087	6928
295.144	5453
295.201	4374
295.258	4553
295.315	6287
295.372	21714
295.429	39584
295.486	15925
295.542	12441
295.599	32277
295.656	52344
295.713	31505
295.770	34805
295.827	14093
295.883	7491
295.940	6950
295.997	9549
296.054	8323
296.111	4804
296.167	4169
296.224	3590
296.281	3086
296.338	3085
296.394	3265
296.451	5778
296.508	16245
296.564	29587
296.621	21462
296.678	49822
296.734	66186
296.791	22240
296.848	11389
296.904	12466
296.961	22654
297.018	40089
297.074	29845
297.131	11111
297.187	9487
297.244	14501
297.301	50688
297.357	83729
297.414	25372
297.470	11232
297.527	7728
297.583	6595
297.640	5797
297.696	4773
297.753	4582
297.809	3827
297.866	3062
297.922	2964
297.979	3409
298.035	3745
298.092	7177
298.148	22885
298.204	19594
298.261	11393
298.317	22957
298.374	60898
298.430	30130
298.486	12709
298.543	8941
298.599	9263
298.656	11589
298.712	21085
298.768	67211
298.824	48984
298.881	15133
298.937	8360
298.993	6521
299.050	7337
299.106	6425
299.162	5457
299.218	5336
299.275	4826
299.331	7499
299.387	13983
299.443	49089
299.500	42437
299.556	14028
299.612	7145
299.668	6737
299.724	5699
299.780	4653
299.837	5524
299.893	10082
299.949	31785
300.005	34458
300.061	33454
300.117	65752
300.173	28492
300.229	12637
300.285	13135
300.341	13271
300.397	7739
300.453	5023
300.510	4406
300.566	4296
300.622	4760
300.678	8885
300.734	21681
300.790	30251
300.845	43251
300.901	21506
300.957	25458
301.013	19948
301.069	8712
301.125	6325
301.181	6593
301.237	5096
301.293	3643
301.349	3823
301.405	2917
301.461	3539
301.516	5266
301.572	5277
301.628	8133
301.684	7934
301.740	12430
301.796	21001
301.851	12616
301.907	22695
301.963	27078
302.019	53297
302.074	146413
302.130	131563
302.186	51270
302.242	21133
302.297	14677
302.353	14591
302.409	24398
302.464	20330
302.520	18081
302.576	42636
302.631	44642
302.687	21288
302.743	9662
302.798	6998
302.854	5599
302.910	5502
302.965	6726
303.021	10734
303.076	9139
303.132	11133
303.187	12636
303.243	5889
303.299	4979
303.354	2749
303.410	3672
303.465	3746
303.521	3511
303.576	4557
303.632	6672
303.687	14377
303.743	45011
303.798	33864
303.853	12415
303.909	6885
303.964	6475
304.020	8322
304.075	10670
304.130	9412
304.186	16101
304.241	15999
304.297	12364
304.352	6959
304.358	6782
304.407	5339
304.449	4368
304.463	4046
304.518	4932
304.539	4527
304.573	3893
304.629	6727
304.630	6813
304.684	11198
304.720	25784
304.739	33070
304.794	49752
304.811	41286
304.850	20812
304.902	9811
304.905	9134
304.960	6161
304.992	6882
305.015	7436
305.071	6039
305.083	5984
305.126	5647
305.173	3830
305.181	3556
305.236	3076
305.264	3342
305.292	3632
305.347	5167
305.354	5196
305.402	5328
305.445	5228
305.457	5196
305.512	6838
305.535	6669
305.567	6545
305.622	9648
305.626	9959
305.678	17383
305.716	34158
305.733	40199
305.788	44780
305.807	39088
305.843	29892
305.897	43397
305.898	43530
305.953	41823
305.988	27501
306.008	19734
306.063	12032
306.078	10705
306.118	8121
306.168	5455
306.173	5230
306.228	4460
306.259	4084
306.283	3872
306.338	4653
306.349	4598
306.393	4368
306.440	5139
306.448	5319
306.503	6346
306.530	7444
306.558	10163
306.613	23126
306.620	24614
306.668	32329
306.711	35714
306.723	35408
306.778	25727
306.801	19382
306.833	12329
306.888	7160
306.892	6946
306.943	5543
306.982	5080
306.997	5025
307.052	5135
307.072	5323
307.107	6340
307.162	9082
307.163	9139
307.217	15791
307.253	18774
307.272	18964
307.327	19500
307.343	17666
307.381	14147
307.434	12238
307.436	12499
307.491	25019
307.524	35801
307.546	38352
307.600	31936
307.614	28076
307.655	16824
307.704	9923
307.710	9884
307.765	13302
307.795	17541
307.819	21676
307.874	36661
307.885	36379
307.929	26959
307.975	18045
307.984	18018
308.038	25333
308.065	32613
308.093	60388
308.148	128929
308.156	145615
308.202	232890
308.246	278988
308.257	268523
308.312	129500
308.336	81163
308.366	57819
308.421	34046
308.426	32180
308.475	21848
308.517	16222
308.530	15209
308.585	13102
308.607	12291
308.639	12605
308.694	15008
308.697	15289
308.748	29637
308.787	45759
308.803	45996
308.857	32642
308.877	26613
308.912	20535
308.967	17119
308.967	17097
309.021	22668
309.058	28143
309.076	36851
309.130	70407
309.148	84282
309.185	182340
309.238	353409
309.239	354450
309.293	381897
309.328	336522
309.348	279499
309.402	115183
309.418	76008
309.457	50275
309.508	28561
309.511	27938
309.566	23217
309.598	20995
309.620	21368
309.674	23705
309.688	24558
309.729	23178
309.778	19258
309.783	18831
309.837	14703
309.868	12981
309.892	16374
309.946	26994
309.959	30077
310.001	39456
310.049	47357
310.055	45919
310.109	27753
310.139	18012
310.163	14515
310.218	9249
310.229	8373
310.272	7597
310.319	7013
310.326	6914
310.381	6285
310.409	5990
310.435	6038
310.489	6281
310.499	6372
310.543	6918
310.589	7330
310.598	7263
310.652	6988
310.679	6700
310.706	5966
310.760	4384
310.769	4151
310.814	4009
310.859	3938
310.868	3896
310.923	3713
310.948	3728
310.977	4485
311.031	5910
311.038	6105
311.085	5377
311.128	4429
311.139	4444
311.193	4662
311.218	4766
311.247	4544
311.301	4137
311.308	4080
311.356	4068
311.398	4166
311.410	4191
311.464	4176
311.488	4153
311.518	3816
311.572	3220
311.578	3166
311.626	4331
311.668	5327
311.680	5593
311.734	6750
311.758	7262
311.788	7397
311.842	7650
311.847	7667
311.896	9355
311.937	10880
311.950	10653
312.004	9598
312.027	9081
312.058	7668
312.112	5209
312.117	4962
312.165	4577
312.207	4251
312.297	7807
312.386	5493
312.476	5555
312.566	9123
312.656	5138
312.745	3694
312.835	5656
312.925	4787
313.015	6203
313.104	6432
313.194	4152
313.284	3670
313.374	5243
313.463	4883
313.553	3796
313.643	3746
313.732	4095
313.822	2510
313.912	4098
314.001	3791
314.091	4814
314.180	7438
314.270	6613
314.360	7768
314.449	6258
314.539	3750
314.628	4327
314.718	4557
314.808	7291
314.897	3689
314.987	4103
315.076	3726
315.166	6443
315.255	7171
315.345	5617
315.434	6847
315.524	6490
315.613	6623
315.703	6434
315.792	6588
315.881	8894
315.971	6166
316.060	13146
316.150	24858
316.239	26538
316.328	8722
316.418	4424
316.507	4077
316.597	5225
316.686	4647
316.775	12393
316.865	28198
316.954	6468
317.043	2511
317.133	4470
317.222	3192
317.311	3343
317.400	2234
317.490	6159
317.579	4446
317.668	3959
317.757	5208
317.847	7619
317.936	13958
318.025	12496
318.114	7930
318.203	6528
318.293	12362
318.382	28014
318.471	19019
318.560	30643
318.649	60127
318.738	13172
318.828	7389
318.917	8631
319.006	13488
319.095	34146
319.184	74136
319.273	35248
319.362	13806
319.451	5815
319.540	5045
319.629	11015
319.718	16745
319.807	11907
319.896	25549
319.985	90676
320.074	29619
320.163	10556
320.252	17546
320.341	12628
320.430	9219
320.519	9865
320.608	6017
320.697	6001
320.786	4732
320.875	6776
320.964	7124
321.053	11323
321.142	15131
321.230	17192
321.319	14400
321.408	30099
321.497	15283
321.586	13843
321.675	23836
321.764	21564
321.852	12734
321.941	18119
322.030	11246
322.119	14933
322.207	33632
322.296	36023
322.385	16361
322.474	14351
322.562	34901
322.651	21688
322.740	13765
322.829	24839
322.917	34879
323.006	15105
323.095	11247
323.183	12142
323.272	18263
323.361	39144
323.449	116093
323.538	40903
323.626	80127
323.715	48907
323.804	22429
323.892	71079
323.981	33492
324.069	13519
324.158	41629
324.246	36017
324.335	8722
324.424	10637
324.512	4914
324.601	6341
324.689	7450
324.778	16076
324.866	25017
324.954	7726
325.043	6442
325.131	16055
325.220	30606
325.308	34321
325.397	22405
325.485	12808
325.574	3579
325.662	3132
325.750	3930
325.839	3896
325.927	3859
326.015	6548
326.104	13132
326.192	19463
326.280	5179
326.369	4290
326.457	5205
326.545	8935
326.634	4247
326.722	3608
326.810	2992
326.898	2668
326.987	3642
327.075	9178
327.163	14486
327.251	7389
327.340	4488
327.428	5656
327.516	2940
327.604	4903
327.692	4510
327.781	7689
327.869	13229
327.957	7532
328.045	5230
328.133	4538
328.221	6225
328.309	4936
328.397	4146
328.485	4860
328.574	6281
328.662	19423
328.750	15851
328.838	8007
328.926	4016
329.014	3420
329.102	5782
329.190	15619
329.278	9288
329.366	3526
329.454	3047
329.542	4123
329.630	2604
329.718	4067
329.806	5324
329.893	6822
329.981	8139
330.069	18949
330.157	73263
330.245	213798
330.333	110780
330.421	17709
330.509	9259
330.597	23665
330.684	16951
330.772	9326
330.860	13433
330.948	16097
331.036	6043
331.123	3603
331.211	3474
331.299	5466
331.387	12788
331.475	21891
331.562	7490
331.650	4056
331.738	5691
331.825	8086
331.913	3314
332.001	2947
332.089	6575
332.176	16003
332.264	38833
332.352	27760
332.439	6209
332.527	5067
332.614	4970
332.702	7425
332.790	4400
332.877	17310
332.965	32481
333.052	7130
333.140	6587
333.228	14147
333.315	3539
333.403	6089
333.490	21174
333.578	15388
333.665	8424
333.753	6684
333.840	3742
333.928	7154
334.015	23957
334.103	39515
334.190	108006
334.278	25649
334.365	8984
334.452	5442
334.540	3598
334.627	7434
334.715	12341
334.802	29148
334.889	148748
334.977	129538
335.064	13037
335.151	5374
335.239	5881
335.326	10736
335.413	50649
335.501	64339
335.588	7615
335.675	4794
335.762	7204
335.850	12924
335.937	9889
336.024	33597
336.111	134594
336.199	46430
336.286	6745
336.373	3744
336.460	2863
336.547	3888
336.635	4715
336.722	4696
336.809	4536
336.896	7343
336.983	27607
337.070	71284
337.157	109255
337.245	95825
337.332	61697
337.419	8342
337.506	5009
337.593	7055
337.680	22597
337.767	64793
337.854	18391
337.941	21689
338.028	28078
338.115	9789
338.202	10668
338.289	28132
338.376	87839
338.463	27233
338.550	39273
338.637	41573
338.724	17940
338.811	26396
338.898	5221
338.984	3296
339.071	4592
339.158	5236
339.245	11817
339.332	10169
339.419	18488
339.506	16366
339.593	2755
339.679	3088
339.766	1960
339.853	4518
339.940	8145
340.027	3596
340.113	1951
340.200	5264
340.287	3972
340.374	4695
340.460	6655
340.547	3694
340.634	5965
340.720	21771
340.807	13132
340.894	4104
340.980	3426
341.067	2839
341.154	3137
341.240	5095
341.327	10250
341.414	5091
341.500	5138
341.587	3932
341.674	2804
341.760	6563
341.847	7847
341.933	3066
342.020	1225
342.106	2171
342.193	2630
342.279	5760
342.366	4151
342.452	7344
342.539	4548
342.625	9598
342.712	22082
342.798	10359
342.885	3983
342.971	1643
343.058	1527
343.144	2465
343.230	1907
343.317	3276
343.403	1769
343.490	2722
343.576	1449
343.662	2851
343.749	3433
343.835	5302
343.921	13472
344.008	85964
344.094	185846
344.180	37725
344.267	10610
344.353	37672
344.439	43004
344.525	13293
344.612	6482
344.698	4991
344.784	3373
344.870	2827
344.957	1878
345.043	5534
345.129	2500
345.215	6943
345.301	3638
345.387	3065
345.474	1375
345.560	2706
345.646	4333
345.732	4197
345.818	3207
345.904	3759
345.990	3506
346.076	5369
346.162	13016
346.249	4990
346.335	2729
346.421	3711
346.507	16744
346.593	56927
346.679	13032
346.765	3491
346.851	2483
346.937	2553
347.023	2473
347.108	3371
347.194	2764
347.280	2855
347.366	4352
347.452	17372
347.538	73226
347.624	47604
347.710	36053
347.796	6964
347.882	3211
347.967	2770
348.053	5365
348.139	3910
348.225	1780
348.311	1889
348.397	2326
348.482	3356
348.568	3567
348.654	1725
348.740	1190
348.825	1521
348.911	6862
348.997	34932
349.083	69401
349.168	11156
349.254	3937
349.340	3554
349.425	2145
349.511	3628
349.597	4671
349.682	8840
349.768	30671
349.854	15279
349.939	3767
350.025	2789
350.110	1694
350.196	2588
350.282	1658
350.367	3138
350.453	7664
350.538	8471
350.624	3560
350.709	4858
350.795	2387
350.880	2200
350.966	3520
351.051	7872
351.137	5441
351.222	3715
351.308	8785
351.393	23663
351.479	7473
351.564	2435
351.649	2011
351.735	2412
351.820	1579
351.906	2312
351.991	4561
352.076	16019
352.162	22817
352.247	4728
352.332	3638
352.418	7961
352.503	10122
352.588	33156
352.673	25130
352.759	5616
352.844	2578
352.929	3153
353.014	3935
353.100	2427
353.185	3621
353.270	6434
353.355	7842
353.441	3138
353.526	3968
353.611	7939
353.696	8012
353.781	5333
353.866	1983
353.952	2550
354.037	6293
354.122	15885
354.207	13237
354.292	5768
354.377	2758
354.462	2198
354.547	2627
354.632	3490
354.717	4838
354.802	4055
354.887	2119
354.972	2375
355.057	1886
355.142	1625
355.227	2435
355.312	4515
355.397	9796
355.482	24789
355.567	12438
355.652	10131
355.737	10626
355.822	37754
355.907	29602
355.991	5196
356.076	1661
356.161	2715
356.246	2351
356.331	3597
356.416	10865
356.501	81588
356.585	82166
356.670	10572
356.755	6151
356.840	10545
356.924	54185
357.009	200732
357.094	68502
357.179	12113
357.263	6171
357.348	7424
357.433	7233
357.517	5587
357.602	4305
357.687	4342
357.771	6841
357.856	24446
357.941	17259
358.025	51871
358.110	224321
358.195	95794
358.279	11346
358.364	7423
358.448	21811
358.533	61175
358.617	43423
358.702	45127
358.787	15763
358.871	8187
358.956	6041
359.040	2736
359.125	2197
359.209	2486
359.294	10142
359.378	17650
359.462	6869
359.547	4999
359.631	3342
359.716	2273
359.800	3049
359.885	5352
359.969	2231
360.053	2567
360.138	2241
360.222	4200
360.306	7023
360.391	6605
360.475	12848
360.559	26740
360.644	22960
360.728	18124
360.812	42368
360.896	122705
360.981	43222
361.065	19409
361.149	5016
361.233	4127
361.318	3363
361.402	3593
361.486	2494
361.570	2850
361.654	3780
361.739	13892
361.823	78862
361.907	127108
361.991	20489
362.075	7721
362.159	14506
362.243	10006
362.327	6172
362.411	6007
362.495	5453
362.580	3888
362.664	1862
362.748	2415
362.832	2342
362.916	3343
363.000	11035
363.084	69599
363.168	140246
363.252	28161
363.336	8337
363.420	15133
363.503	69123
363.587	77092
363.671	11098
363.755	5702
363.839	7909
363.923	4127
364.007	9122
364.091	11683
364.175	25349
364.258	105647
364.342	47241
364.426	12946
364.510	7397
364.594	10578
364.677	20510
364.761	106795
364.845	74838
364.929	16105
365.013	10877
365.096	9876
365.180	12292
365.264	32553
365.347	115104
365.431	47089
365.515	9175
365.598	3655
365.682	4241
365.766	9105
365.849	11518
365.933	4984
366.017	7570
366.100	5609
366.184	2230
366.267	4483
366.351	2444
366.435	2101
366.518	860
366.602	1414
366.685	1784
366.769	3185
366.852	7330
366.936	11500
367.019	4909
367.103	6336
367.186	12466
367.270	2859
367.353	642
367.436	3011
367.520	1166
367.603	2852
367.687	4327
367.770	8229
367.853	6219
367.937	25141
368.020	41842
368.104	8575
368.187	6315
368.270	9659
368.353	8175
368.437	21602
368.520	59555
368.603	27761
368.687	27506
368.770	50020
368.853	11724
368.936	11866
369.020	12566
369.103	4146
369.186	3124
369.269	3467
369.352	5949
369.436	9026
369.519	5608
369.602	2843
369.685	3651
369.768	4406
369.851	3015
369.934	2220
370.018	2670
370.101	6981
370.184	7646
370.267	5965
370.350	10288
370.433	17160
370.516	49046
370.599	54763
370.682	12785
370.765	22738
370.848	31660
370.931	66720
371.014	25654
371.097	4907
371.180	2877
371.263	2228
371.346	299
371.429	3152
371.511	2699
371.594	5064
371.677	9826
371.760	14003
371.843	12974
371.926	79666
372.009	186704
372.091	50199
372.174	28729
372.257	74404
372.340	28515
372.423	17621
372.505	22709
372.588	9476
372.671	18123
372.754	63967
372.836	32124
372.919	31473
373.002	56583
373.085	15072
373.167	9440
373.250	25347
373.332	67691
373.415	112929
373.498	245616
373.580	80766
373.663	104090
373.746	148456
373.828	27265
373.911	10957
373.993	14327
374.076	61304
374.159	54268
374.241	19504
374.324	49897
374.406	35739
374.489	66308
374.571	184426
374.654	66564
374.736	33482
374.819	112438
374.901	168226
374.983	175579
375.066	27560
375.148	11315
375.231	52181
375.313	92349
375.395	30177
375.478	5731
375.560	5106
375.643	7403
375.725	34187
375.807	147807
375.890	122795
375.972	51865
376.054	26531
376.136	48041
376.219	20849
376.301	36416
376.383	111493
376.465	39169
376.548	18158
376.630	26524
376.712	85534
376.794	38203
376.877	5214
376.959	2389
377.041	3656
377.123	10659
377.205	13254
377.287	1916
377.369	2025
377.452	2642
377.534	2928
377.616	2409
377.698	2152
377.780	298
377.862	2464
377.944	2322
378.026	1178
378.108	1329
378.190	2004
378.272	1678
378.354	1288
378.436	1241
378.518	5713
378.600	21613
378.682	16330
378.764	32801
378.846	25493
378.928	7241
379.010	8331
379.091	4516
379.173	3048
379.255	1860
379.337	4116
379.419	15732
379.501	48796
379.583	19560
379.664	5169
379.746	10146
379.828	31568
379.910	42899
379.991	39418
380.073	7182
380.155	4739
380.237	2441
380.318	2887
380.400	2325
380.482	6377
380.564	9160
380.645	8108
380.727	7327
380.809	5558
380.890	2721
380.972	1805
381.053	2551
381.135	4250
381.217	10072
381.298	33218
381.380	16296
381.461	17161
381.543	86700
381.624	105346
381.706	17622
381.787	8126
381.869	10156
381.951	47424
382.032	188971
382.113	105067
382.195	15584
382.276	10258
382.358	24777
382.439	78381
382.521	96916
382.602	163412
382.684	61327
382.765	93066
382.846	78041
382.928	62907
383.009	33067
383.090	26575
383.172	94778
383.253	142667
383.334	66442
383.416	116208
383.497	54345
383.578	14298
383.659	23708
383.741	89818
383.822	232347
383.903	116845
383.984	59740
384.066	125045
384.147	73482
384.228	14291
384.309	7858
384.390	5803
384.471	4012
384.553	5374
384.634	7891
384.715	8396
384.796	4171
384.877	5716
384.958	28619
385.039	35476
385.120	10313
385.201	5926
385.282	6904
385.363	9488
385.444	6692
385.525	15693
385.606	64497
385.687	55891
385.768	12058
385.849	16890
385.930	82613
386.011	151491
386.092	36159
386.173	7135
386.254	6037
386.335	5716
386.416	5310
386.496	19048
386.577	32683
386.658	13411
386.739	7715
386.820	8157
386.901	6103
386.981	5657
387.062	2582
387.143	7301
387.224	30196
387.304	29213
387.385	9627
387.466	7385
387.547	9621
387.627	4747
387.708	12550
387.789	60953
387.869	80923
387.950	22074
388.031	3102
388.111	4069
388.192	14881
388.273	22117
388.353	11751
388.434	5691
388.514	15395
388.595	81526
388.676	93130
388.756	33992
388.837	27031
388.917	16558
388.998	3311
389.078	4695
389.159	3296
389.239	2195
389.320	5656
389.400	4256
389.480	15001
389.561	37240
389.641	18054
389.722	5602
389.802	7851
389.883	16874
389.963	49589
390.043	34719
390.124	11490
390.204	13550
390.284	36262
390.365	28239
390.445	67451
390.525	252389
390.605	215105
390.686	37548
390.766	9001
390.846	5274
390.927	2912
391.007	2762
391.087	3963
391.167	3752
391.247	3330
391.328	10492
391.408	13782
391.488	8099
391.568	1311
391.648	3914
391.728	5623
391.808	5392
391.888	5888
391.969	17879
392.049	29947
392.129	14713
392.209	15333
392.289	44039
392.369	23432
392.449	22427
392.529	11486
392.609	8179
392.689	11686
392.769	41253
392.849	35131
392.929	23982
393.009	60140
393.089	38777
393.169	15922
393.248	66003
393.328	338293
393.408	346026
393.488	56972
393.568	12169
393.648	6664
393.728	5040
393.807	4289
393.887	5435
393.967	4968
394.047	7446
394.127	10101
394.206	20378
394.286	100291
394.366	473439
394.446	483635
394.525	92829
394.605	19834
394.685	14842
394.764	34529
394.844	59040
394.924	37536
395.003	10281
395.083	6382
395.163	6138
395.242	5285
395.322	6072
395.402	3558
395.481	8466
395.561	24538
395.640	60919
395.720	41956
395.799	77089
395.879	59672
395.958	33062
396.038	146373
396.117	628404
396.197	653283
396.276	151860
396.356	40509
396.435	27555
396.515	14926
396.594	11670
396.673	18764
396.753	84690
396.832	297894
396.912	202920
396.991	40626
397.070	10266
397.150	4644
397.229	4895
397.308	2948
397.388	4059
397.467	3170
397.546	2843
397.625	347
397.705	5156
397.784	3926
397.863	1424
397.942	1751
398.022	3663
398.101	21327
398.180	67052
398.259	31816
398.338	7013
398.417	2715
398.497	2582
398.576	2986
398.655	1410
398.734	2452
398.813	3394
398.892	22152
398.971	74577
399.050	34036
399.129	3485
399.208	2157
399.287	1977
399.366	1034
399.445	2474
399.524	1795
399.603	1253
399.682	4815
399.761	22007
399.840	81335
399.919	59367
399.998	6407
400.077	1390
400.156	295
400.235	4148
400.313	2023
400.392	2959
400.471	15070
400.550	24922
400.629	5930
400.708	3329
400.786	3150
400.865	14197
400.944	13514
401.023	6797
401.102	287
401.180	1273
401.259	1536
401.338	2575
401.416	2459
401.495	3170
401.574	1940
401.652	1362
401.731	2840
401.810	2249
401.888	1216
401.967	-151
402.046	599
402.124	3166
402.203	3872
402.281	2639
402.360	3803
402.438	17391
402.517	11572
402.596	3711
402.674	3351
402.753	1675
402.831	1274
402.910	2685
402.988	6501
403.066	21488
403.145	12236
403.223	6750
403.302	16237
403.380	11679
403.459	9832
403.537	4281
403.615	1868
403.694	439
403.772	1038
403.850	1546
403.929	357
404.007	-38
404.085	2849
404.164	1573
404.242	1125
404.320	7228
404.398	21862
404.477	34137
404.555	115845
404.633	100568
404.711	22632
404.789	9152
404.868	1585
404.946	1813
405.024	329
405.102	351
405.180	344
405.258	-12
405.336	735
405.415	1007
405.493	4101
405.571	3478
405.649	372
405.727	490
405.805	2891
405.883	2022
405.961	2901
406.039	5389
406.117	1359
406.195	4312
406.273	21419
406.351	84906
406.429	50241
406.507	8809
406.585	1781
406.663	2377
406.740	2273
406.818	1810
406.896	1509
406.974	2327
407.052	5550
407.130	44523
407.208	64065
407.285	11363
407.363	845
407.441	1211
407.519	1037
407.596	2290
407.674	5075
407.752	15164
407.830	17761
407.907	9627
407.985	1298
408.063	1249
408.141	159
408.218	4202
408.296	3477
408.373	684
408.451	1300
408.529	1373
408.606	148
408.684	-368
408.762	514
408.839	2
408.917	-288
408.994	323
409.072	-334
409.149	68
409.227	1552
409.304	2843
409.382	282
409.459	483
409.537	1335
409.614	1660
409.692	268
409.769	-6
409.846	664
409.924	3464
410.001	1230
410.079	1533
410.156	1736
410.233	2702
410.311	2880
410.388	992
410.465	1835
410.543	1352
410.620	1282
410.697	1271
410.775	1020
410.852	-652
410.929	1877
411.006	3643
411.083	526
411.161	6423
411.238	7072
411.315	3548
411.392	751
411.469	3035
411.547	3206
411.624	864
411.701	1124
411.778	2095
411.855	4350
411.932	2196
412.009	549
412.086	1260
412.163	1259
412.240	2474
412.317	3222
412.394	3792
412.471	600
412.548	1156
412.625	452
412.702	2409
412.779	5242
412.856	3502
412.933	627
413.010	284
413.087	3000
413.164	14173
413.241	19770
413.318	4287
413.395	2687
413.471	4019
413.548	2136
413.625	1120
413.702	1260
413.779	1202
413.855	-159
413.932	-743
414.009	-568
414.086	889
414.162	84
414.239	2538
414.316	13246
414.393	31729
414.469	9800
414.546	1194
414.623	66
414.699	922
414.776	1006
414.853	152
414.929	768
415.006	1129
415.082	2272
415.159	1015
415.236	903
415.312	1257
415.389	2643
415.465	3006
415.542	1055
415.618	1689
415.695	2646
415.771	1074
415.848	497
415.924	1710
416.000	831
416.077	1179
416.153	-578
416.230	-546
416.306	-43
416.383	840
416.459	380
416.535	-462
416.612	-120
416.688	611
416.764	-100
416.841	217
416.917	164
416.993	1197
417.069	1318
417.146	3475
417.222	4818
417.298	3072
417.374	188
417.451	1555
417.527	258
417.603	1354
417.679	1259
417.755	344
417.831	-790
417.908	339
417.984	62
418.060	202
418.136	2378
418.212	5211
418.288	1062
418.364	1265
418.440	346
418.516	2929
418.592	4581
418.668	6457
418.744	8005
418.820	5285
418.896	1211
418.972	176
419.048	415
419.124	3261
419.200	1532
419.276	626
419.352	-1158
419.428	122
419.504	-402
419.579	1040
419.655	100
419.731	380
419.807	4777
419.883	10269
419.959	5896
420.034	2551
420.110	3281
420.186	18371
420.262	13590
420.337	1953
420.413	1784
420.489	624
420.565	496
420.640	-51
420.716	182
420.792	-546
420.867	788
420.943	-891
421.019	1229
421.094	906
421.170	-860
421.245	-90
421.321	-84
421.397	166
421.472	2559
421.548	5437
421.623	3516
421.699	1108
421.774	1238
421.850	587
421.925	1173
422.001	1772
422.076	-199
422.152	284
422.227	2541
422.302	2609
422.378	1984
422.453	3876
422.529	15499
422.604	97007
422.679	243565
422.755	103104
422.830	14851
422.905	4323
422.981	1284
423.056	774
423.131	569
423.207	565
423.282	756
423.357	4467
423.432	1569
423.508	2017
423.583	6293
423.658	5438
423.733	1404
423.808	1839
423.883	2299
423.959	1240
424.034	-16
424.109	675
424.184	-906
424.259	-341
424.334	21
424.409	-249
424.484	-802
424.559	872
424.634	-398
424.709	477
424.784	1442
424.859	1475
424.934	2318
425.009	11450
425.084	20740
425.159	7343
425.234	1428
425.309	551
425.384	4001
425.459	8000
425.534	1987
425.609	832
425.683	311
425.758	270
425.833	928
425.908	1499
425.983	5994
426.058	21451
426.132	8555
426.207	2425
426.282	4359
426.357	4015
426.431	690
426.506	1479
426.581	403
426.655	1284
426.730	461
426.805	-233
426.879	476
426.954	1179
427.029	3108
427.103	23694
427.178	64464
427.253	28501
427.327	2957
427.402	4235
427.476	11534
427.551	5124
427.625	1258
427.700	2061
427.774	172
427.849	2287
427.923	-376
427.998	566
428.072	257
428.147	3266
428.221	8128
428.296	15226
428.370	5714
428.444	1946
428.519	4966
428.593	12386
428.667	10467
428.742	12448
428.816	9807
428.890	19115
428.965	22779
429.039	13335
429.113	14175
429.188	4855
429.262	25
429.336	3009
429.410	10096
429.485	6569
429.559	9661
429.633	8182
429.707	938
429.781	5898
429.855	27038
429.930	34765
430.004	34208
430.078	64836
430.152	44482
430.226	25700
430.300	20183
430.374	2726
430.448	3431
430.522	21060
430.596	63797
430.670	31906
430.744	40300
430.818	69328
430.892	14972
430.966	1346
431.040	483
431.114	374
431.188	188
431.262	488
431.336	327
431.410	6033
431.484	14158
431.557	8243
431.631	-180
431.705	10
431.779	929
431.853	10654
431.927	6411
432.000	1192
432.074	405
432.148	1187
432.222	709
432.295	115
432.369	164
432.443	3087
432.516	25758
432.590	67832
432.664	24409
432.737	1986
432.811	-222
432.885	-89
432.958	323
433.032	-211
433.106	-1074
433.179	366
433.253	-811
433.326	-372
433.400	-1106
433.473	-352
433.547	-1221
433.620	291
433.694	713
433.767	2766
433.841	881
433.914	-396
433.988	-685
434.061	46
434.134	-455
434.208	-38
434.281	-608
434.355	-184
434.428	264
434.501	-424
434.575	-851
434.648	-107
434.721	-415
434.795	-19
434.868	-46
434.941	-662
435.014	-1444
435.088	-11
435.161	-395
435.234	945
435.307	1391
435.381	645
435.454	-944
435.527	-89
435.600	-1081
435.673	443
435.746	-1447
435.819	-565
435.892	-850
435.966	-205
436.039	-1402
436.112	510
436.185	-1049
436.258	-493
436.331	-1611
436.404	-508
436.477	-1191
436.550	-655
436.623	-469
436.696	-471
436.769	-681
436.842	235
436.915	88
436.987	692
437.060	-679
437.133	-490
437.206	-1224
437.279	561
437.352	-702
437.425	-456
437.498	-217
437.570	1938
437.643	1359
437.716	50
437.789	-980
437.861	2009
437.934	9827
438.007	3875
438.080	-256
438.152	820
438.225	3669
438.298	38670
438.370	110812
438.443	43896
438.516	8567
438.588	1525
438.661	-830
438.734	616
438.806	1074
438.879	1108
438.951	1604
439.024	3876
439.096	1586
439.169	-44
439.241	-523
439.314	177
439.386	1644
439.459	3250
439.531	6575
439.604	1903
439.676	31
439.749	323
439.821	-136
439.893	144
439.966	754
440.038	1287
440.110	1155
440.183	-67
440.255	-504
440.327	1075
440.400	12109
440.472	55056
440.544	34916
440.617	4214
440.689	2712
440.761	5074
440.833	6829
440.905	4747
440.978	32
441.050	-849
441.122	-420
441.194	-559
441.266	-637
441.338	-1070
441.411	1369
441.483	12793
441.555	18739
441.627	4429
441.699	2521
441.771	3397
441.843	861
441.915	-800
441.987	290
442.059	-614
442.131	23
442.203	1659
442.275	2086
442.347	1352
442.419	401
442.491	2759
442.563	6980
442.635	6718
442.706	12211
442.778	9363
442.850	70
442.922	-864
442.994	-490
443.066	1714
443.137	665
443.209	-54
443.281	-232
443.353	2364
443.425	5228
443.496	14503
443.568	11703
443.640	4593
443.711	407
443.783	343
443.855	-390
443.926	-647
443.998	160
444.070	1193
444.141	750
444.213	1591
444.285	2400
444.356	2709
444.428	2542
444.499	127
444.571	-775
444.642	-24
444.714	-867
444.785	770
444.857	2446
444.928	11089
445.000	5288
445.071	6193
445.143	6645
445.214	1397
445.285	4016
445.357	14268
445.428	16913
445.500	30454
445.571	22247
445.642	8351
445.714	9855
445.785	16875
445.856	2901
445.928	2409
445.999	1855
446.070	1805
446.141	1652
446.213	1598
446.284	452
446.355	1725
446.426	540
446.497	640
446.569	1780
446.640	3397
446.711	1288
446.782	-261
446.853	2993
446.924	1815
446.995	-408
447.066	80
447.138	2869
447.209	1256
447.280	-245
447.351	-222
447.422	-880
447.493	808
447.564	1058
447.635	1684
447.706	-9
447.777	-199
447.847	-227
447.918	1
447.989	1474
448.060	1420
448.131	6337
448.202	4951
448.273	2646
448.344	501
448.414	-506
448.485	663
448.556	-541
448.627	-499
448.698	602
448.768	-686
448.839	-239
448.910	2709
448.981	2376
449.051	675
449.122	-432
449.193	-308
449.263	43
449.334	-199
449.405	657
449.475	2010
449.546	1601
449.616	3661
449.687	3024
449.758	1041
449.828	106
449.899	56
449.969	-47
450.040	201
450.110	1698
450.181	1963
450.251	-171
450.322	421
450.392	-228
450.463	255
450.533	-732
450.604	54
450.674	-597
450.744	290
450.815	-696
450.885	-13
450.955	-707
451.026	-457
451.096	-322
451.166	332
451.237	2622
451.307	10726
451.377	3177
451.447	120
451.518	-462
451.588	-323
451.658	-376
451.728	1916
451.799	11314
451.869	14075
451.939	1403
452.009	186
452.079	-1063
452.149	-198
452.219	1920
452.289	14924
452.360	8566
452.430	1046
452.500	247
452.570	781
452.640	489
452.710	7065
452.780	10863
452.850	5470
452.920	3687
452.990	1290
453.060	642
453.129	1846
453.199	1872
453.269	16358
453.339	35133
453.409	53945
453.479	55359
453.549	76710
453.619	80670
453.688	29497
453.758	2986
453.828	333
453.898	222
453.968	452
454.037	-323
454.087	427
454.107	723
454.168	538
454.177	498
454.247	-99
454.249	-98
454.316	-485
454.330	-171
454.386	1014
454.411	3022
454.456	6001
454.492	7780
454.525	9306
454.574	4420
454.595	2336
454.655	301
454.665	8
454.734	1009
454.736	1116
454.804	3734
454.817	5655
454.873	12530
454.898	13826
454.943	15605
454.979	10031
455.013	5115
455.060	2563
455.082	1749
455.141	2700
455.152	2735
455.221	8992
455.222	9174
455.291	16116
455.303	14710
455.360	8237
455.384	9028
455.430	10730
455.465	9269
455.499	7494
455.546	10260
455.569	11052
455.627	7298
455.638	6746
455.707	455
455.708	466
455.777	160
455.789	178
455.846	102
455.869	61
455.916	-6
455.950	31
455.985	53
456.031	367
456.054	465
456.112	-13
456.124	-100
456.193	514
456.193	503
456.262	937
456.274	1234
456.332	2331
456.355	2709
456.401	2864
456.436	2155
456.470	1433
456.516	154
456.540	-370
456.597	-493
456.609	-490
456.678	-482
456.678	-493
456.747	190
456.759	101
456.817	-206
456.840	-197
456.886	-332
456.920	-180
456.955	149
457.001	320
457.024	564
457.082	1550
457.093	1742
457.162	4293
457.163	4325
457.232	4706
457.243	4424
457.301	1794
457.324	727
457.370	-254
457.405	-79
457.439	182
457.485	-70
457.508	-197
457.566	471
457.577	588
457.646	38
457.647	58
457.715	1401
457.727	1380
457.784	946
457.808	1025
457.853	1296
457.889	1274
457.922	1116
457.969	1021
457.991	1067
458.050	1318
458.060	1308
458.129	1563
458.130	1573
458.198	1146
458.211	1132
458.267	1063
458.292	505
458.336	-311
458.372	506
458.405	1229
458.453	1116
458.474	1273
458.533	2182
458.543	2351
458.611	3665
458.614	3760
458.680	3673
458.694	3188
458.749	1794
458.775	1410
458.818	1195
458.855	1063
458.887	940
458.936	746
458.955	698
459.016	1217
459.024	1247
459.093	1093
459.097	1077
459.162	716
459.177	883
459.230	1410
459.257	1389
459.299	1493
459.338	1905
459.368	2157
459.418	2227
459.437	2092
459.499	1885
459.505	1867
459.574	1231
459.579	1184
459.643	688
459.659	607
459.711	617
459.740	732
459.780	1079
459.820	1589
459.849	1795
459.900	1991
459.917	1987
459.981	1993
459.986	1934
460.054	982
460.061	884
460.123	1078
460.141	1411
460.191	2274
460.222	2321
460.260	2080
460.302	2227
460.328	2280
460.382	2258
460.397	2207
460.462	1781
460.465	1802
460.534	2319
460.543	2394
460.602	5867
460.623	7397
460.671	11598
460.703	15644
460.739	15780
460.783	13654
460.808	11181
460.864	3465
460.876	2898
460.944	1375
460.945	1361
461.013	1559
461.024	1524
461.081	1525
461.104	1807
461.150	2090
461.184	1950
461.218	1683
461.264	1555
461.286	1687
461.345	1767
461.355	1766
461.423	2100
461.425	2109
461.491	2500
461.505	2599
461.559	6399
461.585	8006
461.628	13688
461.665	19720
461.696	23104
461.745	30288
461.764	26433
461.825	7860
461.832	7377
461.901	3458
461.905	3352
461.969	2739
461.985	2520
462.037	2359
462.065	2512
462.105	3238
462.145	3633
462.173	5934
462.225	10714
462.241	11981
462.305	17672
462.310	17187
462.378	9509
462.385	8318
462.446	3267
462.465	2160
462.514	2013
462.545	1939
462.582	2191
462.625	2846
462.650	2792
462.705	2209
462.718	2417
462.785	3838
462.786	3882
462.854	6226
462.865	6615
462.922	8271
462.945	9162
462.990	6465
463.025	3663
463.058	3054
463.104	2411
463.126	2190
463.184	1986
463.194	2105
463.262	2677
463.264	2695
463.330	3033
463.344	3104
463.398	3552
463.424	3826
463.466	3955
463.504	4047
463.533	4115
463.583	4200
463.601	4259
463.663	4401
463.669	4547
463.737	6306
463.743	6452
463.805	11018
463.823	12422
463.873	19949
463.903	24554
463.940	26922
463.982	30346
464.008	24388
464.062	9340
464.076	8337
464.142	3645
464.144	3621
464.211	3411
464.221	3432
464.279	3131
464.301	2987
464.347	3955
464.381	4713
464.414	5246
464.461	5809
464.482	6215
464.540	7710
464.550	7350
464.617	4171
464.620	4063
464.685	4558
464.699	4603
464.753	5362
464.779	5898
464.820	6827
464.859	7564
464.888	7564
464.938	7494
464.956	7809
465.018	9029
465.023	8870
465.091	6433
465.098	6160
465.158	5387
465.177	5239
465.226	5913
465.257	6255
465.293	6286
465.336	6345
465.361	6718
465.416	7338
465.428	8180
465.495	12840
465.496	12929
465.563	23450
465.575	25283
465.631	33628
465.654	37230
465.698	23053
465.734	10633
465.765	8773
465.813	5948
465.833	5932
465.893	6353
465.900	6331
465.968	6001
465.972	5972
466.035	5630
466.052	5502
466.102	6216
466.131	6655
466.170	6641
466.210	6526
466.237	6887
466.290	7669
466.304	7817
466.369	8247
466.372	8286
466.439	9094
466.449	9184
466.506	10382
466.528	10828
466.573	14696
466.607	17524
466.641	25841
466.687	37418
466.708	42489
466.766	56452
466.775	52419
466.842	21191
466.845	19665
466.909	13302
466.925	11828
466.977	11014
467.004	10576
467.044	10887
467.083	11164
467.111	11064
467.163	10830
467.178	11232
467.242	12819
467.245	12793
467.312	11784
467.321	11630
467.379	11026
467.400	10773
467.446	12397
467.480	13534
467.559	11719
467.638	9015
467.717	9961
467.796	9922
467.875	11080
467.955	10921
468.034	16620
468.113	42604
468.192	67379
468.271	18581
468.350	7445
468.429	7922
468.508	7718
468.588	7447
468.667	7860
468.746	8909
468.825	8912
468.904	7903
468.983	8668
469.062	15411
469.141	20292
469.220	8049
469.299	7177
469.378	6962
469.456	9031
469.535	8367
469.614	8299
469.693	7836
469.772	12674
469.851	17484
469.930	13342
470.009	7565
470.088	6287
470.166	7095
470.245	8193
470.324	9432
470.403	7104
470.482	6413
470.560	6753
470.639	6853
470.718	8681
470.797	6877
470.875	8477
470.954	12837
471.033	17428
471.111	6508
471.190	5680
471.269	5422
471.347	5963
471.426	6143
471.505	8197
471.583	7515
471.662	7292
471.740	6289
471.819	6807
471.898	6045
471.976	7064
472.055	6953
472.133	7449
472.212	10532
472.290	12539
472.369	7389
472.447	6054
472.526	4852
472.604	6794
472.683	5796
472.761	6539
472.839	5765
472.918	5953
472.996	6154
473.075	8317
473.153	7843
473.231	6793
473.310	7138
473.388	7493
473.466	6668
473.545	7152
473.623	7745
473.701	7967
473.780	6446
473.858	5194
473.936	8138
474.014	6292
474.093	7006
474.171	12640
474.249	18623
474.327	14049
474.405	4664
474.484	5339
474.562	4821
474.640	6235
474.718	6801
474.796	6774
474.874	7648
474.952	6043
475.030	7003
475.108	7898
475.187	8515
475.265	8578
475.343	7962
475.421	8141
475.499	7228
475.577	7493
475.655	10145
475.733	22682
475.811	43436
475.889	40746
475.966	28095
476.044	6369
476.122	6500
476.200	7530
476.278	7180
476.356	6005
476.434	6474
476.512	7817
476.590	8373
476.667	8990
476.745	5933
476.823	7070
476.901	6534
476.979	7603
477.056	6358
477.134	7008
477.212	7348
477.290	6097
477.367	5724
477.445	5168
477.523	6011
477.601	5617
477.678	6417
477.756	8171
477.834	10598
477.911	6977
477.989	6325
478.066	5781
478.144	7306
478.222	6989
478.299	7450
478.377	7462
478.454	4630
478.532	6317
478.609	5216
478.687	6668
478.764	5112
478.842	5644
478.919	6543
478.997	6183
479.074	5716
479.152	6952
479.229	10216
479.307	7649
479.384	4465
479.461	5154
479.539	4881
479.616	8384
479.694	5040
479.771	6891
479.848	7983
479.926	10400
480.003	13339
480.080	5580
480.157	5005
480.235	5229
480.312	5488
480.389	6368
480.467	13919
480.544	19490
480.621	8101
480.698	7181
480.775	7682
480.853	8385
480.930	6619
481.007	6755
481.084	7665
481.161	8386
481.238	8232
481.315	6095
481.392	4816
481.470	6488
481.547	6113
481.624	5852
481.701	5726
481.778	6733
481.855	6549
481.932	11834
482.009	21372
482.086	17351
482.163	5344
482.240	5760
482.317	8027
482.393	7756
482.470	6294
482.547	6526
482.624	6274
482.701	6585
482.778	6234
482.855	5027
482.932	5045
483.009	4172
483.085	5392
483.162	7012
483.239	6950
483.316	4580
483.393	5294
483.469	5526
483.546	6529
483.623	6834
483.699	6299
483.776	5876
483.853	7914
483.930	11030
484.006	33030
484.083	63030
484.160	27580
484.236	24567
484.313	21008
484.389	16241
484.466	14520
484.543	13107
484.619	12642
484.696	14600
484.772	15867
484.849	17961
484.925	14456
485.002	12964
485.078	14848
485.155	15286
485.231	12865
485.308	13076
485.384	13433
485.461	16875
485.537	32894
485.614	45847
485.690	16650
485.766	12426
485.843	12574
485.919	16219
485.995	17494
486.072	11825
486.148	11035
486.224	11859
486.301	13011
486.377	15046
486.453	15190
486.530	14067
486.606	16946
486.682	19621
486.758	26723
486.835	35592
486.911	24017
486.987	42386
487.063	39595
487.139	33920
487.215	25978
487.292	15158
487.368	12579
487.444	12948
487.520	16103
487.596	13721
487.672	13074
487.748	17469
487.824	23446
487.900	15039
487.976	11124
488.052	13819
488.128	17915
488.204	16222
488.280	12696
488.356	16381
488.432	36950
488.508	68644
488.584	23752
488.660	11291
488.736	11477
488.812	11005
488.888	13522
488.964	16721
489.039	29275
489.115	48438
489.191	35919
489.267	12870
489.343	12204
489.418	10852
489.494	8987
489.570	9247
489.646	10677
489.722	10133
489.797	10648
489.873	18072
489.949	46913
490.024	47560
490.100	11462
490.176	9526
490.251	11293
490.327	13385
490.403	10907
490.478	8649
490.554	8321
490.629	8418
490.705	7410
490.781	8996
490.856	8952
490.932	10253
491.007	10548
491.083	10697
491.158	9495
491.234	12947
491.309	34075
491.385	42452
491.460	11397
491.536	11741
491.611	9048
491.686	9168
491.762	11778
491.837	20379
491.913	36563
491.988	52591
492.063	65253
492.139	29988
492.214	19242
492.289	7707
492.365	7265
492.440	9357
492.515	9118
492.590	10329
492.666	7338
492.741	11113
492.816	20634
492.891	11841
492.967	7518
493.042	6475
493.117	6276
493.192	6976
493.267	8618
493.342	19925
493.418	31131
493.493	11585
493.568	6855
493.643	6839
493.718	9168
493.793	14303
493.868	15759
493.943	8220
494.018	6971
494.093	6755
494.168	7615
494.243	5366
494.318	5675
494.393	6189
494.468	4929
494.543	5299
494.618	7025
494.693	6735
494.768	6415
494.842	6778
494.917	5141
494.992	5301
495.067	6197
495.142	5789
495.217	6552
495.292	5822
495.366	7575
495.441	9996
495.516	11556
495.591	14312
495.665	38248
495.740	98676
495.815	61437
495.890	11953
495.964	8322
496.039	11274
496.114	8783
496.188	9498
496.263	10434
496.338	9696
496.412	11310
496.487	14025
496.561	11692
496.636	12492
496.710	12079
496.785	12644
496.860	14947
496.934	12135
497.009	11166
497.083	11454
497.158	12182
497.232	14941
497.307	19716
497.381	17936
497.455	20569
497.530	29323
497.604	21406
497.679	22643
497.753	34294
497.827	48732
497.902	46128
497.976	51731
498.050	90946
498.125	344151
498.199	452250
498.273	80988
498.348	52522
498.422	43428
498.496	37709
498.570	33034
498.645	26912
498.719	25231
498.793	29811
498.867	40571
498.941	51936
499.016	128038
499.090	394566
499.164	197411
499.238	19632
499.312	14068
499.386	14375
499.460	15420
499.534	15389
499.609	18159
499.683	28398
499.757	30221
499.831	53611
499.905	235128
499.979	293861
500.053	42968
500.127	33297
500.201	19186
500.275	14262
500.349	14084
500.422	15121
500.496	20037
500.570	36475
500.644	115713
500.718	275691
500.792	83193
500.866	14692
500.940	18762
501.013	16404
501.087	14672
501.161	20979
501.235	31426
501.309	71756
501.382	216030
501.456	238112
501.530	44570
501.603	73034
501.677	35709
501.751	10999
501.825	14283
501.898	25668
501.972	85345
502.046	71133
502.119	15095
502.193	32581
502.266	93068
502.340	59820
502.413	35748
502.487	86135
502.561	55143
502.634	16603
502.708	9710
502.781	8343
502.855	7032
502.928	6712
503.002	7291
503.075	6828
503.149	8366
503.222	7868
503.295	10005
503.369	12833
503.442	17781
503.516	55469
503.589	168148
503.662	129556
503.736	34385
503.809	72020
503.882	68157
503.956	78599
504.029	86951
504.102	20273
504.175	16283
504.249	8539
504.322	9871
504.395	11532
504.468	6861
504.542	7974
504.615	4960
504.688	4810
504.761	4802
504.834	7721
504.907	7513
504.980	11127
505.053	8169
505.127	6126
505.200	10951
505.273	12649
505.346	8594
505.419	5758
505.492	6647
505.565	4592
505.638	5089
505.711	4500
505.784	4662
505.857	4504
505.930	5668
506.003	4921
506.076	8046
506.149	9759
506.221	13736
506.294	11099
506.367	27464
506.440	113573
506.513	80649
506.586	14617
506.659	7496
506.731	5133
506.804	6342
506.877	8864
506.950	8692
507.022	5437
507.095	7306
507.168	11774
507.241	6385
507.313	4081
507.386	4174
507.459	7365
507.531	5136
507.604	4755
507.677	5222
507.749	3471
507.822	5175
507.894	9755
507.967	13083
508.040	7835
508.112	7690
508.185	6555
508.257	5523
508.330	8664
508.402	7067
508.475	6340
508.547	7429
508.620	7313
508.692	14048
508.765	9534
508.837	5384
508.909	5267
508.982	5322
509.054	6536
509.127	5411
509.199	5181
509.271	3743
509.344	3927
509.416	4838
509.488	5007
509.560	5284
509.633	5406
509.705	5683
509.777	6310
509.849	8532
509.922	6044
509.994	5162
510.066	5433
510.138	5293
510.210	10430
510.283	9924
510.355	8951
510.427	7213
510.499	6383
510.571	6152
510.643	6102
510.715	9956
510.787	7673
510.859	7761
510.931	8488
511.003	10201
511.076	9366
511.148	6085
511.219	5714
511.291	13020
511.363	17616
511.435	7854
511.507	5851
511.579	6392
511.651	6049
511.723	5653
511.795	5774
511.867	6077
511.939	7966
512.010	20367
512.082	19031
512.154	6585
512.226	5947
512.298	7313
512.369	12155
512.441	10693
512.513	9952
512.585	7944
512.656	7557
512.728	8727
512.800	6949
512.871	6886
512.943	7567
513.015	5446
513.086	5903
513.158	6520
513.230	6499
513.301	9278
513.373	11366
513.444	6894
513.516	5975
513.588	5959
513.659	6734
513.731	7093
513.802	6946
513.874	11336
513.945	22634
514.016	11256
514.088	5577
514.159	5889
514.231	8784
514.302	11559
514.374	8637
514.445	7921
514.516	22398
514.588	19385
514.659	9409
514.730	19551
514.802	17547
514.873	12041
514.944	16296
515.016	11177
515.087	9779
515.158	12731
515.229	23086
515.301	15300
515.372	23223
515.443	15840
515.514	9511
515.585	7394
515.656	7801
515.728	6603
515.799	6140
515.870	5996
515.941	6536
516.012	6427
516.083	7659
516.154	8226
516.225	10794
516.296	11073
516.367	8404
516.438	9320
516.509	11039
516.580	14894
516.651	33026
516.722	123433
516.793	91643
516.864	19427
516.935	18406
517.006	19040
517.077	22905
517.148	41657
517.219	123029
517.289	259912
517.360	143766
517.431	62541
517.502	11355
517.573	11141
517.643	10389
517.714	10716
517.785	10717
517.856	11084
517.926	14222
517.997	13892
518.068	17232
518.138	21348
518.209	26630
518.280	79900
518.350	348773
518.421	205951
518.492	23431
518.562	13593
518.633	12878
518.703	9325
518.774	12287
518.845	16401
518.915	18139
518.986	13486
519.056	13941
519.127	21963
519.197	36864
519.268	112677
519.338	103102
519.408	18363
519.479	14884
519.549	12041
519.620	9496
519.690	7646
519.760	7498
519.831	7634
519.901	7379
519.971	6219
520.042	7407
520.112	10042
520.182	10605
520.253	11244
520.323	7754
520.393	9977
520.463	15948
520.534	10187
520.604	23784
520.674	14992
520.744	12622
520.814	22540
520.885	26439
520.955	33451
521.025	147805
521.095	81137
521.165	11703
521.235	9248
521.305	6895
521.375	6864
521.445	6441
521.515	8377
521.585	9687
521.655	8901
521.725	8044
521.795	9441
521.865	5550
521.935	12486
522.005	12062
522.075	6533
522.145	7513
522.215	8798
522.285	13255
522.355	18506
522.424	38635
522.494	35775
522.564	14921
522.634	16458
522.704	47506
522.774	28173
522.843	8876
522.913	6357
522.983	7625
523.053	7066
523.122	6559
523.192	7548
523.262	21897
523.331	32034
523.401	8761
523.471	5476
523.540	6193
523.610	4565
523.680	5489
523.749	4908
523.819	6804
523.888	8819
523.958	4739
524.027	6064
524.097	6351
524.166	5695
524.236	5171
524.305	7778
524.375	5474
524.444	5171
524.514	6678
524.583	6418
524.653	8088
524.722	10273
524.791	6617
524.861	6607
524.930	4533
524.999	4015
525.069	7739
525.138	6978
525.207	9491
525.277	7177
525.346	5399
525.415	5590
525.484	5101
525.554	7038
525.623	7114
525.692	5020
525.761	4935
525.830	5821
525.900	4741
525.969	7686
526.038	8792
526.107	6644
526.176	15833
526.245	15447
526.314	12751
526.383	14849
526.452	13582
526.522	22502
526.591	36222
526.660	27395
526.729	15208
526.797	12480
526.867	22785
526.935	110123
527.004	125918
527.073	53041
527.142	9248
527.211	6409
527.280	5229
527.349	6637
527.418	3705
527.487	5287
527.555	4473
527.624	3787
527.693	2905
527.762	4541
527.831	2715
527.899	4844
527.968	3933
528.037	3439
528.106	5701
528.174	9771
528.243	10988
528.312	12452
528.380	18372
528.449	6181
528.518	5478
528.586	2648
528.655	4659
528.723	4685
528.792	3476
528.861	3949
528.929	3202
528.998	4608
529.066	3606
529.135	3414
529.203	2072
529.272	1818
529.340	3970
529.409	4879
529.477	3662
529.545	5258
529.614	9135
529.682	7114
529.751	10019
529.819	10273
529.887	5835
529.956	3339
530.024	4386
530.092	2600
530.161	4760
530.229	6885
530.297	3876
530.365	4368
530.434	2801
530.502	1846
530.570	3113
530.638	1722
530.707	3836
530.775	5844
530.843	3606
530.911	3661
530.979	2778
531.047	2688
531.115	4044
531.183	3414
531.252	3775
531.320	3776
531.388	2923
531.456	4562
531.524	2199
531.592	4555
531.660	4917
531.728	3287
531.796	2352
531.864	3864
531.932	3834
532.000	3222
532.067	3143
532.135	3811
532.203	5194
532.271	4265
532.339	6508
532.407	20945
532.475	17438
532.542	7434
532.610	7543
532.678	6992
532.746	27509
532.814	98510
532.881	35737
532.949	6661
533.017	4197
533.084	4090
533.152	3597
533.220	3236
533.287	3537
533.355	3989
533.423	4823
533.490	3092
533.558	3165
533.625	4105
533.693	4614
533.761	4860
533.828	4737
533.896	3389
533.963	8217
534.031	9986
534.098	13282
534.166	8538
534.233	3831
534.300	4127
534.368	4649
534.435	3942
534.503	4297
534.570	4591
534.637	3222
534.705	3935
534.772	4015
534.840	3916
534.907	9097
534.974	11427
535.041	4328
535.109	7426
535.176	3904
535.243	4411
535.310	3272
535.378	3053
535.445	3619
535.512	3067
535.579	4135
535.646	3015
535.714	3095
535.781	5571
535.848	4993
535.915	5297
535.982	4892
536.049	4502
536.116	5398
536.183	3988
536.250	3982
536.317	4082
536.384	5516
536.451	7276
536.518	8220
536.585	4229
536.652	7577
536.719	9509
536.786	8284
536.853	6693
536.920	9708
536.987	15227
537.053	11686
537.120	38672
537.187	52870
537.254	7710
537.321	4646
537.388	5574
537.454	3281
537.521	3505
537.588	3959
537.654	5050
537.721	5018
537.788	5478
537.855	4310
537.921	4328
537.988	3960
538.055	5377
538.121	4281
538.188	5305
538.254	7095
538.321	14488
538.388	11729
538.454	5689
538.521	3739
538.587	3528
538.654	3629
538.720	4000
538.787	3352
538.853	4980
538.920	6161
538.986	7035
539.053	5863
539.119	5535
539.185	4155
539.252	5213
539.318	7420
539.385	8226
539.451	5122
539.517	6281
539.583	6907
539.650	12285
539.716	35618
539.782	15873
539.849	4602
539.915	5184
539.981	3961
540.047	6809
540.114	5196
540.180	6913
540.246	4672
540.312	6537
540.378	12341
540.444	17143
540.510	12113
540.576	37698
540.643	19250
540.709	4576
540.775	4165
540.841	4615
540.907	7449
540.973	13381
541.039	8913
541.105	10123
541.171	6205
541.237	4624
541.303	5305
541.369	7206
541.435	7542
541.500	12547
541.566	9786
541.632	4710
541.698	4529
541.764	4507
541.830	4328
541.896	3697
541.961	4012
542.027	4445
542.093	4379
542.159	5277
542.224	4687
542.290	8351
542.356	11769
542.421	16150
542.487	9188
542.553	5612
542.618	6368
542.684	6021
542.750	5406
542.815	6279
542.881	9584
542.947	29124
543.012	32478
543.078	5684
543.143	4284
543.209	5817
543.274	4480
543.340	5926
543.405	10291
543.471	21007
543.536	7410
543.602	5547
543.667	4302
543.732	5228
543.798	3702
543.863	5719
543.928	3829
543.994	3053
544.059	4322
544.124	4643
544.190	3560
544.255	4601
544.320	3851
544.386	3734
544.451	7215
544.516	8034
544.581	7038
544.646	16485
544.712	37794
544.777	11980
544.842	6956
544.907	7885
544.972	6394
545.037	6386
545.102	6779
545.168	6670
545.233	7163
545.298	8321
545.363	8579
545.428	8497
545.493	12625
545.558	28284
545.623	16875
545.688	7455
545.753	7702
545.818	6466
545.883	8078
545.947	5677
546.012	7750
546.077	8056
546.142	8170
546.207	5950
546.272	8291
546.337	9313
546.401	7962
546.466	6510
546.531	5686
546.596	7990
546.661	7095
546.725	7496
546.790	6311
546.855	6822
546.919	4684
546.984	6325
547.049	7428
547.113	8912
547.178	6816
547.243	7913
547.307	9117
547.372	9903
547.436	12226
547.501	7904
547.565	7459
547.630	9302
547.695	10119
547.759	12765
547.823	11248
547.888	8057
547.952	7419
548.017	8016
548.081	8925
548.146	13364
548.210	13743
548.274	6757
548.339	6630
548.403	6940
548.468	5412
548.532	5452
548.596	6593
548.660	6753
548.725	7601
548.789	8891
548.853	10587
548.917	8175
548.982	11702
549.046	15612
549.110	7227
549.174	7242
549.238	6576
549.303	6172
549.367	7628
549.431	6976
549.495	7406
549.559	6231
549.623	6773
549.687	8096
549.751	10462
549.815	8673
549.879	9365
549.943	6738
550.007	8629
550.071	8499
550.135	9041
550.199	7824
550.263	7934
550.327	9996
550.391	14225
550.455	9973
550.519	8614
550.582	8750
550.646	8948
550.710	11719
550.774	8742
550.838	8380
550.901	8310
550.965	9033
551.029	9571
551.093	11268
551.156	14319
551.220	29080
551.284	39975
551.347	17062
551.411	36440
551.475	56552
551.538	12983
551.602	8217
551.666	7855
551.729	6347
551.793	8373
551.856	7241
551.920	6610
551.983	7917
552.047	6189
552.110	7043
552.174	6738
552.237	6604
552.301	6619
552.364	6007
552.428	6613
552.491	6264
552.554	7028
552.618	8063
552.681	8095
552.745	7629
552.808	11244
552.871	14853
552.934	10197
552.998	8899
553.061	9371
553.124	7746
553.187	7262
553.251	7520
553.314	8591
553.377	8310
553.440	9318
553.503	14113
553.567	25185
553.630	11083
553.693	7726
553.756	7759
553.819	6759
553.882	6349
553.945	7317
554.008	6348
554.071	5235
554.134	6741
554.197	6181
554.260	5066
554.323	7752
554.386	6671
554.449	6780
554.512	7157
554.575	5503
554.638	6623
554.701	7205
554.764	6462
554.827	5644
554.889	5602
554.952	5167
555.015	5377
555.078	5107
555.141	6762
555.203	5158
555.266	5933
555.329	6530
555.391	5065
555.454	6168
555.517	7434
555.580	6449
555.642	5067
555.705	5301
555.768	6546
555.830	6294
555.893	4759
555.955	5948
556.018	5701
556.080	5864
556.143	5587
556.206	5217
556.268	6663
556.330	6701
556.393	6997
556.455	6755
556.518	11335
556.580	13285
556.643	6176
556.705	4886
556.767	4355
556.830	6649
556.892	7184
556.955	9144
557.017	8751
557.079	6063
557.142	6327
557.204	5707
557.266	12050
557.328	13604
557.391	6225
557.453	5869
557.515	5917
557.577	7018
557.639	8359
557.701	5084
557.764	3940
557.826	4778
557.888	5886
557.950	5628
558.012	4315
558.074	5457
558.136	7676
558.198	13759
558.260	9888
558.322	5933
558.384	6048
558.446	6589
558.508	7033
558.570	9658
558.632	12755
558.694	22979
558.756	14060
558.818	20603
558.880	67337
558.942	30205
559.003	14448
559.065	10297
559.127	5984
559.189	6063
559.251	7362
559.312	7030
559.374	11153
559.436	34547
559.498	28050
559.559	6762
559.621	6349
559.683	7329
559.744	9591
559.806	20865
559.868	33262
559.929	12460
559.991	9374
560.052	8664
560.114	14014
560.176	12978
560.237	10316
560.299	16043
560.360	9091
560.422	6668
560.483	7971
560.545	6719
560.606	7465
560.667	5856
560.729	5910
560.790	6477
560.852	5988
560.913	6509
560.974	6080
561.036	5531
561.097	6977
561.158	6330
561.220	6093
561.281	6733
561.342	6695
561.403	7562
561.465	8726
561.526	16268
561.587	29606
561.648	11459
561.709	7399
561.771	6812
561.832	5920
561.893	5984
561.954	6315
562.015	6313
562.076	6543
562.137	6862
562.198	7146
562.259	6447
562.320	7199
562.381	6617
562.442	9132
562.503	8794
562.564	7176
562.625	6528
562.686	6133
562.747	7325
562.808	7127
562.869	6673
562.930	9460
562.991	8815
563.051	8241
563.112	6978
563.173	6691
563.234	6147
563.294	7579
563.355	6511
563.416	7411
563.477	6499
563.537	7201
563.598	7710
563.659	7827
563.720	6727
563.780	7379
563.841	7541
563.901	7947
563.962	7166
564.023	6523
564.083	7951
564.144	7135
564.204	6946
564.265	7535
564.325	9002
564.386	19080
564.446	21156
564.507	7786
564.567	7264
564.628	7573
564.688	6788
564.749	6904
564.809	8044
564.869	11442
564.930	7489
564.990	6860
565.050	6676
565.111	7067
565.171	6854
565.231	7228
565.292	7091
565.352	5780
565.412	6720
565.472	7729
565.532	7199
565.593	6906
565.653	5985
565.713	7132
565.773	8015
565.833	9290
565.893	12316
565.953	8685
566.013	8926
566.074	9010
566.134	11391
566.194	19208
566.254	20571
566.314	14508
566.374	9478
566.434	10604
566.494	9634
566.554	10908
566.614	11266
566.673	11244
566.733	12520
566.793	12896
566.853	14249
566.913	13784
566.973	14362
567.033	15191
567.092	14571
567.152	13507
567.212	13752
567.272	15200
567.331	16648
567.391	17206
567.451	18392
567.511	23538
567.570	24095
567.630	17005
567.690	15664
567.749	16247
567.809	16256
567.868	19964
567.928	23882
567.988	28170
568.047	32610
568.107	39722
568.166	55881
568.226	91590
568.285	142954
568.345	133610
568.404	102619
568.464	81167
568.523	70897
568.582	69275
568.642	75145
568.701	91628
568.761	136534
568.820	232656
568.879	259609
568.939	192337
568.998	133614
569.057	96080
569.116	71483
569.176	55430
569.235	43987
569.294	37134
569.353	30930
569.413	27002
569.472	24449
569.531	21640
569.590	19352
569.649	17467
569.708	15897
569.767	15319
569.827	15693
569.886	14354
569.945	11858
570.004	12499
570.063	11481
570.122	11325
570.181	11155
570.240	13143
570.299	11834
570.358	11411
570.417	9570
570.475	9160
570.534	9127
570.593	9105
570.652	8596
570.711	9471
570.770	9487
570.829	11036
570.887	9330
570.946	9394
571.005	7041
571.064	7417
571.122	7936
571.181	9451
571.240	8071
571.299	6800
571.357	7947
571.416	7375
571.475	8430
571.533	9152
571.592	6537
571.650	7626
571.709	5873
571.768	6046
571.826	5920
571.885	5895
571.943	5544
572.002	5276
572.060	6888
572.119	5686
572.177	5251
572.236	5903
572.294	5271
572.352	5775
572.411	5312
572.469	4560
572.528	4598
572.586	5072
572.644	6278
572.703	8868
572.761	6720
572.819	5649
572.877	4578
572.936	4780
572.994	5321
573.052	5107
573.110	5358
573.169	4994
573.227	4446
573.285	5046
573.343	4563
573.401	5146
573.459	5145
573.517	4767
573.576	4447
573.634	5290
573.692	5305
573.750	5827
573.808	4913
573.866	5932
573.924	7632
573.982	7310
574.040	5482
574.098	4913
574.155	4622
574.213	4990
574.271	4466
574.329	4537
574.387	3840
574.445	4127
574.503	3437
574.560	4038
574.618	4051
574.676	4510
574.734	3817
574.792	4282
574.849	4149
574.907	3631
574.965	3982
575.022	3770
575.080	3627
575.138	4561
575.195	5271
575.253	5505
575.311	4314
575.368	5451
575.426	3738
575.483	4860
575.541	3363
575.598	3897
575.656	4254
575.713	4863
575.771	3966
575.828	4528
575.886	4842
575.943	5305
576.001	4857
576.058	5069
576.115	4885
576.173	5486
576.230	7516
576.287	7733
576.345	6460
576.402	6003
576.459	4989
576.517	5596
576.574	5579
576.631	7654
576.688	4863
576.746	5138
576.803	5452
576.860	4655
576.917	5356
576.974	5008
577.031	4743
577.089	4756
577.146	5129
577.203	5327
577.260	6173
577.317	5705
577.374	7656
577.431	7365
577.488	5915
577.545	5158
577.602	4774
577.659	5427
577.716	4830
577.773	4972
577.830	4990
577.886	5137
577.943	4225
578.000	5329
578.057	5042
578.114	5648
578.171	5818
578.227	6262
578.284	6610
578.341	6690
578.398	5867
578.454	5754
578.511	6319
578.568	8450
578.625	6557
578.681	5594
578.738	4904
578.794	5430
578.851	5059
578.908	4724
578.964	4092
579.021	4780
579.077	4715
579.134	4285
579.190	5295
579.247	5083
579.303	5047
579.360	4901
579.416	4391
579.473	4562
579.529	3490
579.586	4430
579.642	4631
579.698	4668
579.755	5179
579.811	5483
579.867	5061
579.924	4781
579.980	5270
580.036	4949
580.093	6043
580.149	7330
580.205	7696
580.261	6881
580.317	6597
580.374	6385
580.430	7179
580.486	6238
580.542	5392
580.598	5118
580.619	5209
580.654	5373
580.692	5418
580.710	5447
580.765	5873
580.767	5893
580.823	4635
580.838	4837
580.879	5371
580.911	4780
580.935	4357
580.984	5477
580.991	5635
581.047	5218
581.057	5223
581.103	5285
581.130	5321
581.159	5347
581.203	5704
581.215	5813
581.270	6122
581.276	6035
581.326	5119
581.349	5157
581.382	5317
581.422	5480
581.438	5516
581.494	5431
581.494	5434
581.550	6100
581.567	5925
581.606	5449
581.640	5522
581.661	5626
581.713	6752
581.717	6834
581.773	5265
581.786	5209
581.829	5178
581.859	5612
581.885	5995
581.932	5971
581.940	5950
581.996	5761
582.004	5904
582.052	6634
582.077	6141
582.107	5662
582.150	5735
582.163	5722
582.219	5910
582.223	5880
582.274	5674
582.296	5748
582.330	5799
582.368	6378
582.386	6675
582.441	5695
582.441	5693
582.497	5842
582.514	5635
582.552	5377
582.587	5532
582.608	5576
582.659	5540
582.663	5542
582.719	6519
582.732	6470
582.774	6324
582.805	6241
582.830	6147
582.877	6628
582.885	6689
582.941	5711
582.950	5775
582.996	6349
583.023	6380
583.052	6415
583.095	7106
583.107	7282
583.162	7626
583.168	7766
583.218	8865
583.240	8235
583.273	7393
583.313	7509
583.328	7570
583.384	6757
583.385	6753
583.439	6496
583.458	6566
583.494	6763
583.531	6639
583.549	6627
583.603	6886
583.605	6885
583.660	7355
583.676	7081
583.715	6523
583.748	6938
583.770	7160
583.820	7356
583.825	7395
583.881	7470
583.893	7379
583.936	6962
583.965	7138
583.991	7351
584.038	7649
584.046	7691
584.101	7889
584.110	7877
584.156	7681
584.183	7631
584.211	7667
584.255	7662
584.266	7672
584.321	7580
584.328	7650
584.376	8031
584.400	7896
584.431	7907
584.472	8185
584.486	8175
584.541	8253
584.545	8232
584.596	8155
584.617	8366
584.651	8856
584.689	9332
584.706	9403
584.761	9366
584.762	9362
584.816	9360
584.834	9366
584.871	9325
584.906	9662
584.926	9727
584.978	9185
584.980	9191
585.035	10850
585.051	10695
585.090	9848
585.123	9826
585.145	10078
585.195	11021
585.200	11072
585.254	10976
585.267	11072
585.309	11879
585.340	12473
585.364	12553
585.412	12128
585.419	12120
585.473	12674
585.484	12652
585.528	12688
585.556	13256
585.583	14053
585.628	14704
585.637	14998
585.692	19745
585.700	20598
585.747	24749
585.772	23670
585.801	20383
585.845	15445
585.856	14671
585.910	13967
585.917	13875
585.965	13777
585.989	14203
586.019	14915
586.061	14925
586.074	14814
586.128	14874
586.133	14882
586.183	16007
586.205	16395
586.237	16355
586.277	16790
586.292	17158
586.346	17468
586.349	17485
586.401	17400
586.421	17546
586.455	18263
586.493	19528
586.509	20360
586.564	23535
586.565	23680
586.618	32138
586.637	33222
586.672	31116
586.709	24964
586.727	22535
586.781	21807
586.781	21821
586.835	21775
586.853	22090
586.889	22880
586.925	23035
586.944	23096
586.996	24295
586.998	24351
587.052	24990
587.068	25364
587.106	26387
587.140	27124
587.161	27658
587.212	28678
587.215	28747
587.269	30157
587.284	30486
587.323	31575
587.356	32525
587.377	33290
587.427	35056
587.431	35217
587.485	37159
587.499	37554
587.539	39286
587.571	41165
587.593	42516
587.643	45140
587.648	45463
587.702	48455
587.715	49338
587.755	52968
587.786	55234
587.810	56990
587.858	61676
587.864	62507
587.917	70075
587.930	71857
587.971	77672
588.001	81819
588.025	86594
588.073	96226
588.079	97589
588.133	109771
588.145	112625
588.187	125725
588.217	135027
588.241	144282
588.288	164134
588.295	167481
588.348	195613
588.360	201745
588.402	229143
588.431	249259
588.456	270874
588.503	315151
588.510	323157
588.564	388819
588.575	403690
588.617	481792
588.646	539529
588.671	611553
588.718	760795
588.725	797898
588.778	1104857
588.789	1173310
588.832	1555582
588.861	1825826
588.886	1992566
588.932	2233622
588.939	2227616
588.993	2017942
589.004	2002796
589.047	2077858
589.075	2067148
589.100	1866308
589.147	1415148
589.154	1364252
589.207	995984
589.218	926993
589.261	829948
589.290	775677
589.314	789555
589.361	835961
589.368	864820
589.421	1123841
589.433	1185267
589.475	1570852
589.504	1848696
589.528	1962936
589.576	2071545
589.582	2059144
589.635	1928588
589.647	1880769
589.689	1441387
589.718	1110890
589.742	918849
589.790	571723
589.795	553276
589.849	399492
589.861	365866
589.902	304060
589.932	260541
589.955	239187
590.004	195390
590.009	192524
590.062	162594
590.075	155194
590.115	139688
590.146	128128
590.168	122660
590.218	110571
590.222	109820
590.275	98727
590.289	95745
590.328	90460
590.360	85971
590.381	83032
590.431	75998
590.435	75734
590.488	69323
590.503	67547
590.541	64861
590.574	62443
590.594	60884
590.645	56680
590.647	56640
590.700	53215
590.716	52131
590.753	50560
590.787	48955
590.806	47682
590.859	44029
590.859	44080
590.912	42985
590.930	42522
590.965	41396
591.001	40268
591.018	40000
591.071	38965
591.072	38883
591.124	37534
591.143	37014
591.177	36417
591.214	35453
591.230	35014
591.283	33574
591.285	33459
591.336	33013
591.356	32636
591.389	32120
591.427	31461
591.442	31248
591.495	30240
591.498	30104
591.547	28667
591.569	27996
591.600	28182
591.640	28253
591.653	28026
591.706	26954
591.711	26774
591.759	26617
591.782	26506
591.811	26897
591.853	27409
591.864	27248
591.917	26059
591.924	25826
591.969	25317
591.995	25009
592.022	24782
592.066	24263
592.075	24319
592.127	24392
592.137	24366
592.180	25885
592.208	26793
592.233	25534
592.279	22891
592.285	22789
592.338	21667
592.350	21368
592.390	20699
592.421	20135
592.443	20432
592.491	20973
592.495	21000
592.548	20771
592.562	20666
592.600	20027
592.633	19412
592.653	19401
592.704	19184
592.705	19296
592.775	19379
592.846	18501
592.916	18626
592.987	19151
593.058	18422
593.128	17585
593.199	18151
593.270	16096
593.341	16502
593.411	16688
593.482	16818
593.553	15641
593.623	15505
593.694	15507
593.764	17605
593.835	15120
593.906	15344
593.976	14391
594.047	15831
594.117	17203
594.188	16803
594.258	14346
594.329	14176
594.399	12553
594.470	13772
594.540	13247
594.611	12747
594.681	12462
594.751	14108
594.822	15433
594.892	15955
594.963	14192
595.033	13880
595.103	13496
595.174	14541
595.244	18034
595.314	21102
595.384	13794
595.455	12351
595.525	12481
595.595	11777
595.665	12254
595.736	12526
595.806	11128
595.876	12169
595.946	11477
596.016	11130
596.087	11434
596.157	11462
596.227	11621
596.297	12125
596.367	12029
596.437	12445
596.507	15827
596.577	19279
596.647	12698
596.717	12609
596.787	11685
596.857	11490
596.927	11804
596.997	11805
597.067	11588
597.137	12061
597.207	11046
597.277	11691
597.347	10728
597.417	11619
597.487	10534
597.557	11856
597.626	11480
597.696	12157
597.766	13398
597.836	17383
597.906	13062
597.975	11892
598.045	10469
598.115	10916
598.185	10542
598.254	11036
598.324	11211
598.394	10962
598.464	11256
598.533	10988
598.603	9739
598.672	10523
598.742	11040
598.812	10239
598.881	10338
598.951	10515
599.020	9028
599.090	10346
599.159	9658
599.229	10983
599.299	9387
599.368	10169
599.437	10170
599.507	10616
599.576	10267
599.646	10328
599.715	10693
599.785	9839
599.854	10362
599.924	11874
599.993	10889
600.062	9679
600.132	9102
600.201	9755
600.270	10455
600.340	10722
600.409	9366
600.478	9997
600.547	9520
600.617	10488
600.686	9208
600.755	9399
600.824	9404
600.894	10265
600.963	8734
601.032	9501
601.101	8435
601.170	8966
601.239	8678
601.308	9678
601.378	8071
601.447	9165
601.516	8037
601.585	8951
601.654	9091
601.723	9246
601.792	7931
601.861	8426
601.930	9426
601.999	10298
602.068	8601
602.137	8632
602.206	7988
602.275	9401
602.343	9083
602.412	9503
602.481	8538
602.550	8243
602.619	7817
602.688	8640
602.756	8644
602.825	8705
602.894	8130
602.963	7973
603.032	8238
603.100	8244
603.169	8253
603.238	7639
603.307	7867
603.375	7895
603.444	7917
603.513	8167
603.581	7830
603.650	8278
603.719	8033
603.787	8080
603.856	6928
603.924	7749
603.993	8620
604.061	8598
604.130	7671
604.198	7720
604.267	8310
604.335	8936
604.404	8099
604.472	7827
604.541	8506
604.609	8332
604.678	7531
604.746	8833
604.815	8066
604.883	8224
604.951	8291
605.020	8022
605.088	8568
605.156	8577
605.225	7365
605.293	8022
605.361	8447
605.429	7834
605.498	8121
605.566	9804
605.634	9135
605.702	9370
605.771	8029
605.839	9331
605.907	8332
605.975	9373
606.043	8745
606.111	8219
606.180	8611
606.248	7907
606.316	8547
606.384	8005
606.452	10753
606.520	10276
606.588	9329
606.656	8094
606.724	7374
606.792	8354
606.860	7061
606.928	7421
606.996	7230
607.064	6743
607.132	7188
607.200	7371
607.267	7776
607.335	7526
607.403	7199
607.471	7562
607.539	7783
607.607	8171
607.674	6255
607.742	7440
607.810	6923
607.878	7402
607.946	6823
608.013	7469
608.081	7581
608.149	7923
608.216	6957
608.284	8565
608.352	6280
608.419	7071
608.487	10187
608.555	9574
608.622	6576
608.690	7683
608.757	7348
608.825	8484
608.893	7375
608.960	9334
609.028	9988
609.095	10782
609.163	8016
609.230	7799
609.298	6969
609.365	6263
609.432	6342
609.500	7260
609.567	7934
609.635	9190
609.702	8261
609.769	8488
609.837	8102
609.904	7570
609.971	6377
610.039	8332
610.106	9550
610.173	13620
610.241	26723
610.308	29558
610.375	19055
610.442	8330
610.509	6353
610.577	8269
610.644	6515
610.711	6367
610.778	7718
610.845	7933
610.912	7602
610.980	7375
611.047	7732
611.114	8484
611.181	7722
611.248	6566
611.315	7367
611.382	7065
611.449	6914
611.516	7950
611.583	7741
611.650	6965
611.717	7756
611.784	8176
611.851	8322
611.918	9893
611.984	9592
612.051	12542
612.118	21230
612.185	47514
612.252	37542
612.319	10776
612.386	8534
612.452	8693
612.519	9778
612.586	11302
612.653	10736
612.719	8328
612.786	7656
612.853	7037
612.919	6913
612.986	8413
613.053	7469
613.120	6605
613.186	6383
613.253	8563
613.319	7606
613.386	7003
613.453	7193
613.519	8010
613.586	8528
613.652	12408
613.719	9173
613.785	9704
613.852	6687
613.918	6603
613.985	6991
614.051	8546
614.118	11502
614.184	12784
614.250	7419
614.317	7375
614.383	7090
614.449	7257
614.516	7283
614.582	8776
614.648	7093
614.715	7092
614.781	7266
614.847	8022
614.914	8141
614.980	8130
615.046	8292
615.112	8325
615.179	9376
615.245	12330
615.311	18044
615.377	37566
615.443	45554
615.509	18675
615.575	12092
615.642	10677
615.708	10352
615.774	12275
615.840	15399
615.906	21294
615.972	36165
616.038	81326
616.104	97457
616.170	82993
616.236	72185
616.302	20241
616.368	13212
616.434	10342
616.500	10647
616.565	10316
616.631	10013
616.697	9846
616.763	10046
616.829	11716
616.895	15739
616.961	16115
617.026	10349
617.092	8327
617.158	7668
617.224	8011
617.289	7231
617.355	8010
617.421	7663
617.487	8817
617.552	6890
617.618	7242
617.684	6106
617.749	8620
617.815	6608
617.880	6633
617.946	6989
618.012	7542
618.077	6746
618.143	7627
618.208	7551
618.274	7615
618.339	7848
618.405	7141
618.470	7494
618.536	7416
618.601	7610
618.667	7526
618.732	7741
618.798	8308
618.863	6123
618.928	6574
618.994	7521
619.059	8871
619.124	9866
619.190	8244
619.255	7441
619.320	7105
619.386	7982
619.451	6468
619.516	7658
619.581	6452
619.647	6802
619.712	7479
619.777	6518
619.842	6552
619.907	7352
619.972	7220
620.038	7102
620.103	7164
620.168	6244
620.233	7148
620.298	6908
620.363	7137
620.428	7300
620.493	6562
620.558	7259
620.623	6811
620.688	6269
620.753	7663
620.818	7035
620.883	6889
620.948	7488
621.013	6290
621.078	6563
621.143	6359
621.207	8483
621.272	8340
621.337	8140
621.402	8596
621.467	9719
621.532	12034
621.596	8911
621.661	9296
621.726	8031
621.791	8803
621.855	8419
621.920	9166
621.985	8601
622.049	11439
622.114	9416
622.179	9324
622.243	8625
622.308	9214
622.373	9596
622.437	9483
622.502	8223
622.566	8659
622.631	7824
622.695	9791
622.760	8642
622.824	8741
622.889	8662
622.953	9094
623.018	11078
623.082	12401
623.147	8508
623.211	8440
623.276	7878
623.340	7661
623.404	7223
623.469	8918
623.533	7821
623.597	7531
623.662	7817
623.726	8014
623.790	7575
623.854	7718
623.919	8406
623.983	7539
624.047	7276
624.111	7156
624.176	7406
624.240	8737
624.304	10738
624.368	8838
624.432	8190
624.496	7755
624.560	8353
624.625	8318
624.689	7854
624.753	7901
624.817	6788
624.881	7696
624.945	7435
625.009	7470
625.073	8364
625.137	7813
625.201	9307
625.265	9725
625.329	7921
625.393	7922
625.456	7745
625.520	8394
625.584	8940
625.648	11629
625.712	14397
625.776	32800
625.839	40762
625.903	19457
625.967	8622
626.031	14512
626.095	22716
626.158	10442
626.222	6751
626.286	6330
626.349	5829
626.413	5452
626.477	6887
626.540	5796
626.604	5230
626.668	7597
626.731	4937
626.795	6367
626.858	6029
626.922	5155
626.986	6431
627.049	5122
627.113	6560
627.176	5850
627.240	5314
627.303	5778
627.366	5073
627.430	6476
627.493	5282
627.557	5118
627.620	6072
627.684	6134
627.747	5908
627.810	4617
627.874	5884
627.937	5803
628.000	6507
628.064	5882
628.127	3880
628.190	6113
628.253	5609
628.317	4788
628.380	5163
628.443	5259
628.506	4298
628.569	5769
628.632	4249
628.696	6016
628.759	4168
628.822	4420
628.885	4129
628.948	5487
629.011	4275
629.074	4682
629.137	4617
629.200	4323
629.263	5303
629.326	4109
629.389	4585
629.452	4614
629.515	3736
629.578	5170
629.641	4138
629.704	4908
629.767	4905
629.830	5134
629.892	3813
629.955	3798
630.018	4695
630.081	4254
630.144	5600
630.207	4819
630.269	5356
630.332	4599
630.395	4676
630.458	4295
630.520	1761
630.583	5310
630.646	3956
630.708	4564
630.771	3671
630.834	4143
630.896	3204
630.959	3713
631.021	3333
631.084	3930
631.146	4736
631.209	5428
631.272	3854
631.334	4587
631.397	3560
631.459	3645
631.522	3347
631.584	4212
631.646	3749
631.709	3959
631.771	4530
631.834	5063
631.896	3501
631.958	3186
632.021	3616
632.083	3457
632.145	3738
632.208	3815
632.270	3449
632.332	3330
632.395	1951
632.457	4168
632.519	3176
632.581	4243
632.643	2455
632.706	3685
632.768	2199
632.830	4531
632.892	2983
632.954	3800
633.016	4241
633.078	2670
633.141	2479
633.203	3648
633.265	3213
633.327	3234
633.389	2518
633.451	3854
633.513	4195
633.575	5157
633.637	3853
633.698	3674
633.760	2505
633.822	3949
633.884	3147
633.946	3324
634.008	3140
634.070	2871
634.132	2895
634.193	3578
634.255	3077
634.317	2969
634.379	2861
634.441	3313
634.502	3638
634.564	4321
634.626	4390
634.687	6343
634.749	4127
634.811	3695
634.873	1736
634.934	3929
634.996	3664
635.057	3297
635.119	2371
635.181	3308
635.242	3312
635.304	1647
635.365	4486
635.427	2450
635.488	2598
635.550	3306
635.611	2861
635.673	1554
635.734	3906
635.796	3366
635.857	3642
635.918	2618
635.980	3708
636.041	2939
636.102	2715
636.164	3121
636.225	3426
636.286	1932
636.348	3052
636.409	3259
636.470	2383
636.531	3160
636.593	1988
636.654	3544
636.715	1795
636.776	3206
636.838	2436
636.899	3300
636.960	1618
637.021	3034
637.082	2865
637.143	4277
637.204	1787
637.265	2372
637.326	2391
637.387	2933
637.448	2246
637.509	2923
637.570	2784
637.631	3083
637.692	396
637.753	1685
637.814	2178
637.875	1824
637.936	3304
637.997	1385
638.058	1784
638.119	3492
638.179	2011
638.240	2343
638.301	1781
638.362	2362
638.423	2152
638.483	2785
638.544	1502
638.605	2831
638.666	849
638.726	2922
638.787	2803
638.848	1810
638.908	1644
638.969	2245
639.030	1586
639.090	1357
639.151	1520
639.211	2854
639.272	2144
639.332	5071
639.393	2891
639.453	2428
639.514	1951
639.574	2505
639.635	1878
639.695	3149
639.756	1452
639.816	2612
639.877	2265
639.937	4601
639.997	5613
640.058	2714
640.118	1377
640.178	2821
640.239	1815
640.299	2064
640.359	1643
640.420	2263
640.480	1476
640.540	2394
640.600	1794
640.661	2495
640.721	690
640.781	3644
640.841	859
640.901	3358
640.961	1371
641.021	2246
641.082	1022
641.142	3338
641.202	2915
641.262	1365
641.322	2344
641.382	1487
641.442	1727
641.502	1742
641.562	2802
641.622	1965
641.682	1387
641.742	2546
641.802	2459
641.861	2457
641.921	2134
641.981	3753
642.041	2647
642.101	3616
642.161	1661
642.221	1476
642.280	2654
642.340	2337
642.400	769
642.460	2443
642.519	1670
642.579	1833
642.639	1561
642.698	716
642.758	3689
642.818	2216
642.877	1548
642.937	2232
642.997	1878
643.056	3116
643.116	1279
643.175	3480
643.235	1429
643.294	2440
643.354	1715
643.414	2160
643.473	1617
643.532	1553
643.592	2299
643.651	4460
643.711	5960
643.770	9901
643.830	17530
643.889	47054
643.948	16613
644.008	3766
644.067	2213
644.126	1669
644.186	1037
644.245	2679
644.304	-39
644.363	3218
644.423	1218
644.482	1980
644.541	1062
644.600	103
644.659	2192
644.719	1563
644.778	1186
644.837	2232
644.896	4738
644.955	7587
645.014	3848
645.073	2428
645.132	1797
645.191	2348
645.250	815
645.309	3006
645.368	1030
645.427	3190
645.486	146
645.545	3950
645.604	1359
645.663	2533
645.722	1150
645.781	1945
645.840	1309
645.898	1597
645.957	2621
646.016	2537
646.075	4992
646.134	7134
646.192	16526
646.251	32689
646.310	6377
646.369	2872
646.427	1907
646.486	1066
646.545	1780
646.603	2757
646.662	1211
646.721	1845
646.779	1087
646.838	194
646.896	1276
646.955	2021
647.014	1949
647.072	1188
647.131	4743
647.189	3299
647.248	1037
647.306	2376
647.365	1388
647.423	47
647.481	1992
647.540	-157
647.598	1180
647.657	1274
647.715	1683
647.773	289
647.832	1347
647.890	720
647.948	130
648.007	1993
648.065	257
648.123	1347
648.181	2484
648.240	1630
648.298	970
648.356	2002
648.414	1417
648.472	1856
648.531	1972
648.589	1957
648.647	1068
648.705	1664
648.763	1507
648.821	1653
648.879	1292
648.937	2030
648.995	353
649.053	1913
649.111	1980
649.169	2907
649.227	3214
649.285	4782
649.343	12722
649.401	11473
649.459	5090
649.516	5223
649.574	302
649.632	3962
649.690	4512
649.748	2828
649.806	795
649.863	3660
649.921	3893
649.979	3204
650.037	1559
650.094	67
650.152	903
650.210	467
650.268	1671
650.325	1631
650.383	47
650.440	106
650.498	546
650.556	1526
650.613	274
650.671	863
650.728	651
650.786	1395
650.843	960
650.901	-578
650.958	802
651.016	1552
651.073	710
651.131	430
651.188	946
651.246	1641
651.303	198
651.360	1644
651.418	-358
651.475	1834
651.532	433
651.590	1298
651.647	67
651.704	909
651.762	890
651.819	1071
651.876	159
651.933	843
651.990	502
652.048	-111
652.105	234
652.162	1673
652.219	638
652.276	1280
652.333	911
652.390	806
652.448	1065
652.505	1919
652.562	511
652.619	438
652.676	1366
652.733	1862
652.790	114
652.847	676
652.904	384
652.961	140
653.017	-149
653.074	868
653.131	923
653.188	69
653.245	534
653.302	1264
653.359	148
653.415	1317
653.472	350
653.529	852
653.586	-443
653.642	294
653.699	828
653.756	446
653.813	688
653.869	2489
653.926	322
653.983	389
654.039	401
654.096	354
654.152	753
654.209	-282
654.266	834
654.322	296
654.379	1336
654.435	758
654.492	849
654.548	2253
654.605	2002
654.661	2275
654.717	1121
654.774	524
654.830	687
654.887	854
654.943	739
655.000	1437
655.056	1261
655.112	1351
655.168	-499
655.225	1329
655.281	1025
655.337	1248
655.394	3077
655.450	2589
655.506	2329
655.562	2491
655.618	4411
655.675	1398
655.731	1728
655.787	1905
655.843	2361
655.899	1026
655.955	2601
656.011	2660
656.067	1697
656.123	3367
656.179	3048
656.235	5086
656.291	2834
656.347	4222
656.403	2825
656.459	2768
656.515	1987
656.571	1781
656.627	2103
656.683	1504
656.739	2110
656.795	1552
656.850	1175
656.906	2155
656.962	2370
657.018	854
657.074	242
657.129	940
657.185	581
657.241	509
657.297	410
657.352	1942
657.408	387
657.464	1569
657.519	902
657.575	194
657.630	-308
657.686	1634
657.742	-510
657.797	930
657.853	332
657.908	2047
657.964	-12
658.019	595
658.075	-124
658.130	1149
658.186	-129
658.241	1299
658.297	366
658.352	400
658.407	592
658.463	609
658.518	143
658.573	1035
658.629	-1217
658.684	651
658.739	1085
658.795	41
658.850	-132
658.905	268
658.960	289
659.016	394
659.071	89
659.126	1371
659.181	263
659.236	2371
659.291	1942
659.346	731
659.401	89
659.457	1095
659.512	74
659.567	2129
659.622	158
659.677	349
659.732	-102
659.787	511
659.842	505
659.897	950
659.952	375
660.007	538
660.061	258
660.116	213
660.171	33
660.226	84
660.281	710
660.336	830
660.391	644
660.445	232
660.500	172
660.555	416
660.610	437
660.664	263
660.719	-68
660.774	1100
660.828	726
660.883	189
660.938	1100
660.992	-541
661.047	731
661.101	400
661.156	523
661.211	-561
661.265	145
661.320	-278
661.374	-68
661.429	-92
661.483	144
661.538	5
661.592	-227
661.647	858
661.701	325
661.755	110
661.810	-68
661.864	-29
661.919	345
661.973	669
662.027	208
662.081	-199
662.136	-153
662.190	693
662.244	1117
662.299	28
662.353	415
662.407	436
662.461	10
662.515	1561
662.569	-874
662.624	761
662.678	-193
662.732	875
662.786	-362
662.840	356
662.894	-195
662.948	-429
663.002	501
663.056	690
663.110	266
663.164	719
663.218	328
663.272	186
663.326	-187
663.380	809
663.434	1103
663.488	-301
663.542	-829
663.595	783
663.649	-665
663.703	1114
663.757	-29
663.811	175
663.864	-71
663.918	947
663.972	-538
664.026	675
664.079	-159
664.133	625
664.187	10
664.240	-371
664.294	-38
664.348	490
664.401	827
664.455	156
664.508	-129
664.562	671
664.615	-738
664.669	160
664.722	139
664.776	476
664.829	-131
664.883	547
664.936	-177
664.990	540
665.043	-102
665.097	434
665.150	1310
665.203	432
665.257	-619
665.310	1019
665.363	480
665.417	828
665.470	-80
665.523	320
665.576	637
665.630	1338
665.683	106
665.736	694
665.789	623
665.842	-79
665.895	-43
665.949	650
666.002	-298
666.055	614
666.108	730
666.161	873
666.214	368
666.267	1047
666.320	259
666.373	518
666.426	276
666.479	411
666.532	511
666.585	171
666.638	1150
666.691	324
666.744	284
666.796	1014
666.849	271
666.902	1353
666.955	-80
667.008	-57
667.060	100
667.113	97
667.166	-170
667.219	305
667.271	21
667.324	-45
667.377	159
667.430	-23
667.482	-627
667.535	844
667.587	-314
667.640	604
667.693	394
667.745	1039
667.798	1114
667.850	227
667.903	60
667.955	898
668.008	420
668.060	1539
668.113	409
668.165	602
668.218	1062
668.270	1187
668.322	914
668.375	1029
668.427	1283
668.479	-19
668.532	533
668.584	454
668.636	203
668.689	1047
668.741	370
668.793	469
668.845	731
668.898	1455
668.950	263
669.002	1067
669.054	-254
669.106	624
669.158	796
669.211	717
669.263	442
669.315	734
669.367	1258
669.419	1018
669.471	1225
669.523	1355
669.575	831
669.627	1539
669.679	581
669.731	735
669.783	-283
669.835	1320
669.886	763
669.938	1076
669.990	175
670.042	493
670.094	965
670.146	1720
670.197	1000
670.249	1891
670.301	2258
670.353	3205
670.404	6257
670.456	8354
670.508	12916
670.560	21666
670.611	34460
670.663	59041
670.715	126476
670.766	267082
670.818	120817
670.869	16142
670.921	5999
670.972	4455
671.024	2645
671.075	2423
671.127	1618
671.178	1286
671.230	1790
671.281	721
671.333	1746
671.384	632
671.436	871
671.487	1147
671.538	565
671.590	1454
671.641	1652
671.692	2129
671.744	1907
671.795	3555
671.846	1135
671.897	710
671.949	781
672.000	404
672.051	1070
672.102	1862
672.153	182
672.204	760
672.256	826
672.307	573
672.358	1868
672.409	1259
672.460	603
672.511	700
672.562	-647
672.613	647
672.664	216
672.715	743
672.766	58
672.817	1014
672.868	294
672.919	579
672.970	71
673.021	707
673.071	91
673.122	489
673.173	275
673.224	423
673.275	443
673.326	888
673.376	287
673.427	5
673.478	-57
673.528	1489
673.579	-379
673.630	454
673.680	1435
673.731	476
673.782	-61
673.832	1312
673.883	202
673.934	272
673.984	214
674.035	607
674.085	228
674.136	1315
674.186	1617
674.237	1142
674.287	1319
674.338	1340
674.388	915
674.438	461
674.489	-237
674.539	498
674.589	158
674.640	98
674.690	5
674.740	107
674.791	129
674.841	263
674.891	586
674.942	843
674.992	375
675.042	507
675.092	403
675.142	-181
675.193	-475
675.243	365
675.293	221
675.343	484
675.393	15
675.443	1101
675.493	282
675.543	462
675.593	238
675.643	821
675.693	238
675.743	-29
675.793	0
675.843	267
675.893	1084
675.943	1130
675.993	378
676.043	-290
676.093	375
676.142	13
676.192	-1287
676.242	716
676.292	-295
676.341	302
676.391	281
676.441	631
676.491	-125
676.540	404
676.590	-319
676.640	-45
676.689	158
676.739	-875
676.789	-495
676.838	375
676.888	264
676.937	237
676.987	-324
677.037	314
677.086	-192
677.136	578
677.185	-44
677.235	217
677.284	-586
677.333	169
677.383	-337
677.432	-463
677.482	-560
677.531	46
677.580	-576
677.630	51
677.679	105
677.728	282
677.778	-453
677.827	214
677.876	-97
677.925	-261
677.975	-458
678.024	202
678.073	-254
678.122	630
678.171	-56
678.220	452
678.269	49
678.319	159
678.368	-123
678.417	203
678.466	299
678.515	237
678.564	-50
678.613	-35
678.662	294
678.711	-55
678.760	-606
678.809	-316
678.857	-163
678.906	579
678.955	-178
679.004	1174
679.053	-725
679.102	141
679.151	-264
679.199	-66
679.248	159
679.297	376
679.346	-330
679.394	587
679.443	-302
679.492	-312
679.540	-1115
679.589	724
679.638	386
679.686	58
679.735	-1022
679.784	-121
679.832	-108
679.881	-154
679.929	-603
679.978	475
680.026	-403
680.075	-397
680.123	-281
680.172	-277
680.220	-639
680.268	69
680.317	-451
680.365	-454
680.414	-463
680.462	-300
680.510	-321
680.559	630
680.607	-549
680.655	318
680.703	-591
680.752	-383
680.800	-197
680.848	-875
680.896	-525
680.945	-98
680.993	-223
681.041	-277
681.089	-1006
681.137	172
681.185	-997
681.233	196
681.258	-151
681.281	-488
681.329	-662
681.377	-383
681.380	-338
681.425	326
681.473	-210
681.502	47
681.521	202
681.569	-201
681.617	240
681.624	235
681.665	128
681.713	448
681.745	-390
681.761	-804
681.809	-202
681.857	-389
681.867	-338
681.904	-179
681.952	17
681.989	-70
682.000	-109
682.048	124
682.096	164
682.111	95
682.143	-90
682.191	-304
682.233	826
682.239	986
682.286	0
682.334	-102
682.354	107
682.382	366
682.430	401
682.476	342
682.477	334
682.525	-684
682.572	-672
682.598	-187
682.620	195
682.667	316
682.715	190
682.720	218
682.763	425
682.810	349
682.841	122
682.857	-1
682.905	-396
682.952	382
682.963	366
683.000	240
683.047	557
683.085	544
683.095	541
683.142	210
683.190	115
683.206	-22
683.237	-299
683.284	312
683.328	778
683.332	811
683.379	395
683.426	452
683.449	362
683.473	228
683.521	731
683.568	390
683.571	416
683.615	759
683.662	-46
683.693	156
683.709	219
683.757	549
683.804	981
683.814	970
683.851	962
683.898	1292
683.936	920
683.945	821
683.992	598
684.039	709
684.057	888
684.086	1130
684.133	367
684.179	-214
684.180	-236
684.227	554
684.274	1110
684.300	956
684.321	797
684.368	884
684.415	863
684.422	879
684.462	949
684.509	-346
684.543	819
684.556	1239
684.603	495
684.649	863
684.665	720
684.696	384
684.743	1093
684.786	1126
684.790	1128
684.837	592
684.883	809
684.908	1295
684.930	1697
684.977	1589
685.023	1083
685.029	1014
685.070	516
685.117	1133
685.150	1237
685.164	1281
685.210	1808
685.257	1527
685.272	1561
685.303	1574
685.350	1061
685.393	1759
685.396	1809
685.443	1255
685.490	1847
685.514	1307
685.536	859
685.583	1848
685.629	1696
685.636	1657
685.675	1302
685.722	1693
685.757	1345
685.768	1265
685.815	1469
685.861	1725
685.878	1442
685.908	893
685.954	1602
686.000	1495
686.000	1494
686.047	1844
686.093	2259
686.121	2713
686.139	2903
686.185	2041
686.232	1706
686.242	1662
686.278	1512
686.324	1606
686.363	1246
686.370	1185
686.416	1472
686.463	1395
686.484	1366
686.509	1379
686.555	1223
686.601	1676
686.606	1642
686.647	1160
686.693	1548
686.727	722
686.739	494
686.785	934
686.831	1224
686.848	1428
686.877	1640
686.923	1822
686.969	1167
686.969	1164
687.015	1673
687.061	1725
687.090	1999
687.107	2115
687.153	2168
687.199	1673
687.211	1587
687.245	1328
687.291	1865
687.332	2020
687.336	2043
687.382	1568
687.428	2325
687.453	2314
687.474	2209
687.520	2306
687.565	1414
687.574	1475
687.611	1847
687.657	1463
687.695	1780
687.702	1860
687.748	1779
687.794	1985
687.816	1921
687.839	1746
687.885	2245
687.931	1786
687.937	1791
687.976	1925
688.022	1914
688.058	1567
688.067	1479
688.113	1734
688.158	1897
688.179	1808
688.204	1760
688.249	2561
688.295	2650
688.300	2652
688.340	2496
688.386	1957
688.421	2013
688.431	2062
688.477	1569
688.522	2078
688.542	1953
688.567	1853
688.613	2606
688.658	2180
688.663	2254
688.703	2770
688.749	2517
688.784	2810
688.794	2865
688.839	2401
688.884	2215
688.905	2091
688.930	2008
688.975	2318
689.020	1886
689.026	1909
689.065	2086
689.110	1880
689.146	2425
689.155	2550
689.201	1923
689.246	2155
689.267	2071
689.291	2077
689.336	1876
689.381	2177
689.388	2187
689.426	2175
689.471	2037
689.509	2215
689.516	2256
689.561	2258
689.606	2303
689.630	2247
689.651	2155
689.696	2202
689.741	1757
689.750	1821
689.785	2240
689.830	2183
689.871	2333
689.875	2324
689.920	2378
689.965	1875
689.992	1737
690.010	1755
690.054	1985
690.099	2185
690.112	2299
690.144	2512
690.189	1695
690.233	2249
690.233	2257
690.278	1999
690.323	2438
690.354	2479
690.367	2504
690.412	2713
690.457	2545
690.474	2664
690.501	2772
690.546	2231
690.590	2681
690.595	2676
690.635	2807
690.680	2626
690.716	2614
690.724	2604
690.769	3213
690.813	3045
690.836	2845
690.857	2801
690.902	3145
690.946	3623
690.957	3735
690.991	4670
691.035	6222
691.077	7207
691.080	7207
691.124	6696
691.168	6040
691.198	5898
691.213	5697
691.257	4831
691.301	4647
691.318	4069
691.346	3413
691.390	2862
691.434	2706
691.439	2647
691.478	2344
691.522	2542
691.559	2146
691.567	2181
691.611	2808
691.655	3287
691.680	3268
691.699	2959
691.743	2982
691.787	2874
691.800	2783
691.831	2942
691.875	2931
691.919	3416
691.921	3404
691.964	2921
692.008	3207
692.041	2853
692.052	2834
692.096	3154
692.139	3134
692.162	3371
692.183	3446
692.227	2616
692.271	3064
692.282	2980
692.315	2913
692.359	2931
692.402	2953
692.403	2963
692.447	3339
692.490	3362
692.523	3450
692.534	3451
692.578	3543
692.622	3422
692.643	3377
692.666	3199
692.709	3213
692.753	2519
692.763	2465
692.797	2617
692.840	2813
692.884	2966
692.884	2976
692.928	2949
692.971	3357
693.004	3293
693.015	3209
693.059	3448
693.102	3570
693.124	3423
693.146	3340
693.189	3161
693.233	3304
693.245	3267
693.276	3364
693.320	3751
693.363	4036
693.365	4028
693.407	3723
693.450	3666
693.485	3486
693.493	3563
693.537	3895
693.580	4580
693.605	4736
693.624	4914
693.667	5378
693.710	5916
693.725	6136
693.753	7835
693.797	10327
693.840	13304
693.845	13575
693.883	12608
693.926	11237
693.966	9894
693.970	9715
694.013	8054
694.056	6129
694.086	5036
694.099	5015
694.142	4587
694.185	4351
694.206	4186
694.229	4042
694.272	3861
694.315	3603
694.326	3572
694.358	3875
694.401	3752
694.444	4049
694.446	4048
694.487	4237
694.530	4463
694.566	4514
694.573	4432
694.616	3882
694.659	3407
694.686	3108
694.702	3217
694.745	3469
694.787	3686
694.806	3726
694.830	3705
694.873	3856
694.916	3979
694.926	3954
694.959	3720
695.002	3469
695.044	3376
695.046	3353
695.087	3337
695.130	3341
695.166	3276
695.172	3300
695.215	3641
695.258	3847
695.286	3921
695.301	3879
695.343	3801
695.386	3767
695.406	3652
695.428	3618
695.471	3888
695.514	3785
695.526	3812
695.556	3974
695.599	3919
695.641	4147
695.646	4127
695.684	3842
695.726	3931
695.766	3547
695.769	3538
695.811	3564
695.854	3421
695.886	3467
695.896	3519
695.938	3245
695.981	3499
696.005	3454
696.023	3430
696.065	3313
696.108	3241
696.125	3296
696.150	3554
696.192	3784
696.235	3999
696.245	4058
696.277	3917
696.319	3638
696.361	3278
696.365	3250
696.404	3520
696.446	3691
696.485	3897
696.488	3924
696.530	4033
696.572	4280
696.604	4243
696.614	4152
696.656	4042
696.698	3749
696.724	3571
696.740	3576
696.783	3409
696.825	3545
696.844	3461
696.867	3287
696.909	3184
696.951	2905
696.964	2836
696.992	2996
697.034	3098
697.076	3351
697.083	3356
697.118	3486
697.160	3734
697.202	3885
697.203	3878
697.244	3865
697.286	3789
697.323	3649
697.327	3653
697.369	3640
697.411	3575
697.442	3546
697.453	3654
697.494	4012
697.536	4394
697.562	4611
697.578	4542
697.620	4285
697.661	4034
697.682	3907
697.703	3936
697.744	3977
697.786	4048
697.801	4038
697.828	4236
697.869	4584
697.911	4839
697.921	4892
697.952	4498
697.994	4036
698.035	3460
698.040	3387
698.077	3571
698.118	3698
698.160	3890
698.160	3877
698.201	3946
698.243	4002
698.279	4023
698.284	4062
698.325	4344
698.367	4575
698.399	4759
698.408	4737
698.449	4526
698.491	4372
698.518	4221
698.532	4211
698.573	4182
698.614	4127
698.638	4080
698.656	4146
698.697	4264
698.738	4397
698.757	4437
698.779	4396
698.820	4303
698.862	4194
698.877	4145
698.903	4391
698.944	4751
698.985	5122
698.996	5210
699.026	5008
699.067	4704
699.116	4331
699.235	4384
699.354	4527
699.474	4070
699.593	4898
699.713	4451
699.832	4856
699.951	4398
700.070	4740
700.190	4755
700.309	4720
700.428	4950
700.547	5156
700.667	4462
700.786	5530
700.905	3649
701.024	4570
701.143	4040
701.262	3514
701.381	3573
701.500	3574
701.619	3429
701.738	4001
701.857	4170
701.976	3817
702.095	4400
702.214	5208
702.333	3979
702.452	4062
702.571	3845
702.690	4169
702.809	3854
702.928	3390
703.047	3665
703.165	3355
703.284	3821
703.403	4646
703.522	4182
703.640	4652
703.759	4497
703.878	6885
703.997	3798
704.115	4180
704.234	3448
704.353	3632
704.471	3335
704.590	3214
704.708	3320
704.827	3360
704.946	3697
705.064	3452
705.183	3780
705.301	4262
705.420	5929
705.538	5511
705.656	4605
705.775	4323
705.893	5354
706.012	5359
706.130	4558
706.249	4845
706.367	5262
706.485	5033
706.604	4799
706.722	5341
706.840	4932
706.958	4862
707.077	4520
707.195	4156
707.313	4471
707.431	5027
707.549	3026
707.668	3864
707.786	4443
707.904	4035
708.022	3526
708.140	4819
708.258	3636
708.376	5288
708.494	3730
708.612	4418
708.730	6456
708.848	6993
708.966	5928
709.084	5973
709.202	5259
709.320	4933
709.438	5366
709.556	6419
709.674	5852
709.791	5934
709.909	4998
710.027	5739
710.145	5181
710.263	5073
710.380	5229
710.498	5267
710.616	5001
710.733	4922
710.851	5248
710.969	6538
711.086	5164
711.204	5600
711.322	4689
711.439	4895
711.557	5577
711.674	5201
711.792	4523
711.909	4987
712.027	5704
712.144	5288
712.262	4830
712.379	5240
712.497	7746
712.614	8137
712.732	6750
712.849	6969
712.966	6409
713.084	7586
713.201	7059
713.318	7199
713.436	6022
713.553	7369
713.670	7305
713.787	7688
713.905	7102
714.022	6823
714.139	6100
714.256	7526
714.373	6211
714.490	6558
714.608	7800
714.725	20931
714.842	22806
714.959	6480
715.076	5761
715.193	5135
715.310	5227
715.427	5659
715.544	5921
715.661	5834
715.778	5151
715.895	7018
716.011	6457
716.128	5872
716.245	5453
716.362	5896
716.479	6622
716.596	5500
716.713	6225
716.829	5644
716.946	5689
717.063	5310
717.180	4951
717.296	5260
717.413	5549
717.530	5820
717.646	4589
717.763	4987
717.880	5156
717.996	4982
718.113	4819
718.229	5059
718.346	3773
718.462	5063
718.579	5610
718.695	6573
718.812	5386
718.928	6215
719.045	5335
719.161	4971
719.277	4302
719.394	5012
719.510	4332
719.626	4195
719.743	5494
719.859	4291
719.975	4260
720.092	7341
720.208	12080
720.324	5280
720.440	4389
720.557	5025
720.673	5965
720.789	9715
720.905	18342
721.021	9322
721.137	4840
721.253	5000
721.369	4718
721.486	5003
721.602	5859
721.718	4069
721.834	4792
721.950	4717
722.066	3944
722.181	3489
722.297	4201
722.413	4437
722.529	4122
722.645	4389
722.761	3460
722.877	3832
722.993	4493
723.108	4111
723.224	3316
723.340	3882
723.456	3460
723.571	4451
723.687	3364
723.803	4212
723.918	3293
724.034	3263
724.150	4022
724.265	4223
724.381	6948
724.497	9624
724.612	3460
724.728	3653
724.843	3325
724.959	4121
725.074	7180
725.190	8762
725.305	3126
725.421	2778
725.536	2599
725.651	2921
725.767	3547
725.882	3099
725.997	2324
726.113	3251
726.228	3021
726.343	3030
726.459	1771
726.574	3161
726.689	2359
726.804	3450
726.920	3158
727.035	3212
727.150	2994
727.265	3225
727.380	3790
727.495	3683
727.610	3748
727.725	2573
727.841	2690
727.956	4398
728.071	3972
728.186	3081
728.301	2570
728.416	2806
728.531	2646
728.645	2726
728.760	3241
728.875	4672
728.990	4465
729.105	4052
729.220	2832
729.335	3659
729.449	2692
729.564	2517
729.679	1915
729.794	2767
729.908	2745
730.023	3001
730.138	2250
730.253	2471
730.367	2632
730.482	1710
730.596	2998
730.711	3115
730.826	1337
730.940	1998
731.055	2634
731.169	1792
731.284	2116
731.398	1920
731.513	2656
731.627	2691
731.742	1735
731.856	2400
731.970	2411
732.085	2251
732.199	1203
732.313	2185
732.428	3161
732.542	5802
732.656	2844
732.771	2172
732.885	1268
732.999	2058
733.113	1758
733.227	2555
733.342	2492
733.456	1532
733.570	1702
733.684	1553
733.798	1341
733.912	2492
734.026	1697
734.140	1967
734.254	1932
734.368	4058
734.482	5027
734.596	2136
734.710	2020
734.824	2518
734.938	1541
735.052	1959
735.166	2644
735.280	2525
735.393	647
735.507	1958
735.621	2845
735.735	4763
735.849	2431
735.962	2030
736.076	1920
736.190	2093
736.303	2780
736.417	4608
736.531	2091
736.644	1970
736.758	809
736.872	1521
736.985	1535
737.099	1982
737.212	1625
737.326	2141
737.439	2150
737.553	1527
737.666	1457
737.780	1720
737.893	1087
738.007	1610
738.120	1511
738.233	1288
738.347	1828
738.460	2035
738.573	1746
738.687	1820
738.800	1945
738.913	1502
739.026	795
739.140	1490
739.253	838
739.366	1760
739.479	1520
739.592	1479
739.705	1829
739.818	1708
739.932	1275
740.045	1780
740.158	1089
740.271	1254
740.384	1663
740.497	1897
740.610	2812
740.723	2033
740.836	2583
740.949	2626
741.062	2159
741.174	2758
741.287	2003
741.400	1822
741.513	1774
741.626	3623
741.739	2239
741.851	1819
741.964	1189
742.077	1615
742.189	2256
742.302	5680
742.415	4369
742.527	2063
742.640	1512
742.753	2121
742.865	1722
742.978	906
743.090	1233
743.203	1978
743.316	823
743.428	1376
743.541	1113
743.653	655
743.766	972
743.878	1057
743.990	2647
744.103	4878
744.215	6302
744.327	2373
744.440	1707
744.552	2412
744.664	980
744.777	521
744.889	1393
745.001	1853
745.113	1117
745.226	2024
745.338	1234
745.450	362
745.562	685
745.674	1222
745.786	288
745.898	1109
746.010	942
746.122	1204
746.234	835
746.347	1882
746.459	1419
746.570	1566
746.682	4270
746.794	9332
746.906	3260
747.018	1708
747.130	1016
747.242	766
747.354	1326
747.466	2043
747.577	439
747.689	867
747.801	30
747.913	1273
748.024	300
748.136	1662
748.248	1407
748.359	736
748.471	901
748.583	376
748.694	1057
748.806	1826
748.918	1278
749.029	597
749.141	1171
749.252	1319
749.364	691
749.475	2178
749.587	1655
749.698	680
749.809	1077
749.921	327
750.032	688
750.144	305
750.255	548
750.366	314
750.478	912
750.589	614
750.700	1151
750.811	1136
750.923	804
751.034	1641
751.145	2544
751.256	791
751.367	651
751.479	1374
751.590	210
751.701	1065
751.812	-135
751.923	585
752.034	147
752.145	951
752.256	728
752.367	258
752.478	235
752.589	914
752.700	420
752.811	1518
752.922	236
753.032	1264
753.143	458
753.254	922
753.365	339
753.476	-120
753.586	1407
753.697	1139
753.808	939
753.919	512
754.029	926
754.140	624
754.251	780
754.361	695
754.472	425
754.582	398
754.693	330
754.804	747
754.914	699
755.025	884
755.135	363
755.246	813
755.356	683
755.466	878
755.577	91
755.687	970
755.798	950
755.908	970
756.018	254
756.129	966
756.239	158
756.349	159
756.460	722
756.570	1289
756.680	483
756.790	1033
756.900	728
757.011	992
757.121	960
757.231	514
757.341	346
757.451	422
757.561	497
757.671	282
757.781	626
757.891	989
758.001	115
758.111	1089
758.221	877
758.331	581
758.441	935
758.551	1070
758.661	985
758.771	367
758.880	411
758.990	829
759.100	1319
759.210	1075
759.320	978
759.429	1001
759.539	1532
759.649	882
759.758	513
759.868	1046
759.978	514
760.087	1278
760.197	1333
760.307	1046
760.416	240
760.526	901
760.635	431
760.745	510
760.854	173
760.964	373
761.073	603
761.182	1250
761.292	910
761.401	1974
761.511	961
761.620	1814
761.729	1346
761.839	908
761.948	1812
762.057	1400
762.166	1673
762.276	742
762.385	1597
762.494	1631
762.603	1226
762.712	1258
762.822	915
762.931	1330
763.040	-326
763.149	986
763.258	1423
763.367	2520
763.476	1914
763.585	1745
763.694	2002
763.803	2009
763.912	2702
764.021	2358
764.130	1391
764.238	2391
764.347	2427
764.456	1824
764.565	2576
764.674	2776
764.783	2242
764.891	3168
765.000	4241
765.109	3973
765.217	4193
765.326	5586
765.435	7361
765.543	8175
765.652	9832
765.761	13130
765.869	19743
765.978	32068
766.086	57285
766.195	121845
766.303	307264
766.412	721744
766.520	645685
766.629	196719
766.737	71222
766.846	39371
766.954	25024
767.062	19357
767.171	13593
767.279	10974
767.387	7290
767.496	7085
767.604	6284
767.712	6453
767.820	5083
767.928	4576
768.037	4493
768.145	5025
768.253	4811
768.361	4354
768.469	3558
768.577	3954
768.685	4005
768.793	4757
768.901	4919
769.009	5555
769.117	7047
769.225	8760
769.333	13704
769.441	23443
769.549	47849
769.657	112718
769.765	339264
769.873	625174
769.981	242459
770.088	57095
770.196	25861
770.304	17542
770.412	11899
770.519	8412
770.627	6674
770.735	5913
770.842	4502
770.950	3987
771.058	3550
771.165	3765
771.273	2488
771.380	3070
771.488	2295
771.595	2527
771.703	2450
771.810	2192
771.918	1684
772.025	714
772.133	1348
772.240	1001
772.348	1446
772.455	1809
772.562	1386
772.670	1033
772.777	1747
772.884	1167
772.991	977
773.099	1252
773.206	251
773.313	1323
773.420	1700
773.528	887
773.635	666
773.742	584
773.849	1427
773.956	975
774.063	481
774.170	869
774.277	920
774.384	1048
774.491	165
774.598	1003
774.705	531
774.812	1503
774.919	670
775.026	1191
775.133	353
775.239	1519
775.346	9
775.453	519
775.560	755
775.667	1078
775.773	869
775.880	1720
775.987	1106
776.093	1418
776.200	45
776.307	881
776.413	1336
776.520	116
776.627	842
776.733	939
776.840	155
776.946	2845
777.053	6364
777.159	16270
777.266	7976
777.372	14386
777.478	10885
777.585	5071
777.691	695
777.798	1112
777.904	165
778.010	1421
778.117	709
778.223	1187
778.329	207
778.435	1127
778.542	480
778.648	585
778.754	-697
778.860	1601
778.966	426
779.072	163
779.178	554
779.284	757
779.391	-114
779.497	371
779.603	2396
779.708	1180
779.815	5736
779.920	18567
780.026	31382
780.132	4339
780.238	519
780.344	1078
780.450	-26
780.556	298
780.661	135
780.767	154
780.873	272
780.979	1426
781.085	-157
781.190	525
781.296	-488
781.402	376
781.507	-120
781.613	765
781.719	-68
781.824	539
781.930	720
782.035	44
782.141	424
782.246	471
782.352	647
782.457	669
782.563	-43
782.668	274
782.773	-130
782.879	-35
782.984	160
783.090	1930
783.195	105
783.300	779
783.405	-54
783.511	183
783.616	653
783.721	-247
783.826	-640
783.932	277
784.037	343
784.142	773
784.247	-234
784.352	968
784.457	-196
784.562	605
784.667	290
784.772	-185
784.877	-511
784.982	851
785.087	-122
785.192	-626
785.297	-263
785.402	710
785.507	-115
785.611	809
785.716	-221
785.821	286
785.926	-395
786.031	43
786.135	352
786.240	-14
786.345	-721
786.450	1119
786.554	12
786.659	219
786.763	-468
786.868	157
786.973	1093
787.077	121
787.182	119
787.286	337
787.391	-596
787.495	-537
787.600	363
787.704	-860
787.809	346
787.913	-778
788.017	172
788.122	139
788.226	-5
788.330	-474
788.435	111
788.539	-561
788.643	-297
788.747	149
788.852	-683
788.956	-146
789.060	134
789.164	305
789.268	-1267
789.372	1069
789.476	-527
789.580	-172
789.684	-330
789.788	-178
789.892	-609
789.996	776
790.100	-56
790.204	245
790.308	-481
790.412	-349
790.516	-612
790.620	372
790.724	-177
790.828	162
790.931	-874
791.035	570
791.139	-1135
791.242	-1059
791.346	498
791.450	-150
791.554	-320
791.657	-1417
791.761	979
791.864	1281
791.968	966
792.072	-437
792.175	-244
792.279	-284
792.382	-25
792.486	-214
792.589	-638
792.693	-381
792.796	-812
792.899	951
793.003	311
793.106	-1074
793.209	-171
793.313	971
793.416	-682
793.519	1179
793.623	701
793.726	1267
793.829	-1004
793.932	-125
794.035	-554
794.138	995
794.242	1218
794.345	190
794.448	1484
794.551	2984
794.654	8285
794.757	14864
794.860	1943
794.963	466
795.066	-369
795.169	345
795.272	-949
795.375	-406
795.477	-901
795.580	-774
795.683	-917
795.786	922
795.889	-991
795.991	141
796.094	514
796.197	-1262
796.300	172
796.402	105
796.505	-934
796.608	-520
796.710	-332
796.813	-286
796.915	-550
797.018	222
797.120	-104
797.223	-845
797.326	-530
797.428	-260
797.530	-800
797.633	-275
797.735	509
797.838	507
797.940	-24
798.042	-471
798.145	-674
798.247	272
798.349	-395
798.452	17
798.554	-1004
798.656	-2131
798.758	15
798.860	-428
798.962	-576
799.065	-1062
799.167	-1265
799.269	554
799.371	-459
799.473	335
799.575	-589
799.677	-510
799.779	416
799.881	-395
799.983	-640
800.085	-353
800.187	-942
800.289	-548
800.390	-1798
800.492	-466
800.594	-365
800.696	-683
800.798	-595
800.899	-340
801.001	-593
801.103	-668
801.205	-1392
801.306	-515
801.408	-1486
801.509	-212
801.611	-1516
801.713	-508
801.814	-920
801.916	-587
802.017	-820
802.119	-1432
802.220	-1185
802.322	-1397
802.423	512
802.525	-758
802.626	-562
802.727	56
802.829	-1036
802.930	-1597
803.031	668
803.133	-555
803.234	-1055
803.335	-743
803.436	-1799
803.538	-1162
803.639	-1539
803.740	-472
803.841	-914
803.942	-308
804.043	-387
804.144	-1639
804.245	-935
804.346	-1252
804.447	-485
804.548	-89
804.649	-75
804.750	-553
804.851	-884
804.952	-196
805.053	-1051
805.154	-1339
805.255	-369
805.355	-225
805.456	-903
805.557	273
805.658	-1815
805.758	29
805.859	-527
805.960	-629
806.061	-1473
806.161	-199
806.262	-1164
806.362	-1111
806.463	0
806.564	297
806.664	-269
806.765	-976
806.865	-948
806.966	-780
807.066	-1326
807.166	-129
807.267	-793
807.367	-5
807.468	126
807.568	-1638
807.668	-635
807.769	-116
807.869	-1097
807.969	-382
808.069	-657
808.170	-98
808.270	-1275
808.370	-744
808.470	-696
808.570	-544
808.670	-886
808.770	-385
808.870	-1561
808.970	-242
809.070	-1552
809.170	-1145
809.271	-513
809.370	-1063
809.470	-220
809.570	-1035
809.670	-1718
809.770	-621
809.870	-159
809.970	-286
810.070	-728
810.169	-291
810.269	-2376
810.369	-107
810.469	-906
810.568	-939
810.668	-1147
810.768	-939
810.867	-1109
810.967	-1285
811.066	-1020
811.166	-1780
811.265	128
811.365	-1050
811.464	-1408
811.564	-1199
811.663	-660
811.763	-1748
811.862	-468
811.962	469
812.061	-1415
812.160	-1444
812.260	-1140
812.359	-86
812.458	-1665
812.557	67
812.657	-1012
812.756	-97
812.855	-1461
812.954	-1277
813.053	-395
813.153	-132
813.252	-1736
813.351	203
813.450	-964
813.549	-664
813.648	-305
813.747	-85
813.846	-903
813.945	-1240
814.044	-1092
814.143	-155
814.242	-1174
814.341	-1140
814.439	-1008
814.538	-697
814.637	-492
814.736	-1215
814.835	-747
814.933	-804
815.032	23
815.131	-297
815.229	-865
815.328	-191
815.427	-916
815.525	110
815.624	-971
815.722	-552
815.821	-629
815.919	-589
816.018	-474
816.116	721
816.215	-212
816.313	-40
816.412	-877
816.510	-226
816.609	974
816.707	-129
816.805	-481
816.904	-83
817.002	197
817.100	1048
817.198	799
817.296	984
817.395	1158
817.493	2724
817.591	2236
817.689	4571
817.787	7317
817.885	12710
817.983	25692
818.081	60010
818.179	148445
818.277	370252
818.375	306890
818.473	77458
818.571	26129
818.669	16746
818.767	15299
818.865	15156
818.963	17252
819.061	27533
819.158	51885
819.256	116595
819.354	274189
819.452	578761
819.549	362595
819.647	96461
819.745	36691
819.842	21385
819.940	14046
820.038	10276
820.135	7104
820.233	6203
820.330	3750
820.428	3684
820.525	3253
820.623	1799
820.720	1544
820.818	1328
820.915	1086
821.012	2085
821.110	221
821.207	1474
821.304	578
821.402	877
821.499	3013
821.596	4984
821.693	1649
821.791	888
821.888	-467
821.985	1322
822.082	-18
822.179	1465
822.276	1286
822.373	1079
822.470	1
822.567	-528
822.664	-1159
822.761	95
822.858	-1761
822.955	-387
823.052	-132
823.149	337
823.246	-628
823.343	-758
823.440	-442
823.536	-1002
823.633	-678
823.730	-356
823.827	-897
823.923	-221
824.020	564
824.117	917
824.213	399
824.310	1040
824.407	-951
824.503	-865
824.600	-1127
824.696	-34
824.793	-39
824.889	-636
824.986	-668
825.082	-930
825.179	-576
825.275	-1108
825.371	-1262
825.468	180
825.564	-2200
825.660	-168
825.757	-1325
825.853	-80
825.949	-1826
826.045	-473
826.142	-1423
826.238	-462
826.334	-153
826.430	-1118
826.526	-467
826.622	-1564
826.718	-1864
826.814	-1175
826.910	-325
827.006	-1391
827.102	-1493
827.198	-735
827.294	-1479
827.390	-936
827.486	207
827.582	-1342
827.678	-2109
827.774	-102
827.869	-2348
827.965	222
828.061	-1745
828.157	-780
828.252	-882
828.348	-1498
828.444	315
828.539	-1715
828.635	-1340
828.731	-219
828.826	-1575
828.922	-366
829.017	-1146
829.113	-571
829.208	-925
829.304	-796
829.399	-59
829.495	-1325
829.590	-407
829.685	-737
829.781	-1244
829.876	-1055
829.971	-1675
830.066	-1295
830.162	-1526
830.257	-1004
830.352	-1423
830.447	65
830.543	-1134
830.638	-1613
830.733	-1021
830.828	-1800
830.923	-457
831.018	-1060
831.113	-910
831.208	-1566
831.303	-264
831.398	-654
831.493	-929
831.588	-1264
831.683	-1666
831.778	-936
831.873	-1062
831.967	-682
832.062	-1717
832.157	-1917
832.252	-790
832.346	-995
832.441	-1437
832.536	-379
832.631	-19
832.725	50
832.820	-1645
832.914	-1676
833.009	-2183
833.104	-627
833.198	-289
833.293	-713
833.387	-1371
833.482	-1016
833.576	-1750
833.670	-948
833.765	-1205
833.859	-1953
833.954	-747
834.048	-564
834.142	-1014
834.237	-991
834.331	-1899
834.425	-1188
834.519	-1643
834.613	-861
834.708	-1797
834.802	-595
834.896	-1445
834.990	-1459
835.084	-1322
835.178	-646
835.272	-1464
835.366	-1254
835.460	-1803
835.554	-1069
835.648	-828
835.742	-1843
835.836	-1422
835.930	-1057
836.024	-686
836.117	-181
836.211	-376
836.305	-84
836.399	-350
836.493	-1332
836.586	-589
836.680	-1232
836.774	-1396
836.867	-1318
836.961	-1967
837.055	-986
837.148	-1950
837.242	-1285
837.335	-2398
837.429	-990
837.522	-940
837.616	-651
837.709	375
837.803	-252
837.896	-904
837.989	-935
838.083	-1000
838.176	-151
838.269	-880
838.363	-718
838.456	-1934
838.549	-590
838.642	-1370
838.735	-138
838.829	-1013
838.922	-977
839.015	-1670
839.108	-2108
839.201	-1511
839.294	-1316
839.387	-1103
839.480	-874
839.573	-1214
839.666	-761
839.759	-1254
839.852	-610
839.945	-1410
840.038	-1656
840.131	-1105
840.223	-1155
840.316	-306
840.409	-1008
840.502	-1624
840.594	-420
840.687	-1823
840.780	-1640
840.873	-2334
840.965	-889
841.058	-259
841.150	839
841.243	-923
841.336	-878
841.428	-1800
841.521	-831
841.613	-1619
841.706	-962
841.798	-1979
841.890	-936
841.983	-1882
842.075	-784
842.167	-1300
842.260	-1017
842.352	-1203
842.444	-75
842.537	144
842.629	890
842.721	-596
842.813	-1202
842.905	-2569
842.997	-588
843.090	-1616
843.182	297
843.274	-235
843.366	2635
843.458	5070
843.550	3572
843.642	-1162
843.734	-892
843.826	-1773
843.918	-125
844.009	-955
844.101	-791
844.193	-1343
844.285	-43
844.377	-578
844.469	-87
844.560	2530
844.652	1505
844.744	18
844.835	-1454
844.927	-976
845.019	-638
845.110	-575
845.202	-2080
845.293	-1502
845.385	-1961
845.476	-1548
845.568	-747
845.659	-1182
845.751	-1054
845.842	-2076
845.934	-1071
846.025	-1258
846.116	-984
846.208	-731
846.299	-1310
846.390	-1716
846.482	-584
846.573	-1056
846.664	-965
846.755	-1444
846.846	-1018
846.937	-1286
847.029	-912
847.120	-928
847.211	-1588
847.302	-691
847.393	-2050
847.484	-841
847.575	-889
847.666	-1680
847.757	-1150
847.847	-1292
847.938	-547
848.029	-1257
848.120	-1480
848.211	-2031
848.302	-1490
848.392	-1207
848.483	-731
848.574	-1947
848.664	-869
848.755	-1481
848.846	-1928
848.936	-1782
849.027	-1180
849.118	-1549
849.208	-1062
849.299	-1610
849.389	-748
849.480	-1892
849.570	-1556
849.661	-787
849.751	719
849.841	-438
849.932	-637
850.022	-2134
850.112	-458
850.203	-1197
850.293	-1345
850.383	-1724
850.474	-1390
850.564	-1574
850.654	-266
850.744	-1041
850.834	-1723
850.924	-1720
851.014	-1047
851.104	-1070
851.194	-2040
851.284	-1475
851.374	-1073
851.464	-1681
851.554	-1016
851.644	-1542
851.734	-321
851.824	-1215
851.914	-1466
852.004	-1102
852.094	-1144
852.183	-1483
852.273	-955
852.363	-1641
852.452	-1383
852.542	-1724
852.632	-1700
852.721	-1282
852.811	-1653
852.901	-1501
852.990	-982
853.080	-1222
853.169	-856
853.259	-1755
853.348	-1259
853.438	-1882
853.527	-157
853.617	-2436
853.706	-686
853.795	-538
853.885	1382
853.974	2926
854.063	6851
854.152	11572
854.242	4183
854.331	-884
854.420	-1882
854.509	-1604
854.598	-623
854.687	-1056
854.777	-439
854.866	-1758
854.955	-468
855.044	-1574
855.133	-1023
855.222	-1754
855.311	-1019
855.400	-1343
855.488	-828
855.577	-1518
855.666	-792
855.755	-578
855.844	-1700
855.933	-1667
856.021	-1371
856.110	-1013
856.199	-1949
856.288	-1804
856.376	-1002
856.465	-2092
856.554	-935
856.642	-2055
856.731	-1027
856.819	-1018
856.908	-1468
856.996	-1750
857.085	-913
857.173	-1571
857.262	-1219
857.350	-351
857.438	-434
857.527	-1412
857.615	-1225
857.703	-799
857.792	-1298
857.880	-1942
857.968	-1197
858.056	-1228
858.145	-1268
858.233	-1634
858.321	-1197
858.409	-1434
858.497	-917
858.585	-1820
858.673	-483
858.761	-1720
858.849	-1423
858.937	-1634
859.025	-1209
859.113	-318
859.201	-935
859.289	-237
859.377	109
859.465	-1610
859.552	-928
859.640	-1732
859.728	-852
859.816	-1676
859.903	-1568
859.991	-1161
860.079	-1576
860.166	-1940
860.254	-1819
860.342	-1323
860.429	-1581
860.517	-1740
860.604	-1245
860.692	-1182
860.779	-1345
860.867	-1986
860.954	-1339
861.042	-1656
861.129	-909
861.216	-1657
861.304	-1095
861.391	-996
861.478	-785
861.565	-1188
861.653	-396
861.740	-1569
861.827	-1438
861.914	-1556
862.001	-1518
862.089	-1601
862.176	-1256
862.263	-1768
862.350	-243
862.437	-1564
862.524	-190
862.611	-1172
862.698	-995
862.785	-730
862.871	421
862.958	-1610
863.045	-1523
863.132	-695
863.219	-1117
863.306	-1748
863.392	-990
863.479	-1088
863.566	-1272
863.652	-1925
863.739	-2302
863.826	-1203
863.912	-1497
863.999	-1890
864.086	-1830
864.172	-2061
864.259	-1326
864.345	-1165
864.432	-474
864.518	-1630
864.604	-1813
864.691	-1803
864.777	-1169
864.863	-1070
864.950	-683
865.036	-1593
865.122	-969
865.209	-876
865.295	-1595
865.381	-1414
865.467	-948
865.553	-650
865.639	-1462
865.726	-1962
865.812	76
865.898	-201
865.984	1867
866.070	4609
866.156	5184
866.242	-300
866.328	-541
866.414	-1447
866.499	-1374
866.585	-1794
866.671	-1893
866.757	-2002
866.843	-1240
866.928	-1853
867.014	-1551
867.100	-2082
867.186	-1326
867.271	-1228
867.357	-436
867.442	-590
867.528	-1190
867.614	-1135
867.699	88
867.785	-478
867.870	1201
867.956	2638
868.041	719
868.127	-476
868.212	374
868.297	364
868.383	-1144
868.468	-1060
868.553	524
868.639	-1127
868.724	-478
868.809	-277
868.894	-941
868.979	-1431
869.065	-1001
869.150	-2012
869.235	-1502
869.320	-1347
869.405	-1652
869.490	-1050
869.575	-810
869.660	-1885
869.745	-1112
869.830	-1817
869.915	-847
870.000	-1444
870.085	-694
870.169	-494
870.254	-932
870.339	-1969
870.424	-1598
870.509	-1316
870.593	-1414
870.678	-1804
870.763	-1228
870.847	-1802
870.932	-970
871.016	-154
871.101	-779
871.186	-1513
871.270	-1036
871.355	-1939
871.439	-2177
871.523	-1310
871.608	-1452
871.692	-1260
871.777	-746
871.861	-1207
871.945	-1195
872.030	-1352
872.114	-1230
872.198	-1434
872.282	-2050
872.367	-1435
872.451	-1609
872.535	-1327
872.619	-1338
872.703	-2391
872.787	-1318
872.871	-1637
872.955	-1765
873.039	-1710
873.123	-750
873.207	-843
873.291	-548
873.375	-2053
873.459	-1655
873.543	-1522
873.627	-790
873.711	-1750
873.794	-837
873.878	-1629
873.962	-1233
874.045	-1100
874.129	-1114
874.137	-1114
874.213	-1116
874.245	-1118
874.296	-1124
874.352	-1568
874.380	-1791
874.460	-890
874.464	-853
874.547	-1280
874.568	-1430
874.631	-1887
874.676	-1568
874.714	-1295
874.784	-782
874.798	-677
874.881	-1065
874.892	-1187
874.965	-2024
874.999	-1603
875.048	-1039
875.107	-1434
875.131	-1622
875.215	-1456
875.215	-1456
875.298	-1239
875.323	-1255
875.381	-1253
875.430	-995
875.465	-839
875.538	-1428
875.548	-1505
875.631	-1073
875.646	-1217
875.714	-1922
875.753	-1811
875.798	-1661
875.861	-2041
875.881	-2189
875.964	-2008
875.968	-1997
876.047	-1641
876.076	-1611
876.130	-1630
876.183	-1958
876.213	-2129
876.291	-1154
876.296	-1084
876.379	-1709
876.398	-1458
876.462	-657
876.506	-927
876.545	-1208
876.613	-1372
876.628	-1378
876.711	-1372
876.721	-1309
876.794	-1029
876.828	-1309
876.877	-1568
876.935	-1360
876.960	-1286
877.043	-1077
877.043	-1073
877.125	-197
877.150	-341
877.208	-658
877.258	-981
877.291	-1185
877.365	-725
877.374	-665
877.456	-761
877.472	-839
877.539	-1261
877.579	-1210
877.622	-1210
877.687	-1038
877.704	-928
877.787	-1175
877.794	-1182
877.869	-1419
877.901	-1295
877.952	-913
878.008	-713
878.034	-698
878.115	-1191
878.117	-1200
878.199	-946
878.222	-968
878.282	-902
878.329	-963
878.364	-1084
878.437	-957
878.447	-911
878.529	-1126
878.544	-1065
878.611	-832
878.651	-1033
878.694	-1338
878.758	-992
878.776	-845
878.858	-1307
878.865	-1287
878.941	-943
878.972	-814
879.023	-799
879.078	-969
879.105	-960
879.185	-1431
879.187	-1441
879.269	-606
879.292	-796
879.351	-1251
879.399	-1083
879.433	-910
879.506	-1014
879.516	-1026
879.598	-1376
879.613	-1298
879.680	-1000
879.720	-801
879.762	-571
879.827	-662
879.844	-728
879.926	-886
879.933	-931
880.007	-1206
880.040	-1191
880.089	-964
880.147	-588
880.171	-557
880.253	-811
880.254	-812
880.335	-355
880.360	-256
880.417	235
880.467	695
880.499	951
880.574	1123
880.580	1058
880.662	-38
880.680	-334
880.744	-1020
880.787	-1182
880.825	-1038
880.893	-728
880.907	-738
880.989	-700
881.000	-725
881.070	-797
881.106	-786
881.152	-679
881.213	-657
881.233	-650
881.315	-814
881.319	-798
881.396	-589
881.426	-600
881.478	-592
881.532	-528
881.559	-444
881.639	-889
881.641	-902
881.722	-674
881.745	-740
881.803	-587
881.852	-347
881.885	-352
881.958	-529
881.966	-542
882.047	-839
882.064	-844
882.129	-523
882.171	-292
882.210	-115
882.277	-129
882.291	-193
882.372	-45
882.383	-114
882.454	-501
882.489	-541
882.535	-555
882.596	-951
882.616	-1052
882.697	-1125
882.702	-1106
882.778	-505
882.808	-382
882.859	-509
882.914	-852
882.940	-861
883.020	-430
883.021	-426
883.102	-947
883.127	-904
883.183	-774
883.233	-900
883.264	-759
883.339	-437
883.345	-440
883.426	-640
883.445	-584
883.507	-193
883.551	-212
883.587	-395
883.657	-551
883.668	-511
883.749	13
883.763	37
883.830	-333
883.869	-697
883.910	-907
883.975	-577
883.991	-524
884.072	-1038
884.081	-1049
884.152	-520
884.187	-509
884.233	-955
884.292	-751
884.314	-494
884.394	-571
884.398	-547
884.475	-476
884.504	-640
884.555	-651
884.610	-603
884.636	-639
884.716	-621
884.716	-615
884.797	-58
884.821	-108
884.877	-283
884.927	-286
884.958	-253
885.033	-311
885.038	-325
885.118	-435
885.139	-570
885.199	-734
885.244	-511
885.279	-432
885.350	-732
885.359	-710
885.439	-42
885.456	-97
885.520	-575
885.561	-409
885.600	-236
885.667	-216
885.680	-221
885.760	-272
885.773	-288
885.840	-191
885.878	-235
885.920	-297
885.984	-244
886.000	-269
886.080	-399
886.089	-440
886.160	-269
886.195	-90
886.240	115
886.300	292
886.320	140
886.400	-335
886.406	-392
886.480	-306
886.511	-93
886.560	253
886.616	336
886.640	186
886.720	-189
886.722	-206
886.800	-527
886.827	-569
886.879	-405
886.932	-395
886.959	-205
887.038	546
887.039	550
887.119	100
887.143	-22
887.198	-41
887.248	-140
887.278	-57
887.354	123
887.358	114
887.437	-16
887.459	-113
887.517	85
887.564	258
887.596	62
887.669	-303
887.676	-275
887.755	-50
887.774	7
887.835	47
887.880	61
887.914	-115
887.985	-507
887.994	-396
888.073	554
888.090	772
888.153	648
888.195	455
888.232	276
888.300	46
888.311	106
888.391	404
888.405	456
888.470	249
888.510	127
888.549	499
888.615	1128
888.628	979
888.708	-61
888.720	-207
888.787	284
888.825	497
888.866	79
888.930	-544
888.945	-309
889.024	908
889.035	1063
889.103	676
889.140	454
889.182	683
889.245	1046
889.261	1004
889.340	735
889.349	699
889.419	1038
889.454	1195
889.498	861
889.559	392
889.577	455
889.656	708
889.664	730
889.735	705
889.768	686
889.814	629
889.873	547
889.978	-62
890.083	490
890.187	-218
890.292	-146
890.397	402
890.501	607
890.606	348
890.710	780
890.815	399
890.919	128
891.024	-214
891.128	982
891.233	-134
891.337	64
891.442	541
891.546	721
891.650	-354
891.755	637
891.859	350
891.963	609
892.068	553
892.172	711
892.276	-71
892.380	554
892.484	-438
892.589	645
892.693	103
892.797	-998
892.901	-209
893.005	153
893.109	-211
893.213	873
893.317	25
893.421	264
893.525	377
893.629	451
893.733	78
893.837	-10
893.941	341
894.045	617
894.148	40
894.252	364
894.356	379
894.460	996
894.564	667
894.667	490
894.771	44
894.875	659
894.978	582
895.082	327
895.186	-61
895.289	1523
895.393	62
895.496	499
895.600	443
895.703	90
895.807	-263
895.910	417
896.014	557
896.117	510
896.221	49
896.324	134
896.427	-203
896.531	76
896.634	-141
896.737	205
896.840	-184
896.944	500
897.047	107
897.150	381
897.253	-189
897.356	194
897.460	-53
897.563	744
897.666	412
897.769	565
897.872	-383
897.975	773
898.078	39
898.181	725
898.284	-144
898.387	1356
898.490	-101
898.593	-656
898.695	-4
898.798	776
898.901	1048
899.004	235
899.107	-13
899.209	-46
899.312	-151
899.415	226
899.518	-740
899.620	480
899.723	-269
899.826	1276
899.928	21
900.031	-91
900.133	-154
900.236	-204
900.338	659
900.441	159
900.543	632
900.646	692
900.748	57
900.851	531
900.953	-101
901.055	102
901.158	189
901.260	22
901.362	776
901.465	-365
901.567	271
901.669	712
901.771	-9
901.873	-308
901.976	-38
902.078	535
902.180	-18
902.282	781
902.384	-179
902.486	644
902.588	89
902.690	930
902.792	981
902.894	1140
902.996	347
903.098	506
903.200	-48
903.302	-178
903.404	-83
903.505	-84
903.607	-101
903.709	-203
903.811	1108
903.913	-309
904.014	-361
904.116	170
904.218	353
904.319	757
904.421	1805
904.523	1678
904.624	1165
904.726	803
904.827	1459
904.929	1806
905.030	326
905.132	578
905.233	480
905.335	200
905.436	-325
905.537	736
905.639	222
905.740	325
905.841	204
905.943	1847
906.044	1011
906.145	1291
906.247	139
906.348	367
906.449	633
906.550	-909
906.651	-182
906.752	-32
906.854	-387
906.955	-103
907.056	56
907.157	-284
907.258	-1024
907.359	-54
907.460	5
907.561	-145
907.662	-262
907.762	483
907.863	-387
907.964	-625
908.065	-511
908.166	-222
908.267	215
908.367	994
908.468	-121
908.569	193
908.670	-131
908.770	23
908.871	194
908.971	1226
909.072	851
909.173	36
909.273	-249
909.374	-334
909.474	-130
909.575	-185
909.675	188
909.776	114
909.876	-105
909.977	-595
910.077	421
910.177	344
910.278	-667
910.378	-466
910.478	-595
910.579	54
910.679	-332
910.779	-199
910.879	-672
910.980	-133
911.080	-618
911.180	-260
911.280	-269
911.380	355
911.480	586
911.580	178
911.680	141
911.780	553
911.880	-411
911.980	561
912.080	645
912.180	-108
912.280	-388
912.380	338
912.480	235
912.580	-42
912.679	-828
912.779	582
912.879	-497
912.979	17
913.078	-609
913.178	-218
913.278	-4
913.377	-441
913.477	-129
913.577	484
913.676	381
913.776	-1050
913.875	-17
913.975	244
914.074	-538
914.174	-169
914.273	-291
914.373	956
914.472	-340
914.572	264
914.671	-574
914.770	319
914.870	435
914.969	-50
915.068	-246
915.167	-2
915.267	298
915.366	-936
915.465	-1010
915.564	105
915.663	-74
915.763	-67
915.862	-221
915.961	364
916.060	-748
916.159	706
916.258	-249
916.357	11
916.456	-540
916.555	-205
916.654	-290
916.752	-240
916.851	-133
916.950	-70
917.049	-2
917.148	-307
917.247	-502
917.345	422
917.444	-577
917.543	307
917.642	-459
917.740	-192
917.839	-57
917.937	-12
918.036	193
918.135	-535
918.233	-110
918.332	-20
918.430	-664
918.529	-502
918.627	-421
918.726	353
918.824	-576
918.923	-111
919.021	-117
919.119	-763
919.218	-33
919.316	-519
919.414	-153
919.512	-345
919.611	-249
919.709	140
919.807	-202
919.905	-268
920.003	-423
920.102	526
920.200	-88
920.298	379
920.396	373
920.494	-416
920.592	-410
920.690	395
920.788	328
920.886	-154
920.984	339
921.082	-327
921.180	-167
921.277	-174
921.375	-583
921.473	199
921.571	-763
921.669	31
921.766	-767
921.864	432
921.962	-480
922.060	-418
922.157	-686
922.255	225
922.352	-677
922.450	427
922.548	-980
922.645	133
922.743	-192
922.840	211
922.938	-385
923.035	-59
923.133	-93
923.230	56
923.327	64
923.425	-226
923.522	-781
923.619	-457
923.717	-1066
923.814	87
923.911	-327
924.008	344
924.106	-724
924.203	-526
924.300	127
924.397	-80
924.494	-766
924.591	-240
924.688	-428
924.786	287
924.883	336
924.979	-16
925.077	-249
925.173	236
925.270	-117
925.367	-550
925.464	556
925.561	-104
925.658	-272
925.755	150
925.852	339
925.948	785
926.045	1413
926.142	1585
926.239	2328
926.335	2660
926.432	2696
926.529	2549
926.625	3609
926.722	2768
926.818	1011
926.915	502
927.011	-443
927.108	-667
927.204	-243
927.301	-755
927.397	-68
927.494	442
927.590	-343
927.687	-122
927.783	87
927.879	641
927.976	-1364
928.072	-392
928.168	-160
928.264	111
928.361	-362
928.457	-266
928.553	-324
928.649	114
928.745	-160
928.841	-233
928.937	-517
929.033	-278
929.129	116
929.225	-1095
929.321	-376
929.417	-85
929.513	-570
929.609	258
929.705	-381
929.801	389
929.897	-860
929.993	-399
930.089	-537
930.184	40
930.280	206
930.376	-626
930.471	-251
930.567	-209
930.663	-438
930.758	-163
930.854	-33
930.950	-80
931.045	-566
931.141	-317
931.236	-394
931.332	-235
931.427	-921
931.523	-628
931.618	-260
931.714	-473
931.809	-677
931.905	-228
932.000	-51
932.095	-1089
932.191	-377
932.286	193
932.381	-1156
932.476	-432
932.572	-592
932.667	158
932.762	-507
932.857	-661
932.952	-1057
933.047	-121
933.142	-416
933.237	21
933.332	-757
933.427	-284
933.522	-533
933.617	-1087
933.712	-522
933.807	409
933.902	-1004
933.997	-405
934.092	-217
934.187	-85
934.282	-1610
934.376	-1021
934.471	-702
934.566	212
934.661	-244
934.755	-315
934.850	-494
934.945	-378
935.039	-1038
935.134	-549
935.228	-448
935.323	-277
935.417	-893
935.512	-25
935.606	-379
935.701	-287
935.795	5
935.890	-655
935.984	-330
936.079	-412
936.173	-363
936.267	-390
936.362	-1534
936.456	-59
936.550	-500
936.644	-123
936.738	-1388
936.833	-94
936.927	-819
937.021	-273
937.115	-440
937.209	-692
937.303	19
937.397	-724
937.491	-1203
937.585	-202
937.679	-849
937.773	-437
937.867	-499
937.961	197
938.055	-1258
938.149	370
938.243	-287
938.337	-35
938.430	-383
938.524	1691
938.618	3195
938.712	2812
938.805	544
938.899	357
938.993	-811
939.086	1190
939.180	4601
939.274	6486
939.367	1611
939.461	181
939.554	-318
939.648	-54
939.741	-264
939.835	-241
939.928	-744
940.022	-509
940.115	-420
940.208	-186
940.302	-927
940.395	-224
940.488	-1470
940.582	-17
940.675	-847
940.768	-676
940.861	-168
940.954	451
941.048	-528
941.141	99
941.234	61
941.327	2306
941.420	2510
941.513	605
941.606	-707
941.699	118
941.792	-762
941.885	-604
941.978	-743
942.071	-264
942.164	-584
942.257	-477
942.349	-1003
942.442	-923
942.535	-1169
942.628	-607
942.721	-210
942.813	-941
942.906	-324
942.999	-809
943.091	-1589
943.184	-164
943.277	-847
943.369	-341
943.462	-982
943.554	-251
943.647	-1122
943.739	-351
943.832	-96
943.924	-418
944.017	-282
944.109	-1049
944.201	-133
944.294	-733
944.386	-296
944.478	-518
944.571	-869
944.663	-217
944.755	-732
944.847	-675
944.940	-630
945.032	-838
945.124	-1391
945.216	-423
945.308	-773
945.400	9
945.492	-341
945.584	113
945.676	-880
945.768	70
945.860	-670
945.952	-477
946.044	756
946.136	-300
946.228	-1328
946.320	-892
946.412	-1168
946.503	-1352
946.595	399
946.687	-530
946.779	-967
946.870	-167
946.962	-1210
947.054	-969
947.145	-441
947.237	-542
947.329	-226
947.420	-1031
947.512	-1335
947.603	-431
947.695	-1250
947.786	-1186
947.878	-1620
947.969	-478
948.061	-1065
948.152	-573
948.243	-820
948.335	-749
948.426	-843
948.517	-457
948.609	-736
948.700	-609
948.791	-1258
948.882	-711
948.973	-557
949.065	-1615
949.156	-849
949.247	-1481
949.338	-394
949.429	-1269
949.520	-364
949.611	-986
949.702	-1020
949.793	56
949.884	-1086
949.975	247
950.066	-1320
950.157	-1442
950.247	-1523
950.338	-507
950.429	-557
950.520	-312
950.611	-1026
950.701	-749
950.792	-850
950.883	344
950.973	-865
951.064	-662
951.155	-1231
951.245	-343
951.336	-320
951.427	-655
951.517	-844
951.608	-917
951.698	-820
951.788	-1197
951.879	-785
951.969	-1352
952.060	-543
952.150	-749
952.240	-441
952.331	-1686
952.421	-492
952.511	-624
952.602	-594
952.692	-849
952.782	-771
952.872	-1003
952.962	-1213
953.052	-553
953.143	-956
953.233	-393
953.323	-289
953.413	-1103
953.503	-578
953.593	-384
953.683	-710
953.773	-1002
953.863	-339
953.953	-1517
954.042	-663
954.132	-1059
954.222	-610
954.312	258
954.402	-1338
954.492	-90
954.581	-161
954.671	-520
954.761	-1116
954.850	-526
954.940	-1199
955.030	-423
955.119	-294
955.209	-53
955.298	-571
955.388	-612
955.477	-600
955.567	-786
955.656	-860
955.746	-501
955.835	-1146
955.925	-988
956.014	-856
956.103	-1161
956.193	-514
956.282	42
956.371	-748
956.461	-1709
956.550	-482
956.639	-241
956.728	-849
956.817	-1314
956.906	-878
956.995	-962
957.085	-1015
957.174	-475
957.263	-1277
957.352	-483
957.441	-1016
957.530	188
957.619	-601
957.708	-664
957.796	-1091
957.885	-29
957.974	-992
958.063	-654
958.152	-1409
958.241	-697
958.329	-698
958.418	-966
958.507	-1587
958.596	-562
958.684	-1789
958.773	-197
958.861	-890
958.950	-338
959.039	-366
959.127	-734
959.216	-262
959.304	-523
959.393	-228
959.481	-510
959.570	-73
959.658	-71
959.746	-872
959.835	-419
959.923	935
960.011	520
960.100	37
960.188	-420
960.276	-971
960.365	-754
960.453	-555
960.541	-413
960.629	-916
960.717	-345
960.805	-1301
960.893	-732
960.981	-1616
961.069	-335
961.158	-209
961.245	-438
961.333	-631
961.421	-1413
961.509	-991
961.597	-492
961.685	-1441
961.773	-833
961.861	-1695
961.949	123
962.036	-1667
962.124	-880
962.212	-852
962.299	-214
962.387	-1418
962.475	-673
962.562	-2005
962.650	-231
962.738	-1371
962.825	-1081
962.913	-916
963.000	-1293
963.088	-1530
963.175	61
963.263	-489
963.350	-717
963.438	-332
963.525	-648
963.612	785
963.700	3351
963.787	8542
963.874	5291
963.962	39
964.049	-596
964.136	-484
964.223	-444
964.310	-1165
964.398	-1538
964.485	-726
964.572	-158
964.659	135
964.746	643
964.833	-652
964.920	-139
965.007	-758
965.094	-388
965.181	-535
965.268	-1344
965.355	-936
965.441	-928
965.528	-1941
965.615	468
965.702	-1227
965.789	-1315
965.875	-915
965.962	-659
966.049	-936
966.136	-1072
966.222	-988
966.309	-343
966.395	-811
966.482	30
966.569	-974
966.655	-1798
966.742	-359
966.828	371
966.915	-390
967.001	-1043
967.087	-269
967.174	43
967.260	463
967.347	194
967.433	1904
967.519	5603
967.605	1778
967.692	-35
967.778	-1178
967.864	-901
967.950	-386
968.036	-1188
968.123	-860
968.209	-802
968.295	-1348
968.381	145
968.467	-1208
968.553	-1538
968.639	256
968.725	-712
968.811	-613
968.897	423
968.983	-427
969.069	-1112
969.154	-21
969.240	10
969.326	-680
969.412	-219
969.497	-1161
969.583	-1710
969.669	64
969.755	-540
969.840	-1696
969.926	-615
970.012	-1690
970.097	-411
970.183	-1219
970.268	-1064
970.354	257
970.439	407
970.525	2628
970.610	1269
970.696	104
970.781	-1026
970.866	-820
970.952	-218
971.037	-1325
971.122	-604
971.208	-867
971.293	-711
971.378	-1208
971.463	-585
971.549	-870
971.634	-162
971.719	-1219
971.804	-872
971.889	-7
971.974	-1436
972.059	-1189
972.144	-1477
972.229	-439
972.314	-695
972.399	-1475
972.484	-475
972.569	-954
972.654	-1557
972.739	846
972.824	1897
972.908	-808
972.993	-671
973.078	-940
973.163	-1119
973.247	-1269
973.332	-1629
973.417	-314
973.501	-1377
973.586	-463
973.671	-661
973.755	-1184
973.840	-386
973.924	-644
974.009	-435
974.093	-1486
974.178	-7
974.262	-253
974.346	1511
974.431	-358
974.515	-1117
974.600	-1602
974.684	-884
974.768	-1690
974.852	62
974.937	-1020
975.021	-618
975.105	-1665
975.189	-984
975.273	-570
975.358	-1311
975.442	-1445
975.526	-580
975.610	-2294
975.694	-1124
975.778	-324
975.862	-876
975.946	-2893
976.030	-174
976.114	-1103
976.198	-1044
976.281	-2176
976.365	-581
976.449	-434
976.533	-95
976.617	-1802
976.700	-1267
976.784	-1021
976.868	-379
976.951	-106
977.035	-1153
977.119	-1053
977.202	-1013
977.286	-1150
977.369	-993
977.453	-1294
977.536	-1530
977.620	-1725
977.703	-417
977.787	-1600
977.870	-673
977.953	-1000
978.037	-1644
978.120	77
978.203	493
978.287	663
978.370	-280
978.453	-1442
978.536	-408
978.620	-583
978.703	-558
978.786	-588
978.869	-871
978.952	-1981
979.035	-36
979.118	-480
979.201	-1039
979.284	-1172
979.367	-1717
979.450	-511
979.533	-1176
979.616	-1767
979.699	-1251
979.782	-1516
979.865	-621
979.948	-967
980.030	-1370
980.113	-916
980.196	-1824
980.279	-846
980.361	-1444
980.444	-1400
980.526	-893
980.609	-1115
980.692	-1105
980.774	-1226
980.857	-1669
980.939	-634
981.022	-1369
981.104	-1557
981.187	-1586
981.269	-851
981.352	-1521
981.434	-1481
981.516	-1257
981.599	-449
981.681	-993
981.763	-1751
981.846	-661
981.928	-2444
982.010	-1112
982.092	-1941
982.174	-533
982.256	-1275
982.339	-866
982.421	-1232
982.503	-844
982.585	-2006
982.667	-813
982.749	-1334
982.831	-974
982.913	-2009
982.995	-177
983.077	-1179
983.158	-339
983.240	-2574
983.322	-929
983.404	-1693
983.486	-2137
983.568	-1633
983.649	-277
983.731	-228
983.813	-1050
983.894	-1527
983.976	-1650
984.058	-1196
984.139	-1234
984.221	-2256
984.302	-1004
984.384	-1877
984.465	-2088
984.547	-1259
984.628	-1651
984.710	-165
984.791	-1782
984.872	-1478
984.954	-1103
985.035	-2528
985.116	-1593
985.198	-2375
985.279	-470
985.360	-1757
985.441	-1377
985.522	-884
985.604	-2006
985.685	-1549
985.766	-703
985.847	-295
985.928	-1232
986.009	-1249
986.090	-763
986.171	-1162
986.252	-1839
986.333	-1428
986.414	-1319
986.495	-1048
986.576	-884
986.656	-1382
986.737	-1661
986.818	-789
986.899	-1256
986.980	-1409
987.060	-1349
987.141	-1465
987.222	-1367
987.302	-651
987.383	-1256
987.464	-1329
987.544	-1034
987.625	-1304
987.705	-938
987.786	-817
987.866	-1371
987.947	-1789
988.027	-667
988.108	-1862
988.188	-686
988.268	-1244
988.349	-821
988.429	-1400
988.509	-1132
988.589	-1532
988.670	-2599
988.750	-303
988.830	-1177
988.910	-1910
988.990	-1179
989.070	-1081
989.151	-1514
989.231	-1773
989.311	-636
989.391	-1755
989.471	-2140
989.551	-2374
989.631	-2516
989.711	-1216
989.791	-889
989.870	-2116
989.950	-638
990.030	-1712
990.110	-1184
990.190	-1965
990.269	-1769
990.349	-1682
990.429	-1238
990.509	-296
990.588	-1708
990.668	-1368
990.747	-1345
990.827	-1465
990.907	-1055
990.986	-1053
991.066	-1736
991.145	-1870
991.225	-374
991.304	-2425
991.383	-1240
991.463	-1627
991.542	-1376
991.622	-2003
991.701	-1813
991.780	-1328
991.859	-805
991.939	-1418
992.018	-1416
992.097	-2531
992.176	-1260
992.256	-1342
992.335	-1917
992.414	-997
992.493	-1562
992.572	-1224
992.651	-746
992.730	-1525
992.809	-1436
992.888	-1672
992.967	-1654
993.046	-1976
993.125	-1903
993.203	-2236
993.282	-580
993.361	-1606
993.440	-379
993.519	-1991
993.597	-643
993.676	-2702
993.755	-899
993.834	-2179
993.912	-2037
993.991	-483
994.069	-1807
994.148	-1436
994.226	-815
994.305	-1490
994.384	-2324
994.462	-1892
994.540	-1681
994.619	-1769
994.697	-770
994.776	-1243
994.854	-950
994.932	-2041
995.011	-1183
995.089	-2308
995.167	-1438
995.245	-1296
995.324	-2196
995.402	-1354
995.480	-1763
995.558	-1711
995.636	-2306
995.714	-1927
995.792	-301
995.870	-1764
995.948	-823
996.026	-1516
996.104	-2003
996.182	-884
996.260	-1334
996.338	-1050
996.416	-1663
996.494	-1591
996.572	-1030
996.649	-1600
996.727	-2043
996.805	-875
996.883	-1900
996.960	-806
997.038	-1507
997.116	-2079
997.193	-1666
997.271	-934
997.348	-923
997.426	-941
997.504	-2137
997.581	-1191
997.658	-1091
997.736	-2096
997.813	-1518
997.891	-998
997.968	-1539
998.046	-1340
998.123	-696
998.200	-1108
998.277	-2335
998.355	-1610
998.432	-2083
998.509	-2140
998.586	-1031
998.663	-1468
998.741	-1203
998.818	-2038
998.895	-1193
998.972	-1184
999.049	-1465
999.126	-2242
999.203	-736
999.280	-1863
999.357	-1099
999.434	-1328
999.511	-1412
999.587	-1198
999.664	-1904
999.741	-1499
999.818	-1035
999.895	-2484
999.971	-2582
1000.048	-1045
1000.125	340
1000.202	-1936
1000.278	-1642
1000.355	-1366
1000.431	-1308
1000.508	-2358
1000.584	-756
1000.661	-1910
1000.738	-2108
1000.814	-1758
1000.890	-2287
1000.967	-2145
1001.043	-1904
1001.120	-1773
1001.196	-1502
1001.272	-1882
1001.349	-1005
1001.425	-1210
1001.501	-550
1001.577	-2711
1001.654	-1776
1001.730	-1943
1001.806	-1507
1001.882	-1769
1001.958	-826
1002.034	-961
1002.110	-741
1002.186	-2347
1002.262	-1229
1002.338	-2259
1002.414	-1997
1002.490	-1099
1002.566	-1654
1002.642	-1690
1002.718	-747
1002.794	-2175
1002.870	-1628
1002.945	-2125
1003.021	-2047
1003.097	-1993
1003.173	-1447
1003.248	-1601
1003.324	-1437
1003.400	-1848
1003.475	-1751
1003.551	-1618
1003.626	-706
1003.702	-1657
1003.777	-1609
1003.853	-1952
1003.928	-2401
1004.004	-1497
1004.079	-527
1004.155	-1327
1004.230	-2264
1004.305	-1700
1004.381	-2039
1004.456	-2196
1004.531	-1519
1004.607	-1525
1004.682	-1909
1004.757	-2246
1004.832	-1741
1004.907	-2829
1004.982	-1873
1005.057	-972
1005.133	-2439
1005.208	-1792
1005.283	-1575
1005.358	-1735
1005.433	-1924
1005.508	-1579
1005.583	-2415
1005.657	-2169
1005.732	-1546
1005.807	-2183
1005.882	-1758
1005.957	-1898
1006.032	-1873
1006.106	-1967
1006.181	-2068
1006.256	-2035
1006.331	-1918
1006.405	-2158
1006.480	-1553
1006.554	-1955
1006.629	-2130
1006.704	-2254
1006.778	-1775
1006.853	-2138
1006.927	-1562
1007.002	-1963
1007.076	-2177
1007.150	-2049
1007.225	-931
1007.299	-1532
1007.373	-2444
1007.448	-1807
1007.522	-1380
1007.596	-1329
1007.671	-2773
1007.745	-1568
1007.819	-2343
1007.893	-2097
1007.967	-848
1008.041	-2453
1008.115	-1507
1008.190	-3152
1008.264	-1707
1008.338	-2566
1008.412	-2851
1008.486	-2423
1008.560	-1691
1008.633	-2343
1008.707	-2110
1008.781	-1934
1008.855	-1911
1008.929	-2536
1009.003	-1250
1009.076	-3043
1009.150	-1533
1009.224	-1288
1009.298	-1279
1009.371	-2561
1009.445	-979
1009.519	-1917
1009.592	-1571
1009.666	-2971
1009.739	-1467
1009.813	-3183
1009.886	-1225
1009.960	-2758
1010.033	-1748
1010.107	-1769
1010.180	-1782
1010.253	-947
1010.327	-2578
1010.400	-1266
1010.473	-2477
1010.547	-1325
1010.620	-1639
1010.693	-1665
1010.766	-860
1010.840	-2057
1010.913	-1947
1010.986	-1569
1011.059	-1440
1011.132	-1485
1011.205	-709
1011.278	-1507
1011.351	-1049
1011.424	-1091
1011.497	-2353
1011.570	-2330
1011.643	-1630
1011.716	-2725
1011.789	-2133
1011.862	-1350
1011.934	-1438
1012.007	-2713
1012.080	-875
1012.153	-2252
1012.225	-1294
1012.298	-2213
1012.371	-1954
1012.443	-2187
1012.516	-2423
1012.588	-2126
1012.661	-2216
1012.733	-2409
1012.806	-1485
1012.879	-2522
1012.951	-2307
1013.023	-1937
1013.096	-1199
1013.168	-2690
1013.241	-1428
1013.313	-1687
1013.385	-2006
1013.458	-2785
1013.530	-1494
1013.602	-2679
1013.674	-1416
1013.746	-2479
1013.819	-2064
1013.891	-2357
1013.963	-2183
1014.035	-2128
1014.107	-2487
1014.179	-1527
1014.251	-2068
1014.323	-1937
1014.395	-2506
1014.467	-1311
1014.539	-1013
1014.611	-3251
1014.683	-1668
1014.754	-2258
1014.826	-2598
1014.898	-2037
1014.970	-2397
1015.042	-1810
1015.113	-1298
1015.185	-1786
1015.257	-2652
1015.328	-1706
1015.400	-1578
1015.471	-2860
1015.543	-2587
1015.615	-1873
1015.686	-1937
1015.757	-2559
1015.829	-1671
1015.901	-1887
1015.972	-2252
1016.043	-2466
1016.115	-1925
1016.186	-2092
1016.257	-2298
1016.328	-1982
1016.400	-1218
1016.471	-2796
1016.542	-1770
1016.613	-1907
1016.685	-2014
1016.756	-1394
1016.827	-1681
1016.898	-2749
1016.969	-1857
1017.040	-1825
1017.111	-2430
1017.182	-2368
1017.253	-1140
1017.324	-2815
1017.395	-1641
1017.466	-1909
1017.537	-2288
1017.608	-1660
1017.678	-1505
1017.749	-2649
1017.820	-715
1017.891	-2812
1017.961	-1989
1018.032	-2387
1018.103	-1655
1018.173	-2718
1018.244	-2509
1018.315	-3209
1018.385	-2173
1018.456	-1674
1018.526	-2398
1018.597	-2425
1018.667	-2422
1018.738	-2346
1018.808	-2514
1018.878	-3078
1018.949	-1968
1019.019	-2166
1019.089	-1672
1019.160	-1916
1019.230	-3105
1019.300	-1582
1019.371	-2824
1019.441	-1166
1019.511	-2237
1019.581	-2885
1019.651	-2048
1019.721	-2062
1019.791	-2153
1019.861	-2953
1019.931	-1522
1020.001	-2346
1020.071	-1530
1020.141	-2045
1020.211	-2131
1020.281	-2479
1020.351	-3202
1020.421	-1951
1020.491	-2363
1020.560	-3627
1020.630	-1905
1020.700	-2051
1020.770	-2510
1020.839	-2427
1020.909	-2295
1020.979	-2762
1021.048	-1956
1021.118	-2036
1021.187	-2541
1021.257	-2650
1021.326	-2349
1021.396	-2362
1021.465	-1897
1021.535	-2200
1021.604	-1888
1021.674	-1096
1021.743	-2048
1021.812	-2602
1021.882	-2070
1021.951	-2055
1022.020	-1937
1022.089	-1658
1022.159	-2227
1022.228	-2147
1022.297	-1484
1022.366	-1849
1022.435	-1599
1022.504	-2733
1022.573	-2210
1022.642	-2182
1022.711	-2388
1022.781	-2013
1022.849	-1962
1022.918	-2342
1022.987	-2302
1023.056	-1994
1023.125	-1865
1023.194	-1610
1023.263	-1109
1023.331	-1451
1023.400	-2747
1023.469	-2592
1023.538	-2366
1023.606	-2185
1023.675	-1801
1023.744	-2601
1023.812	-2327
1023.881	-1553
1023.949	-1991
1024.018	-2906
1024.086	-2332
1024.155	-2352
1024.223	-2466
1024.292	-1760
1024.360	-1633
1024.429	-1973
1024.497	-1790
1024.565	-997
1024.634	-1512
1024.702	-2099
1024.770	-2656
1024.838	-1893
1024.907	-2042
1024.975	-1944
1025.043	-2348
1025.111	-3583
1025.179	-1744
1025.247	-2346
1025.315	-1667
1025.383	-2427
1025.451	-2155
1025.519	-2768
1025.587	-1522
1025.655	-2124
1025.723	-2769
1025.791	-1505
1025.859	-2332
1025.927	-1464
1025.995	-2131
1026.062	-1807
1026.130	-1406
1026.198	-2078
1026.266	-2096
1026.333	-1394
1026.401	-1016
1026.469	-2175
1026.536	-2710
1026.604	-1956
1026.671	-2451
1026.739	-2163
1026.806	-1457
1026.874	-2514
1026.941	-1498
1027.009	-1848
1027.076	-2416
1027.144	-1924
1027.211	-2004
1027.278	-1952
1027.345	-1345
1027.413	-1842
1027.480	-1957
1027.547	-2000
1027.614	-2793
1027.682	-2256
1027.749	-2148
1027.816	-2109
1027.883	-1545
1027.950	-2644
1028.017	-1657
1028.084	-1823
1028.151	-2385
1028.218	-2596
1028.285	-1460
1028.352	-2518
1028.419	-2356
1028.486	-2244
1028.553	-2613
1028.619	-2403
1028.686	-1531
1028.753	-2305
1028.820	-1632
1028.886	-2157
1028.953	-1106
1029.020	-2292
1029.086	-1710
1029.153	-2756
1029.220	-2055
1029.286	-1845
1029.353	-1232
1029.419	-2021
1029.486	-2177
1029.552	-2551
1029.619	-1540
1029.685	-2314
1029.751	-1984
1029.818	-2528
1029.884	-2043
1029.951	-1571
1030.017	-1844
1030.083	-2024
1030.149	-2014
1030.216	-1345
1030.282	-1970
1030.348	-2119
1030.414	-2538
1030.480	-2067
1030.546	-2722
1030.612	-2031
1030.678	-2120
1030.744	-2282
1030.810	-2625
1030.876	-2255
1030.942	-1981
1031.008	-2432
1031.074	-2260
1031.140	-2420
1031.206	-1478
1031.272	-3343
1031.337	-1426
1031.403	-2956
1031.469	-1963
1031.534	-2686
1031.600	-1514
1031.666	-2716
1031.731	-1609
1031.797	-2486
1031.863	-2598
1031.928	-1860
1031.994	-1130
1032.059	-1906
1032.125	-2270
1032.190	-2303
1032.256	-1671
1032.321	-2186
1032.386	-2208
1032.452	-2770
1032.517	-2160
1032.582	-3016
1032.647	-2433
1032.713	-2770
1032.778	-1619
1032.843	-1861
1032.908	-2047
1032.974	-1891
1033.039	-2309
1033.104	-2058
1033.169	-1790
1033.234	-2139
1033.299	-1653
1033.364	-2156
1033.429	-2479
1033.494	-2197
1033.559	-1833
1033.624	-2396
1033.688	-2612
1033.753	-2113
1033.818	-1776
1033.883	-2172
1033.948	-2107
1034.013	-2225
1034.077	-1788
1034.142	-2069
1034.207	-1602
1034.271	-2731
1034.336	-352
1034.400	-1843
1034.465	-2247
1034.530	-1978
1034.594	-2280
1034.658	-1923
1034.723	-1938
1034.787	-2341
1034.852	-1759
1034.916	-2565
1034.981	-2470
1035.045	-2074
1035.109	-2106
1035.173	-2199
1035.238	-1693
1035.302	-2185
1035.366	-1631
1035.430	-1826
1035.495	-2867
1035.559	-1969
1035.623	-2672
1035.687	-2980
1035.751	-1918
1035.815	-2166
1035.879	-2095
1035.943	-2013
1036.007	-1886
1036.071	-2111
1036.135	-1561
1036.198	-2056
1036.262	-2425
1036.326	-2016
1036.390	-1696
1036.454	-2132
1036.517	-1990
1036.581	-1772
1036.645	-1960
1036.709	-2104
1036.772	-2341
1036.836	-2462
1036.900	-2261
1036.963	-2573
1037.026	-1345
1037.090	-2008
1037.154	-2632
1037.217	-2393
1037.280	-2630
1037.344	-2284
1037.407	-2153
1037.471	-2721
1037.534	-2969
1037.597	-1819
1037.661	-2953
1037.724	-2252
1037.787	-2575
1037.850	-2896
1037.913	-2737
1037.977	-1463
1038.040	-2643
1038.103	-2395
1038.166	-3116
1038.229	-1967
1038.292	-1986
1038.355	-3115
1038.418	-2060
1038.481	-2076
1038.544	-1740
1038.607	-2095
1038.670	-1551
1038.732	-2283
1038.795	-2797
1038.858	-3054
1038.921	-1920
1038.984	-2165
1039.046	-2229
1039.109	-2582
1039.172	-1707
1039.234	-2388
1039.297	-2334
1039.360	-2163
1039.422	-2038
1039.485	-2457
1039.547	-2540
1039.610	-2395
1039.672	-1768
1039.734	-1904
1039.797	-2186
1039.859	-1897
1039.922	-2778
1039.984	-2196
1040.046	-1650
1040.109	-2994
1040.171	-2073
1040.233	-2520
1040.295	-2362
1040.358	-2517
1040.420	-2740
1040.482	-2485
1040.544	-1965
1040.606	-2532
1040.668	-2227
1040.730	-2617
1040.792	-2111
1040.854	-2880
1040.916	-2330
1040.978	-1992
1041.040	-2248
1041.102	-2589
1041.164	-1650
1041.225	-3072
1041.287	-2547
1041.349	-2591
1041.411	-2420
1041.472	-1981
1041.534	-2244
1041.596	-2983
1041.657	-2649
1041.719	-2483
1041.781	-2505
1041.842	-2384
1041.904	-2051
1041.965	-2375
1042.027	-2027
1042.088	-2323
1042.150	-2108
1042.211	-2210
1042.272	-2150
1042.334	-2724
1042.395	-2099
1042.456	-2480
1042.518	-2313
1042.579	-2347
1042.640	-2267
1042.701	-2958
1042.763	-2467
1042.824	-2345
1042.885	-2880
1042.946	-2368
1043.007	-2519
1043.068	-1972
1043.129	-475
1043.190	-2982
1043.251	-1765
1043.312	-2505
1043.373	-2198
1043.434	-1929
1043.495	-2424
1043.556	-2306
1043.616	-1354
1043.677	-2937
1043.738	-2896
1043.799	-2361
1043.859	-2002
1043.920	-2261
1043.981	-2134
1044.041	-2530
1044.102	-2077
1044.162	-1827
1044.223	-2603
1044.284	-2814
1044.344	-2697
1044.405	-2467
1044.465	-2496
1044.525	-1508
1044.586	-2288
1044.646	-2061
1044.707	-1361
1044.767	-2519
1044.827	-1530
1044.887	-1963
1044.948	-1724
1045.008	-2272
1045.068	-2643
1045.128	-1828
1045.188	-2294
1045.249	-1404
1045.309	-1880
1045.369	-1931
1045.429	-1931
1045.489	-2608
1045.549	-1782
1045.609	-1466
1045.669	-2147
1045.729	-2245
1045.789	-2235
1045.848	-2432
1045.908	-2358
1045.968	-2130
1046.028	-1644
1046.088	-1758
1046.147	-1086
1046.207	-1473
1046.267	-2080
1046.326	-1539
1046.386	-1739
1046.446	-1329
1046.505	-1073
1046.565	-1482
1046.624	-951
1046.684	-1810
1046.743	-1090
1046.803	-337
1046.862	-310
1046.922	0
