'Start Wavelength	183.907
'End Wavelength	1046.922
'Gate Delay	5.000
'Gate Width (ms)	1.050
'Laser Output Level	0.000
'X Position	0.000
'Y Position	0.000
'Z Position	0.000
'Grid Point Number	1.000
'Shot Number	100.000
183.907	624.000
183.977	20.000
184.047	133
184.116	-11
184.186	-161
184.256	-327
184.325	-205
184.395	-929
184.465	952
184.534	71
184.604	418
184.674	36
184.743	86
184.813	115
184.883	-305
184.952	-338
185.022	807
185.092	110
185.161	1103
185.231	1072
185.301	282
185.370	481
185.440	-181
185.509	1002
185.579	-71
185.649	441
185.718	170
185.788	488
185.857	-1
185.927	-230
185.996	580
186.066	470
186.136	862
186.205	232
186.275	30
186.344	-45
186.414	216
186.483	408
186.553	857
186.622	1673
186.692	1200
186.761	193
186.831	247
186.900	48
186.970	476
187.039	864
187.109	1831
187.178	520
187.248	357
187.317	1375
187.387	519
187.456	690
187.526	1539
187.595	807
187.664	607
187.734	1340
187.803	1299
187.873	797
187.942	2003
188.012	1062
188.081	943
188.150	633
188.220	789
188.289	1808
188.358	977
188.428	670
188.497	188
188.567	1137
188.636	1322
188.705	1300
188.775	446
188.844	58
188.913	1952
188.983	509
189.052	465
189.121	1356
189.191	816
189.260	1241
189.329	1561
189.399	1488
189.468	946
189.537	235
189.606	631
189.676	2234
189.745	1174
189.814	1013
189.883	1319
189.953	1241
190.022	1429
190.091	5128
190.161	7261
190.230	3122
190.299	1098
190.368	1456
190.437	1049
190.507	1245
190.576	878
190.645	1116
190.714	418
190.783	516
190.853	816
190.922	1442
190.991	1842
191.060	1520
191.129	578
191.198	1150
191.268	772
191.337	1414
191.406	1864
191.475	1183
191.544	281
191.613	1759
191.682	523
191.752	761
191.821	515
191.890	1757
191.959	1572
192.028	83
192.097	843
192.166	1047
192.235	360
192.304	950
192.373	1337
192.442	326
192.511	823
192.580	992
192.650	269
192.719	800
192.788	1409
192.857	744
192.926	667
192.995	1611
193.064	2468
193.133	2859
193.202	4413
193.271	3360
193.340	3219
193.409	3542
193.478	3840
193.547	4110
193.615	6605
193.684	6585
193.753	3764
193.822	2851
193.891	1797
193.960	2308
194.029	1576
194.098	1797
194.167	910
194.236	1409
194.305	630
194.374	817
194.443	1546
194.512	1360
194.580	1433
194.649	2902
194.718	2529
194.787	1584
194.856	1185
194.925	2005
194.994	2911
195.062	1591
195.131	1900
195.200	2823
195.269	3667
195.338	2334
195.407	1851
195.475	1378
195.544	2810
195.613	2436
195.682	2119
195.751	3255
195.819	1962
195.888	2215
195.957	2952
196.026	2974
196.094	3437
196.163	3276
196.232	3530
196.301	3133
196.369	2760
196.438	2474
196.507	1992
196.576	1574
196.644	1670
196.713	1836
196.782	1583
196.850	2094
196.919	1431
196.988	1519
197.056	941
197.125	1553
197.194	1816
197.262	1587
197.331	1321
197.400	1886
197.468	616
197.537	1774
197.606	1861
197.674	3336
197.743	8393
197.812	3864
197.880	7251
197.949	5530
198.017	5878
198.086	4700
198.155	3089
198.223	3718
198.292	6926
198.360	3826
198.429	2286
198.497	2716
198.566	4650
198.635	7970
198.703	3312
198.772	4054
198.840	7999
198.909	9680
198.977	3090
199.046	2479
199.114	2766
199.183	3706
199.251	1828
199.320	1547
199.388	1388
199.457	2157
199.525	2145
199.594	2457
199.662	2356
199.731	2026
199.799	2673
199.867	3067
199.936	2455
200.004	2038
200.073	2263
200.141	2086
200.210	1677
200.278	2468
200.346	1850
200.415	3124
200.483	3447
200.552	2710
200.620	2073
200.688	1466
200.757	2540
200.825	2427
200.893	1579
200.962	2007
201.030	1735
201.098	1901
201.167	2192
201.235	2679
201.303	3117
201.372	3611
201.440	2972
201.508	3631
201.577	3211
201.645	2949
201.713	2070
201.781	2815
201.850	4777
201.918	2675
201.986	2738
202.055	2272
202.123	2176
202.191	2283
202.259	2261
202.327	1828
202.396	2030
202.464	3253
202.532	5187
202.600	11182
202.669	8658
202.737	3178
202.805	2933
202.873	2915
202.941	3372
203.009	2526
203.078	2065
203.146	2511
203.214	1790
203.282	1688
203.350	2521
203.418	2267
203.487	3340
203.555	2657
203.623	2646
203.691	2905
203.759	1286
203.827	2394
203.895	2134
203.963	2948
204.031	2536
204.099	3560
204.168	2364
204.236	2839
204.304	3528
204.372	2835
204.440	2195
204.508	2455
204.576	2031
204.644	2227
204.712	2173
204.780	2095
204.848	2809
204.916	1799
204.984	2069
205.052	2904
205.120	3232
205.188	2703
205.256	2218
205.324	2092
205.392	2982
205.460	2872
205.528	3867
205.596	3240
205.664	2845
205.732	3487
205.799	9583
205.867	16155
205.935	5613
206.003	4273
206.071	2939
206.139	3946
206.207	2705
206.275	3060
206.343	2249
206.411	2928
206.478	3511
206.546	2929
206.614	3656
206.682	2868
206.750	3125
206.818	4044
206.885	4630
206.953	1892
207.021	3786
207.089	3012
207.157	2382
207.225	2914
207.292	3440
207.360	3340
207.428	3395
207.496	2512
207.563	3475
207.631	3337
207.699	2793
207.767	2995
207.834	2800
207.902	4035
207.970	3472
208.038	3180
208.105	3295
208.173	3911
208.241	5791
208.309	5236
208.376	4929
208.444	8471
208.512	5377
208.579	2986
208.647	4083
208.715	5540
208.782	3927
208.850	3788
208.918	4258
208.985	3462
209.053	3636
209.120	3662
209.188	3012
209.256	3956
209.323	3074
209.391	5644
209.459	4948
209.526	3658
209.594	2881
209.661	3851
209.729	3286
209.796	4561
209.864	4133
209.932	2850
209.999	5182
210.067	5267
210.134	3937
210.202	4251
210.269	6336
210.337	6461
210.404	4365
210.472	3899
210.539	4107
210.607	4460
210.674	5795
210.742	4954
210.809	4011
210.877	5182
210.944	5155
211.012	4768
211.079	6562
211.146	4319
211.214	4943
211.281	6154
211.349	6655
211.416	5692
211.484	5210
211.551	4762
211.618	4866
211.686	4909
211.753	4046
211.821	4474
211.888	3347
211.955	4461
212.023	4341
212.090	5463
212.157	4861
212.225	5359
212.292	10890
212.359	18619
212.427	41172
212.494	21941
212.561	8989
212.629	6164
212.696	5590
212.763	5478
212.831	4283
212.898	5615
212.965	4631
213.032	5081
213.100	5099
213.167	5577
213.234	6237
213.301	5118
213.369	5651
213.436	4973
213.503	4152
213.570	5614
213.638	6241
213.705	5324
213.772	4102
213.839	5168
213.906	7050
213.973	6167
214.041	4441
214.108	5460
214.175	5572
214.242	4143
214.309	5382
214.376	5609
214.444	5124
214.511	6952
214.578	6407
214.645	5878
214.712	5817
214.779	5745
214.846	5917
214.913	7494
214.980	7469
215.048	7699
215.115	7943
215.182	7262
215.249	6441
215.316	5371
215.383	5833
215.450	5639
215.517	4980
215.584	4638
215.651	4354
215.718	4808
215.785	6791
215.852	5899
215.919	6346
215.986	6616
216.053	4957
216.120	4520
216.187	5894
216.254	6054
216.321	4938
216.388	6847
216.455	7059
216.522	6264
216.589	7276
216.656	11693
216.722	12319
216.789	8436
216.856	8788
216.923	8484
216.990	7810
217.057	7447
217.124	10062
217.191	8744
217.258	11200
217.324	13029
217.391	12687
217.458	9821
217.525	7945
217.592	7460
217.659	6091
217.725	7541
217.792	10061
217.859	9735
217.926	5246
217.993	4796
218.059	5210
218.126	4696
218.193	4122
218.260	4272
218.327	3520
218.393	5023
218.460	3961
218.527	3293
218.594	5359
218.660	9562
218.727	10692
218.794	4435
218.860	4078
218.927	4337
218.994	2841
219.061	3999
219.127	5917
219.194	8518
219.261	4376
219.327	3124
219.394	4540
219.461	2149
219.527	3450
219.594	7424
219.661	4975
219.727	3190
219.794	4767
219.860	3897
219.927	4986
219.994	7287
220.060	13511
220.127	9959
220.193	7488
220.260	6194
220.326	10799
220.393	15117
220.460	19839
220.526	14455
220.593	8781
220.659	10207
220.726	10784
220.792	22241
220.859	21203
220.925	25911
220.992	34517
221.058	31862
221.125	31265
221.191	24130
221.258	11086
221.324	9104
221.391	7999
221.457	6498
221.524	6305
221.590	8233
221.657	26444
221.723	20401
221.789	17295
221.856	17045
221.922	9326
221.989	6774
222.055	5573
222.121	3392
222.188	7340
222.254	5318
222.321	4101
222.387	3401
222.453	3767
222.520	3483
222.586	3703
222.652	4065
222.719	3817
222.785	4355
222.851	3492
222.918	3538
222.984	4362
223.050	3384
223.116	4221
223.183	3968
223.249	2969
223.315	2507
223.382	3440
223.448	3339
223.514	2467
223.580	2848
223.647	2687
223.713	2871
223.779	3460
223.845	3183
223.911	3440
223.978	1944
224.044	3291
224.110	3052
224.176	3123
224.242	3088
224.309	2058
224.375	2967
224.441	2892
224.507	2498
224.573	2192
224.639	3196
224.705	2662
224.772	2562
224.838	2345
224.904	4710
224.970	3013
225.036	4052
225.102	4055
225.168	3400
225.234	3329
225.300	4270
225.366	4078
225.432	2986
225.499	3509
225.565	4404
225.631	3904
225.697	4279
225.763	5013
225.829	6164
225.895	6833
225.961	11352
226.027	10532
226.093	8210
226.159	9287
226.225	14992
226.291	33098
226.357	54802
226.423	29340
226.489	17777
226.554	11192
226.620	10173
226.686	13588
226.752	21383
226.818	31859
226.884	69007
226.950	62776
227.016	26146
227.082	15273
227.148	12356
227.214	11844
227.279	9140
227.345	7593
227.411	7699
227.477	8257
227.543	14777
227.609	15674
227.674	9606
227.740	7671
227.806	5867
227.872	5955
227.938	5935
228.003	10783
228.069	5991
228.135	4748
228.201	4949
228.267	4109
228.332	6349
228.398	8382
228.464	6675
228.530	3583
228.595	4006
228.661	4489
228.727	9201
228.792	8440
228.858	5605
228.924	5066
228.990	8438
229.055	6470
229.121	8169
229.187	4899
229.252	5681
229.318	3822
229.384	5780
229.449	7173
229.515	2962
229.581	2738
229.646	4832
229.712	5645
229.777	13089
229.843	14462
229.909	8828
229.974	9769
230.040	9286
230.105	7195
230.171	8102
230.236	10443
230.302	15398
230.368	12998
230.433	5774
230.499	6036
230.564	6987
230.630	4516
230.695	4739
230.761	5004
230.826	3153
230.892	8323
230.957	5434
231.023	3859
231.088	4895
231.154	4456
231.219	5421
231.284	8015
231.350	9999
231.415	4795
231.481	4880
231.546	4222
231.612	3319
231.677	2840
231.742	2971
231.808	5645
231.873	3975
231.939	3029
232.004	10153
232.069	10611
232.135	6221
232.200	4834
232.265	4201
232.331	3347
232.396	2494
232.461	2799
232.527	3478
232.592	3851
232.657	4392
232.723	10271
232.788	7879
232.853	4559
232.918	3731
232.984	3210
233.049	4576
233.114	9173
233.179	9893
233.245	12805
233.310	17313
233.375	4979
233.440	4998
233.506	2961
233.571	3044
233.636	3720
233.701	4608
233.766	10253
233.832	15208
233.897	6411
233.962	6393
234.027	9328
234.092	6911
234.157	6024
234.222	6310
234.288	9548
234.353	31640
234.418	29742
234.483	16341
234.548	11641
234.613	9229
234.678	8612
234.743	9256
234.808	33273
234.873	22589
234.938	9373
235.004	7531
235.069	6751
235.134	6157
235.199	6020
235.264	5902
235.329	4184
235.394	5960
235.459	7587
235.524	8722
235.589	5782
235.654	4232
235.719	4236
235.784	5608
235.849	6925
235.913	18069
235.978	20022
236.043	25797
236.108	9700
236.173	8463
236.238	10753
236.303	6433
236.368	6580
236.433	12000
236.498	23371
236.563	14496
236.627	25898
236.692	84621
236.757	76358
236.822	32300
236.887	25360
236.952	18780
237.017	14913
237.081	16727
237.146	20043
237.211	39204
237.276	82138
237.341	141037
237.405	74483
237.470	30594
237.535	23952
237.600	13419
237.664	11233
237.729	9613
237.794	12550
237.859	24637
237.923	21093
237.988	12390
238.053	16337
238.118	19432
238.182	39963
238.247	40268
238.312	21200
238.376	14922
238.441	12164
238.506	10923
238.570	5572
238.635	7253
238.700	5496
238.764	6500
238.829	17818
238.893	25938
238.958	11350
239.023	10958
239.087	6310
239.152	8873
239.216	5694
239.281	5640
239.346	5595
239.410	5708
239.475	8683
239.539	38503
239.604	34572
239.668	10203
239.733	7165
239.797	9745
239.862	23381
239.926	37373
239.991	16927
240.055	7993
240.120	6870
240.184	6428
240.249	6380
240.313	6002
240.378	7375
240.442	23394
240.507	41327
240.571	13069
240.635	18897
240.700	26234
240.764	10453
240.829	7450
240.893	4392
240.957	6816
241.022	21293
241.086	42710
241.151	21907
241.215	8363
241.279	10943
241.344	23718
241.408	10959
241.472	8234
241.537	8654
241.601	7921
241.665	5512
241.730	5822
241.794	8248
241.858	6380
241.922	6956
241.987	7724
242.051	6650
242.115	5415
242.179	5803
242.244	5955
242.308	6791
242.372	8081
242.436	9230
242.501	7210
242.565	5894
242.629	5902
242.693	5776
242.757	5393
242.822	7253
242.886	6683
242.950	7753
243.014	7848
243.078	9379
243.142	9286
243.206	7612
243.271	10262
243.335	9495
243.399	14640
243.463	50307
243.527	139567
243.591	49142
243.655	19553
243.719	11485
243.783	12530
243.847	18768
243.911	25999
243.975	30612
244.040	22956
244.104	12143
244.168	8853
244.232	14900
244.296	21875
244.360	23801
244.424	13483
244.488	11141
244.552	11225
244.615	6503
244.679	8139
244.743	9574
244.807	11446
244.871	6874
244.935	7114
244.999	5693
245.063	7654
245.127	9005
245.191	16172
245.255	17186
245.319	12300
245.383	11791
245.446	9936
245.510	7187
245.574	8279
245.638	9419
245.702	8888
245.766	23393
245.829	15493
245.893	10401
245.957	8280
246.021	10059
246.085	9940
246.149	13542
246.212	28159
246.276	43456
246.340	20808
246.404	15124
246.467	14354
246.531	23930
246.595	15741
246.659	12891
246.722	11989
246.786	15686
246.850	15502
246.913	22024
246.977	9596
247.041	10006
247.104	12461
247.168	11163
247.232	27750
247.295	57614
247.359	30201
247.423	13605
247.486	26133
247.550	16505
247.614	11760
247.677	17479
247.741	11536
247.804	9170
247.868	12256
247.932	23075
247.995	53753
248.059	22078
248.122	11829
248.186	14246
248.249	24101
248.313	83198
248.376	92244
248.440	59531
248.503	23101
248.567	18700
248.630	26776
248.694	37018
248.757	43916
248.821	93060
248.884	56245
248.948	50047
249.011	70993
249.075	107189
249.138	93877
249.202	37929
249.265	24867
249.328	33870
249.392	23241
249.455	18931
249.519	13930
249.582	19106
249.645	28875
249.709	23832
249.772	15266
249.835	15557
249.899	18769
249.962	14701
250.025	13233
250.089	31878
250.152	49266
250.215	24411
250.279	18359
250.342	18754
250.405	18039
250.468	15425
250.532	21654
250.595	35249
250.658	115182
250.721	199296
250.785	77212
250.848	39085
250.911	23216
250.974	21540
251.038	27980
251.101	56907
251.164	32626
251.227	32425
251.290	30725
251.354	43402
251.417	160616
251.480	173406
251.543	117241
251.606	285937
251.669	233639
251.732	95619
251.795	87060
251.859	89649
251.922	187874
251.985	120421
252.048	44763
252.111	34185
252.174	31063
252.237	51956
252.300	113356
252.363	124171
252.426	241007
252.489	113810
252.552	60574
252.615	41004
252.678	38394
252.741	84115
252.804	113135
252.867	245730
252.930	156951
252.993	84142
253.056	49777
253.119	38253
253.182	30151
253.245	53061
253.308	40625
253.371	37950
253.434	34848
253.497	30280
253.559	52684
253.622	40798
253.685	51067
253.748	54937
253.811	27433
253.874	33493
253.937	33305
254.000	23316
254.062	36792
254.125	59538
254.188	51145
254.251	50289
254.314	24418
254.376	43508
254.439	49369
254.502	41201
254.565	39435
254.628	69937
254.690	45156
254.753	26362
254.816	21021
254.878	24250
254.941	40738
255.004	44501
255.067	21323
255.129	22418
255.192	13029
255.255	11813
255.317	15694
255.380	11702
255.443	8991
255.505	9378
255.568	9859
255.631	9820
255.693	11394
255.756	9314
255.819	8210
255.881	8698
255.944	8139
256.006	7975
256.069	9035
256.132	7710
256.194	12924
256.257	39839
256.319	29624
256.382	28121
256.444	14931
256.507	11529
256.569	9910
256.632	10737
256.694	20800
256.757	44906
256.819	136914
256.882	59629
256.944	25313
257.007	19576
257.069	21532
257.132	16244
257.194	12822
257.257	11845
257.319	13371
257.381	14490
257.444	34701
257.506	148100
257.569	179503
257.631	101367
257.693	50180
257.756	26060
257.818	25662
257.880	14866
257.943	13105
258.005	11371
258.067	10649
258.130	10657
258.192	13575
258.254	31354
258.317	19715
258.379	12805
258.441	33001
258.503	33578
258.566	42042
258.628	61920
258.690	16143
258.753	14749
258.815	27274
258.877	17604
258.939	10249
259.001	9435
259.064	9576
259.126	14640
259.188	20951
259.250	13369
259.312	17303
259.375	48224
259.437	32611
259.499	12441
259.561	11282
259.623	11380
259.685	11608
259.747	12489
259.809	38625
259.872	80496
259.934	106701
259.996	100664
260.058	28159
260.120	14526
260.182	12816
260.244	10538
260.306	8480
260.368	9716
260.430	9368
260.492	19084
260.554	41104
260.616	38578
260.678	55749
260.740	86950
260.802	23454
260.864	16245
260.926	13778
260.988	14058
261.050	13019
261.112	25724
261.174	73141
261.236	67657
261.298	20482
261.359	35808
261.421	56059
261.483	16732
261.545	13516
261.607	10036
261.669	10428
261.731	22243
261.793	58960
261.854	26293
261.916	15018
261.978	12653
262.040	14911
262.102	12423
262.164	23068
262.225	20501
262.287	11898
262.349	28673
262.411	24378
262.472	12541
262.534	23827
262.596	58863
262.658	18774
262.719	11810
262.781	16550
262.843	53903
262.904	25184
262.966	16596
263.028	22206
263.090	87516
263.151	237798
263.213	79384
263.275	37973
263.336	19502
263.398	13956
263.459	11326
263.521	11239
263.583	25989
263.644	20963
263.706	10400
263.767	7869
263.829	7634
263.891	6932
263.952	6834
264.014	6363
264.075	11268
264.137	26545
264.198	15888
264.260	6594
264.321	7655
264.383	18859
264.444	43407
264.506	14754
264.567	10593
264.629	15161
264.690	32759
264.752	14812
264.813	9842
264.875	7951
264.936	8258
264.998	7055
265.059	6880
265.120	7954
265.182	14574
265.243	64372
265.305	73254
265.366	18291
265.427	11879
265.489	10087
265.550	7352
265.611	10426
265.673	10363
265.734	8013
265.795	6776
265.857	7359
265.918	8783
265.979	19910
266.040	107182
266.102	99423
266.163	28896
266.224	22290
266.286	14113
266.347	10043
266.408	9980
266.469	11244
266.530	8460
266.592	8358
266.653	17717
266.714	31009
266.775	12310
266.836	8345
266.898	8790
266.959	12457
267.020	9575
267.081	8087
267.142	7503
267.203	7940
267.264	7289
267.326	9476
267.387	7960
267.448	6894
267.509	7467
267.570	7718
267.631	6793
267.692	6241
267.753	8923
267.814	7459
267.875	15828
267.936	37742
267.997	17770
268.058	15177
268.119	9787
268.180	9078
268.241	8030
268.302	6779
268.363	6609
268.424	7303
268.485	8683
268.546	6741
268.607	4855
268.668	4961
268.729	5335
268.790	7267
268.851	9152
268.912	21634
268.972	28408
269.033	14166
269.094	7790
269.155	7028
269.216	6258
269.277	7815
269.338	7338
269.398	6677
269.459	8490
269.520	12696
269.581	16078
269.642	19958
269.702	13788
269.763	9697
269.824	8559
269.885	11008
269.945	18585
270.006	7814
270.067	5873
270.128	7170
270.188	6334
270.249	7211
270.310	5410
270.370	7176
270.431	6749
270.492	5038
270.553	7531
270.613	17897
270.674	36325
270.734	17849
270.795	9292
270.856	13512
270.916	12724
270.977	8242
271.038	10425
271.098	10739
271.159	17052
271.219	18378
271.280	8461
271.340	7077
271.401	10114
271.462	31911
271.522	16845
271.583	9742
271.643	9549
271.704	9926
271.764	11961
271.825	24882
271.885	76512
271.946	108782
272.006	37376
272.066	45598
272.127	83008
272.187	27953
272.248	16096
272.308	17556
272.369	56320
272.429	35191
272.489	25783
272.550	28275
272.610	27521
272.671	24089
272.731	21719
272.791	41296
272.852	21175
272.912	17254
272.972	10857
273.033	11747
273.093	19192
273.153	18257
273.214	13203
273.274	15451
273.334	43041
273.394	90024
273.455	40103
273.515	36131
273.575	80737
273.635	37296
273.696	44972
273.756	86391
273.816	38764
273.876	25059
273.936	48725
273.997	91736
274.057	26497
274.117	19219
274.177	26401
274.237	98149
274.297	94120
274.358	74862
274.418	69787
274.478	55398
274.538	23699
274.598	21831
274.658	73419
274.718	97845
274.778	39527
274.838	20814
274.898	41806
274.958	134291
275.018	93418
275.078	57126
275.138	27023
275.198	16271
275.258	13055
275.318	16516
275.378	28479
275.438	29296
275.498	21100
275.558	53962
275.618	114074
275.678	65633
275.738	37213
275.798	29812
275.858	17436
275.918	11528
275.978	13366
276.038	13046
276.098	10763
276.157	21077
276.217	60952
276.277	29934
276.337	20427
276.397	13516
276.457	15917
276.517	11617
276.576	9710
276.636	9175
276.696	17783
276.756	36915
276.815	30859
276.875	14691
276.935	16775
276.995	15025
277.055	11086
277.114	11014
277.174	15966
277.234	47749
277.293	23977
277.353	14288
277.413	10698
277.472	12057
277.532	13149
277.592	16513
277.651	51993
277.711	107654
277.771	38992
277.830	112976
277.890	102137
277.950	66248
278.009	179809
278.069	76423
278.128	70363
278.188	112010
278.248	49277
278.307	116200
278.367	77456
278.426	25875
278.486	17226
278.545	13591
278.605	12438
278.664	13522
278.724	15142
278.783	32416
278.843	85506
278.902	29045
278.962	19821
279.021	21911
279.081	37360
279.140	37769
279.199	25422
279.259	24100
279.318	25826
279.378	35678
279.437	64050
279.496	190207
279.556	505287
279.615	455547
279.675	150419
279.734	83444
279.793	106599
279.853	146339
279.912	58566
279.971	35604
280.031	32862
280.090	50224
280.149	90865
280.208	94629
280.268	343750
280.327	388275
280.386	115000
280.445	70602
280.505	62578
280.564	34108
280.623	27266
280.682	32524
280.742	48119
280.801	19407
280.860	15336
280.919	14615
280.978	13033
281.037	13651
281.097	12235
281.156	13026
281.215	12309
281.274	15409
281.333	52636
281.392	47186
281.451	14104
281.510	11231
281.569	11879
281.628	10356
281.688	9620
281.747	11738
281.806	11382
281.865	8994
281.924	8733
281.983	9922
282.042	7588
282.101	7075
282.160	7463
282.219	8922
282.278	9785
282.337	31257
282.396	23939
282.454	11115
282.513	14311
282.572	44596
282.631	29535
282.690	11439
282.749	9654
282.808	12725
282.867	11792
282.926	13042
282.985	8454
283.043	7809
283.102	8585
283.161	11434
283.220	24602
283.279	54808
283.338	19913
283.396	12518
283.455	11792
283.514	12626
283.573	19297
283.631	16872
283.690	11718
283.749	10898
283.808	22131
283.866	26649
283.925	11619
283.984	12158
284.043	14241
284.101	17488
284.160	12942
284.219	17186
284.277	16602
284.336	23939
284.395	65154
284.453	58982
284.512	24006
284.570	29735
284.629	28916
284.688	28530
284.746	31581
284.805	37177
284.863	46658
284.922	60368
284.981	70741
285.039	98919
285.098	166614
285.156	334309
285.215	460846
285.273	447727
285.332	363913
285.390	212769
285.449	132757
285.507	91187
285.566	68837
285.624	52281
285.683	41075
285.741	33188
285.799	27442
285.858	25471
285.916	22767
285.975	18364
286.033	16415
286.091	15667
286.150	13233
286.208	14509
286.267	16025
286.325	15815
286.383	19991
286.442	18422
286.500	11230
286.558	11081
286.616	10109
286.675	13615
286.733	13111
286.791	12568
286.850	13897
286.908	15148
286.966	25453
287.024	13773
287.083	9876
287.141	8676
287.199	9334
287.257	14032
287.315	12011
287.374	13218
287.432	25252
287.490	19810
287.548	12875
287.606	10602
287.664	10777
287.723	14095
287.781	18244
287.839	12380
287.897	14320
287.955	18607
288.013	30305
288.071	66817
288.129	216789
288.187	552479
288.245	281074
288.303	94034
288.361	55125
288.419	41475
288.477	30108
288.535	20576
288.593	15540
288.651	12770
288.709	10623
288.767	10597
288.825	10406
288.883	8486
288.941	8756
288.999	8252
289.057	8335
289.115	7951
289.173	8696
289.231	8457
289.289	9388
289.346	9139
289.404	9239
289.462	15498
289.520	17478
289.578	8955
289.636	6791
289.694	5187
289.751	5951
289.809	5323
289.867	6374
289.925	8732
289.983	11138
290.040	6245
290.098	5735
290.156	8013
290.214	9990
290.271	6490
290.329	4864
290.387	4991
290.444	5053
290.502	4054
290.560	4230
290.617	5225
290.675	6443
290.733	5866
290.790	8012
290.848	5420
290.906	8164
290.963	7995
291.021	7001
291.078	6162
291.136	9656
291.194	20027
291.251	47172
291.309	14575
291.366	7606
291.424	7199
291.481	7656
291.539	8715
291.596	8782
291.654	5779
291.711	4406
291.769	7410
291.826	17018
291.884	11474
291.941	6020
291.999	6678
292.056	7324
292.114	8685
292.171	6273
292.228	7103
292.286	9486
292.343	17644
292.401	22666
292.458	15316
292.515	10149
292.573	11663
292.630	11022
292.687	12161
292.745	9328
292.802	11531
292.859	27908
292.917	53985
292.974	33862
293.031	12002
293.089	8600
293.146	8048
293.203	6925
293.260	5876
293.318	10621
293.375	11647
293.432	7668
293.489	6175
293.546	7704
293.604	12161
293.661	34930
293.718	83018
293.775	41734
293.832	22867
293.889	20591
293.947	22846
294.004	15926
294.061	13343
294.118	23552
294.175	47481
294.232	53332
294.289	25146
294.346	13736
294.403	11392
294.460	12242
294.517	10362
294.574	8588
294.631	7430
294.688	10867
294.745	25186
294.802	82850
294.859	89075
294.916	39188
294.973	27320
295.030	19192
295.087	17019
295.144	11002
295.201	9646
295.258	9248
295.315	11934
295.372	33415
295.429	68205
295.486	29404
295.542	17354
295.599	32190
295.656	58690
295.713	42397
295.770	61370
295.827	25417
295.883	13858
295.940	12678
295.997	20530
296.054	21803
296.111	10526
296.167	8439
296.224	6410
296.281	5894
296.338	6351
296.394	7219
296.451	9540
296.508	26946
296.564	53576
296.621	35080
296.678	62741
296.734	97755
296.791	35855
296.848	19436
296.904	21044
296.961	43994
297.018	70292
297.074	54992
297.131	21551
297.187	16381
297.244	23277
297.301	64116
297.357	125066
297.414	44604
297.470	18331
297.527	13965
297.583	12216
297.640	11956
297.696	9670
297.753	8038
297.809	7065
297.866	5223
297.922	6071
297.979	6928
298.035	8429
298.092	14886
298.148	40157
298.204	42114
298.261	21216
298.317	28415
298.374	79231
298.430	50260
298.486	25449
298.543	21580
298.599	19339
298.656	22272
298.712	32121
298.768	79016
298.824	61508
298.881	21370
298.937	13085
298.993	12397
299.050	14551
299.106	13416
299.162	10411
299.218	11592
299.275	9182
299.331	11900
299.387	20253
299.443	67614
299.500	78752
299.556	32243
299.612	17311
299.668	15657
299.724	19392
299.780	21044
299.837	15833
299.893	21300
299.949	64363
300.005	81320
300.061	59580
300.117	101230
300.173	52511
300.229	25750
300.285	29561
300.341	34518
300.397	19130
300.453	12346
300.510	11538
300.566	12754
300.622	15273
300.678	36573
300.734	70812
300.790	62433
300.845	76629
300.901	48460
300.957	68091
301.013	55418
301.069	21568
301.125	16163
301.181	17703
301.237	13952
301.293	9864
301.349	8862
301.405	8997
301.461	9607
301.516	15335
301.572	13972
301.628	21580
301.684	21190
301.740	28560
301.796	49831
301.851	32509
301.907	50612
301.963	53630
302.019	73957
302.074	193522
302.130	196245
302.186	90408
302.242	38984
302.297	26010
302.353	26299
302.409	47175
302.464	44639
302.520	32809
302.576	74788
302.631	89481
302.687	50804
302.743	22333
302.798	14000
302.854	12187
302.910	12134
302.965	15626
303.021	27808
303.076	27849
303.132	32217
303.187	38571
303.243	20831
303.299	12400
303.354	10366
303.410	9087
303.465	7903
303.521	8269
303.576	8596
303.632	11813
303.687	20662
303.743	60712
303.798	55938
303.853	22492
303.909	13690
303.964	12615
304.020	18166
304.075	28371
304.130	25096
304.186	43786
304.241	44274
304.297	35187
304.352	20412
304.358	19533
304.407	12412
304.449	12863
304.463	13023
304.518	13002
304.539	12666
304.573	12145
304.629	12425
304.630	12557
304.684	19108
304.720	35865
304.739	44193
304.794	72833
304.811	61891
304.850	35819
304.902	18048
304.905	16921
304.960	12554
304.992	13275
305.015	13790
305.071	13340
305.083	12755
305.126	10572
305.173	8142
305.181	7767
305.236	6059
305.264	7120
305.292	8216
305.347	11022
305.354	11269
305.402	12970
305.445	13995
305.457	14191
305.512	15946
305.535	16217
305.567	16853
305.622	17340
305.626	17917
305.678	31143
305.716	60233
305.733	70567
305.788	86988
305.807	74262
305.843	52107
305.897	60511
305.898	60557
305.953	65218
305.988	43892
306.008	32293
306.063	19370
306.078	17730
306.118	14175
306.168	10758
306.173	10449
306.228	8766
306.259	7985
306.283	7631
306.338	7562
306.349	7919
306.393	9339
306.440	11466
306.448	11830
306.503	11910
306.530	13068
306.558	16730
306.613	35022
306.620	37798
306.668	54639
306.711	67427
306.723	68349
306.778	56818
306.801	43097
306.833	27511
306.888	15388
306.892	14912
306.943	11224
306.982	10377
306.997	10151
307.052	9743
307.072	9769
307.107	10656
307.162	13636
307.163	13712
307.217	22032
307.253	26879
307.272	27873
307.327	30604
307.343	27993
307.381	22872
307.434	20479
307.436	20893
307.491	39584
307.524	58581
307.546	63943
307.600	62914
307.614	55685
307.655	34119
307.704	18876
307.710	18244
307.765	21608
307.795	26686
307.819	31351
307.874	52029
307.885	51863
307.929	41284
307.975	28708
307.984	28516
308.038	38070
308.065	47664
308.093	80373
308.148	164209
308.156	184189
308.202	275589
308.246	335767
308.257	331606
308.312	182558
308.336	129789
308.366	96064
308.421	64446
308.426	61398
308.475	40064
308.517	29174
308.530	27159
308.585	23894
308.607	23171
308.639	23804
308.694	26142
308.697	26502
308.748	44687
308.787	66432
308.803	67113
308.857	52834
308.877	44230
308.912	36262
308.967	34198
308.967	34246
309.021	48666
309.058	62291
309.076	76910
309.130	132173
309.148	153202
309.185	252212
309.238	421389
309.239	422330
309.293	460566
309.328	423030
309.348	371923
309.402	192667
309.418	149417
309.457	106599
309.508	70609
309.511	69833
309.566	70992
309.598	74888
309.620	89268
309.674	135746
309.688	148487
309.729	142332
309.778	115513
309.783	112677
309.837	75051
309.868	57431
309.892	60558
309.946	75404
309.959	81605
310.001	97603
310.049	109962
310.055	106672
310.109	64965
310.139	41239
310.163	32786
310.218	21814
310.229	20124
310.272	16655
310.319	13667
310.326	13310
310.381	11850
310.409	11035
310.435	10715
310.489	10594
310.499	10620
310.543	10966
310.589	11240
310.598	11110
310.652	11071
310.679	10518
310.706	9264
310.760	7091
310.769	6799
310.814	6652
310.859	6681
310.868	6699
310.923	6457
310.948	6679
310.977	7863
311.031	9938
311.038	10257
311.085	9283
311.128	7976
311.139	7829
311.193	7102
311.218	6881
311.247	6837
311.301	6652
311.308	6647
311.356	6640
311.398	6596
311.410	6382
311.464	5524
311.488	5085
311.518	5475
311.572	6325
311.578	6428
311.626	8591
311.668	10645
311.680	10648
311.734	10379
311.758	10272
311.788	10448
311.842	10875
311.847	10913
311.896	13077
311.937	15048
311.950	14773
312.004	13517
312.027	12915
312.058	11221
312.112	8252
312.117	7963
312.165	7516
312.207	7155
312.297	10732
312.386	8142
312.476	10203
312.566	18774
312.656	8571
312.745	4985
312.835	7235
312.925	7539
313.015	8848
313.104	8978
313.194	7330
313.284	6644
313.374	9877
313.463	8562
313.553	6553
313.643	5775
313.732	5611
313.822	5202
313.912	7132
314.001	8184
314.091	9770
314.180	10927
314.270	10921
314.360	13074
314.449	9670
314.539	6998
314.628	5993
314.718	7914
314.808	11233
314.897	6464
314.987	6873
315.076	10001
315.166	13069
315.255	11684
315.345	11895
315.434	12588
315.524	10967
315.613	13034
315.703	18819
315.792	34881
315.881	121225
315.971	39227
316.060	25366
316.150	34495
316.239	35059
316.328	12342
316.418	7001
316.507	7335
316.597	11631
316.686	10358
316.775	18691
316.865	36605
316.954	8661
317.043	6210
317.133	7613
317.222	6053
317.311	7170
317.400	7077
317.490	12153
317.579	13543
317.668	13193
317.757	22742
317.847	63009
317.936	208994
318.025	66933
318.114	42430
318.203	22790
318.293	21888
318.382	40220
318.471	30140
318.560	43459
318.649	72975
318.738	16302
318.828	13640
318.917	13981
319.006	19195
319.095	45792
319.184	96246
319.273	51616
319.362	26948
319.451	10810
319.540	10547
319.629	25408
319.718	37903
319.807	19314
319.896	38237
319.985	118141
320.074	39485
320.163	14122
320.252	21935
320.341	15752
320.430	13376
320.519	19831
320.608	11629
320.697	9928
320.786	10273
320.875	14456
320.964	18211
321.053	28756
321.142	41185
321.230	39973
321.319	32880
321.408	68928
321.497	28417
321.586	30086
321.675	36821
321.764	32233
321.852	21999
321.941	38818
322.030	26035
322.119	31435
322.207	73858
322.296	52611
322.385	26680
322.474	34640
322.562	88095
322.651	41996
322.740	35360
322.829	47925
322.917	48637
323.006	27753
323.095	22929
323.183	18906
323.272	30188
323.361	56765
323.449	150656
323.538	51846
323.626	107765
323.715	59960
323.804	29169
323.892	96313
323.981	47074
324.069	18516
324.158	53680
324.246	44446
324.335	17151
324.424	24968
324.512	10276
324.601	14120
324.689	28582
324.778	48508
324.866	36611
324.954	10665
325.043	10966
325.131	23429
325.220	39629
325.308	44628
325.397	32146
325.485	17852
325.574	6556
325.662	7714
325.750	7957
325.839	7288
325.927	6594
326.015	9645
326.104	18001
326.192	22674
326.280	6263
326.369	6744
326.457	11512
326.545	20157
326.634	8214
326.722	5102
326.810	6109
326.898	6169
326.987	9122
327.075	20530
327.163	21006
327.251	11384
327.340	18573
327.428	22829
327.516	7978
327.604	7996
327.692	8437
327.781	10470
327.869	16598
327.957	10610
328.045	9473
328.133	5866
328.221	9356
328.309	7157
328.397	6048
328.485	9078
328.574	15098
328.662	47136
328.750	25510
328.838	10121
328.926	6732
329.014	6527
329.102	10221
329.190	24238
329.278	14293
329.366	5233
329.454	4360
329.542	4983
329.630	4036
329.718	6210
329.806	7588
329.893	6857
329.981	7087
330.069	12526
330.157	42084
330.245	106564
330.333	50784
330.421	11712
330.509	16571
330.597	54586
330.684	32454
330.772	12233
330.860	15964
330.948	19123
331.036	9412
331.123	4230
331.211	5992
331.299	8290
331.387	18494
331.475	28584
331.562	9805
331.650	6078
331.738	8575
331.825	9961
331.913	5269
332.001	5432
332.089	9599
332.176	20959
332.264	51086
332.352	33226
332.439	10633
332.527	7848
332.614	7744
332.702	10020
332.790	8132
332.877	25821
332.965	49467
333.052	16728
333.140	20781
333.228	45848
333.315	12140
333.403	11136
333.490	30577
333.578	31634
333.665	60847
333.753	24302
333.840	8871
333.928	11705
334.015	32254
334.103	51432
334.190	128118
334.278	31661
334.365	17636
334.452	13766
334.540	9366
334.627	13117
334.715	19970
334.802	43407
334.889	194445
334.977	169754
335.064	26852
335.151	12465
335.239	11176
335.326	18979
335.413	68371
335.501	73234
335.588	13109
335.675	9749
335.762	12463
335.850	19352
335.937	20474
336.024	57373
336.111	193069
336.199	76543
336.286	17618
336.373	9650
336.460	6789
336.547	7107
336.635	9844
336.722	8355
336.809	8444
336.896	14604
336.983	40875
337.070	94470
337.157	128466
337.245	120525
337.332	73948
337.419	10520
337.506	6756
337.593	10684
337.680	32757
337.767	76459
337.854	24441
337.941	28148
338.028	38175
338.115	12963
338.202	16457
338.289	37559
338.376	113718
338.463	33597
338.550	51390
338.637	46854
338.724	24049
338.811	32692
338.898	8270
338.984	7022
339.071	7090
339.158	11444
339.245	25832
339.332	16624
339.419	24683
339.506	20824
339.593	4243
339.679	5587
339.766	5531
339.853	9459
339.940	18686
340.027	6932
340.113	5945
340.200	10470
340.287	7115
340.374	10682
340.460	17101
340.547	8958
340.634	16932
340.720	54518
340.807	27350
340.894	6779
340.980	6810
341.067	5912
341.154	7802
341.240	13210
341.327	25165
341.414	9572
341.500	9783
341.587	7226
341.674	6761
341.760	17472
341.847	18663
341.933	6983
342.020	3162
342.106	4832
342.193	7575
342.279	14547
342.366	10789
342.452	17335
342.539	10190
342.625	26257
342.712	56408
342.798	22061
342.885	8908
342.971	4046
343.058	3563
343.144	5446
343.230	5051
343.317	5706
343.403	4917
343.490	4243
343.576	4443
343.662	5629
343.749	6301
343.835	10374
343.921	21434
344.008	115589
344.094	208754
344.180	44801
344.267	22067
344.353	70140
344.439	64401
344.525	26686
344.612	10425
344.698	9473
344.784	6303
344.870	5130
344.957	6072
345.043	10420
345.129	8433
345.215	16567
345.301	8947
345.387	6824
345.474	3853
345.560	5036
345.646	6092
345.732	6121
345.818	8155
345.904	7016
345.990	8528
346.076	10043
346.162	16956
346.249	8198
346.335	5110
346.421	8015
346.507	33971
346.593	88956
346.679	18685
346.765	7621
346.851	6359
346.937	6055
347.023	5019
347.108	7439
347.194	6053
347.280	6899
347.366	9856
347.452	36695
347.538	113580
347.624	77982
347.710	57763
347.796	11082
347.882	6455
347.967	5454
348.053	7920
348.139	6040
348.225	5093
348.311	6199
348.397	5297
348.482	7854
348.568	8274
348.654	5530
348.740	10361
348.825	10328
348.911	16078
348.997	60808
349.083	91880
349.168	15842
349.254	7351
349.340	7394
349.425	4685
349.511	8492
349.597	9292
349.682	22072
349.768	62027
349.854	26243
349.939	5810
350.025	5155
350.110	4761
350.196	4141
350.282	3317
350.367	4573
350.453	11767
350.538	11313
350.624	8445
350.709	7432
350.795	4746
350.880	5851
350.966	7578
351.051	10936
351.137	8245
351.222	6940
351.308	22957
351.393	52831
351.479	13704
351.564	5273
351.649	5495
351.735	5173
351.820	4272
351.906	5542
351.991	9904
352.076	40061
352.162	48074
352.247	10176
352.332	8500
352.418	17014
352.503	22926
352.588	79853
352.673	57369
352.759	13956
352.844	7344
352.929	9720
353.014	11262
353.100	8178
353.185	16479
353.270	23334
353.355	18870
353.441	6976
353.526	8002
353.611	19829
353.696	20387
353.781	12983
353.866	5371
353.952	8355
354.037	19844
354.122	42238
354.207	35387
354.292	12456
354.377	6516
354.462	6683
354.547	8685
354.632	8790
354.717	12603
354.802	17207
354.887	6444
354.972	5286
355.057	4855
355.142	4324
355.227	7496
355.312	12695
355.397	30198
355.482	66403
355.567	29711
355.652	23531
355.737	27296
355.822	80982
355.907	54321
355.991	10477
356.076	6046
356.161	5586
356.246	4972
356.331	7410
356.416	23629
356.501	135144
356.585	115934
356.670	17826
356.755	12186
356.840	21747
356.924	104560
357.009	290706
357.094	94272
357.179	24596
357.263	16054
357.348	16369
357.433	15638
357.517	15461
357.602	11059
357.687	10919
357.771	25788
357.856	86289
357.941	46396
358.025	79437
358.110	267101
358.195	106676
358.279	18515
358.364	17052
358.448	59566
358.533	140313
358.617	98892
358.702	96901
358.787	33454
358.871	20704
358.956	15859
359.040	6832
359.125	5768
359.209	9199
359.294	43972
359.378	69435
359.462	22174
359.547	11787
359.631	7593
359.716	4720
359.800	6135
359.885	10833
359.969	6994
360.053	7152
360.138	6898
360.222	12621
360.306	20370
360.391	17900
360.475	46944
360.559	90423
360.644	61255
360.728	40294
360.812	82110
360.896	181994
360.981	70314
361.065	34594
361.149	10660
361.233	10587
361.318	10429
361.402	12027
361.486	9704
361.570	7910
361.654	11836
361.739	34008
361.823	135528
361.907	167917
361.991	29711
362.075	21151
362.159	41832
362.243	29420
362.327	32523
362.411	41347
362.495	20759
362.580	10590
362.664	7227
362.748	8239
362.832	11986
362.916	22060
363.000	77444
363.084	196579
363.168	212555
363.252	47369
363.336	19019
363.420	29565
363.503	95013
363.587	90706
363.671	18166
363.755	14249
363.839	19613
363.923	10841
364.007	24419
364.091	26873
364.175	46478
364.258	148457
364.342	115275
364.426	149375
364.510	75292
364.594	32830
364.677	46096
364.761	171345
364.845	100279
364.929	37181
365.013	28281
365.096	25451
365.180	29596
365.264	46960
365.347	138142
365.431	50899
365.515	14585
365.598	9174
365.682	8803
365.766	13629
365.849	15412
365.933	10522
366.017	12575
366.100	8920
366.184	5468
366.267	7213
366.351	6293
366.435	5769
366.518	4893
366.602	5789
366.685	6975
366.769	8021
366.852	14312
366.936	22388
367.019	13239
367.103	11091
367.186	17929
367.270	6477
367.353	3931
367.436	7158
367.520	6110
367.603	9454
367.687	14942
367.770	24533
367.853	16106
367.937	51928
368.020	71378
368.104	18542
368.187	19251
368.270	24611
368.353	21866
368.437	36088
368.520	78764
368.603	43150
368.687	62979
368.770	97725
368.853	23460
368.936	23857
369.020	19383
369.103	9636
369.186	6550
369.269	7207
369.352	17617
369.436	22309
369.519	13866
369.602	6099
369.685	8884
369.768	8798
369.851	7193
369.934	5074
370.018	9123
370.101	20891
370.184	15338
370.267	11561
370.350	20965
370.433	33934
370.516	94395
370.599	118335
370.682	41344
370.765	54558
370.848	72894
370.931	124844
371.014	42451
371.097	10696
371.180	8261
371.263	5631
371.346	3697
371.429	5992
371.511	6793
371.594	13926
371.677	19926
371.760	20626
371.843	22783
371.926	105088
372.009	197608
372.091	59380
372.174	56396
372.257	114470
372.340	40068
372.423	32540
372.505	31694
372.588	17331
372.671	46493
372.754	127356
372.836	56927
372.919	46848
373.002	74147
373.085	24576
373.167	23455
373.250	59451
373.332	117514
373.415	163685
373.498	291166
373.580	106015
373.663	188131
373.746	200008
373.828	41580
373.911	19149
373.993	25258
374.076	82524
374.159	66630
374.241	40428
374.324	107556
374.406	66693
374.489	105945
374.571	246234
374.654	88434
374.736	58115
374.819	164073
374.901	227313
374.983	203233
375.066	35322
375.148	19006
375.231	75482
375.313	114781
375.395	39717
375.478	10684
375.560	10224
375.643	15277
375.725	60664
375.807	210206
375.890	149968
375.972	67521
376.054	40412
376.136	62004
376.219	28025
376.301	71743
376.383	174332
376.465	59613
376.548	41422
376.630	58193
376.712	150733
376.794	58626
376.877	9379
376.959	5531
377.041	9045
377.123	16557
377.205	17333
377.287	5540
377.369	6657
377.452	7176
377.534	6084
377.616	5654
377.698	6151
377.780	5143
377.862	7468
377.944	6840
378.026	4762
378.108	4997
378.190	5296
378.272	4978
378.354	4011
378.436	4869
378.518	12132
378.600	34172
378.682	33342
378.764	74818
378.846	50345
378.928	16826
379.010	20536
379.091	12041
379.173	6526
379.255	6663
379.337	12356
379.419	42721
379.501	101991
379.583	36129
379.664	12666
379.746	28959
379.828	74093
379.910	98297
379.991	77092
380.073	14300
380.155	10586
380.237	7797
380.318	6744
380.400	7509
380.482	18487
380.564	26278
380.645	26875
380.727	22856
380.809	14224
380.890	10630
380.972	8518
381.053	8703
381.135	11559
381.217	30803
381.298	74994
381.380	34611
381.461	40467
381.543	164424
381.624	167170
381.706	30721
381.787	18227
381.869	21107
381.951	80863
382.032	242505
382.113	130340
382.195	31295
382.276	25746
382.358	59924
382.439	137598
382.521	161517
382.602	224140
382.684	111963
382.765	216590
382.846	287651
382.928	476893
383.009	245035
383.090	202983
383.172	697784
383.253	891166
383.334	293784
383.416	238445
383.497	118704
383.578	80815
383.659	166855
383.741	612988
383.822	1280048
383.903	600113
383.984	213158
384.066	269813
384.147	150384
384.228	39273
384.309	31015
384.390	24112
384.471	18947
384.553	20301
384.634	24657
384.715	24450
384.796	15659
384.877	22778
384.958	73135
385.039	77461
385.120	27345
385.201	15771
385.282	17680
385.363	19775
385.444	20094
385.525	37320
385.606	110227
385.687	79310
385.768	21920
385.849	30563
385.930	117771
386.011	165583
386.092	41626
386.173	13606
386.254	11116
386.335	12366
386.416	15491
386.496	49279
386.577	67222
386.658	24707
386.739	16551
386.820	15466
386.901	11879
386.981	11520
387.062	9851
387.143	22510
387.224	74825
387.304	60686
387.385	22966
387.466	16740
387.547	18780
387.627	15638
387.708	36173
387.789	136047
387.869	143231
387.950	35855
388.031	8023
388.111	8520
388.192	22683
388.273	29493
388.353	18616
388.434	13118
388.514	32348
388.595	125928
388.676	139686
388.756	66379
388.837	65969
388.917	36169
388.998	8907
389.078	9947
389.159	8518
389.239	8837
389.320	14658
389.400	13982
389.480	32475
389.561	74711
389.641	32533
389.722	14962
389.802	21972
389.883	37979
389.963	90588
390.043	52282
390.124	17494
390.204	31687
390.284	84307
390.365	50202
390.445	72924
390.525	196665
390.605	153629
390.686	41397
390.766	16576
390.846	11232
390.927	8033
391.007	8030
391.087	11551
391.167	12770
391.247	9758
391.328	16827
391.408	20611
391.488	14303
391.568	7669
391.648	12444
391.728	16212
391.808	16972
391.888	20521
391.969	47351
392.049	64047
392.129	30202
392.209	39299
392.289	86582
392.369	44885
392.449	37543
392.529	25805
392.609	24281
392.689	35534
392.769	92872
392.849	74347
392.929	65437
393.009	135844
393.089	112082
393.169	137223
393.248	456817
393.328	1311666
393.408	1222743
393.488	378893
393.568	118755
393.648	58609
393.728	38549
393.807	27801
393.887	24971
393.967	21014
394.047	22517
394.127	26351
394.206	42366
394.286	156275
394.366	567192
394.446	507375
394.525	110899
394.605	32068
394.685	28959
394.764	53964
394.844	87241
394.924	57450
395.003	21383
395.083	16324
395.163	15198
395.242	13600
395.322	13603
395.402	10908
395.481	17668
395.561	45054
395.640	102118
395.720	85243
395.799	112514
395.879	78614
395.958	57136
396.038	220404
396.117	739479
396.197	685907
396.276	185856
396.356	68892
396.435	52122
396.515	42271
396.594	58049
396.673	121913
396.753	464705
396.832	1156009
396.912	771312
396.991	193249
397.070	61193
397.150	33678
397.229	25294
397.308	35159
397.388	51656
397.467	24969
397.546	13720
397.625	11078
397.705	16267
397.784	15070
397.863	9357
397.942	7387
398.022	11014
398.101	35629
398.180	86533
398.259	39071
398.338	13209
398.417	10363
398.497	8138
398.576	8374
398.655	5567
398.734	6238
398.813	8248
398.892	35890
398.971	96897
399.050	40452
399.129	7494
399.208	5099
399.287	5607
399.366	4484
399.445	5000
399.524	4854
399.603	5319
399.682	13450
399.761	39242
399.840	109772
399.919	68694
399.998	9635
400.077	4146
400.156	3412
400.235	7075
400.313	3941
400.392	9768
400.471	41086
400.550	57152
400.629	14625
400.708	8089
400.786	8494
400.865	19938
400.944	18178
401.023	10143
401.102	2546
401.180	2651
401.259	4391
401.338	6041
401.416	8104
401.495	7094
401.574	5707
401.652	5068
401.731	8601
401.810	5758
401.888	3704
401.967	3494
402.046	5199
402.124	8246
402.203	10183
402.281	6773
402.360	11311
402.438	26035
402.517	14784
402.596	7205
402.674	5397
402.753	4709
402.831	3932
402.910	7249
402.988	34674
403.066	97665
403.145	48275
403.223	34321
403.302	77198
403.380	53890
403.459	53743
403.537	19853
403.615	8292
403.694	2579
403.772	3865
403.850	3698
403.929	2665
404.007	4536
404.085	12063
404.164	13136
404.242	5007
404.320	5862
404.398	10746
404.477	49841
404.555	201065
404.633	143108
404.711	19373
404.789	6605
404.868	5736
404.946	4087
405.024	3033
405.102	3123
405.180	3064
405.258	2737
405.336	3086
405.415	4662
405.493	11252
405.571	10562
405.649	3854
405.727	4553
405.805	7855
405.883	7033
405.961	7519
406.039	7889
406.117	4524
406.195	10968
406.273	55563
406.351	166970
406.429	80804
406.507	13582
406.585	5170
406.663	7060
406.740	8880
406.818	7153
406.896	4093
406.974	5406
407.052	19137
407.130	106074
407.208	121935
407.285	21412
407.363	4822
407.441	4803
407.519	3987
407.596	6813
407.674	17928
407.752	46826
407.830	38939
407.907	15543
407.985	5704
408.063	3738
408.141	3218
408.218	8545
408.296	7908
408.373	6952
408.451	5980
408.529	5219
408.606	2099
408.684	2804
408.762	2320
408.839	2595
408.917	1787
408.994	3181
409.072	2648
409.149	3592
409.227	7979
409.304	11003
409.382	8451
409.459	9889
409.537	14238
409.614	11309
409.692	7326
409.769	9533
409.846	14849
409.924	18899
410.001	12252
410.079	7466
410.156	6711
410.233	6269
410.311	5307
410.388	3956
410.465	5619
410.543	5262
410.620	4087
410.697	5501
410.775	5755
410.852	3509
410.929	6830
411.006	8303
411.083	6013
411.161	12528
411.238	11885
411.315	5918
411.392	4221
411.469	6311
411.547	6938
411.624	3465
411.701	2937
411.778	6031
411.855	12870
411.932	6325
412.009	2861
412.086	3573
412.163	5160
412.240	5129
412.317	6555
412.394	6104
412.471	2049
412.548	2528
412.625	3029
412.702	5116
412.779	10388
412.856	5560
412.933	1768
413.010	3541
413.087	8355
413.164	38566
413.241	45172
413.318	10326
413.395	8342
413.471	10847
413.548	4749
413.625	3530
413.702	3904
413.779	2973
413.855	1127
413.932	1630
414.009	816
414.086	2118
414.162	2438
414.239	8045
414.316	38599
414.393	75235
414.469	22894
414.546	3207
414.623	1644
414.699	3081
414.776	3505
414.853	2988
414.929	3121
415.006	3089
415.082	3758
415.159	2953
415.236	2919
415.312	4258
415.389	9059
415.465	11642
415.542	5529
415.618	4332
415.695	7547
415.771	4433
415.848	4382
415.924	4493
416.000	2823
416.077	3665
416.153	1281
416.230	946
416.306	1619
416.383	2431
416.459	2352
416.535	1302
416.612	1766
416.688	2248
416.764	2382
416.841	2162
416.917	2948
416.993	3434
417.069	4708
417.146	5953
417.222	6429
417.298	4621
417.374	2487
417.451	4816
417.527	5140
417.603	6096
417.679	3938
417.755	3949
417.831	2164
417.908	1647
417.984	1258
418.060	2426
418.136	10372
418.212	12659
418.288	4459
418.364	2360
418.440	2150
418.516	6516
418.592	8762
418.668	17458
418.744	23218
418.820	15565
418.896	3771
418.972	1857
419.048	3138
419.124	11681
419.200	6429
419.276	2393
419.352	238
419.428	2265
419.504	3200
419.579	5099
419.655	3925
419.731	5086
419.807	17297
419.883	30137
419.959	19451
420.034	6142
420.110	13695
420.186	50831
420.262	32746
420.337	7716
420.413	4574
420.489	3879
420.565	3471
420.640	3277
420.716	3611
420.792	2102
420.867	3892
420.943	3365
421.019	7759
421.094	6286
421.170	3543
421.245	2375
421.321	3734
421.397	4546
421.472	10568
421.548	24748
421.623	15195
421.699	8037
421.774	7288
421.850	7462
421.925	12866
422.001	11949
422.076	10475
422.152	12133
422.227	19297
422.302	23751
422.378	34698
422.453	67303
422.529	170433
422.604	436702
422.679	580831
422.755	387994
422.830	152926
422.905	63200
422.981	35016
423.056	22651
423.131	16887
423.207	12942
423.282	14083
423.357	21211
423.432	13618
423.508	15511
423.583	28129
423.658	18609
423.733	7385
423.808	9437
423.883	9846
423.959	9660
424.034	7991
424.109	6764
424.184	3500
424.259	3592
424.334	3666
424.409	2837
424.484	3160
424.559	5131
424.634	3622
424.709	7257
424.784	7841
424.859	4866
424.934	10686
425.009	36190
425.084	54192
425.159	18048
425.234	4402
425.309	5197
425.384	26190
425.459	42886
425.534	10951
425.609	2929
425.683	2010
425.758	2630
425.833	3312
425.908	6183
425.983	25134
426.058	59197
426.132	22950
426.207	5833
426.282	8657
426.357	6347
426.431	2056
426.506	2934
426.581	3391
426.655	3217
426.730	2580
426.805	2844
426.879	4010
426.954	4201
427.029	11884
427.103	66444
427.178	140356
427.253	52197
427.327	8476
427.402	16377
427.476	42269
427.551	20221
427.625	5460
427.700	4505
427.774	2327
427.849	4669
427.923	2328
427.998	3173
428.072	4069
428.147	12413
428.221	59048
428.296	152533
428.370	69088
428.444	10935
428.519	11197
428.593	19445
428.667	16870
428.742	20510
428.816	26187
428.890	107529
428.965	155166
429.039	51439
429.113	23156
429.188	8759
429.262	3809
429.336	10234
429.410	28460
429.485	17111
429.559	16505
429.633	12332
429.707	5866
429.781	22393
429.855	109505
429.930	145336
430.004	70093
430.078	93459
430.152	94624
430.226	205295
430.300	171311
430.374	28789
430.448	11872
430.522	37365
430.596	90054
430.670	63672
430.744	183151
430.818	216293
430.892	41396
430.966	8012
431.040	4301
431.114	2554
431.188	2105
431.262	3546
431.336	2901
431.410	11302
431.484	25251
431.557	16030
431.631	3912
431.705	6950
431.779	36072
431.853	136792
431.927	81270
432.000	10433
432.074	4529
432.148	4838
432.222	4139
432.295	2832
432.369	2544
432.443	10739
432.516	65596
432.590	139687
432.664	44172
432.737	6158
432.811	1541
432.885	1151
432.958	1397
433.032	995
433.106	7
433.179	1191
433.253	632
433.326	1457
433.400	1112
433.473	1538
433.547	446
433.620	2143
433.694	6473
433.767	6952
433.841	2546
433.914	1799
433.988	2240
434.061	2298
434.134	1342
434.208	1651
434.281	1197
434.355	1240
434.428	3512
434.501	1971
434.575	625
434.648	1534
434.721	756
434.795	1448
434.868	467
434.941	1332
435.014	969
435.088	3082
435.161	6949
435.234	11081
435.307	10555
435.381	5044
435.454	5989
435.527	7230
435.600	7032
435.673	6686
435.746	3971
435.819	2773
435.892	2523
435.966	2532
436.039	2093
436.112	1938
436.185	485
436.258	1030
436.331	531
436.404	603
436.477	-9
436.550	888
436.623	727
436.696	1409
436.769	2577
436.842	1886
436.915	1773
436.987	3607
437.060	2238
437.133	1379
437.206	1230
437.279	1879
437.352	-93
437.425	1441
437.498	2923
437.570	7283
437.643	5752
437.716	2197
437.789	1687
437.861	7215
437.934	17495
438.007	7722
438.080	1873
438.152	3405
438.225	12774
438.298	89528
438.370	200235
438.443	74949
438.516	18854
438.588	4896
438.661	1608
438.734	2010
438.806	3249
438.879	3965
438.951	4736
439.024	9327
439.096	2338
439.169	1472
439.241	971
439.314	1320
439.386	4160
439.459	7865
439.531	9996
439.604	4625
439.676	1462
439.749	1156
439.821	652
439.893	1099
439.966	2238
440.038	3335
440.110	3570
440.183	2181
440.255	1531
440.327	6346
440.400	36431
440.472	130269
440.544	74750
440.617	12026
440.689	7023
440.761	10510
440.833	15662
440.905	9238
440.978	1438
441.050	1782
441.122	2408
441.194	1601
441.266	1127
441.338	2344
441.411	7431
441.483	43051
441.555	55208
441.627	13497
441.699	6501
441.771	5437
441.843	2546
441.915	1336
441.987	1790
442.059	1844
442.131	3580
442.203	6479
442.275	7364
442.347	7872
442.419	14560
442.491	78603
442.563	167770
442.635	69334
442.706	31966
442.778	21229
442.850	5623
442.922	3652
442.994	4460
443.066	7044
443.137	6292
443.209	6208
443.281	9788
443.353	23391
443.425	100473
443.496	314571
443.568	287173
443.640	103326
443.711	21460
443.783	9593
443.855	4982
443.926	3604
443.998	4365
444.070	5239
444.141	4538
444.213	8220
444.285	9313
444.356	8599
444.428	8029
444.499	2930
444.571	1833
444.642	2625
444.714	3918
444.785	8050
444.857	9774
444.928	17791
445.000	11067
445.071	14523
445.143	15826
445.214	12569
445.285	21711
445.357	62648
445.428	223362
445.500	444118
445.571	277464
445.642	148551
445.714	55970
445.785	36049
445.856	13374
445.928	11477
445.999	9583
446.070	7559
446.141	7950
446.213	9964
446.284	5530
446.355	5061
446.426	2727
446.497	3399
446.569	7255
446.640	10831
446.711	8759
446.782	3218
446.853	5336
446.924	6178
446.995	4377
447.066	4379
447.138	6262
447.209	4065
447.280	964
447.351	959
447.422	1543
447.493	2997
447.564	4806
447.635	8057
447.706	2789
447.777	1241
447.847	977
447.918	1261
447.989	4041
448.060	5931
448.131	12338
448.202	10890
448.273	8400
448.344	4179
448.414	2289
448.485	2791
448.556	1813
448.627	845
448.698	1470
448.768	534
448.839	2281
448.910	7177
448.981	6372
449.051	2733
449.122	1521
449.193	1414
449.263	1182
449.334	1901
449.405	4054
449.475	10782
449.546	7418
449.616	8602
449.687	7531
449.758	3089
449.828	1445
449.899	1993
449.969	1553
450.040	1795
450.110	4038
450.181	4602
450.251	1847
450.322	2715
450.392	2430
450.463	1581
450.533	1360
450.604	1762
450.674	1240
450.744	2648
450.815	1397
450.885	2860
450.955	1534
451.026	1914
451.096	1897
451.166	3642
451.237	8997
451.307	19313
451.377	7523
451.447	2542
451.518	2026
451.588	1254
451.658	2087
451.728	5771
451.799	21320
451.869	22159
451.939	6390
452.009	1770
452.079	1523
452.149	3018
452.219	6903
452.289	24110
452.360	16237
452.430	4436
452.500	3910
452.570	6667
452.640	10733
452.710	29168
452.780	34425
452.850	25856
452.920	21967
452.990	8971
453.060	4653
453.129	6889
453.199	8661
453.269	33305
453.339	62590
453.409	91932
453.479	94079
453.549	131082
453.619	130044
453.688	51984
453.758	8789
453.828	3857
453.898	2549
453.968	3291
454.037	2682
454.087	2880
454.107	2951
454.168	2023
454.177	1870
454.247	1563
454.249	1584
454.316	1792
454.330	2048
454.386	2942
454.411	6393
454.456	11970
454.492	15015
454.525	17731
454.574	10246
454.595	7026
454.655	3668
454.665	3152
454.734	3490
454.736	3637
454.804	8155
454.817	11019
454.873	22224
454.898	23377
454.943	25116
454.979	17421
455.013	10615
455.060	6183
455.082	4420
455.141	5280
455.152	5274
455.221	15840
455.222	16010
455.291	24958
455.303	22424
455.360	11250
455.384	10016
455.430	8167
455.465	9531
455.499	10454
455.546	16296
455.569	18611
455.627	14071
455.638	13332
455.707	3903
455.708	3907
455.777	2492
455.789	2591
455.846	2950
455.869	2742
455.916	2381
455.950	2580
455.985	2667
456.031	2841
456.054	2927
456.112	2310
456.124	2189
456.193	1709
456.193	1692
456.262	2757
456.274	3244
456.332	5221
456.355	5084
456.401	4605
456.436	4006
456.470	3377
456.516	2602
456.540	2218
456.597	1347
456.609	1191
456.678	2383
456.678	2373
456.747	1389
456.759	1349
456.817	1177
456.840	1317
456.886	1705
456.920	1725
456.955	1750
457.001	2840
457.024	3562
457.082	4143
457.093	4182
457.162	5861
457.163	5890
457.232	7302
457.243	6832
457.301	4313
457.324	3446
457.370	2326
457.405	2785
457.439	3164
457.485	2817
457.508	2750
457.566	3901
457.577	4134
457.646	4056
457.647	4095
457.715	9158
457.727	10072
457.784	15595
457.808	20907
457.853	28350
457.889	33284
457.922	34170
457.969	23541
457.991	22885
458.050	26196
458.060	26631
458.129	46644
458.130	47099
458.198	49536
458.211	45081
458.267	26553
458.292	18968
458.336	11332
458.372	9923
458.405	12003
458.453	18218
458.474	22942
458.533	42923
458.543	44720
458.611	78167
458.614	78379
458.680	52965
458.694	43131
458.749	20168
458.775	14648
458.818	8213
458.855	6651
458.887	5441
458.936	4950
458.955	4895
459.016	4251
459.024	4179
459.093	5270
459.097	5294
459.162	4901
459.177	4982
459.230	6280
459.257	6792
459.299	6731
459.338	6450
459.368	6529
459.418	7398
459.437	7294
459.499	5761
459.505	5698
459.574	4434
459.579	4453
459.643	4125
459.659	4005
459.711	4407
459.740	4758
459.780	5050
459.820	5164
459.849	5183
459.900	5239
459.917	5317
459.981	5953
459.986	5950
460.054	5821
460.061	5824
460.123	6338
460.141	6466
460.191	7965
460.222	9021
460.260	9889
460.302	11552
460.328	11050
460.382	8270
460.397	7935
460.462	6245
460.465	6283
460.534	8272
460.543	8540
460.602	18267
460.623	22329
460.671	32894
460.703	44091
460.739	43667
460.783	36643
460.808	31261
460.864	9609
460.876	7623
460.944	4947
460.945	4919
461.013	5079
461.024	5092
461.081	5629
461.104	5943
461.150	5403
461.184	5009
461.218	4956
461.264	4735
461.286	4768
461.345	5368
461.355	5333
461.423	4582
461.425	4547
461.491	4560
461.505	4854
461.559	9207
461.585	11203
461.628	16097
461.665	21632
461.696	24848
461.745	32417
461.764	29873
461.825	12072
461.832	11540
461.901	6814
461.905	6802
461.969	6119
461.985	5870
462.037	5503
462.065	5158
462.105	5570
462.145	6287
462.173	8456
462.225	12783
462.241	13765
462.305	19640
462.310	19297
462.378	12924
462.385	11709
462.446	7425
462.465	6753
462.514	6331
462.545	6351
462.582	6236
462.625	6008
462.650	5766
462.705	5274
462.718	5361
462.785	6039
462.786	6073
462.854	7578
462.865	7974
462.922	9941
462.945	10762
462.990	8721
463.025	6379
463.058	5906
463.104	5027
463.126	4740
463.184	4890
463.194	5005
463.262	5379
463.264	5410
463.330	5573
463.344	5556
463.398	6603
463.424	7036
463.466	6539
463.504	6211
463.533	6290
463.583	6162
463.601	6345
463.663	7187
463.669	7364
463.737	9389
463.743	9603
463.805	14108
463.823	15403
463.873	21484
463.903	25497
463.940	27141
463.982	29890
464.008	25314
464.062	11953
464.076	11060
464.142	6293
464.144	6248
464.211	6423
464.221	6519
464.279	6491
464.301	6453
464.347	6808
464.381	7259
464.414	7775
464.461	8234
464.482	8972
464.540	11282
464.550	11226
464.617	10501
464.620	10458
464.685	10071
464.699	9959
464.753	11061
464.779	11724
464.820	12361
464.859	12862
464.888	12169
464.938	10955
464.956	11237
465.018	12403
465.023	12326
465.091	10673
465.098	10510
465.158	10234
465.177	10231
465.226	10473
465.257	10406
465.293	10376
465.336	10391
465.361	11263
465.416	13282
465.428	13980
465.495	18041
465.496	18115
465.563	25966
465.575	27433
465.631	33107
465.654	35731
465.698	23963
465.734	12922
465.765	11519
465.813	9397
465.833	9224
465.893	9692
465.900	9653
465.968	9087
465.972	9046
466.035	9058
466.052	9032
466.102	9843
466.131	10300
466.170	10278
466.210	10204
466.237	10471
466.290	10972
466.304	11149
466.369	11870
466.372	11912
466.439	12719
466.449	12815
466.506	14050
466.528	14491
466.573	18380
466.607	21280
466.641	29822
466.687	41732
466.708	45730
466.766	57036
466.775	53243
466.842	23665
466.845	22227
466.909	16664
466.925	15433
466.977	14855
467.004	14615
467.044	14828
467.083	15025
467.111	15876
467.163	17407
467.178	17761
467.242	19140
467.245	19098
467.312	17660
467.321	17448
467.379	16627
467.400	16283
467.446	17270
467.480	17939
467.559	15486
467.638	14991
467.717	14031
467.796	16772
467.875	18037
467.955	16510
468.034	22234
468.113	45779
468.192	63379
468.271	22377
468.350	15804
468.429	19457
468.508	20192
468.588	16216
468.667	14237
468.746	14020
468.825	13824
468.904	12058
468.983	14375
469.062	20244
469.141	24195
469.220	12578
469.299	11478
469.378	12566
469.456	15098
469.535	14003
469.614	13818
469.693	13176
469.772	18108
469.851	22559
469.930	17381
470.009	14826
470.088	15807
470.166	21719
470.245	37261
470.324	45505
470.403	28018
470.482	17575
470.560	14476
470.639	14678
470.718	17709
470.797	14265
470.875	14913
470.954	19652
471.033	21272
471.111	11612
471.190	10064
471.269	9434
471.347	9780
471.426	10925
471.505	11517
471.583	13188
471.662	12685
471.740	11389
471.819	12074
471.898	10273
471.976	11031
472.055	9781
472.133	13399
472.212	14643
472.290	16721
472.369	11275
472.447	10212
472.526	9832
472.604	11067
472.683	10886
472.761	13019
472.839	12474
472.918	11316
472.996	11269
473.075	12632
473.153	11548
473.231	11889
473.310	12771
473.388	12786
473.466	11931
473.545	13800
473.623	19765
473.701	19554
473.780	12194
473.858	10326
473.936	13241
474.014	11476
474.093	12547
474.171	18203
474.249	22248
474.327	16858
474.405	9461
474.484	10947
474.562	10736
474.640	10070
474.718	11369
474.796	11982
474.874	10537
474.952	9336
475.030	10272
475.108	10346
475.187	12923
475.265	14579
475.343	20732
475.421	23865
475.499	11305
475.577	12291
475.655	13644
475.733	25580
475.811	43514
475.889	39194
475.966	28077
476.044	11585
476.122	14597
476.200	19813
476.278	16517
476.356	10203
476.434	10885
476.512	14458
476.590	19144
476.667	17583
476.745	8951
476.823	10729
476.901	9730
476.979	9275
477.056	10479
477.134	10510
477.212	10545
477.290	9977
477.367	8300
477.445	8671
477.523	9062
477.601	8776
477.678	9300
477.756	10239
477.834	12014
477.911	9290
477.989	9207
478.066	10082
478.144	9987
478.222	13487
478.299	24842
478.377	22478
478.454	9526
478.532	8655
478.609	10556
478.687	10840
478.764	8463
478.842	10756
478.919	11271
478.997	11120
479.074	8397
479.152	9884
479.229	12890
479.307	8868
479.384	7946
479.461	7541
479.539	8867
479.616	10832
479.694	8875
479.771	9602
479.848	10118
479.926	12022
480.003	15501
480.080	9727
480.157	7814
480.235	8543
480.312	8303
480.389	9218
480.467	14129
480.544	19110
480.621	10378
480.698	10223
480.775	11952
480.853	10731
480.930	8625
481.007	8383
481.084	9953
481.161	11045
481.238	10488
481.315	7292
481.392	7673
481.470	8483
481.547	9177
481.624	7507
481.701	8344
481.778	9429
481.855	10033
481.932	14940
482.009	22973
482.086	18644
482.163	11173
482.240	16985
482.317	30243
482.393	25028
482.470	10303
482.547	10673
482.624	8851
482.701	8959
482.778	8347
482.855	7540
482.932	7662
483.009	8059
483.085	8851
483.162	12043
483.239	12850
483.316	9294
483.393	9238
483.469	8564
483.546	10783
483.623	12024
483.699	8753
483.776	9183
483.853	10468
483.930	13998
484.006	36220
484.083	62583
484.160	35879
484.236	45112
484.313	34906
484.389	26408
484.466	25077
484.543	23321
484.619	24246
484.696	26784
484.772	25324
484.849	26627
484.925	21706
485.002	22429
485.078	23442
485.155	23706
485.231	20060
485.308	19770
485.384	21088
485.461	23686
485.537	39383
485.614	49125
485.690	23024
485.766	20971
485.843	22568
485.919	33186
485.995	36102
486.072	19185
486.148	19510
486.224	18951
486.301	19291
486.377	22477
486.453	23244
486.530	22279
486.606	27523
486.682	30995
486.758	36014
486.835	42230
486.911	33556
486.987	52560
487.063	68111
487.139	88740
487.215	61000
487.292	29525
487.368	23637
487.444	25468
487.520	33410
487.596	33882
487.672	52904
487.748	147357
487.824	228155
487.900	78355
487.976	29281
488.052	26683
488.128	31698
488.204	25780
488.280	21721
488.356	24081
488.432	46012
488.508	71739
488.584	30338
488.660	21698
488.736	20932
488.812	21184
488.888	28449
488.964	36836
489.039	82574
489.115	133740
489.191	81272
489.267	21395
489.343	19723
489.418	16785
489.494	16346
489.570	14827
489.646	16439
489.722	15936
489.797	16618
489.873	24257
489.949	51489
490.024	47137
490.100	16515
490.176	16090
490.251	21604
490.327	30012
490.403	18288
490.478	15568
490.554	13340
490.629	13772
490.705	14179
490.781	15855
490.856	14885
490.932	17827
491.007	19442
491.083	17299
491.158	15080
491.234	18528
491.309	38331
491.385	43890
491.460	16266
491.536	16444
491.611	15880
491.686	18581
491.762	26145
491.837	53269
491.913	90638
491.988	126677
492.063	169125
492.139	43552
492.214	23545
492.289	13456
492.365	13226
492.440	16051
492.515	15718
492.590	14160
492.666	11874
492.741	16782
492.816	23606
492.891	15708
492.967	12177
493.042	10032
493.117	10815
493.192	10767
493.267	13017
493.342	18395
493.418	21162
493.493	12037
493.568	10992
493.643	10692
493.718	14369
493.793	22328
493.868	27915
493.943	18549
494.018	12847
494.093	10574
494.168	11547
494.243	10010
494.318	9164
494.393	9798
494.468	9393
494.543	9566
494.618	12854
494.693	10552
494.768	11028
494.842	10892
494.917	9724
494.992	10380
495.067	10024
495.142	10446
495.217	10574
495.292	11656
495.366	13773
495.441	17824
495.516	22512
495.591	31120
495.665	113958
495.740	286995
495.815	126119
495.890	18095
495.964	12457
496.039	14541
496.114	12592
496.188	14132
496.263	13959
496.338	12683
496.412	14625
496.487	16434
496.561	19469
496.636	19804
496.710	14527
496.785	15710
496.860	18401
496.934	15722
497.009	16532
497.083	14120
497.158	16521
497.232	19011
497.307	23093
497.381	19959
497.455	22140
497.530	28443
497.604	21251
497.679	23328
497.753	35512
497.827	49063
497.902	47001
497.976	49195
498.050	97452
498.125	376877
498.199	433647
498.273	83877
498.348	58612
498.422	44529
498.496	40282
498.570	36395
498.645	27159
498.719	24991
498.793	27870
498.867	40677
498.941	50790
499.016	143234
499.090	404090
499.164	174148
499.238	20305
499.312	17614
499.386	22346
499.460	20426
499.534	18694
499.609	22179
499.683	29516
499.757	29006
499.831	59351
499.905	250995
499.979	272482
500.053	41896
500.127	39306
500.201	32597
500.275	18381
500.349	17965
500.422	20156
500.496	29738
500.570	66540
500.644	145622
500.718	274040
500.792	76702
500.866	17212
500.940	20208
501.013	18591
501.087	18083
501.161	31899
501.235	39887
501.309	73779
501.382	218258
501.456	218583
501.530	47047
501.603	70189
501.677	33579
501.751	12688
501.825	16665
501.898	28300
501.972	84253
502.046	62332
502.119	16915
502.193	37378
502.266	92042
502.340	52435
502.413	38392
502.487	80901
502.561	50122
502.634	17508
502.708	15051
502.781	12504
502.855	12268
502.928	8549
503.002	8953
503.075	8113
503.149	10082
503.222	10412
503.295	11528
503.369	13612
503.442	17884
503.516	60052
503.589	163267
503.662	118334
503.736	34813
503.809	73246
503.882	69288
503.956	86671
504.029	98754
504.102	91520
504.175	127267
504.249	44081
504.322	19478
504.395	16301
504.468	11720
504.542	9575
504.615	7757
504.688	8526
504.761	7597
504.834	12520
504.907	15107
504.980	26069
505.053	13234
505.127	14085
505.200	18439
505.273	14697
505.346	10221
505.419	7004
505.492	7802
505.565	6221
505.638	7106
505.711	6111
505.784	5996
505.857	5850
505.930	7824
506.003	5759
506.076	9045
506.149	9850
506.221	13460
506.294	13523
506.367	30368
506.440	115214
506.513	75697
506.586	16365
506.659	9640
506.731	8249
506.804	9818
506.877	16530
506.950	11546
507.022	8208
507.095	8655
507.168	13657
507.241	9634
507.313	6858
507.386	7951
507.459	15641
507.531	10119
507.604	6396
507.677	7795
507.749	5459
507.822	10713
507.894	21143
507.967	24790
508.040	12503
508.112	10770
508.185	11096
508.257	9504
508.330	16729
508.402	10239
508.475	9119
508.547	11867
508.620	9971
508.692	16105
508.765	12148
508.837	7846
508.909	8622
508.982	8412
509.054	9958
509.127	9195
509.199	6788
509.271	6046
509.344	6827
509.416	7339
509.488	7481
509.560	9279
509.633	9363
509.705	11241
509.777	9643
509.849	16543
509.922	10498
509.994	7515
510.066	8900
510.138	8660
510.210	18035
510.283	16460
510.355	13116
510.427	11457
510.499	11974
510.571	11452
510.643	11167
510.715	19651
510.787	17781
510.859	12538
510.931	13239
511.003	18859
511.076	18538
511.148	10354
511.219	9385
511.291	15848
511.363	19213
511.435	9678
511.507	8120
511.579	9266
511.651	9120
511.723	8370
511.795	8243
511.867	9380
511.939	11075
512.010	22510
512.082	21521
512.154	10100
512.226	10983
512.298	15891
512.369	23776
512.441	18027
512.513	18931
512.585	14500
512.656	13607
512.728	15349
512.800	12651
512.871	11870
512.943	12028
513.015	10169
513.086	11493
513.158	13377
513.230	12969
513.301	20738
513.373	27308
513.444	14644
513.516	11614
513.588	11471
513.659	12800
513.731	17219
513.802	14094
513.874	31656
513.945	60467
514.016	21056
514.088	12285
514.159	12522
514.231	18507
514.302	22622
514.374	15636
514.445	13981
514.516	27584
514.588	22128
514.659	14802
514.730	24229
514.802	24041
514.873	18195
514.944	19028
515.016	15315
515.087	17275
515.158	19943
515.229	28493
515.301	18769
515.372	24274
515.443	14604
515.514	12933
515.585	10206
515.656	12490
515.728	11829
515.799	10690
515.870	13591
515.941	13051
516.012	13768
516.083	18443
516.154	20994
516.225	30570
516.296	30601
516.367	28050
516.438	34501
516.509	42864
516.580	61712
516.651	202813
516.722	776641
516.793	365585
516.864	65614
516.935	58968
517.006	68707
517.077	88727
517.148	198164
517.219	845903
517.289	1426064
517.360	306979
517.431	84287
517.502	29297
517.573	25806
517.643	23291
517.714	26011
517.785	28109
517.856	31810
517.926	41521
517.997	53659
518.068	70262
518.138	93618
518.209	139125
518.280	529305
518.350	2024268
518.421	891399
518.492	100034
518.562	47472
518.633	39214
518.703	36906
518.774	59519
518.845	147461
518.915	156452
518.986	50038
519.056	33778
519.127	52025
519.197	74665
519.268	142282
519.338	99710
519.408	25805
519.479	32355
519.549	24740
519.620	17385
519.690	11455
519.760	11201
519.831	12573
519.901	13623
519.971	10630
520.042	11636
520.112	14368
520.182	18176
520.253	21550
520.323	14552
520.393	25051
520.463	46737
520.534	28547
520.604	69142
520.674	28337
520.744	23778
520.814	71776
520.885	66224
520.955	41288
521.025	152016
521.095	74618
521.165	13811
521.235	12404
521.305	9534
521.375	10474
521.445	12223
521.515	16691
521.585	20600
521.655	18869
521.725	15137
521.795	14546
521.865	7295
521.935	15991
522.005	14436
522.075	8867
522.145	10128
522.215	11690
522.285	17634
522.355	21604
522.424	42810
522.494	39942
522.564	21439
522.634	43260
522.704	134818
522.774	56140
522.843	13923
522.913	12379
522.983	16604
523.053	12733
523.122	13091
523.192	17312
523.262	73271
523.331	76512
523.401	14679
523.471	9486
523.540	10393
523.610	7870
523.680	8108
523.749	7500
523.819	10784
523.888	10726
523.958	8199
524.027	8678
524.097	8900
524.166	8264
524.236	10845
524.305	10885
524.375	7574
524.444	7093
524.514	9173
524.583	8892
524.653	10809
524.722	13480
524.791	9191
524.861	9149
524.930	7996
524.999	8313
525.069	14524
525.138	10663
525.207	11961
525.277	10647
525.346	9663
525.415	10010
525.484	10572
525.554	12002
525.623	12973
525.692	12717
525.761	14644
525.830	16669
525.900	20991
525.969	29604
526.038	48895
526.107	94316
526.176	298751
526.245	261153
526.314	82032
526.383	149200
526.452	215295
526.522	335950
526.591	379190
526.660	107865
526.729	55429
526.797	54541
526.867	97805
526.935	414349
527.004	793552
527.073	480559
527.142	50120
527.211	21031
527.280	18049
527.349	18068
527.418	8953
527.487	9910
527.555	8865
527.624	7711
527.693	5572
527.762	8286
527.831	6603
527.899	7755
527.968	8031
528.037	6500
528.106	11167
528.174	21954
528.243	16454
528.312	23633
528.380	34009
528.449	10362
528.518	8104
528.586	4474
528.655	7044
528.723	5993
528.792	6033
528.861	6754
528.929	4719
528.998	6985
529.066	5618
529.135	5752
529.203	5477
529.272	4691
529.340	6597
529.409	7729
529.477	5752
529.545	7925
529.614	11563
529.682	10565
529.751	13733
529.819	14940
529.887	10486
529.956	5912
530.024	7522
530.092	5739
530.161	8923
530.229	15503
530.297	8698
530.365	6610
530.434	5937
530.502	4540
530.570	5713
530.638	4061
530.707	6653
530.775	7783
530.843	4754
530.911	5814
530.979	5796
531.047	4880
531.115	6073
531.183	5151
531.252	6315
531.320	6269
531.388	4780
531.456	6397
531.524	3913
531.592	6619
531.660	7844
531.728	5991
531.796	5286
531.864	5875
531.932	6283
532.000	5810
532.067	6082
532.135	8060
532.203	10132
532.271	8648
532.339	19820
532.407	59205
532.475	36542
532.542	15746
532.610	15554
532.678	20559
532.746	89436
532.814	254550
532.881	67914
532.949	13074
533.017	8423
533.084	6867
533.152	6884
533.220	6628
533.287	8492
533.355	6693
533.423	6287
533.490	6316
533.558	6528
533.625	7003
533.693	7895
533.761	8216
533.828	8195
533.896	7725
533.963	17781
534.031	23760
534.098	31926
534.166	15411
534.233	7179
534.300	9288
534.368	8880
534.435	8908
534.503	10468
534.570	15231
534.637	13489
534.705	12417
534.772	16466
534.840	28405
534.907	129070
534.974	189404
535.041	26660
535.109	12864
535.176	8512
535.243	8802
535.310	8413
535.378	8242
535.445	6814
535.512	6475
535.579	7722
535.646	6884
535.714	6832
535.781	10118
535.848	9612
535.915	9721
535.982	7305
536.049	7737
536.116	9670
536.183	8145
536.250	8820
536.317	8034
536.384	11752
536.451	18170
536.518	20886
536.585	12844
536.652	16785
536.719	26726
536.786	20822
536.853	15080
536.920	22445
536.987	37868
537.053	33703
537.120	120760
537.187	114388
537.254	14910
537.321	9817
537.388	10783
537.454	8686
537.521	7713
537.588	8112
537.654	10802
537.721	11524
537.788	11190
537.855	8454
537.921	10372
537.988	9503
538.055	9690
538.121	8962
538.188	11056
538.254	17205
538.321	39565
538.388	25608
538.454	11176
538.521	10212
538.587	8739
538.654	8369
538.720	8001
538.787	9078
538.853	9581
538.920	12897
538.986	13142
539.053	10734
539.119	11088
539.185	10550
539.252	13338
539.318	22813
539.385	16554
539.451	12756
539.517	13308
539.583	15717
539.650	32275
539.716	92322
539.782	29973
539.849	11187
539.915	11239
539.981	11502
540.047	15525
540.114	13114
540.180	14375
540.246	13002
540.312	18084
540.378	37341
540.444	41286
540.510	36484
540.576	104751
540.643	36815
540.709	11384
540.775	10572
540.841	10486
540.907	14375
540.973	26513
541.039	23252
541.105	24261
541.171	13141
541.237	10640
541.303	11327
541.369	13771
541.435	18442
541.500	35282
541.566	23004
541.632	11675
541.698	8862
541.764	9974
541.830	9605
541.896	8724
541.961	10807
542.027	9876
542.093	11220
542.159	11354
542.224	11518
542.290	18087
542.356	32844
542.421	42671
542.487	17747
542.553	11614
542.618	13405
542.684	11866
542.750	11705
542.815	14012
542.881	23333
542.947	87849
543.012	71378
543.078	13277
543.143	10779
543.209	11966
543.274	11635
543.340	13534
543.405	32578
543.471	57229
543.536	15309
543.602	10683
543.667	8447
543.732	10529
543.798	8801
543.863	10203
543.928	9311
543.994	8360
544.059	9883
544.124	9391
544.190	9708
544.255	10295
544.320	11200
544.386	11554
544.451	17917
544.516	21444
544.581	19595
544.646	53336
544.712	92335
544.777	20621
544.842	12477
544.907	13440
544.972	12852
545.037	11501
545.102	13339
545.168	12650
545.233	14079
545.298	14346
545.363	16831
545.428	18829
545.493	33007
545.558	77156
545.623	33357
545.688	13896
545.753	13326
545.818	12552
545.883	13389
545.947	13166
546.012	14794
546.077	14377
546.142	15308
546.207	14804
546.272	20614
546.337	22841
546.401	16952
546.466	16660
546.531	14346
546.596	17906
546.661	17975
546.725	17773
546.790	16224
546.855	17412
546.919	18112
546.984	20471
547.049	21875
547.113	25403
547.178	25887
547.243	29063
547.307	33398
547.372	37784
547.436	40187
547.501	35524
547.565	39131
547.630	40198
547.695	40996
547.759	40391
547.823	38103
547.888	35188
547.952	34918
548.017	37968
548.081	41330
548.146	44859
548.210	43549
548.274	40157
548.339	39576
548.403	37009
548.468	34348
548.532	34031
548.596	34517
548.660	34764
548.725	39596
548.789	45395
548.853	45013
548.917	39076
548.982	41932
549.046	42041
549.110	32893
549.174	32778
549.238	34938
549.303	38974
549.367	41592
549.431	39931
549.495	36251
549.559	36357
549.623	41802
549.687	47443
549.751	54252
549.815	53972
549.879	53414
549.943	49193
550.007	53395
550.071	53714
550.135	53378
550.199	47650
550.263	45486
550.327	45200
550.391	51586
550.455	48898
550.519	50632
550.582	54774
550.646	67590
550.710	68239
550.774	60031
550.838	61821
550.901	63688
550.965	66477
551.029	70412
551.093	77228
551.156	86842
551.220	121632
551.284	151518
551.347	98345
551.411	101858
551.475	107190
551.538	68650
551.602	60777
551.666	58053
551.729	53048
551.793	51815
551.856	50746
551.920	49293
551.983	49258
552.047	49415
552.110	49929
552.174	49902
552.237	52071
552.301	50184
552.364	45526
552.428	46472
552.491	47458
552.554	50518
552.618	50536
552.681	54169
552.745	55963
552.808	85301
552.871	116452
552.934	73144
552.998	54779
553.061	50716
553.124	46406
553.187	45267
553.251	46065
553.314	47026
553.377	45155
553.440	49780
553.503	53098
553.567	54743
553.630	49404
553.693	47786
553.756	49432
553.819	45858
553.882	45082
553.945	45933
554.008	45220
554.071	44642
554.134	45889
554.197	43298
554.260	41549
554.323	45638
554.386	44810
554.449	46345
554.512	46406
554.575	44287
554.638	44141
554.701	45099
554.764	42170
554.827	41266
554.889	39740
554.952	38521
555.015	37904
555.078	38431
555.141	39167
555.203	37347
555.266	38832
555.329	37538
555.391	36222
555.454	38575
555.517	37872
555.580	35589
555.642	33589
555.705	32410
555.768	33132
555.830	32899
555.893	29854
555.955	28426
556.018	29692
556.080	30110
556.143	30431
556.206	31054
556.268	31201
556.330	32798
556.393	30378
556.455	29022
556.518	35138
556.580	36904
556.643	27799
556.705	25950
556.767	25711
556.830	26332
556.892	28270
556.955	39970
557.017	32572
557.079	25339
557.142	25177
557.204	28831
557.266	49198
557.328	43303
557.391	23253
557.453	21751
557.515	23555
557.577	27463
557.639	30115
557.701	23306
557.764	23884
557.826	25436
557.888	27378
557.950	29785
558.012	31841
558.074	41343
558.136	92025
558.198	245872
558.260	96474
558.322	37132
558.384	36936
558.446	42966
558.508	49983
558.570	64496
558.632	90177
558.694	128779
558.756	145118
558.818	422788
558.880	1120148
558.942	386001
559.003	270556
559.065	145014
559.127	56129
559.189	54662
559.251	60358
559.312	83772
559.374	199631
559.436	718084
559.498	387986
559.559	67018
559.621	54717
559.683	59468
559.744	95830
559.806	323055
559.868	532497
559.929	107997
559.991	55871
560.052	81817
560.114	242106
560.176	164084
560.237	131983
560.299	236996
560.360	57334
560.422	23239
560.483	18632
560.545	17177
560.606	15916
560.667	16426
560.729	14237
560.790	14395
560.852	14214
560.913	14644
560.974	14287
561.036	13993
561.097	14588
561.158	14469
561.220	15547
561.281	15538
561.342	15574
561.403	18675
561.465	23371
561.526	55470
561.587	79162
561.648	22285
561.709	15422
561.771	14669
561.832	12654
561.893	13508
561.954	13727
562.015	12915
562.076	13598
562.137	13288
562.198	12548
562.259	12980
562.320	13564
562.381	16324
562.442	23478
562.503	19083
562.564	13640
562.625	13251
562.686	13237
562.747	15111
562.808	13819
562.869	12503
562.930	15129
562.991	14475
563.051	13356
563.112	13302
563.173	12661
563.234	12571
563.294	13154
563.355	13388
563.416	14328
563.477	12596
563.537	12131
563.598	13955
563.659	13886
563.720	13675
563.780	13430
563.841	14624
563.901	14048
563.962	13408
564.023	13066
564.083	13502
564.144	13368
564.204	13303
564.265	13936
564.325	16023
564.386	28847
564.446	27026
564.507	13166
564.567	13216
564.628	13084
564.688	12854
564.749	11829
564.809	15327
564.869	17109
564.930	13154
564.990	14138
565.050	11345
565.111	12369
565.171	12097
565.231	12555
565.292	13485
565.352	12076
565.412	12291
565.472	13996
565.532	15228
565.593	14674
565.653	12712
565.713	13634
565.773	15547
565.833	18347
565.893	24852
565.953	15174
566.013	13729
566.074	15335
566.134	18542
566.194	28413
566.254	31248
566.314	21227
566.374	15145
566.434	16117
566.494	16058
566.554	16260
566.614	16033
566.673	16647
566.733	17343
566.793	18889
566.853	18377
566.913	19211
566.973	20249
567.033	20488
567.092	21186
567.152	19885
567.212	20397
567.272	21253
567.331	21997
567.391	22437
567.451	23465
567.511	28666
567.570	29568
567.630	21223
567.690	21329
567.749	21237
567.809	22322
567.868	25589
567.928	29159
567.988	33241
568.047	37118
568.107	45284
568.166	62289
568.226	97142
568.285	134503
568.345	113987
568.404	89610
568.464	75738
568.523	71170
568.582	71433
568.642	80243
568.701	97630
568.761	145255
568.820	227337
568.879	218904
568.939	160928
568.998	115438
569.057	86551
569.116	69066
569.176	56008
569.235	45913
569.294	40641
569.353	33930
569.413	33035
569.472	28645
569.531	25694
569.590	24348
569.649	22836
569.708	21145
569.767	21767
569.827	25298
569.886	22333
569.945	19112
570.004	19484
570.063	17821
570.122	19020
570.181	18985
570.240	20459
570.299	20572
570.358	21351
570.417	17311
570.475	16694
570.534	17539
570.593	17141
570.652	18063
570.711	18276
570.770	16901
570.829	18016
570.887	19284
570.946	20793
571.005	15884
571.064	16355
571.122	20003
571.181	19646
571.240	15210
571.299	13954
571.357	14697
571.416	15124
571.475	16404
571.533	18002
571.592	14755
571.650	16044
571.709	13921
571.768	14764
571.826	15391
571.885	14866
571.943	12696
572.002	13061
572.060	14179
572.119	12967
572.177	12705
572.236	11578
572.294	11791
572.352	13449
572.411	13587
572.469	12416
572.528	12688
572.586	13837
572.644	14410
572.703	19708
572.761	14779
572.819	11473
572.877	11012
572.936	11758
572.994	10744
573.052	11747
573.110	13124
573.169	12579
573.227	12043
573.285	12900
573.343	12018
573.401	12081
573.459	12445
573.517	12521
573.576	12289
573.634	13066
573.692	12834
573.750	12707
573.808	11562
573.866	12892
573.924	14899
573.982	16244
574.040	12291
574.098	12081
574.155	11095
574.213	11233
574.271	11672
574.329	12503
574.387	11631
574.445	10347
574.503	10901
574.560	10708
574.618	10016
574.676	10442
574.734	11064
574.792	10283
574.849	10091
574.907	10247
574.965	9876
575.022	9358
575.080	10117
575.138	10670
575.195	11129
575.253	11418
575.311	13772
575.368	10564
575.426	10758
575.483	10842
575.541	10666
575.598	11172
575.656	11167
575.713	11631
575.771	10657
575.828	11433
575.886	11018
575.943	12175
576.001	11007
576.058	11765
576.115	12620
576.173	13667
576.230	15990
576.287	18589
576.345	15253
576.402	12126
576.459	11852
576.517	11753
576.574	13219
576.631	13695
576.688	11691
576.746	11364
576.803	10497
576.860	10850
576.917	10566
576.974	10093
577.031	11422
577.089	11850
577.146	11620
577.203	11540
577.260	12569
577.317	12075
577.374	14090
577.431	13280
577.488	12090
577.545	11771
577.602	10331
577.659	10228
577.716	11184
577.773	11738
577.830	9690
577.886	11875
577.943	11129
578.000	10947
578.057	12495
578.114	10943
578.171	11481
578.227	11208
578.284	11003
578.341	11452
578.398	11494
578.454	12970
578.511	14720
578.568	15171
578.625	13685
578.681	12133
578.738	11608
578.794	11093
578.851	11660
578.908	10786
578.964	11556
579.021	11885
579.077	11361
579.134	12219
579.190	11842
579.247	10921
579.303	11161
579.360	10800
579.416	11027
579.473	10351
579.529	10377
579.586	10895
579.642	11503
579.698	11185
579.755	11869
579.811	12069
579.867	11218
579.924	11681
579.980	10056
580.036	11952
580.093	11714
580.149	11694
580.205	12010
580.261	12263
580.317	11974
580.374	13329
580.430	15386
580.486	14576
580.542	12561
580.598	13218
580.619	13093
580.654	12887
580.692	12787
580.710	12754
580.765	12990
580.767	13007
580.823	12753
580.838	12944
580.879	13482
580.911	13126
580.935	12894
580.984	12702
580.991	12683
581.047	13232
581.057	13146
581.103	12805
581.130	12595
581.159	12383
581.203	12266
581.215	12249
581.270	12594
581.276	12546
581.326	12155
581.349	12389
581.382	12735
581.422	13062
581.438	13200
581.494	12922
581.494	12913
581.550	12522
581.567	12937
581.606	13797
581.640	13587
581.661	13510
581.713	13017
581.717	12974
581.773	12810
581.786	12655
581.829	12206
581.859	13189
581.885	14021
581.932	13414
581.940	13306
581.996	13667
582.004	13518
582.052	12666
582.077	12953
582.107	13410
582.150	13550
582.163	13514
582.219	13819
582.223	13784
582.274	13673
582.296	13511
582.330	13173
582.368	14031
582.386	14448
582.441	13781
582.441	13780
582.497	14011
582.514	13793
582.552	13507
582.587	13621
582.608	13615
582.659	13231
582.663	13217
582.719	14399
582.732	14342
582.774	14140
582.805	14141
582.830	14087
582.877	14740
582.885	14840
582.941	14133
582.950	14144
582.996	14319
583.023	14277
583.052	14256
583.095	14418
583.107	14448
583.162	15028
583.168	15040
583.218	15116
583.240	14875
583.273	14530
583.313	14613
583.328	14698
583.384	15460
583.385	15451
583.439	15052
583.458	15059
583.494	14959
583.531	15081
583.549	15195
583.603	15893
583.605	15917
583.660	15677
583.676	15473
583.715	14962
583.748	15380
583.770	15741
583.820	17806
583.825	17959
583.881	15976
583.893	15887
583.936	15906
583.965	16146
583.991	16257
584.038	16761
584.046	16893
584.101	16701
584.110	16690
584.156	16476
584.183	16458
584.211	16452
584.255	16800
584.266	16868
584.321	16907
584.328	16937
584.376	17557
584.400	18009
584.431	18476
584.472	17724
584.486	17470
584.541	18408
584.545	18400
584.596	18314
584.617	18645
584.651	19506
584.689	19803
584.706	19733
584.761	20393
584.762	20390
584.816	20525
584.834	20697
584.871	21544
584.906	22109
584.926	22170
584.978	22744
584.980	22814
585.035	24807
585.051	25594
585.090	27204
585.123	28303
585.145	29173
585.195	31577
585.200	31842
585.254	34814
585.267	35802
585.309	39421
585.340	42399
585.364	44932
585.412	49833
585.419	50704
585.473	58971
585.484	61303
585.528	75307
585.556	88984
585.583	119284
585.628	189956
585.637	217521
585.692	445903
585.700	487507
585.747	631576
585.772	558113
585.801	363466
585.845	128470
585.856	101626
585.910	58316
585.917	54138
585.965	44497
585.989	41203
586.019	38760
586.061	36449
586.074	36095
586.128	35901
586.133	35879
586.183	36718
586.205	37298
586.237	37577
586.277	36772
586.292	36588
586.346	36354
586.349	36338
586.401	36051
586.421	36017
586.455	36991
586.493	39451
586.509	41815
586.564	48926
586.565	49233
586.618	67147
586.637	69261
586.672	62866
586.709	52550
586.727	49745
586.781	49677
586.781	49705
586.835	45016
586.853	43723
586.889	42666
586.925	42448
586.944	42684
586.996	43880
586.998	43967
587.052	45239
587.068	45526
587.106	46228
587.140	47525
587.161	48367
587.212	49731
587.215	49864
587.269	51791
587.284	52296
587.323	53410
587.356	54907
587.377	56582
587.427	59468
587.431	59637
587.485	61986
587.499	62592
587.539	65527
587.571	67224
587.593	68369
587.643	72050
587.648	72561
587.702	77096
587.715	78429
587.755	83392
587.786	86881
587.810	89160
587.858	93413
587.864	94243
587.917	102863
587.930	104787
587.971	112598
588.001	118793
588.025	124275
588.073	135394
588.079	137111
588.133	152968
588.145	156475
588.187	172017
588.217	183730
588.241	195499
588.288	219478
588.295	223492
588.348	259398
588.360	267096
588.402	300247
588.431	325217
588.456	351313
588.503	403957
588.510	413853
588.564	497301
588.575	516124
588.617	613423
588.646	685169
588.671	781024
588.718	978711
588.725	1027232
588.778	1425366
588.789	1510467
588.832	1962758
588.861	2268347
588.886	2390293
588.932	2504024
588.939	2479877
588.993	2159761
589.004	2139799
589.047	2384404
589.075	2447931
589.100	2186310
589.147	1615513
589.154	1561445
589.207	1172823
589.218	1099472
589.261	1002375
589.290	950327
589.314	979866
589.361	1056721
589.368	1095529
589.421	1439259
589.433	1516963
589.475	1948893
589.504	2243000
589.528	2288798
589.576	2238939
589.582	2227232
589.635	2178249
589.647	2139304
589.689	1633081
589.718	1251834
589.742	1047616
589.790	678049
589.795	658487
589.849	492055
589.861	455778
589.902	389041
589.932	340630
589.955	312546
590.004	255544
590.009	252297
590.062	217586
590.075	209242
590.115	191133
590.146	177071
590.168	170466
590.218	156654
590.222	155847
590.275	142440
590.289	139028
590.328	132534
590.360	126797
590.381	123526
590.431	115537
590.435	115272
590.488	108452
590.503	106460
590.541	103275
590.574	99989
590.594	98229
590.645	93515
590.647	93493
590.700	89030
590.716	87667
590.753	86154
590.787	84229
590.806	83401
590.859	81220
590.859	81313
590.912	78345
590.930	77223
590.965	76565
591.001	75914
591.018	75219
591.071	72453
591.072	72292
591.124	71094
591.143	70575
591.177	70151
591.214	69421
591.230	69632
591.283	69801
591.285	69673
591.336	70222
591.356	70278
591.389	69635
591.427	68350
591.442	67538
591.495	64138
591.498	63757
591.547	62870
591.569	62316
591.600	61982
591.640	61227
591.653	61519
591.706	62182
591.711	62131
591.759	62994
591.782	63300
591.811	64107
591.853	64784
591.864	64254
591.917	60712
591.924	60089
591.969	60586
591.995	60647
592.022	60605
592.066	60229
592.075	60873
592.127	64077
592.137	64519
592.180	66904
592.208	68170
592.233	65498
592.279	59860
592.285	59970
592.338	59901
592.350	59751
592.390	58517
592.421	57345
592.443	58199
592.491	59648
592.495	59733
592.548	58941
592.562	58583
592.600	58472
592.633	58115
592.653	57806
592.704	56337
592.705	56694
592.775	58423
592.846	59658
592.916	60365
592.987	62653
593.058	60603
593.128	57585
593.199	58016
593.270	56426
593.341	56545
593.411	57365
593.482	59045
593.553	60176
593.623	58069
593.694	60387
593.764	62122
593.835	59637
593.906	59151
593.976	59397
594.047	62094
594.117	67330
594.188	68303
594.258	62081
594.329	61623
594.399	62392
594.470	64935
594.540	64529
594.611	66136
594.681	65729
594.751	65988
594.822	70100
594.892	71783
594.963	72852
595.033	71934
595.103	73468
595.174	76155
595.244	89781
595.314	97393
595.384	77747
595.455	77641
595.525	79470
595.595	82966
595.665	81616
595.736	80231
595.806	80900
595.876	81698
595.946	81912
596.016	83517
596.087	86417
596.157	85401
596.227	85375
596.297	91310
596.367	95423
596.437	100881
596.507	108733
596.577	117129
596.647	103208
596.717	105404
596.787	106980
596.857	105208
596.927	106923
596.997	108023
597.067	106730
597.137	109586
597.207	110606
597.277	112094
597.347	106417
597.417	103413
597.487	104456
597.557	107358
597.626	110060
597.696	113862
597.766	116459
597.836	120578
597.906	102133
597.975	97193
598.045	98352
598.115	100703
598.185	108164
598.254	120392
598.324	130304
598.394	133613
598.464	129486
598.533	125046
598.603	117145
598.672	115076
598.742	117836
598.812	115885
598.881	119004
598.951	117284
599.020	117975
599.090	123258
599.159	125236
599.229	120149
599.299	117876
599.368	120831
599.437	117184
599.507	110475
599.576	107687
599.646	104953
599.715	103700
599.785	105051
599.854	103000
599.924	103184
599.993	101821
600.062	99813
600.132	102777
600.201	109125
600.270	126405
600.340	130959
600.409	127221
600.478	127073
600.547	130477
600.617	118617
600.686	99071
600.755	90571
600.824	88993
600.894	84326
600.963	83516
601.032	81170
601.101	79571
601.170	76098
601.239	76284
601.308	78897
601.378	77564
601.447	74797
601.516	73889
601.585	77864
601.654	82356
601.723	79133
601.792	78431
601.861	80601
601.930	84935
601.999	88499
602.068	86703
602.137	91451
602.206	91985
602.275	88741
602.343	94659
602.412	94646
602.481	88868
602.550	87778
602.619	91054
602.688	93261
602.756	92147
602.825	91701
602.894	93953
602.963	93976
603.032	97085
603.100	98565
603.169	96466
603.238	98417
603.307	98524
603.375	99370
603.444	100665
603.513	102847
603.581	103625
603.650	106027
603.719	103907
603.787	106841
603.856	110045
603.924	113286
603.993	116378
604.061	119400
604.130	124431
604.198	127812
604.267	128642
604.335	131278
604.404	132143
604.472	132766
604.541	135043
604.609	136949
604.678	136243
604.746	138047
604.815	141240
604.883	143569
604.951	142771
605.020	144938
605.088	146462
605.156	152771
605.225	153477
605.293	153579
605.361	155429
605.429	156028
605.498	159226
605.566	165942
605.634	172984
605.702	178181
605.771	180257
605.839	182112
605.907	178748
605.975	171425
606.043	167956
606.111	169411
606.180	167434
606.248	167647
606.316	165382
606.384	167041
606.452	172805
606.520	182791
606.588	181004
606.656	176813
606.724	172718
606.792	163578
606.860	146057
606.928	133860
606.996	128636
607.064	126050
607.132	130375
607.200	138788
607.267	142916
607.335	145963
607.403	147270
607.471	142713
607.539	139783
607.607	140266
607.674	125848
607.742	126248
607.810	126354
607.878	126558
607.946	127941
608.013	133556
608.081	137190
608.149	139329
608.216	141108
608.284	146047
608.352	146459
608.419	145795
608.487	150029
608.555	140694
608.622	141800
608.690	151099
608.757	166189
608.825	172261
608.893	169543
608.960	164714
609.028	162295
609.095	162373
609.163	152104
609.230	135198
609.298	123189
609.365	129047
609.432	140096
609.500	150341
609.567	175825
609.635	199993
609.702	209429
609.769	201240
609.837	161597
609.904	140080
609.971	146767
610.039	172354
610.106	243220
610.173	503729
610.241	1198642
610.308	775582
610.375	323965
610.442	172656
610.509	148481
610.577	144463
610.644	144305
610.711	147336
610.778	150039
610.845	155708
610.912	164271
610.980	172189
611.047	171773
611.114	169622
611.181	163673
611.248	160694
611.315	171329
611.382	174930
611.449	181752
611.516	183096
611.583	180987
611.650	183137
611.717	186637
611.784	193289
611.851	204775
611.918	228389
611.984	274884
612.051	414517
612.118	892014
612.185	2189090
612.252	1323933
612.319	330986
612.386	255112
612.452	228669
612.519	215462
612.586	217758
612.653	213021
612.719	217496
612.786	206014
612.853	190676
612.919	186683
612.986	191332
613.053	177194
613.120	166034
613.186	161650
613.253	161903
613.319	162781
613.386	164207
613.453	167078
613.519	174215
613.586	177270
613.652	195605
613.719	181543
613.785	178181
613.852	168219
613.918	166609
613.985	168349
614.051	177105
614.118	176245
614.184	169849
614.250	166235
614.317	170848
614.383	167366
614.449	172483
614.516	168577
614.582	169990
614.648	167721
614.715	164930
614.781	163900
614.847	164788
614.914	162784
614.980	160447
615.046	159296
615.112	163220
615.179	164947
615.245	171506
615.311	179159
615.377	211865
615.443	216133
615.509	186627
615.575	183161
615.642	179091
615.708	185965
615.774	199498
615.840	216136
615.906	250019
615.972	339680
616.038	581071
616.104	1164191
616.170	2575934
616.236	2092747
616.302	504184
616.368	357763
616.434	249500
616.500	227247
616.565	255727
616.631	328961
616.697	259995
616.763	270288
616.829	430797
616.895	798658
616.961	737283
617.026	292493
617.092	193859
617.158	178867
617.224	171764
617.289	160732
617.355	151379
617.421	148657
617.487	150394
617.552	140129
617.618	139067
617.684	139319
617.749	141580
617.815	133016
617.880	128016
617.946	130074
618.012	133455
618.077	136860
618.143	130111
618.208	131478
618.274	140871
618.339	141538
618.405	117738
618.470	116867
618.536	117456
618.601	118891
618.667	110532
618.732	103802
618.798	103107
618.863	101494
618.928	101323
618.994	104811
619.059	107373
619.124	121940
619.190	108360
619.255	100552
619.320	100852
619.386	100181
619.451	98260
619.516	96887
619.581	98316
619.647	99740
619.712	101036
619.777	95324
619.842	97625
619.907	100809
619.972	100135
620.038	100182
620.103	97204
620.168	94115
620.233	98263
620.298	97211
620.363	99496
620.428	101587
620.493	105748
620.558	104784
620.623	106030
620.688	103942
620.753	104787
620.818	106604
620.883	107373
620.948	107502
621.013	105726
621.078	105223
621.143	106584
621.207	110799
621.272	108622
621.337	106152
621.402	107162
621.467	111484
621.532	112684
621.596	107793
621.661	102170
621.726	99168
621.791	100816
621.855	102637
621.920	102748
621.985	106785
622.049	110024
622.114	109071
622.179	106908
622.243	108767
622.308	112112
622.373	116222
622.437	112563
622.502	105889
622.566	106743
622.631	105260
622.695	108580
622.760	106123
622.824	106608
622.889	110451
622.953	113133
623.018	138022
623.082	134067
623.147	113333
623.211	110706
623.276	113096
623.340	104199
623.404	102558
623.469	101890
623.533	102590
623.597	100606
623.662	98702
623.726	93292
623.790	87117
623.854	86995
623.919	89070
623.983	90188
624.047	91422
624.111	90246
624.176	93499
624.240	98787
624.304	103500
624.368	93505
624.432	93487
624.496	95977
624.560	104767
624.625	106893
624.689	100644
624.753	104109
624.817	98897
624.881	95809
624.945	87838
625.009	86061
625.073	87615
625.137	94559
625.201	105530
625.265	103224
625.329	91783
625.393	95168
625.456	93104
625.520	96647
625.584	98758
625.648	108104
625.712	128781
625.776	184207
625.839	192605
625.903	105692
625.967	84097
626.031	104753
626.095	141190
626.158	92531
626.222	70081
626.286	67410
626.349	64052
626.413	60455
626.477	64565
626.540	62280
626.604	60996
626.668	59862
626.731	59937
626.795	59957
626.858	60195
626.922	59387
626.986	58997
627.049	57469
627.113	59643
627.176	57278
627.240	56200
627.303	57666
627.366	57881
627.430	59007
627.493	58085
627.557	56445
627.620	59073
627.684	61331
627.747	60750
627.810	56081
627.874	52272
627.937	49805
628.000	53838
628.064	52470
628.127	45570
628.190	45870
628.253	44540
628.317	43691
628.380	41659
628.443	41633
628.506	42349
628.569	39986
628.632	38006
628.696	37974
628.759	37630
628.822	36128
628.885	35260
628.948	35747
629.011	35673
629.074	35179
629.137	33806
629.200	33661
629.263	36854
629.326	33090
629.389	33614
629.452	34497
629.515	33824
629.578	33809
629.641	35297
629.704	34438
629.767	35588
629.830	33064
629.892	31165
629.955	30106
630.018	34388
630.081	36272
630.144	42241
630.207	34125
630.269	36065
630.332	33884
630.395	32080
630.458	30102
630.520	29516
630.583	30707
630.646	30152
630.708	30239
630.771	30520
630.834	31706
630.896	30957
630.959	30104
631.021	30811
631.084	30935
631.146	32352
631.209	35110
631.272	31286
631.334	31005
631.397	30961
631.459	33286
631.522	34736
631.584	35980
631.646	39436
631.709	40652
631.771	47456
631.834	40022
631.896	35733
631.958	32504
632.021	32651
632.083	30642
632.145	31260
632.208	30867
632.270	31205
632.332	28651
632.395	27942
632.457	29731
632.519	27813
632.581	29162
632.643	28672
632.706	28886
632.768	26608
632.830	28663
632.892	28488
632.954	28570
633.016	30495
633.078	28243
633.141	28487
633.203	28185
633.265	28530
633.327	28749
633.389	28716
633.451	32422
633.513	34849
633.575	33737
633.637	34970
633.698	33060
633.760	31654
633.822	31933
633.884	32059
633.946	33121
634.008	33690
634.070	35396
634.132	37601
634.193	42150
634.255	45549
634.317	46555
634.379	46679
634.441	40622
634.502	36286
634.564	34391
634.626	31676
634.687	30593
634.749	29012
634.811	28557
634.873	26853
634.934	27628
634.996	28563
635.057	28026
635.119	26818
635.181	29670
635.242	30048
635.304	26630
635.365	30942
635.427	29476
635.488	29173
635.550	27825
635.611	29668
635.673	29083
635.734	33308
635.796	34226
635.857	37958
635.918	38719
635.980	44847
636.041	47168
636.102	51120
636.164	51226
636.225	49205
636.286	41267
636.348	38439
636.409	32790
636.470	29973
636.531	29440
636.593	29705
636.654	28753
636.715	25859
636.776	25975
636.838	23706
636.899	24708
636.960	23617
637.021	22461
637.082	22380
637.143	23007
637.204	21512
637.265	22196
637.326	24716
637.387	23253
637.448	21204
637.509	23862
637.570	22576
637.631	22700
637.692	20658
637.753	19998
637.814	21445
637.875	20522
637.936	21684
637.997	20073
638.058	21902
638.119	22767
638.179	21502
638.240	20226
638.301	20985
638.362	19806
638.423	19835
638.483	20859
638.544	18062
638.605	20213
638.666	19294
638.726	20070
638.787	19973
638.848	19385
638.908	18600
638.969	19247
639.030	19431
639.090	17225
639.151	18978
639.211	21507
639.272	24919
639.332	36057
639.393	25147
639.453	20688
639.514	21410
639.574	19125
639.635	17741
639.695	18845
639.756	18602
639.816	19401
639.877	22323
639.937	32765
639.997	40726
640.058	19675
640.118	17949
640.178	18330
640.239	16307
640.299	16917
640.359	18301
640.420	19526
640.480	21962
640.540	24947
640.600	25365
640.661	22480
640.721	20683
640.781	25578
640.841	18966
640.901	19343
640.961	19244
641.021	21084
641.082	23582
641.142	28297
641.202	20649
641.262	15298
641.322	16644
641.382	15445
641.442	17579
641.502	16171
641.562	17627
641.622	16479
641.682	18664
641.742	21756
641.802	20110
641.861	18341
641.921	17918
641.981	19873
642.041	19025
642.101	22330
642.161	17105
642.221	15519
642.280	15131
642.340	16231
642.400	15306
642.460	17092
642.519	15786
642.579	16607
642.639	16720
642.698	14933
642.758	18556
642.818	17104
642.877	16023
642.937	18045
642.997	21278
643.056	25734
643.116	17920
643.175	18170
643.235	17695
643.294	18100
643.354	19489
643.414	22859
643.473	28055
643.532	35421
643.592	51576
643.651	83723
643.711	152354
643.770	307204
643.830	761846
643.889	1546010
643.948	353773
644.008	63960
644.067	38888
644.126	28165
644.186	23243
644.245	21648
644.304	18215
644.363	20450
644.423	16696
644.482	18713
644.541	18884
644.600	18743
644.659	26990
644.719	34471
644.778	52722
644.837	93335
644.896	200210
644.955	460859
645.014	139480
645.073	29903
645.132	23032
645.191	21717
645.250	19350
645.309	21701
645.368	22865
645.427	30383
645.486	52496
645.545	91209
645.604	26815
645.663	18464
645.722	19057
645.781	21437
645.840	24909
645.898	32756
645.957	48440
646.016	77240
646.075	146132
646.134	295354
646.192	803786
646.251	1133786
646.310	161030
646.369	45702
646.427	36330
646.486	25568
646.545	20556
646.603	19140
646.662	16843
646.721	17362
646.779	16944
646.838	17579
646.896	24227
646.955	33663
647.014	54961
647.072	107229
647.131	296008
647.189	132150
647.248	21342
647.306	16400
647.365	14409
647.423	12163
647.481	14049
647.540	11593
647.598	12877
647.657	12139
647.715	12517
647.773	11111
647.832	12333
647.890	10213
647.948	11014
648.007	11873
648.065	10231
648.123	10179
648.181	11396
648.240	10126
648.298	10159
648.356	10401
648.414	11028
648.472	11254
648.531	10986
648.589	10853
648.647	10104
648.705	10216
648.763	11554
648.821	11475
648.879	12471
648.937	14807
648.995	18469
649.053	24701
649.111	39077
649.169	64875
649.227	120684
649.285	259493
649.343	755005
649.401	333418
649.459	64756
649.516	36848
649.574	19867
649.632	20126
649.690	22087
649.748	27020
649.806	38516
649.863	73006
649.921	207555
649.979	129783
650.037	19442
650.094	11450
650.152	12220
650.210	9246
650.268	10635
650.325	10677
650.383	10369
650.440	8837
650.498	8958
650.556	9171
650.613	8285
650.671	8875
650.728	8896
650.786	10234
650.843	12306
650.901	9495
650.958	8324
651.016	7902
651.073	7599
651.131	7316
651.188	7982
651.246	7492
651.303	7607
651.360	7598
651.418	7442
651.475	7557
651.532	7488
651.590	7670
651.647	6262
651.704	7561
651.762	6992
651.819	7991
651.876	7885
651.933	7702
651.990	7506
652.048	6308
652.105	6454
652.162	7062
652.219	6807
652.276	7029
652.333	7207
652.390	5769
652.448	7153
652.505	7296
652.562	7298
652.619	6641
652.676	7175
652.733	6957
652.790	6387
652.847	5751
652.904	7234
652.961	5478
653.017	6303
653.074	6720
653.131	6039
653.188	5841
653.245	6030
653.302	6592
653.359	5667
653.415	6655
653.472	5324
653.529	7022
653.586	6230
653.642	6089
653.699	7441
653.756	5772
653.813	6048
653.869	7557
653.926	6232
653.983	5120
654.039	7105
654.096	6335
654.152	6872
654.209	4742
654.266	6857
654.322	5791
654.379	6982
654.435	8273
654.492	7723
654.548	10674
654.605	16195
654.661	8624
654.717	6713
654.774	7864
654.830	6670
654.887	5508
654.943	6238
655.000	6647
655.056	6258
655.112	6747
655.168	6121
655.225	7243
655.281	8085
655.337	9614
655.394	12693
655.450	10342
655.506	9729
655.562	13752
655.618	12597
655.675	6275
655.731	6049
655.787	6197
655.843	6403
655.899	5622
655.955	6404
656.011	6744
656.067	6391
656.123	7218
656.179	7053
656.235	7674
656.291	5941
656.347	7788
656.403	7815
656.459	6606
656.515	7863
656.571	7510
656.627	6801
656.683	6730
656.739	6950
656.795	6416
656.850	7316
656.906	7395
656.962	7340
657.018	6015
657.074	7389
657.129	9816
657.185	12898
657.241	26164
657.297	14752
657.352	7165
657.408	5012
657.464	7500
657.519	6314
657.575	4198
657.630	6028
657.686	5188
657.742	4472
657.797	5556
657.853	5132
657.908	5938
657.964	4515
658.019	6324
658.075	5217
658.130	6584
658.186	4599
658.241	5842
658.297	4591
658.352	5775
658.407	4736
658.463	4398
658.518	5299
658.573	5984
658.629	4687
658.684	4627
658.739	5482
658.795	5153
658.850	5373
658.905	4833
658.960	5077
659.016	4943
659.071	6095
659.126	5453
659.181	5844
659.236	10927
659.291	11710
659.346	6528
659.401	6338
659.457	5262
659.512	4404
659.567	5877
659.622	5189
659.677	4666
659.732	4459
659.787	5673
659.842	5236
659.897	6305
659.952	5355
660.007	5085
660.061	5201
660.116	4258
660.171	4083
660.226	4871
660.281	5257
660.336	4247
660.391	4992
660.445	4507
660.500	5094
660.555	5713
660.610	4142
660.664	4813
660.719	4313
660.774	5170
660.828	5490
660.883	6047
660.938	5779
660.992	4443
661.047	5007
661.101	4353
661.156	4363
661.211	4382
661.265	5225
661.320	4852
661.374	4017
661.429	4575
661.483	4494
661.538	3865
661.592	4248
661.647	5437
661.701	4742
661.755	4338
661.810	4044
661.864	4192
661.919	3835
661.973	5877
662.027	4564
662.081	4623
662.136	4254
662.190	5306
662.244	5893
662.299	4397
662.353	4501
662.407	4146
662.461	5235
662.515	4850
662.569	4980
662.624	5371
662.678	4865
662.732	4677
662.786	4742
662.840	5346
662.894	4140
662.948	4217
663.002	4212
663.056	4849
663.110	3824
663.164	5080
663.218	4513
663.272	5199
663.326	5734
663.380	5025
663.434	5185
663.488	5288
663.542	5182
663.595	5218
663.649	4683
663.703	5178
663.757	4585
663.811	5061
663.864	4474
663.918	5352
663.972	4208
664.026	4428
664.079	4282
664.133	4910
664.187	4271
664.240	5004
664.294	5272
664.348	5505
664.401	4033
664.455	4990
664.508	4535
664.562	4103
664.615	4481
664.669	4187
664.722	4840
664.776	4856
664.829	4466
664.883	4693
664.936	4380
664.990	5459
665.043	5463
665.097	4192
665.150	5958
665.203	5043
665.257	4343
665.310	4839
665.363	5098
665.417	6011
665.470	5163
665.523	5093
665.576	5630
665.630	4897
665.683	5119
665.736	4997
665.789	4660
665.842	4895
665.895	4736
665.949	5000
666.002	5034
666.055	4478
666.108	6297
666.161	5624
666.214	6203
666.267	6585
666.320	7836
666.373	5647
666.426	5614
666.479	5616
666.532	5568
666.585	6841
666.638	6573
666.691	6784
666.744	6908
666.796	6869
666.849	6317
666.902	5582
666.955	4206
667.008	4983
667.060	4730
667.113	4247
667.166	5278
667.219	4997
667.271	5236
667.324	5133
667.377	5378
667.430	4569
667.482	5743
667.535	4881
667.587	5792
667.640	6375
667.693	7508
667.745	11296
667.798	12548
667.850	5891
667.903	5810
667.955	5213
668.008	4882
668.060	6695
668.113	5708
668.165	6171
668.218	5553
668.270	5128
668.322	5368
668.375	4518
668.427	5282
668.479	4960
668.532	5430
668.584	5678
668.636	4789
668.689	5762
668.741	5350
668.793	5765
668.845	4682
668.898	5493
668.950	5916
669.002	5396
669.054	5339
669.106	6368
669.158	5712
669.211	5550
669.263	5308
669.315	5528
669.367	6133
669.419	6029
669.471	7428
669.523	7886
669.575	9439
669.627	8053
669.679	6643
669.731	6985
669.783	6794
669.835	8025
669.886	7235
669.938	7193
669.990	6277
670.042	6430
670.094	7854
670.146	8469
670.197	9975
670.249	11677
670.301	13869
670.353	19730
670.404	28003
670.456	41207
670.508	63630
670.560	104422
670.611	177663
670.663	312442
670.715	720773
670.766	1057458
670.818	358374
670.869	69801
670.921	35740
670.972	24895
671.024	18169
671.075	14824
671.127	13253
671.178	10608
671.230	11380
671.281	10055
671.333	10100
671.384	9914
671.436	11893
671.487	14976
671.538	18809
671.590	27337
671.641	42527
671.692	73104
671.744	138563
671.795	85671
671.846	28962
671.897	14928
671.949	10917
672.000	8525
672.051	7869
672.102	7456
672.153	6739
672.204	6157
672.256	6749
672.307	6218
672.358	6931
672.409	5375
672.460	5841
672.511	5473
672.562	5907
672.613	5077
672.664	4812
672.715	5551
672.766	5148
672.817	5536
672.868	4307
672.919	5109
672.970	4659
673.021	5050
673.071	4437
673.122	4248
673.173	4666
673.224	5270
673.275	4467
673.326	4339
673.376	4286
673.427	4704
673.478	4523
673.528	5275
673.579	3960
673.630	4793
673.680	4697
673.731	4607
673.782	4112
673.832	4479
673.883	5362
673.934	3723
673.984	4251
674.035	5062
674.085	4600
674.136	4510
674.186	5435
674.237	6802
674.287	8577
674.338	5262
674.388	4234
674.438	4732
674.489	4591
674.539	5934
674.589	4789
674.640	5330
674.690	4525
674.740	4775
674.791	5747
674.841	4446
674.891	4414
674.942	5229
674.992	3848
675.042	3606
675.092	4057
675.142	3641
675.193	4018
675.243	4102
675.293	5318
675.343	4789
675.393	3814
675.443	4436
675.493	4239
675.543	4340
675.593	4660
675.643	3891
675.693	3814
675.743	3564
675.793	3984
675.843	3611
675.893	4246
675.943	4006
675.993	3558
676.043	3637
676.093	4093
676.142	4075
676.192	3635
676.242	3012
676.292	3169
676.341	3722
676.391	4370
676.441	3680
676.491	3313
676.540	2523
676.590	3157
676.640	3809
676.689	3233
676.739	2963
676.789	3039
676.838	3147
676.888	3000
676.937	3076
676.987	2749
677.037	3201
677.086	2122
677.136	3130
677.185	3146
677.235	2918
677.284	2595
677.333	2858
677.383	2931
677.432	2914
677.482	3109
677.531	2208
677.580	2490
677.630	2228
677.679	2638
677.728	2409
677.778	3075
677.827	3007
677.876	3019
677.925	2991
677.975	3280
678.024	3532
678.073	3287
678.122	2884
678.171	3047
678.220	3206
678.269	4450
678.319	4453
678.368	4536
678.417	3913
678.466	3908
678.515	3606
678.564	3124
678.613	2244
678.662	2711
678.711	3232
678.760	3267
678.809	3268
678.857	2566
678.906	3762
678.955	3425
679.004	4147
679.053	3078
679.102	3522
679.151	3201
679.199	3661
679.248	3022
679.297	2572
679.346	3689
679.394	2263
679.443	3337
679.492	3334
679.540	3084
679.589	3369
679.638	3132
679.686	2557
679.735	3260
679.784	4413
679.832	4198
679.881	3680
679.929	2485
679.978	2114
680.026	2566
680.075	3132
680.123	2573
680.172	2320
680.220	1999
680.268	3272
680.317	2579
680.365	2206
680.414	2333
680.462	2940
680.510	3036
680.559	1760
680.607	2596
680.655	3235
680.703	2979
680.752	2082
680.800	1770
680.848	2294
680.896	1846
680.945	2481
680.993	2335
681.041	2107
681.089	2429
681.137	2546
681.185	2748
681.233	2941
681.258	2469
681.281	1966
681.329	2579
681.377	2339
681.380	2430
681.425	3047
681.473	2273
681.502	2863
681.521	3158
681.569	4174
681.617	3579
681.624	3616
681.665	3447
681.713	4348
681.745	4238
681.761	4096
681.809	4176
681.857	3946
681.867	3969
681.904	3832
681.952	4023
681.989	4104
682.000	4049
682.048	4757
682.096	4261
682.111	4204
682.143	3903
682.191	3982
682.233	4672
682.239	4728
682.286	4391
682.334	4663
682.354	4666
682.382	4535
682.430	5345
682.476	5145
682.477	5090
682.525	5768
682.572	4973
682.598	5136
682.620	5233
682.667	6132
682.715	5826
682.720	5926
682.763	6299
682.810	6683
682.841	6192
682.857	5839
682.905	5792
682.952	6993
682.963	6829
683.000	6065
683.047	6544
683.085	7022
683.095	7117
683.142	6725
683.190	6478
683.206	6616
683.237	6680
683.284	7260
683.328	7165
683.332	7115
683.379	7336
683.426	6709
683.449	7043
683.473	7333
683.521	6974
683.568	7253
683.571	7318
683.615	7620
683.662	8085
683.693	8305
683.709	8362
683.757	8270
683.804	8799
683.814	8791
683.851	8643
683.898	8876
683.936	8896
683.945	8860
683.992	9201
684.039	10118
684.057	9815
684.086	9273
684.133	9775
684.179	10070
684.180	10033
684.227	9972
684.274	10260
684.300	10430
684.321	10521
684.368	9712
684.415	10179
684.422	10177
684.462	9861
684.509	9819
684.543	10167
684.556	10330
684.603	10069
684.649	10893
684.665	10565
684.696	9754
684.743	10423
684.786	10995
684.790	11034
684.837	10724
684.883	11621
684.908	11920
684.930	12011
684.977	12175
685.023	11440
685.029	11524
685.070	11745
685.117	11779
685.150	11909
685.164	12082
685.210	12535
685.257	13159
685.272	13163
685.303	12878
685.350	13182
685.393	13215
685.396	13229
685.443	13857
685.490	15597
685.514	15816
685.536	15551
685.583	14245
685.629	13581
685.636	13639
685.675	13992
685.722	13776
685.757	14138
685.768	14320
685.815	14205
685.861	14673
685.878	14650
685.908	14588
685.954	14804
686.000	15241
686.000	15249
686.047	16926
686.093	18532
686.121	18871
686.139	18174
686.185	17075
686.232	16336
686.242	16019
686.278	15283
686.324	14829
686.363	14380
686.370	14372
686.416	14259
686.463	14503
686.484	14561
686.509	14646
686.555	14586
686.601	14444
686.606	14536
686.647	15173
686.693	14369
686.727	14410
686.739	14450
686.785	14668
686.831	14780
686.848	14907
686.877	15001
686.923	14688
686.969	14472
686.969	14470
687.015	14926
687.061	15215
687.090	15527
687.107	15575
687.153	16250
687.199	15541
687.211	15472
687.245	15647
687.291	15879
687.332	16726
687.336	16792
687.382	17393
687.428	17765
687.453	17443
687.474	16823
687.520	17057
687.565	16383
687.574	16204
687.611	16197
687.657	16367
687.695	16686
687.702	16771
687.748	17514
687.794	18219
687.816	18102
687.839	17588
687.885	17629
687.931	16597
687.937	16622
687.976	17210
688.022	17343
688.058	17598
688.067	17667
688.113	17480
688.158	17710
688.179	17511
688.204	17337
688.249	17757
688.295	18115
688.300	18128
688.340	18341
688.386	19212
688.421	19179
688.431	19128
688.477	18426
688.522	19043
688.542	18949
688.567	19000
688.613	19185
688.658	18859
688.663	18874
688.703	18942
688.749	19042
688.784	18755
688.794	18660
688.839	18854
688.884	18603
688.905	18549
688.930	18587
688.975	18409
689.020	18285
689.026	18293
689.065	18688
689.110	18669
689.146	18872
689.155	18875
689.201	18293
689.246	18837
689.267	18525
689.291	18269
689.336	18524
689.381	18362
689.388	18325
689.426	18607
689.471	18865
689.509	19028
689.516	19010
689.561	18953
689.606	18358
689.630	18450
689.651	18693
689.696	18608
689.741	18672
689.750	18811
689.785	19476
689.830	19535
689.871	19417
689.875	19388
689.920	18947
689.965	18961
689.992	18707
690.010	18760
690.054	18978
690.099	19464
690.112	19379
690.144	19295
690.189	19373
690.233	19694
690.233	19720
690.278	19702
690.323	18960
690.354	18933
690.367	19132
690.412	19768
690.457	19862
690.474	19986
690.501	19980
690.546	19997
690.590	19587
690.595	19565
690.635	19912
690.680	19533
690.716	19916
690.724	20001
690.769	19923
690.813	20068
690.836	20129
690.857	20455
690.902	20909
690.946	20817
690.957	20933
690.991	21769
691.035	22448
691.077	23321
691.080	23376
691.124	23478
691.168	23737
691.198	23876
691.213	23954
691.257	24245
691.301	24078
691.318	24019
691.346	23346
691.390	22298
691.434	20904
691.439	20775
691.478	21378
691.522	21809
691.559	22438
691.567	22606
691.611	22821
691.655	23235
691.680	23256
691.699	22947
691.743	22746
691.787	22011
691.800	21928
691.831	22647
691.875	23072
691.919	23963
691.921	23928
691.964	23846
692.008	24430
692.041	24360
692.052	24359
692.096	24388
692.139	24588
692.162	24445
692.183	24236
692.227	24328
692.271	23990
692.282	23909
692.315	24239
692.359	24534
692.402	24617
692.403	24662
692.447	24594
692.490	24400
692.523	24418
692.534	24580
692.578	24844
692.622	24951
692.643	24999
692.666	24738
692.709	24124
692.753	23453
692.763	23258
692.797	23316
692.840	23499
692.884	23478
692.884	23528
692.928	23934
692.971	24234
693.004	24296
693.015	24357
693.059	24317
693.102	24408
693.124	24442
693.146	24632
693.189	24858
693.233	25065
693.245	25133
693.276	25805
693.320	26437
693.363	26906
693.365	26869
693.407	26251
693.450	25909
693.485	25211
693.493	25328
693.537	25941
693.580	26311
693.605	26585
693.624	26632
693.667	26610
693.710	26615
693.725	26573
693.753	27545
693.797	28716
693.840	30051
693.845	30143
693.883	29936
693.926	29561
693.966	29285
693.970	29215
694.013	27808
694.056	26386
694.086	25269
694.099	25482
694.142	26137
694.185	26949
694.206	27096
694.229	27300
694.272	27636
694.315	28144
694.326	28139
694.358	28838
694.401	29978
694.444	31355
694.446	31326
694.487	30345
694.530	29641
694.566	28759
694.573	28575
694.616	26911
694.659	25486
694.686	24628
694.702	24754
694.745	24688
694.787	24502
694.806	24522
694.830	24803
694.873	24762
694.916	24901
694.926	24946
694.959	25265
695.002	25195
695.044	25272
695.046	25222
695.087	26038
695.130	26554
695.166	27092
695.172	27160
695.215	27025
695.258	27107
695.286	26943
695.301	26983
695.343	27027
695.386	27264
695.406	27095
695.428	26834
695.471	26639
695.514	26229
695.526	26069
695.556	26729
695.599	27515
695.641	28201
695.646	28218
695.684	27808
695.726	27315
695.766	26861
695.769	26939
695.811	27075
695.854	27020
695.886	27137
695.896	27194
695.938	27008
695.981	26628
696.005	26474
696.023	26818
696.065	27386
696.108	28244
696.125	28427
696.150	28535
696.192	28619
696.235	28697
696.245	28641
696.277	28334
696.319	27728
696.361	27279
696.365	27160
696.404	27452
696.446	27900
696.485	28187
696.488	28280
696.530	28543
696.572	28611
696.604	28800
696.614	28848
696.656	28646
696.698	28344
696.724	28205
696.740	28161
696.783	27667
696.825	27383
696.844	27076
696.867	27412
696.909	28061
696.951	28564
696.964	28721
696.992	28638
697.034	28151
697.076	27855
697.083	27705
697.118	28299
697.160	29099
697.202	29883
697.203	29825
697.244	29313
697.286	28807
697.323	28184
697.327	28287
697.369	28570
697.411	28997
697.442	29163
697.453	29381
697.494	30035
697.536	30564
697.562	30878
697.578	31173
697.620	31679
697.661	32242
697.682	32378
697.703	32901
697.744	33871
697.786	34950
697.801	35192
697.828	35391
697.869	35633
697.911	35737
697.921	35701
697.952	34538
697.994	32851
698.035	31120
698.040	30839
698.077	30601
698.118	30156
698.160	29710
698.160	29627
698.201	30437
698.243	31130
698.279	31694
698.284	31788
698.325	31885
698.367	31934
698.399	31900
698.408	31820
698.449	31066
698.491	30328
698.518	29736
698.532	30006
698.573	30601
698.614	31183
698.638	31440
698.656	31674
698.697	32020
698.738	32367
698.757	32443
698.779	32445
698.820	32280
698.862	32120
698.877	31976
698.903	32502
698.944	33203
698.985	33906
698.996	34012
699.026	33662
699.067	33052
699.116	32237
699.235	31296
699.354	30890
699.474	30507
699.593	34556
699.713	33612
699.832	31039
699.951	33818
700.070	31571
700.190	31257
700.309	31438
700.428	33393
700.547	30757
700.667	30419
700.786	33918
700.905	29761
701.024	31198
701.143	29002
701.262	27945
701.381	29286
701.500	31000
701.619	32889
701.738	29367
701.857	28085
701.976	26154
702.095	27989
702.214	30763
702.333	31877
702.452	29533
702.571	28557
702.690	28772
702.809	27199
702.928	26539
703.047	27591
703.165	25483
703.284	26552
703.403	26084
703.522	30617
703.640	30146
703.759	34567
703.878	43263
703.997	28871
704.115	26457
704.234	25567
704.353	26328
704.471	25458
704.590	25298
704.708	24561
704.827	24287
704.946	25806
705.064	26857
705.183	25557
705.301	28048
705.420	36579
705.538	31953
705.656	29112
705.775	27193
705.893	29868
706.012	31228
706.130	29933
706.249	29829
706.367	30400
706.485	31479
706.604	30046
706.722	32347
706.840	36993
706.958	36116
707.077	30200
707.195	28474
707.313	26288
707.431	27502
707.549	26751
707.668	26465
707.786	28229
707.904	26821
708.022	26121
708.140	26531
708.258	26037
708.376	26099
708.494	27400
708.612	28913
708.730	37891
708.848	36474
708.966	35343
709.084	33019
709.202	30384
709.320	31076
709.438	31797
709.556	32141
709.674	30388
709.791	30726
709.909	29629
710.027	29693
710.145	28366
710.263	29392
710.380	29916
710.498	28807
710.616	29263
710.733	29913
710.851	30495
710.969	30835
711.086	29562
711.204	29189
711.322	28535
711.439	29143
711.557	29795
711.674	29187
711.792	29641
711.909	27036
712.027	26213
712.144	26606
712.262	27869
712.379	30796
712.497	39597
712.614	38504
712.732	34369
712.849	33180
712.966	37092
713.084	44272
713.201	36042
713.318	33832
713.436	34087
713.553	34927
713.670	35852
713.787	39191
713.905	39171
714.022	34726
714.139	35877
714.256	43795
714.373	60579
714.490	105500
714.608	277571
714.725	1161904
714.842	1055146
714.959	93182
715.076	49020
715.193	38484
715.310	35736
715.427	32170
715.544	30749
715.661	30982
715.778	30741
715.895	33145
716.011	31362
716.128	31748
716.245	30049
716.362	36683
716.479	36671
716.596	28743
716.713	28827
716.829	27199
716.946	27200
717.063	25610
717.180	25273
717.296	25318
717.413	25553
717.530	25422
717.646	25721
717.763	25311
717.880	24215
717.996	25073
718.113	24836
718.229	25099
718.346	23876
718.462	25145
718.579	32691
718.695	56680
718.812	40593
718.928	36638
719.045	27012
719.161	24277
719.277	23147
719.394	23479
719.510	23986
719.626	27256
719.743	34927
719.859	47393
719.975	91410
720.092	362876
720.208	763356
720.324	85441
720.440	33770
720.557	33441
720.673	48890
720.789	59267
720.905	111664
721.021	38174
721.137	23411
721.253	24275
721.369	23289
721.486	27982
721.602	36257
721.718	22527
721.834	20886
721.950	21924
722.066	20698
722.181	20732
722.297	22719
722.413	20636
722.529	20107
722.645	19184
722.761	19434
722.877	20112
722.993	19213
723.108	23996
723.224	21480
723.340	21190
723.456	18804
723.571	18681
723.687	18521
723.803	18976
723.918	18428
724.034	19848
724.150	19155
724.265	23149
724.381	43403
724.497	52396
724.612	18616
724.728	16861
724.843	18342
724.959	22035
725.074	42622
725.190	45804
725.305	19969
725.421	18520
725.536	15946
725.651	15727
725.767	15529
725.882	16608
725.997	15849
726.113	16948
726.228	15826
726.343	15959
726.459	14590
726.574	16790
726.689	15710
726.804	15540
726.920	15732
727.035	16942
727.150	16312
727.265	15889
727.380	16259
727.495	15752
727.610	14792
727.725	15303
727.841	15141
727.956	16597
728.071	17557
728.186	16033
728.301	14078
728.416	16177
728.531	14943
728.645	14268
728.760	17389
728.875	17917
728.990	16701
729.105	16149
729.220	17790
729.335	17085
729.449	15073
729.564	13019
729.679	13059
729.794	14332
729.908	15912
730.023	13991
730.138	12616
730.253	14491
730.367	13102
730.482	13724
730.596	14213
730.711	15699
730.826	14980
730.940	15961
731.055	15341
731.169	15083
731.284	13833
731.398	15099
731.513	17870
731.627	17555
731.742	18946
731.856	22759
731.970	19323
732.085	26074
732.199	36467
732.313	63536
732.428	166700
732.542	460615
732.656	238799
732.771	48058
732.885	27472
732.999	22461
733.113	21079
733.227	19192
733.342	17093
733.456	18465
733.570	15759
733.684	15520
733.798	15061
733.912	15741
734.026	14268
734.140	14387
734.254	16712
734.368	27550
734.482	31221
734.596	14963
734.710	13899
734.824	14426
734.938	13235
735.052	14463
735.166	17302
735.280	14615
735.393	14576
735.507	16365
735.621	20658
735.735	32385
735.849	16319
735.962	13145
736.076	14438
736.190	15904
736.303	19547
736.417	22785
736.531	13377
736.644	15103
736.758	13088
736.872	12975
736.985	12589
737.099	11340
737.212	12774
737.326	12192
737.439	12081
737.553	12483
737.666	13499
737.780	11773
737.893	12060
738.007	11512
738.120	12724
738.233	11366
738.347	12313
738.460	12098
738.573	13848
738.687	12920
738.800	13525
738.913	17700
739.026	13720
739.140	12339
739.253	10716
739.366	11817
739.479	11179
739.592	9949
739.705	10756
739.818	11862
739.932	12198
740.045	13870
740.158	11344
740.271	11775
740.384	11200
740.497	12078
740.610	11548
740.723	12015
740.836	12638
740.949	13705
741.062	17463
741.174	15892
741.287	11512
741.400	11351
741.513	12733
741.626	12571
741.739	12147
741.851	12374
741.964	11141
742.077	11648
742.189	11864
742.302	13762
742.415	12680
742.527	11261
742.640	10955
742.753	10374
742.865	9659
742.978	10177
743.090	10492
743.203	11220
743.316	10591
743.428	9378
743.541	9917
743.653	9271
743.766	9588
743.878	10237
743.990	12726
744.103	13572
744.215	10575
744.327	9820
744.440	14695
744.552	20718
744.664	11263
744.777	9770
744.889	8699
745.001	8998
745.113	8812
745.226	9121
745.338	8669
745.450	9305
745.562	9177
745.674	8518
745.786	9349
745.898	9219
746.010	9778
746.122	10585
746.234	12333
746.347	9515
746.459	9080
746.570	8215
746.682	9193
746.794	10321
746.906	8202
747.018	8554
747.130	8440
747.242	8382
747.354	8124
747.466	9180
747.577	8135
747.689	9065
747.801	8744
747.913	7242
748.024	8297
748.136	8248
748.248	7771
748.359	8917
748.471	8881
748.583	8405
748.694	8631
748.806	8900
748.918	11048
749.029	9579
749.141	9947
749.252	9522
749.364	11676
749.475	24130
749.587	15404
749.698	8891
749.809	7993
749.921	7851
750.032	7232
750.144	7326
750.255	6951
750.366	7174
750.478	7467
750.589	7735
750.700	9226
750.811	9121
750.923	11806
751.034	27091
751.145	25387
751.256	8586
751.367	7790
751.479	7979
751.590	7824
751.701	8421
751.812	7638
751.923	7648
752.034	7641
752.145	7106
752.256	7642
752.367	7132
752.478	6234
752.589	7306
752.700	7547
752.811	7351
752.922	7008
753.032	9571
753.143	9949
753.254	6359
753.365	7870
753.476	6868
753.586	6123
753.697	6413
753.808	7426
753.919	6619
754.029	6307
754.140	7280
754.251	6366
754.361	6569
754.472	7569
754.582	7233
754.693	6429
754.804	6914
754.914	6627
755.025	6509
755.135	6424
755.246	7072
755.356	6233
755.466	6835
755.577	6323
755.687	7036
755.798	6482
755.908	6670
756.018	7007
756.129	6426
756.239	6561
756.349	6871
756.460	7953
756.570	7897
756.680	6366
756.790	7801
756.900	8650
757.011	6650
757.121	6623
757.231	6926
757.341	6597
757.451	6465
757.561	6457
757.671	6452
757.781	6221
757.891	7234
758.001	7514
758.111	6958
758.221	7180
758.331	9108
758.441	10752
758.551	13197
758.661	11856
758.771	8461
758.880	8302
758.990	8153
759.100	7308
759.210	8143
759.320	8356
759.429	8469
759.539	8391
759.649	9527
759.758	10432
759.868	10833
759.978	10374
760.087	11182
760.197	10621
760.307	10822
760.416	9881
760.526	8528
760.635	9637
760.745	10575
760.854	11903
760.964	12330
761.073	12563
761.182	10702
761.292	10738
761.401	10408
761.511	8364
761.620	8522
761.729	7846
761.839	8020
761.948	7905
762.057	8486
762.166	7864
762.276	6167
762.385	7732
762.494	6791
762.603	7337
762.712	7743
762.822	6762
762.931	6606
763.040	6558
763.149	6493
763.258	6868
763.367	7232
763.476	6203
763.585	6588
763.694	7125
763.803	6874
763.912	7421
764.021	7199
764.130	6665
764.238	6969
764.347	6722
764.456	6931
764.565	7465
764.674	7563
764.783	7545
764.891	7260
765.000	8173
765.109	8228
765.217	7494
765.326	9640
765.435	11272
765.543	9590
765.652	9647
765.761	11251
765.869	16335
765.978	21637
766.086	35936
766.195	68606
766.303	188008
766.412	606569
766.520	508394
766.629	98691
766.737	35356
766.846	23067
766.954	16349
767.062	14370
767.171	11811
767.279	11780
767.387	9437
767.496	8886
767.604	8233
767.712	8488
767.820	7955
767.928	8287
768.037	7400
768.145	8292
768.253	7520
768.361	7587
768.469	7666
768.577	7340
768.685	8240
768.793	7986
768.901	8077
769.009	8432
769.117	8308
769.225	9244
769.333	13071
769.441	17311
769.549	28991
769.657	63594
769.765	227498
769.873	522500
769.981	146132
770.088	28506
770.196	16290
770.304	13633
770.412	11581
770.519	9562
770.627	9476
770.735	7682
770.842	8469
770.950	8797
771.058	8140
771.165	8227
771.273	8082
771.380	7775
771.488	9437
771.595	8980
771.703	7924
771.810	8312
771.918	7744
772.025	9074
772.133	8656
772.240	8800
772.348	9875
772.455	8893
772.562	8101
772.670	9068
772.777	8470
772.884	7539
772.991	8920
773.099	8248
773.206	7204
773.313	8504
773.420	7651
773.528	7381
773.635	7078
773.742	8376
773.849	8021
773.956	8127
774.063	7806
774.170	7962
774.277	9213
774.384	6929
774.491	7065
774.598	8003
774.705	8960
774.812	10846
774.919	8810
775.026	8428
775.133	7986
775.239	8629
775.346	7367
775.453	7077
775.560	6630
775.667	7937
775.773	7220
775.880	8200
775.987	6951
776.093	7468
776.200	7573
776.307	6732
776.413	7483
776.520	7594
776.627	7685
776.733	8024
776.840	6778
776.946	9643
777.053	8596
777.159	9682
777.266	6704
777.372	9929
777.478	8119
777.585	7876
777.691	7032
777.798	8206
777.904	8304
778.010	12651
778.117	10262
778.223	7769
778.329	6901
778.435	6289
778.542	6690
778.648	6234
778.754	5690
778.860	7560
778.966	6888
779.072	6908
779.178	6141
779.284	6399
779.391	6879
779.497	5835
779.603	7148
779.708	6316
779.815	8180
779.920	10377
780.026	15780
780.132	7656
780.238	6227
780.344	6080
780.450	7593
780.556	6022
780.661	6183
780.767	6152
780.873	5582
780.979	6484
781.085	6324
781.190	7137
781.296	5121
781.402	5719
781.507	5348
781.613	6180
781.719	5452
781.824	6589
781.930	6010
782.035	5874
782.141	6182
782.246	6010
782.352	5699
782.457	6339
782.563	6087
782.668	5927
782.773	5528
782.879	6064
782.984	7378
783.090	8354
783.195	12581
783.300	8848
783.405	5775
783.511	6026
783.616	6668
783.721	6260
783.826	5408
783.932	5900
784.037	6316
784.142	6050
784.247	6637
784.352	6195
784.457	5574
784.562	6261
784.667	6656
784.772	6010
784.877	5030
784.982	6115
785.087	5044
785.192	6060
785.297	5166
785.402	5491
785.507	5518
785.611	5937
785.716	5258
785.821	5322
785.926	5357
786.031	5650
786.135	5175
786.240	5499
786.345	3915
786.450	6117
786.554	5100
786.659	4770
786.763	4523
786.868	5849
786.973	5478
787.077	4413
787.182	5148
787.286	5012
787.391	4673
787.495	4637
787.600	4828
787.704	4574
787.809	4537
787.913	4484
788.017	4390
788.122	5333
788.226	4769
788.330	4159
788.435	4676
788.539	4965
788.643	4522
788.747	4019
788.852	4502
788.956	3964
789.060	5505
789.164	4630
789.268	4257
789.372	4557
789.476	5060
789.580	4215
789.684	3977
789.788	5476
789.892	4257
789.996	4668
790.100	3851
790.204	4299
790.308	4155
790.412	4719
790.516	4052
790.620	4160
790.724	4882
790.828	4823
790.931	4418
791.035	5492
791.139	3566
791.242	4301
791.346	4645
791.450	4119
791.554	3938
791.657	3085
791.761	4949
791.864	5883
791.968	4449
792.072	4885
792.175	4923
792.279	3508
792.382	4398
792.486	5355
792.589	5248
792.693	5161
792.796	3534
792.899	5240
793.003	4520
793.106	3554
793.209	4677
793.313	4507
793.416	3406
793.519	5988
793.623	9148
793.726	12106
793.829	6274
793.932	4675
794.035	3423
794.138	5178
794.242	5833
794.345	5339
794.448	7711
794.551	9900
794.654	11638
794.757	10139
794.860	6805
794.963	5508
795.066	4234
795.169	3989
795.272	3148
795.375	4497
795.477	3520
795.580	4500
795.683	2805
795.786	4130
795.889	2580
795.991	4839
796.094	5851
796.197	4078
796.300	5322
796.402	4175
796.505	3543
796.608	3621
796.710	4642
796.813	3978
796.915	4270
797.018	4841
797.120	3544
797.223	2117
797.326	4308
797.428	3437
797.530	3313
797.633	5392
797.735	6448
797.838	10103
797.940	8125
798.042	2669
798.145	2953
798.247	3861
798.349	2192
798.452	4043
798.554	3330
798.656	3241
798.758	5546
798.860	3852
798.962	3112
799.065	3122
799.167	2930
799.269	4544
799.371	5847
799.473	6396
799.575	6218
799.677	6252
799.779	7473
799.881	9255
799.983	6256
800.085	4001
800.187	4122
800.289	2884
800.390	4227
800.492	3041
800.594	4996
800.696	3223
800.798	3584
800.899	3028
801.001	4018
801.103	3343
801.205	2706
801.306	3629
801.408	2765
801.509	3867
801.611	4122
801.713	2911
801.814	2547
801.916	3248
802.017	2444
802.119	2532
802.220	3789
802.322	2159
802.423	6370
802.525	3269
802.626	4163
802.727	4314
802.829	4677
802.930	1359
803.031	4600
803.133	2545
803.234	3344
803.335	2602
803.436	2207
803.538	2476
803.639	1899
803.740	3128
803.841	2362
803.942	3015
804.043	3391
804.144	2759
804.245	3546
804.346	2424
804.447	3556
804.548	7012
804.649	7015
804.750	3493
804.851	2195
804.952	2497
805.053	2267
805.154	2049
805.255	3481
805.355	2065
805.456	3008
805.557	2605
805.658	2445
805.758	3533
805.859	2994
805.960	2574
806.061	2839
806.161	2071
806.262	1920
806.362	3034
806.463	2530
806.564	2586
806.664	4080
806.765	4007
806.865	4354
806.966	3392
807.066	2406
807.166	2929
807.267	3301
807.367	2551
807.468	3117
807.568	1577
807.668	3156
807.769	3759
807.869	1863
807.969	2486
808.069	2434
808.170	3380
808.270	2801
808.370	3962
808.470	5831
808.570	4616
808.670	2200
808.770	2897
808.870	1977
808.970	2978
809.070	2243
809.170	2929
809.271	2828
809.370	2274
809.470	3370
809.570	2774
809.670	2307
809.770	2573
809.870	3916
809.970	2231
810.070	2741
810.169	2915
810.269	1842
810.369	4172
810.469	2380
810.568	2137
810.668	2224
810.768	2708
810.867	3167
810.967	1969
811.066	2502
811.166	2523
811.265	4011
811.365	2163
811.464	2145
811.564	3346
811.663	3576
811.763	1793
811.862	3090
811.962	3844
812.061	2575
812.160	2357
812.260	3821
812.359	4302
812.458	7410
812.557	19570
812.657	27996
812.756	10386
812.855	4083
812.954	3857
813.053	4075
813.153	3664
813.252	3351
813.351	3791
813.450	2425
813.549	2810
813.648	3717
813.747	3602
813.846	3598
813.945	2767
814.044	3013
814.143	3391
814.242	4427
814.341	2864
814.439	3772
814.538	4792
814.637	3612
814.736	4412
814.835	4727
814.933	4503
815.032	4436
815.131	4538
815.229	5890
815.328	7186
815.427	5733
815.525	6589
815.624	5962
815.722	5394
815.821	6641
815.919	5874
816.018	5651
816.116	8709
816.215	5708
816.313	6676
816.412	8805
816.510	8312
816.609	10894
816.707	9858
816.805	9777
816.904	10757
817.002	11116
817.100	12824
817.198	15165
817.296	15316
817.395	17008
817.493	20673
817.591	21980
817.689	31240
817.787	40255
817.885	62730
817.983	105171
818.081	205249
818.179	450438
818.277	935713
818.375	845975
818.473	339460
818.571	150987
818.669	97777
818.767	79993
818.865	78764
818.963	90882
819.061	125608
819.158	199581
819.256	375646
819.354	766471
819.452	1244511
819.549	951995
819.647	437521
819.745	207187
819.842	123861
819.940	83253
820.038	61343
820.135	45622
820.233	37311
820.330	30795
820.428	25777
820.525	23771
820.623	19841
820.720	17717
820.818	16435
820.915	14572
821.012	13152
821.110	11846
821.207	11996
821.304	10118
821.402	10573
821.499	10646
821.596	10211
821.693	9542
821.791	9407
821.888	10405
821.985	17815
822.082	13843
822.179	9393
822.276	6956
822.373	7213
822.470	6517
822.567	6068
822.664	5273
822.761	6257
822.858	5667
822.955	5519
823.052	5840
823.149	5766
823.246	6008
823.343	4839
823.440	4475
823.536	4708
823.633	4177
823.730	4468
823.827	5012
823.923	5104
824.020	5407
824.117	4972
824.213	4137
824.310	4299
824.407	4268
824.503	4927
824.600	4425
824.696	3647
824.793	5005
824.889	4113
824.986	3116
825.082	2803
825.179	4128
825.275	3930
825.371	3672
825.468	3488
825.564	2630
825.660	2995
825.757	4959
825.853	3472
825.949	2973
826.045	2344
826.142	2900
826.238	3225
826.334	3220
826.430	2863
826.526	3105
826.622	2399
826.718	4277
826.814	3270
826.910	3809
827.006	3385
827.102	2390
827.198	3137
827.294	2216
827.390	4117
827.486	2828
827.582	1581
827.678	1205
827.774	4306
827.869	2122
827.965	2585
828.061	1895
828.157	3112
828.252	2433
828.348	2195
828.444	3121
828.539	3056
828.635	2641
828.731	3758
828.826	2521
828.922	2646
829.017	2639
829.113	4235
829.208	3403
829.304	2921
829.399	4052
829.495	2956
829.590	3530
829.685	2174
829.781	3283
829.876	2967
829.971	1850
830.066	2357
830.162	2594
830.257	3389
830.352	2485
830.447	4393
830.543	3568
830.638	2304
830.733	4319
830.828	2352
830.923	3968
831.018	3544
831.113	3938
831.208	2075
831.303	3018
831.398	2221
831.493	2412
831.588	2858
831.683	1362
831.778	3021
831.873	2858
831.967	3788
832.062	2383
832.157	2611
832.252	3764
832.346	3290
832.441	4183
832.536	6508
832.631	14026
832.725	10904
832.820	2299
832.914	2663
833.009	2807
833.104	4410
833.198	4749
833.293	2512
833.387	3073
833.482	2266
833.576	2162
833.670	3931
833.765	2912
833.859	3540
833.954	4127
834.048	2855
834.142	2771
834.237	2232
834.331	2297
834.425	2602
834.519	1445
834.613	3203
834.708	1023
834.802	2496
834.896	1490
834.990	3004
835.084	2518
835.178	2270
835.272	1685
835.366	2048
835.460	2550
835.554	2070
835.648	2659
835.742	1927
835.836	2273
835.930	1765
836.024	2429
836.117	2882
836.211	2678
836.305	4324
836.399	6383
836.493	2402
836.586	3420
836.680	1771
836.774	1180
836.867	3582
836.961	1132
837.055	1688
837.148	1787
837.242	2583
837.335	1670
837.429	1661
837.522	1521
837.616	3812
837.709	6102
837.803	4010
837.896	3432
837.989	2501
838.083	4111
838.176	8460
838.269	6398
838.363	3270
838.456	2926
838.549	5329
838.642	7751
838.735	14657
838.829	6123
838.922	1463
839.015	1498
839.108	589
839.201	1964
839.294	2336
839.387	2039
839.480	2159
839.573	3567
839.666	4185
839.759	1980
839.852	1344
839.945	2427
840.038	2164
840.131	1504
840.223	1101
840.316	1762
840.409	1080
840.502	1115
840.594	3044
840.687	1328
840.780	1554
840.873	1711
840.965	2621
841.058	3816
841.150	8187
841.243	5190
841.336	1969
841.428	1737
841.521	1618
841.613	1214
841.706	2537
841.798	1300
841.890	1370
841.983	1089
842.075	2563
842.167	1127
842.260	1917
842.352	3471
842.444	5267
842.537	9431
842.629	11577
842.721	2875
842.813	2162
842.905	1520
842.997	2648
843.090	2959
843.182	5201
843.274	8746
843.366	18940
843.458	35183
843.550	21199
843.642	4046
843.734	3337
843.826	3559
843.918	4063
844.009	2407
844.101	2438
844.193	1900
844.285	1051
844.377	1423
844.469	2503
844.560	1217
844.652	2503
844.744	1559
844.835	1792
844.927	3290
845.019	3344
845.110	2668
845.202	2322
845.293	1703
845.385	630
845.476	1645
845.568	2674
845.659	1619
845.751	1683
845.842	1471
845.934	1652
846.025	545
846.116	2028
846.208	1378
846.299	2025
846.390	1772
846.482	2084
846.573	3627
846.664	3439
846.755	5369
846.846	5258
846.937	668
847.029	1562
847.120	1417
847.211	679
847.302	2300
847.393	223
847.484	1196
847.575	982
847.666	82
847.757	483
847.847	1104
847.938	1628
848.029	911
848.120	1268
848.211	1675
848.302	1823
848.392	765
848.483	2203
848.574	1301
848.664	1342
848.755	896
848.846	1758
848.936	1922
849.027	1874
849.118	1620
849.208	2174
849.299	4145
849.389	8067
849.480	16474
849.570	32935
849.661	62224
849.751	99144
849.841	34809
849.932	6439
850.022	2399
850.112	2925
850.203	1726
850.293	1687
850.383	1344
850.474	1581
850.564	1569
850.654	2340
850.744	1636
850.834	1896
850.924	1027
851.014	1883
851.104	1679
851.194	3267
851.284	3806
851.374	4030
851.464	2957
851.554	1881
851.644	1956
851.734	3265
851.824	3149
851.914	1140
852.004	754
852.094	801
852.183	2110
852.273	2165
852.363	978
852.452	2134
852.542	2185
852.632	1475
852.721	2362
852.811	1526
852.901	2096
852.990	2678
853.080	2500
853.169	3699
853.259	2466
853.348	3880
853.438	4825
853.527	7516
853.617	11329
853.706	21895
853.795	40525
853.885	88945
853.974	166632
854.063	304213
854.152	429889
854.242	164020
854.331	35958
854.420	14525
854.509	10973
854.598	9776
854.687	7439
854.777	6454
854.866	4550
854.955	3889
855.044	2941
855.133	2378
855.222	2223
855.311	2999
855.400	2505
855.488	1989
855.577	1988
855.666	1935
855.755	2548
855.844	1865
855.933	1242
856.021	1933
856.110	2097
856.199	1503
856.288	1440
856.376	735
856.465	264
856.554	913
856.642	525
856.731	1132
856.819	1621
856.908	1299
856.996	1366
857.085	1685
857.173	1731
857.262	1283
857.350	1380
857.438	1053
857.527	1754
857.615	1133
857.703	2026
857.792	1462
857.880	220
857.968	518
858.056	1481
858.145	2006
858.233	1168
858.321	183
858.409	944
858.497	488
858.585	891
858.673	1299
858.761	843
858.849	1479
858.937	459
859.025	541
859.113	1111
859.201	1576
859.289	1598
859.377	1471
859.465	950
859.552	1614
859.640	1458
859.728	1467
859.816	1374
859.903	699
859.991	328
860.079	2085
860.166	1383
860.254	1189
860.342	625
860.429	795
860.517	85
860.604	1154
860.692	788
860.779	409
860.867	991
860.954	1195
861.042	1991
861.129	2138
861.216	2022
861.304	623
861.391	1505
861.478	1607
861.565	910
861.653	1828
861.740	821
861.827	1110
861.914	1522
862.001	1352
862.089	1325
862.176	1270
862.263	539
862.350	843
862.437	799
862.524	1036
862.611	1292
862.698	1151
862.785	744
862.871	1730
862.958	1417
863.045	1118
863.132	1804
863.219	727
863.306	288
863.392	1208
863.479	1168
863.566	928
863.652	935
863.739	1045
863.826	1931
863.912	1048
863.999	326
864.086	1979
864.172	1300
864.259	809
864.345	1676
864.432	1924
864.518	1322
864.604	1467
864.691	1267
864.777	1973
864.863	2375
864.950	3021
865.036	2891
865.122	4905
865.209	5429
865.295	5299
865.381	5634
865.467	5919
865.553	8248
865.639	13872
865.726	22522
865.812	45836
865.898	87270
865.984	131073
866.070	239703
866.156	237326
866.242	65846
866.328	17245
866.414	8752
866.499	7838
866.585	6124
866.671	5474
866.757	5265
866.843	4577
866.928	3157
867.014	3423
867.100	4141
867.186	3739
867.271	3848
867.357	5841
867.442	5920
867.528	4385
867.614	2832
867.699	2941
867.785	3025
867.870	2812
867.956	4258
868.041	3531
868.127	3374
868.212	3795
868.297	3591
868.383	3659
868.468	5580
868.553	8375
868.639	9884
868.724	18712
868.809	16214
868.894	3705
868.979	2375
869.065	2961
869.150	1506
869.235	2375
869.320	1828
869.405	1856
869.490	2034
869.575	2330
869.660	2175
869.745	2773
869.830	2020
869.915	2293
870.000	2597
870.085	2294
870.169	2081
870.254	2010
870.339	922
870.424	1641
870.509	2470
870.593	2053
870.678	2804
870.763	1898
870.847	2510
870.932	2092
871.016	2358
871.101	1585
871.186	1930
871.270	2199
871.355	1138
871.439	2239
871.523	1366
871.608	1904
871.692	1489
871.777	2547
871.861	1859
871.945	1625
872.030	2539
872.114	2394
872.198	1495
872.282	1935
872.367	555
872.451	1244
872.535	1710
872.619	2139
872.703	1026
872.787	1117
872.871	1003
872.955	1654
873.039	1587
873.123	1408
873.207	2080
873.291	1328
873.375	1942
873.459	2093
873.543	1701
873.627	1534
873.711	1346
873.794	1717
873.878	1341
873.962	1086
874.045	1505
874.129	1167
874.137	1195
874.213	1470
874.245	1414
874.296	1333
874.352	1108
874.380	990
874.460	1852
874.464	1889
874.547	982
874.568	1147
874.631	1645
874.676	1469
874.714	1310
874.784	2118
874.798	2274
874.881	2336
874.892	2163
874.965	1001
874.999	1406
875.048	1954
875.107	1432
875.131	1231
875.215	1696
875.215	1696
875.298	1437
875.323	1457
875.381	1520
875.430	1622
875.465	1703
875.538	2183
875.548	2238
875.631	1183
875.646	1020
875.714	305
875.753	780
875.798	1335
875.861	1538
875.881	1578
875.964	1293
875.968	1283
876.047	1156
876.076	1201
876.130	1354
876.183	2055
876.213	2418
876.291	2892
876.296	2916
876.379	1982
876.398	1847
876.462	1479
876.506	1622
876.545	1807
876.613	2116
876.628	2152
876.711	1490
876.721	1511
876.794	1719
876.828	1653
876.877	1571
876.935	1427
876.960	1379
877.043	2079
877.043	2081
877.125	2641
877.150	2597
877.208	2438
877.258	2696
877.291	2797
877.365	2551
877.374	2540
877.456	2425
877.472	2456
877.539	2495
877.579	2614
877.622	2775
877.687	2245
877.704	2100
877.787	2662
877.794	2622
877.869	2163
877.901	2148
877.952	2055
878.008	1792
878.034	1766
878.115	1731
878.117	1728
878.199	1876
878.222	1881
878.282	1848
878.329	1923
878.364	2030
878.437	1977
878.447	1945
878.529	1415
878.544	1294
878.611	912
878.651	946
878.694	938
878.758	1413
878.776	1576
878.858	1351
878.865	1406
878.941	1724
878.972	1359
879.023	1002
879.078	1181
879.105	1287
879.185	1678
879.187	1681
879.269	2656
879.292	2272
879.351	1335
879.399	1227
879.433	1157
879.506	1432
879.516	1492
879.598	1166
879.613	1250
879.680	1391
879.720	1349
879.762	1393
879.827	1400
879.844	1399
879.926	1629
879.933	1725
880.007	2241
880.040	2326
880.089	2970
880.147	4697
880.171	5434
880.253	9829
880.254	9865
880.335	14991
880.360	16402
880.417	21551
880.467	32048
880.499	38789
880.574	43871
880.580	43251
880.662	14684
880.680	11206
880.744	4100
880.787	2664
880.825	2311
880.893	1979
880.907	1859
880.989	1527
881.000	1462
881.070	1461
881.106	1338
881.152	1014
881.213	1221
881.233	1364
881.315	1340
881.319	1345
881.396	1160
881.426	1025
881.478	1018
881.532	1087
881.559	989
881.639	1060
881.641	1067
881.722	932
881.745	976
881.803	1210
881.852	1318
881.885	1229
881.958	1324
881.966	1367
882.047	2091
882.064	2101
882.129	2320
882.171	2604
882.210	3129
882.277	5014
882.291	5105
882.372	2254
882.383	2062
882.454	1431
882.489	1019
882.535	564
882.596	753
882.616	770
882.697	673
882.702	640
882.778	818
882.808	1116
882.859	1025
882.914	741
882.940	825
883.020	926
883.021	925
883.102	914
883.127	851
883.183	964
883.233	821
883.264	655
883.339	467
883.345	455
883.426	844
883.445	899
883.507	857
883.551	419
883.587	447
883.657	1112
883.668	1203
883.749	1909
883.763	1920
883.830	1003
883.869	617
883.910	629
883.975	688
883.991	755
884.072	1165
884.081	1186
884.152	1023
884.187	924
884.233	983
884.292	1240
884.314	1219
884.394	954
884.398	937
884.475	804
884.504	821
884.555	838
884.610	639
884.636	734
884.716	1389
884.716	1392
884.797	1296
884.821	1031
884.877	872
884.927	950
884.958	942
885.033	1026
885.038	1027
885.118	968
885.139	980
885.199	923
885.244	704
885.279	861
885.350	1547
885.359	1584
885.439	1486
885.456	1465
885.520	1603
885.561	1694
885.600	1422
885.667	1187
885.680	1211
885.760	1009
885.773	990
885.840	1002
885.878	1045
885.920	819
885.984	571
886.000	691
886.080	1028
886.089	1089
886.160	998
886.195	857
886.240	935
886.300	1017
886.320	1012
886.400	1325
886.406	1334
886.480	1238
886.511	1179
886.560	1752
886.616	2271
886.640	1990
886.720	1062
886.722	1038
886.800	913
886.827	966
886.879	984
886.932	842
886.959	952
887.038	1212
887.039	1214
887.119	1093
887.143	1126
887.198	1257
887.248	1298
887.278	1280
887.354	1269
887.358	1281
887.437	1264
887.459	1351
887.517	1709
887.564	1887
887.596	1635
887.669	909
887.676	890
887.755	803
887.774	781
887.835	907
887.880	987
887.914	892
887.985	605
887.994	574
888.073	416
888.090	370
888.153	1043
888.195	1434
888.232	1175
888.300	858
888.311	883
888.391	995
888.405	990
888.470	722
888.510	592
888.549	913
888.615	1539
888.628	1541
888.708	1386
888.720	1374
888.787	1414
888.825	1391
888.866	1228
888.930	994
888.945	1007
889.024	1113
889.035	1120
889.103	1602
889.140	1856
889.182	1484
889.245	925
889.261	894
889.340	738
889.349	724
889.419	1470
889.454	1820
889.498	1409
889.559	863
889.577	1025
889.656	1716
889.664	1782
889.735	1191
889.768	907
889.814	901
889.873	888
889.978	944
890.083	872
890.187	1129
890.292	619
890.397	1526
890.501	1191
890.606	898
890.710	901
890.815	1996
890.919	1462
891.024	1368
891.128	1178
891.233	850
891.337	1509
891.442	1438
891.546	825
891.650	515
891.755	485
891.859	1867
891.963	1437
892.068	982
892.172	880
892.276	676
892.380	342
892.484	311
892.589	1491
892.693	170
892.797	696
892.901	1043
893.005	931
893.109	505
893.213	1534
893.317	495
893.421	942
893.525	-254
893.629	105
893.733	844
893.837	1253
893.941	-146
894.045	899
894.148	506
894.252	1428
894.356	1225
894.460	1591
894.564	1433
894.667	844
894.771	1073
894.875	101
894.978	702
895.082	1091
895.186	1346
895.289	415
895.393	989
895.496	495
895.600	102
895.703	567
895.807	1166
895.910	280
896.014	772
896.117	547
896.221	1447
896.324	547
896.427	1305
896.531	160
896.634	556
896.737	1685
896.840	489
896.944	901
897.047	1174
897.150	420
897.253	974
897.356	1266
897.460	867
897.563	773
897.666	674
897.769	1053
897.872	537
897.975	1146
898.078	533
898.181	-268
898.284	839
898.387	785
898.490	1137
898.593	1573
898.695	312
898.798	1091
898.901	1373
899.004	898
899.107	801
899.209	569
899.312	663
899.415	1521
899.518	1467
899.620	616
899.723	1317
899.826	3191
899.928	3232
900.031	1254
900.133	908
900.236	658
900.338	-168
900.441	601
900.543	663
900.646	1312
900.748	865
900.851	864
900.953	1025
901.055	436
901.158	568
901.260	116
901.362	1082
901.465	60
901.567	713
901.669	660
901.771	1458
901.873	915
901.976	924
902.078	1216
902.180	806
902.282	885
902.384	453
902.486	1206
902.588	890
902.690	1053
902.792	463
902.894	1418
902.996	624
903.098	421
903.200	955
903.302	389
903.404	716
903.505	185
903.607	616
903.709	946
903.811	-209
903.913	-354
904.014	398
904.116	184
904.218	482
904.319	434
904.421	697
904.523	1247
904.624	451
904.726	1172
904.827	679
904.929	494
905.030	489
905.132	220
905.233	667
905.335	434
905.436	519
905.537	561
905.639	661
905.740	568
905.841	-85
905.943	498
906.044	-420
906.145	426
906.247	84
906.348	345
906.449	1062
906.550	466
906.651	1041
906.752	385
906.854	-391
906.955	945
907.056	-636
907.157	339
907.258	71
907.359	991
907.460	-169
907.561	947
907.662	-275
907.762	590
907.863	-165
907.964	995
908.065	316
908.166	1713
908.267	274
908.367	137
908.468	-484
908.569	481
908.670	154
908.770	1936
908.871	1602
908.971	749
909.072	537
909.173	146
909.273	-389
909.374	508
909.474	-412
909.575	1
909.675	-52
909.776	1386
909.876	550
909.977	289
910.077	792
910.177	614
910.278	4
910.378	156
910.478	877
910.579	989
910.679	107
910.779	547
910.879	365
910.980	610
911.080	139
911.180	-29
911.280	17
911.380	216
911.480	266
911.580	51
911.680	284
911.780	644
911.880	1022
911.980	400
912.080	795
912.180	793
912.280	258
912.380	-982
912.480	167
912.580	382
912.679	167
912.779	561
912.879	491
912.979	700
913.078	-158
913.178	-535
913.278	902
913.377	936
913.477	-269
913.577	-55
913.676	119
913.776	392
913.875	598
913.975	826
914.074	429
914.174	638
914.273	-477
914.373	745
914.472	478
914.572	103
914.671	-202
914.770	272
914.870	517
914.969	938
915.068	-35
915.167	565
915.267	175
915.366	156
915.465	-476
915.564	684
915.663	230
915.763	377
915.862	-75
915.961	237
916.060	605
916.159	-369
916.258	-707
916.357	1004
916.456	579
916.555	164
916.654	66
916.752	432
916.851	-621
916.950	-98
917.049	-400
917.148	614
917.247	345
917.345	-426
917.444	-195
917.543	-3
917.642	-277
917.740	-175
917.839	116
917.937	789
918.036	1277
918.135	299
918.233	276
918.332	1134
918.430	262
918.529	41
918.627	-544
918.726	351
918.824	1290
918.923	725
919.021	277
919.119	-62
919.218	168
919.316	291
919.414	763
919.512	290
919.611	-63
919.709	180
919.807	351
919.905	954
920.003	279
920.102	138
920.200	-222
920.298	925
920.396	-127
920.494	389
920.592	-179
920.690	213
920.788	446
920.886	375
920.984	871
921.082	487
921.180	1532
921.277	908
921.375	249
921.473	832
921.571	767
921.669	586
921.766	712
921.864	-179
921.962	939
922.060	669
922.157	1207
922.255	635
922.352	-198
922.450	1046
922.548	1385
922.645	1307
922.743	1374
922.840	3016
922.938	2453
923.035	2792
923.133	2136
923.230	2441
923.327	2867
923.425	2221
923.522	3266
923.619	2896
923.717	1935
923.814	2257
923.911	1628
924.008	2742
924.106	2615
924.203	2287
924.300	2548
924.397	1804
924.494	3057
924.591	2469
924.688	2508
924.786	2785
924.883	2016
924.979	2351
925.077	1782
925.173	1762
925.270	2624
925.367	1444
925.464	2129
925.561	3147
925.658	2881
925.755	3295
925.852	2842
925.948	2805
926.045	2538
926.142	2521
926.239	3030
926.335	1985
926.432	2776
926.529	2475
926.625	2568
926.722	2237
926.818	1900
926.915	1276
927.011	1977
927.108	2361
927.204	1715
927.301	1768
927.397	1595
927.494	1604
927.590	1877
927.687	1859
927.783	2639
927.879	2136
927.976	2093
928.072	2128
928.168	2253
928.264	2603
928.361	1667
928.457	2455
928.553	1937
928.649	1673
928.745	2327
928.841	2165
928.937	2139
929.033	1920
929.129	1754
929.225	1479
929.321	2403
929.417	1319
929.513	1914
929.609	1535
929.705	2085
929.801	1686
929.897	1219
929.993	1751
930.089	2190
930.184	1083
930.280	1597
930.376	2708
930.471	1125
930.567	1626
930.663	1040
930.758	1456
930.854	1028
930.950	666
931.045	1192
931.141	1233
931.236	1891
931.332	1906
931.427	1687
931.523	2449
931.618	1661
931.714	1142
931.809	1986
931.905	1828
932.000	862
932.095	806
932.191	1640
932.286	1670
932.381	1082
932.476	1106
932.572	988
932.667	1473
932.762	1108
932.857	1539
932.952	1686
933.047	1586
933.142	1224
933.237	1149
933.332	2151
933.427	1770
933.522	1026
933.617	1450
933.712	1117
933.807	2275
933.902	1591
933.997	1641
934.092	676
934.187	1380
934.282	1002
934.376	1942
934.471	1030
934.566	918
934.661	998
934.755	683
934.850	1904
934.945	1275
935.039	1287
935.134	672
935.228	1499
935.323	2049
935.417	1109
935.512	602
935.606	325
935.701	1221
935.795	2055
935.890	1485
935.984	1533
936.079	304
936.173	349
936.267	601
936.362	157
936.456	1184
936.550	2200
936.644	1630
936.738	38
936.833	875
936.927	596
937.021	1077
937.115	1678
937.209	574
937.303	1460
937.397	1040
937.491	845
937.585	1997
937.679	0
937.773	992
937.867	821
937.961	848
938.055	1102
938.149	709
938.243	766
938.337	1524
938.430	1361
938.524	2135
938.618	987
938.712	1375
938.805	1182
938.899	1327
938.993	1680
939.086	915
939.180	825
939.274	1884
939.367	1837
939.461	1870
939.554	1365
939.648	601
939.741	806
939.835	785
939.928	1024
940.022	1906
940.115	1100
940.208	1322
940.302	1100
940.395	1228
940.488	366
940.582	1171
940.675	403
940.768	580
940.861	623
940.954	1544
941.048	115
941.141	1067
941.234	1464
941.327	2380
941.420	3644
941.513	1371
941.606	1355
941.699	1284
941.792	840
941.885	906
941.978	1295
942.071	228
942.164	139
942.257	258
942.349	758
942.442	598
942.535	-36
942.628	607
942.721	653
942.813	314
942.906	1528
942.999	1011
943.091	411
943.184	390
943.277	214
943.369	359
943.462	-45
943.554	1665
943.647	631
943.739	954
943.832	1059
943.924	827
944.017	1067
944.109	-168
944.201	757
944.294	1095
944.386	578
944.478	-455
944.571	1270
944.663	553
944.755	1583
944.847	1616
944.940	911
945.032	160
945.124	629
945.216	1442
945.308	1807
945.400	900
945.492	415
945.584	1279
945.676	1256
945.768	73
945.860	910
945.952	992
946.044	237
946.136	993
946.228	480
946.320	174
946.412	840
946.503	228
946.595	1023
946.687	865
946.779	-94
946.870	940
946.962	28
947.054	855
947.145	1629
947.237	39
947.329	271
947.420	315
947.512	395
947.603	924
947.695	948
947.786	-242
947.878	-81
947.969	1328
948.061	846
948.152	603
948.243	-164
948.335	23
948.426	497
948.517	836
948.609	369
948.700	1141
948.791	348
948.882	-77
948.973	-671
949.065	177
949.156	93
949.247	-507
949.338	292
949.429	474
949.520	-766
949.611	-69
949.702	279
949.793	185
949.884	727
949.975	-576
950.066	-440
950.157	154
950.247	-880
950.338	-57
950.429	-194
950.520	408
950.611	300
950.701	482
950.792	480
950.883	1358
950.973	1240
951.064	-19
951.155	398
951.245	600
951.336	791
951.427	61
951.517	1145
951.608	989
951.698	-47
951.788	-451
951.879	154
951.969	-197
952.060	-795
952.150	-377
952.240	694
952.331	-621
952.421	1116
952.511	-632
952.602	-485
952.692	-360
952.782	578
952.872	660
952.962	166
953.052	-525
953.143	-76
953.233	1490
953.323	-62
953.413	669
953.503	155
953.593	546
953.683	256
953.773	740
953.863	-191
953.953	358
954.042	1334
954.132	319
954.222	579
954.312	706
954.402	-105
954.492	1096
954.581	1358
954.671	-370
954.761	-1110
954.850	1545
954.940	-318
955.030	-5
955.119	730
955.209	420
955.298	-173
955.388	-417
955.477	989
955.567	348
955.656	491
955.746	673
955.835	397
955.925	-152
956.014	410
956.103	114
956.193	227
956.282	-220
956.371	494
956.461	15
956.550	200
956.639	-225
956.728	122
956.817	-173
956.906	-114
956.995	759
957.085	55
957.174	-316
957.263	-738
957.352	-795
957.441	-27
957.530	423
957.619	108
957.708	-504
957.796	-561
957.885	379
957.974	-839
958.063	715
958.152	-589
958.241	612
958.329	840
958.418	564
958.507	-774
958.596	1087
958.684	-821
958.773	785
958.861	-367
958.950	81
959.039	-8
959.127	292
959.216	-131
959.304	52
959.393	-145
959.481	-375
959.570	-1067
959.658	-285
959.746	92
959.835	733
959.923	881
960.011	-330
960.100	578
960.188	107
960.276	-555
960.365	-651
960.453	-216
960.541	51
960.629	243
960.717	-711
960.805	-258
960.893	-214
960.981	-767
961.069	551
961.158	-282
961.245	508
961.333	309
961.421	-8
961.509	37
961.597	-340
961.685	-429
961.773	-572
961.861	-300
961.949	152
962.036	-841
962.124	766
962.212	-599
962.299	-349
962.387	-887
962.475	416
962.562	-412
962.650	703
962.738	-383
962.825	-13
962.913	94
963.000	183
963.088	410
963.175	439
963.263	84
963.350	242
963.438	521
963.525	379
963.612	1257
963.700	6231
963.787	8378
963.874	3127
963.962	-107
964.049	168
964.136	-169
964.223	-198
964.310	-335
964.398	411
964.485	83
964.572	1414
964.659	1341
964.746	855
964.833	195
964.920	-134
965.007	-411
965.094	-241
965.181	-543
965.268	246
965.355	236
965.441	-911
965.528	-1201
965.615	494
965.702	-251
965.789	-128
965.875	-194
965.962	-476
966.049	-714
966.136	-565
966.222	-501
966.309	966
966.395	-397
966.482	-327
966.569	-374
966.655	160
966.742	-529
966.828	-301
966.915	-644
967.001	216
967.087	-877
967.174	689
967.260	407
967.347	1738
967.433	2979
967.519	4368
967.605	1120
967.692	329
967.778	-240
967.864	935
967.950	-116
968.036	-1053
968.123	117
968.209	-190
968.295	-1046
968.381	1416
968.467	-268
968.553	-1259
968.639	-64
968.725	-607
968.811	2018
968.897	1305
968.983	26
969.069	-1375
969.154	607
969.240	157
969.326	-934
969.412	-753
969.497	-344
969.583	-538
969.669	484
969.755	483
969.840	-437
969.926	849
970.012	44
970.097	1910
970.183	525
970.268	339
970.354	774
970.439	753
970.525	3220
970.610	-159
970.696	13
970.781	-317
970.866	-615
970.952	93
971.037	-1248
971.122	39
971.208	-173
971.293	-100
971.378	-1483
971.463	-910
971.549	-185
971.634	-369
971.719	-209
971.804	-441
971.889	203
971.974	-13
972.059	-432
972.144	-245
972.229	-76
972.314	-1362
972.399	-179
972.484	-603
972.569	-678
972.654	-153
972.739	1898
972.824	1178
972.908	-801
972.993	-702
973.078	-332
973.163	182
973.247	-300
973.332	-1707
973.417	361
973.501	-786
973.586	-529
973.671	100
973.755	-354
973.840	486
973.924	887
974.009	574
974.093	-51
974.178	1206
974.262	932
974.346	449
974.431	-240
974.515	-48
974.600	241
974.684	-178
974.768	4
974.852	1102
974.937	-1510
975.021	-513
975.105	412
975.189	-261
975.273	113
975.358	-568
975.442	-1192
975.526	357
975.610	-742
975.694	-987
975.778	47
975.862	-20
975.946	-1893
976.030	1297
976.114	-1270
976.198	-146
976.281	-212
976.365	-130
976.449	-644
976.533	536
976.617	-56
976.700	-847
976.784	-62
976.868	-651
976.951	22
977.035	333
977.119	68
977.202	-826
977.286	-799
977.369	314
977.453	378
977.536	-21
977.620	-426
977.703	484
977.787	-1150
977.870	494
977.953	1248
978.037	-897
978.120	1389
978.203	818
978.287	1276
978.370	572
978.453	-424
978.536	-21
978.620	918
978.703	1027
978.786	-431
978.869	-709
978.952	-1019
979.035	830
979.118	-2
979.201	-1348
979.284	722
979.367	-326
979.450	-160
979.533	-570
979.616	-349
979.699	-676
979.782	-298
979.865	7
979.948	-183
980.030	-1128
980.113	-159
980.196	-1095
980.279	-768
980.361	95
980.444	-232
980.526	-259
980.609	236
980.692	-511
980.774	330
980.857	-1405
980.939	407
981.022	-95
981.104	-386
981.187	-184
981.269	594
981.352	-584
981.434	-1179
981.516	-1294
981.599	6
981.681	226
981.763	-1095
981.846	-362
981.928	-1076
982.010	-426
982.092	-840
982.174	26
982.256	-655
982.339	-787
982.421	-81
982.503	-607
982.585	-1447
982.667	-365
982.749	-294
982.831	561
982.913	-1467
982.995	219
983.077	-801
983.158	-20
983.240	-1437
983.322	-54
983.404	196
983.486	-1209
983.568	-191
983.649	-474
983.731	-274
983.813	-287
983.894	400
983.976	-340
984.058	-1137
984.139	671
984.221	-667
984.302	-72
984.384	-100
984.465	-1052
984.547	-37
984.628	-676
984.710	178
984.791	-237
984.872	-524
984.954	-675
985.035	-1036
985.116	-605
985.198	-340
985.279	6
985.360	-1221
985.441	-960
985.522	-319
985.604	-334
985.685	-1476
985.766	-50
985.847	468
985.928	-1383
986.009	-337
986.090	-15
986.171	-45
986.252	-693
986.333	-207
986.414	-1226
986.495	-490
986.576	-590
986.656	-458
986.737	127
986.818	-1253
986.899	-917
986.980	-819
987.060	448
987.141	-904
987.222	80
987.302	-361
987.383	311
987.464	-812
987.544	9
987.625	-22
987.705	-175
987.786	41
987.866	-29
987.947	-1172
988.027	52
988.108	-124
988.188	705
988.268	125
988.349	421
988.429	-846
988.509	-603
988.589	-1001
988.670	-1429
988.750	678
988.830	-825
988.910	665
988.990	-171
989.070	-627
989.151	-893
989.231	-818
989.311	344
989.391	-83
989.471	-411
989.551	-122
989.631	-625
989.711	423
989.791	-799
989.870	-1263
989.950	309
990.030	-171
990.110	175
990.190	-755
990.269	-1130
990.349	-258
990.429	-571
990.509	97
990.588	-922
990.668	-306
990.747	-175
990.827	164
990.907	-898
990.986	-671
991.066	-283
991.145	138
991.225	-249
991.304	-1286
991.383	52
991.463	-778
991.542	-1125
991.622	-682
991.701	-512
991.780	-1462
991.859	252
991.939	-712
992.018	-1755
992.097	-457
992.176	-320
992.256	-439
992.335	-868
992.414	-195
992.493	-226
992.572	-382
992.651	342
992.730	-204
992.809	-675
992.888	-854
992.967	-1074
993.046	59
993.125	-1458
993.203	-299
993.282	-901
993.361	-246
993.440	-688
993.519	-941
993.597	-320
993.676	-800
993.755	-111
993.834	-585
993.912	-1258
993.991	82
994.069	-1475
994.148	-983
994.226	-611
994.305	-222
994.384	-1213
994.462	252
994.540	-1081
994.619	-1260
994.697	-548
994.776	-1438
994.854	-248
994.932	-1565
995.011	-500
995.089	-756
995.167	-813
995.245	-540
995.324	-1124
995.402	-292
995.480	-734
995.558	-431
995.636	-1134
995.714	-1053
995.792	146
995.870	-1069
995.948	-623
996.026	-713
996.104	-1602
996.182	299
996.260	-699
996.338	-1217
996.416	-2256
996.494	-1531
996.572	122
996.649	-683
996.727	-1218
996.805	-1210
996.883	330
996.960	-1180
997.038	-760
997.116	-1063
997.193	-1786
997.271	-397
997.348	-1198
997.426	-251
997.504	-1393
997.581	-375
997.658	2
997.736	-1605
997.813	-953
997.891	-834
997.968	-982
998.046	-1171
998.123	-681
998.200	-326
998.277	-683
998.355	-305
998.432	-2013
998.509	-1038
998.586	-843
998.663	-714
998.741	-770
998.818	-1263
998.895	-1442
998.972	-179
999.049	-639
999.126	-893
999.203	-336
999.280	-173
999.357	-1947
999.434	-2102
999.511	-728
999.587	540
999.664	-985
999.741	-338
999.818	-483
999.895	-1190
999.971	-1318
1000.048	-1364
1000.125	-511
1000.202	-1049
1000.278	-566
1000.355	-1211
1000.431	-1338
1000.508	-1620
1000.584	-1434
1000.661	-707
1000.738	-1894
1000.814	-937
1000.890	-1345
1000.967	-1506
1001.043	-1012
1001.120	-818
1001.196	-297
1001.272	-733
1001.349	-1099
1001.425	-1026
1001.501	-1127
1001.577	-1701
1001.654	-474
1001.730	-907
1001.806	-321
1001.882	-1633
1001.958	-1414
1002.034	-832
1002.110	-993
1002.186	-2146
1002.262	-1069
1002.338	-2231
1002.414	-400
1002.490	-1359
1002.566	-1436
1002.642	-1478
1002.718	-843
1002.794	-1391
1002.870	-777
1002.945	-1251
1003.021	-1125
1003.097	-1341
1003.173	-736
1003.248	-1674
1003.324	-1184
1003.400	-496
1003.475	-1440
1003.551	-1413
1003.626	-1575
1003.702	-1315
1003.777	-404
1003.853	-1308
1003.928	-1149
1004.004	-1468
1004.079	-636
1004.155	-684
1004.230	-1867
1004.305	-436
1004.381	-1808
1004.456	-359
1004.531	-809
1004.607	-1102
1004.682	-1602
1004.757	-270
1004.832	-1109
1004.907	-1743
1004.982	-1789
1005.057	-944
1005.133	-1220
1005.208	-1557
1005.283	-2477
1005.358	-593
1005.433	-1771
1005.508	-515
1005.583	-1842
1005.657	-1360
1005.732	-510
1005.807	-691
1005.882	-1485
1005.957	-1176
1006.032	-686
1006.106	-672
1006.181	-1147
1006.256	-1504
1006.331	-2045
1006.405	-1701
1006.480	-59
1006.554	-1853
1006.629	-1271
1006.704	-1341
1006.778	-1473
1006.853	-804
1006.927	-1405
1007.002	-1667
1007.076	-860
1007.150	-1662
1007.225	-1487
1007.299	-1363
1007.373	-1667
1007.448	-751
1007.522	-631
1007.596	-1606
1007.671	-1115
1007.745	-1193
1007.819	-1089
1007.893	-1068
1007.967	-711
1008.041	-1490
1008.115	-965
1008.190	-1676
1008.264	-530
1008.338	-1918
1008.412	-2162
1008.486	-1429
1008.560	-602
1008.633	-1864
1008.707	-1672
1008.781	-757
1008.855	-970
1008.929	-1503
1009.003	-1545
1009.076	-1728
1009.150	-914
1009.224	-1475
1009.298	-812
1009.371	-2204
1009.445	-599
1009.519	-1215
1009.592	-1748
1009.666	-579
1009.739	-1267
1009.813	-2075
1009.886	-46
1009.960	-1791
1010.033	-830
1010.107	-565
1010.180	-1848
1010.253	-1146
1010.327	-2559
1010.400	-1087
1010.473	-1672
1010.547	-275
1010.620	-1396
1010.693	-1236
1010.766	-1743
1010.840	-1032
1010.913	-1060
1010.986	-2042
1011.059	-1252
1011.132	-1577
1011.205	-832
1011.278	-1868
1011.351	-1070
1011.424	-823
1011.497	-1775
1011.570	-1060
1011.643	-1949
1011.716	-1679
1011.789	-2051
1011.862	-1410
1011.934	-890
1012.007	-2715
1012.080	-1500
1012.153	-1696
1012.225	-1315
1012.298	-1428
1012.371	-1510
1012.443	-570
1012.516	-2110
1012.588	-1655
1012.661	-1648
1012.733	-1981
1012.806	-1274
1012.879	-2236
1012.951	-743
1013.023	-1765
1013.096	-1067
1013.168	-1300
1013.241	-296
1013.313	-1230
1013.385	-1515
1013.458	-1305
1013.530	-23
1013.602	-1842
1013.674	-544
1013.746	-2388
1013.819	-2366
1013.891	-1032
1013.963	-2060
1014.035	-929
1014.107	-1336
1014.179	-1217
1014.251	-1768
1014.323	-889
1014.395	-1087
1014.467	-914
1014.539	-1024
1014.611	-1839
1014.683	-1861
1014.754	-1641
1014.826	-1609
1014.898	-913
1014.970	-1643
1015.042	-1305
1015.113	-1401
1015.185	-1119
1015.257	-1223
1015.328	-733
1015.400	-1462
1015.471	-1642
1015.543	-1786
1015.615	-1359
1015.686	-684
1015.757	-819
1015.829	-517
1015.901	-1259
1015.972	-964
1016.043	-2178
1016.115	-1367
1016.186	-1684
1016.257	-1485
1016.328	-1531
1016.400	-1512
1016.471	-2124
1016.542	-1514
1016.613	-1246
1016.685	-2098
1016.756	-1256
1016.827	-1796
1016.898	-2874
1016.969	-747
1017.040	-1223
1017.111	-1717
1017.182	-2009
1017.253	-974
1017.324	-1965
1017.395	-2158
1017.466	-1333
1017.537	-2273
1017.608	-1891
1017.678	-1346
1017.749	-1826
1017.820	-1653
1017.891	-2382
1017.961	-1842
1018.032	-1471
1018.103	-1183
1018.173	-1620
1018.244	-2282
1018.315	-2284
1018.385	-1500
1018.456	-880
1018.526	-1133
1018.597	-1911
1018.667	-2177
1018.738	-1462
1018.808	-1421
1018.878	-2204
1018.949	-1673
1019.019	-2523
1019.089	-2276
1019.160	-1605
1019.230	-1787
1019.300	-845
1019.371	-1762
1019.441	-2024
1019.511	-1904
1019.581	-1798
1019.651	-2151
1019.721	-1644
1019.791	-1519
1019.861	-1113
1019.931	-1952
1020.001	-2218
1020.071	-2301
1020.141	-1893
1020.211	-1715
1020.281	-2009
1020.351	-1760
1020.421	-1835
1020.491	-1005
1020.560	-1812
1020.630	-2696
1020.700	-1548
1020.770	-1584
1020.839	-2169
1020.909	-1583
1020.979	-1535
1021.048	-1703
1021.118	-2018
1021.187	-2007
1021.257	-1790
1021.326	-1683
1021.396	-2136
1021.465	-1808
1021.535	-1997
1021.604	-2036
1021.674	-1469
1021.743	-1897
1021.812	-2488
1021.882	-1407
1021.951	-1776
1022.020	-1664
1022.089	-1896
1022.159	-2537
1022.228	-1791
1022.297	-1728
1022.366	-1563
1022.435	-1661
1022.504	-1447
1022.573	-1570
1022.642	-1459
1022.711	-1642
1022.781	-1497
1022.849	-1299
1022.918	-2267
1022.987	-1326
1023.056	-1234
1023.125	-714
1023.194	-2561
1023.263	-1570
1023.331	-1222
1023.400	-2144
1023.469	-1795
1023.538	-1194
1023.606	-2071
1023.675	-2299
1023.744	-1595
1023.812	-1746
1023.881	-2238
1023.949	-2682
1024.018	-2363
1024.086	-2389
1024.155	-2242
1024.223	-2233
1024.292	-2117
1024.360	-1478
1024.429	-1669
1024.497	-1651
1024.565	-2003
1024.634	-2439
1024.702	-1357
1024.770	-2416
1024.838	-3252
1024.907	-2141
1024.975	-2509
1025.043	-1304
1025.111	-2455
1025.179	-1858
1025.247	-2297
1025.315	-2197
1025.383	-2415
1025.451	-1615
1025.519	-1925
1025.587	-1887
1025.655	-2240
1025.723	-1932
1025.791	-2312
1025.859	-2288
1025.927	-1758
1025.995	-2374
1026.062	-2111
1026.130	-1802
1026.198	-2080
1026.266	-2245
1026.333	-1693
1026.401	-1462
1026.469	-1561
1026.536	-1452
1026.604	-1852
1026.671	-2609
1026.739	-1831
1026.806	-2102
1026.874	-2409
1026.941	-1570
1027.009	-2434
1027.076	-2326
1027.144	-2105
1027.211	-2253
1027.278	-2267
1027.345	-1592
1027.413	-1654
1027.480	-2282
1027.547	-2255
1027.614	-2046
1027.682	-1862
1027.749	-2382
1027.816	-1741
1027.883	-1424
1027.950	-1998
1028.017	-2401
1028.084	-1764
1028.151	-2258
1028.218	-2757
1028.285	-1854
1028.352	-1806
1028.419	-2115
1028.486	-1732
1028.553	-1453
1028.619	-2953
1028.686	-1865
1028.753	-2401
1028.820	-1787
1028.886	-2513
1028.953	-1079
1029.020	-1805
1029.086	-2084
1029.153	-1898
1029.220	-2397
1029.286	-2291
1029.353	-1542
1029.419	-2606
1029.486	-1824
1029.552	-2958
1029.619	-2140
1029.685	-2674
1029.751	-1974
1029.818	-1790
1029.884	-2004
1029.951	-1114
1030.017	-1749
1030.083	-2094
1030.149	-1915
1030.216	-1954
1030.282	-1156
1030.348	-1950
1030.414	-2090
1030.480	-2506
1030.546	-2891
1030.612	-2309
1030.678	-2124
1030.744	-2641
1030.810	-1336
1030.876	-1249
1030.942	-2849
1031.008	-1850
1031.074	-1732
1031.140	-1778
1031.206	-2272
1031.272	-2836
1031.337	-1436
1031.403	-2020
1031.469	-1473
1031.534	-3106
1031.600	-2081
1031.666	-2173
1031.731	-1622
1031.797	-2469
1031.863	-2718
1031.928	-2006
1031.994	-2241
1032.059	-2121
1032.125	-2330
1032.190	-2544
1032.256	-2573
1032.321	-2999
1032.386	-2574
1032.452	-1760
1032.517	-1331
1032.582	-1701
1032.647	-2292
1032.713	-2046
1032.778	-2232
1032.843	-2404
1032.908	-2075
1032.974	-1540
1033.039	-2083
1033.104	-1136
1033.169	-1898
1033.234	-2656
1033.299	-1173
1033.364	-1424
1033.429	-1028
1033.494	-1917
1033.559	-2568
1033.624	-2355
1033.688	-954
1033.753	-2359
1033.818	-1578
1033.883	-1157
1033.948	-1962
1034.013	-1861
1034.077	-1876
1034.142	-1079
1034.207	-1089
1034.271	-654
1034.336	903
1034.400	-298
1034.465	-683
1034.530	-1071
1034.594	-1968
1034.658	-1189
1034.723	-1895
1034.787	-2084
1034.852	-1798
1034.916	-2634
1034.981	-1962
1035.045	-2113
1035.109	-2275
1035.173	-2383
1035.238	-1605
1035.302	-1793
1035.366	-1343
1035.430	-2075
1035.495	-2195
1035.559	-2227
1035.623	-2314
1035.687	-2258
1035.751	-2144
1035.815	-1637
1035.879	-2211
1035.943	-1830
1036.007	-2754
1036.071	-2452
1036.135	-1766
1036.198	-1600
1036.262	-2019
1036.326	-2227
1036.390	-1964
1036.454	-1247
1036.517	-1425
1036.581	-665
1036.645	-658
1036.709	-206
1036.772	-1524
1036.836	-1560
1036.900	-1124
1036.963	-2394
1037.026	-2057
1037.090	-1671
1037.154	-1191
1037.217	-1753
1037.280	-2875
1037.344	-2120
1037.407	-2551
1037.471	-2283
1037.534	-2480
1037.597	-2228
1037.661	-2563
1037.724	-1859
1037.787	-2016
1037.850	-2764
1037.913	-2608
1037.977	-1859
1038.040	-1955
1038.103	-2153
1038.166	-1593
1038.229	-2508
1038.292	-1670
1038.355	-1734
1038.418	-2533
1038.481	-1699
1038.544	-1727
1038.607	-1950
1038.670	-1802
1038.732	-2367
1038.795	-2202
1038.858	-2208
1038.921	-2148
1038.984	-1909
1039.046	-2356
1039.109	-2347
1039.172	-2158
1039.234	-2351
1039.297	-2383
1039.360	-2173
1039.422	-2579
1039.485	-1889
1039.547	-2506
1039.610	-2069
1039.672	-1471
1039.734	-2477
1039.797	-2065
1039.859	-2093
1039.922	-2585
1039.984	-2385
1040.046	-2697
1040.109	-1594
1040.171	-1714
1040.233	-2262
1040.295	-2507
1040.358	-2543
1040.420	-2414
1040.482	-2703
1040.544	-2187
1040.606	-1841
1040.668	-3050
1040.730	-2517
1040.792	-2104
1040.854	-2308
1040.916	-2621
1040.978	-2028
1041.040	-1056
1041.102	-1975
1041.164	-2192
1041.225	-2408
1041.287	-2952
1041.349	-1856
1041.411	-2088
1041.472	-2311
1041.534	-2889
1041.596	-2457
1041.657	-1973
1041.719	-2291
1041.781	-2220
1041.842	-2698
1041.904	-1262
1041.965	-2353
1042.027	-1545
1042.088	-1930
1042.150	-2601
1042.211	-1162
1042.272	-1680
1042.334	-1696
1042.395	-1974
1042.456	-2358
1042.518	-1974
1042.579	-1706
1042.640	-2623
1042.701	-1484
1042.763	-1864
1042.824	-2871
1042.885	-2189
1042.946	-1801
1043.007	-2888
1043.068	-2120
1043.129	-2647
1043.190	-2665
1043.251	-1903
1043.312	-2445
1043.373	-2079
1043.434	-1790
1043.495	-1904
1043.556	-1375
1043.616	-2374
1043.677	-1825
1043.738	-2482
1043.799	-2176
1043.859	-2096
1043.920	-1604
1043.981	-1639
1044.041	-1836
1044.102	-2158
1044.162	-2252
1044.223	-2421
1044.284	-1745
1044.344	-1867
1044.405	-2813
1044.465	-1412
1044.525	-2011
1044.586	-2201
1044.646	-1846
1044.707	-1340
1044.767	-2343
1044.827	-1983
1044.887	-2000
1044.948	-2010
1045.008	-1625
1045.068	-1801
1045.128	-1504
1045.188	-1789
1045.249	-2366
1045.309	-2147
1045.369	-1886
1045.429	-2312
1045.489	-2103
1045.549	-2387
1045.609	-2753
1045.669	-2479
1045.729	-2458
1045.789	-1545
1045.848	-1976
1045.908	-1422
1045.968	-1750
1046.028	-1895
1046.088	-2160
1046.147	-1115
1046.207	-1852
1046.267	-2025
1046.326	-2196
1046.386	-2193
1046.446	-1298
1046.505	-1004
1046.565	-269
1046.624	-1293
1046.684	-1175
1046.743	-942
1046.803	-970
1046.862	-517
1046.922	0
