'Start Wavelength	183.907
'End Wavelength	1046.922
'Gate Delay	5.000
'Gate Width (ms)	1.050
'Laser Output Level	0.000
'X Position	0.000
'Y Position	0.000
'Z Position	0.000
'Grid Point Number	1.000
'Shot Number	100.000
183.907	428.000
183.977	-539.000
184.047	-485
184.116	378
184.186	129
184.256	-145
184.325	-197
184.395	-813
184.465	390
184.534	485
184.604	-240
184.674	-115
184.743	251
184.813	101
184.883	165
184.952	191
185.022	-524
185.092	200
185.161	-457
185.231	617
185.301	587
185.370	897
185.440	-605
185.509	-43
185.579	116
185.649	203
185.718	340
185.788	399
185.857	-53
185.927	-275
185.996	595
186.066	147
186.136	-369
186.205	584
186.275	-128
186.344	418
186.414	134
186.483	-281
186.553	1375
186.622	2392
186.692	630
186.761	-118
186.831	389
186.900	-109
186.970	524
187.039	937
187.109	1341
187.178	829
187.248	529
187.317	968
187.387	-20
187.456	1286
187.526	1138
187.595	1109
187.664	484
187.734	1110
187.803	987
187.873	358
187.942	1724
188.012	1018
188.081	239
188.150	533
188.220	899
188.289	916
188.358	1359
188.428	956
188.497	124
188.567	1353
188.636	1106
188.705	1348
188.775	292
188.844	324
188.913	1501
188.983	542
189.052	58
189.121	226
189.191	216
189.260	821
189.329	1252
189.399	817
189.468	660
189.537	246
189.606	1147
189.676	1092
189.745	659
189.814	1052
189.883	638
189.953	946
190.022	1544
190.091	1871
190.161	3230
190.230	1493
190.299	831
190.368	927
190.437	657
190.507	935
190.576	460
190.645	214
190.714	198
190.783	130
190.853	1008
190.922	1152
190.991	1639
191.060	687
191.129	516
191.198	781
191.268	865
191.337	400
191.406	650
191.475	184
191.544	574
191.613	1210
191.682	1306
191.752	1332
191.821	-64
191.890	1414
191.959	564
192.028	1137
192.097	1021
192.166	750
192.235	-11
192.304	1423
192.373	-176
192.442	673
192.511	203
192.580	316
192.650	588
192.719	817
192.788	652
192.857	1129
192.926	493
192.995	1116
193.064	772
193.133	1937
193.202	2872
193.271	3011
193.340	2756
193.409	2379
193.478	2920
193.547	2820
193.615	3725
193.684	4979
193.753	3070
193.822	2669
193.891	964
193.960	2401
194.029	1974
194.098	1207
194.167	683
194.236	1495
194.305	74
194.374	780
194.443	1110
194.512	1781
194.580	1259
194.649	1511
194.718	1970
194.787	1284
194.856	443
194.925	1686
194.994	1289
195.062	1681
195.131	1934
195.200	2066
195.269	3244
195.338	1469
195.407	1369
195.475	1564
195.544	1941
195.613	2080
195.682	2290
195.751	2508
195.819	2901
195.888	2314
195.957	2381
196.026	2780
196.094	2437
196.163	3094
196.232	2981
196.301	2280
196.369	2320
196.438	1617
196.507	641
196.576	1541
196.644	1302
196.713	1314
196.782	1247
196.850	1650
196.919	973
196.988	1139
197.056	922
197.125	1570
197.194	1328
197.262	1152
197.331	929
197.400	1175
197.468	1217
197.537	1244
197.606	1985
197.674	2224
197.743	4019
197.812	1794
197.880	3892
197.949	3513
198.017	3041
198.086	2748
198.155	2617
198.223	2752
198.292	3882
198.360	3231
198.429	1949
198.497	1869
198.566	2710
198.635	5090
198.703	2693
198.772	2607
198.840	4649
198.909	6640
198.977	1513
199.046	2268
199.114	2002
199.183	2196
199.251	1685
199.320	1418
199.388	1224
199.457	2197
199.525	1943
199.594	1519
199.662	1398
199.731	1528
199.799	2222
199.867	1815
199.936	467
200.004	2324
200.073	2087
200.141	1772
200.210	1192
200.278	2094
200.346	2743
200.415	2778
200.483	3562
200.552	2558
200.620	2340
200.688	1240
200.757	2345
200.825	1859
200.893	2066
200.962	2145
201.030	1349
201.098	1564
201.167	2143
201.235	2030
201.303	1969
201.372	2630
201.440	1363
201.508	2729
201.577	2876
201.645	2346
201.713	1498
201.781	2746
201.850	3589
201.918	2377
201.986	1904
202.055	2328
202.123	2406
202.191	2187
202.259	2467
202.327	1752
202.396	2260
202.464	2321
202.532	3046
202.600	8121
202.669	6582
202.737	3752
202.805	2427
202.873	2330
202.941	2689
203.009	2713
203.078	2404
203.146	1850
203.214	1399
203.282	1499
203.350	1601
203.418	1838
203.487	3170
203.555	1552
203.623	2311
203.691	2092
203.759	1847
203.827	1423
203.895	1717
203.963	2651
204.031	2390
204.099	2500
204.168	1921
204.236	2617
204.304	2302
204.372	3013
204.440	3255
204.508	2593
204.576	2066
204.644	2236
204.712	2614
204.780	2134
204.848	3019
204.916	1956
204.984	1743
205.052	2664
205.120	1857
205.188	2291
205.256	1563
205.324	1875
205.392	2283
205.460	2635
205.528	2587
205.596	2562
205.664	2100
205.732	2852
205.799	5544
205.867	9797
205.935	3360
206.003	2130
206.071	2267
206.139	3152
206.207	2863
206.275	2549
206.343	1697
206.411	2479
206.478	2313
206.546	3770
206.614	2953
206.682	2553
206.750	3051
206.818	3679
206.885	4496
206.953	1519
207.021	3504
207.089	3212
207.157	2639
207.225	3446
207.292	2478
207.360	3224
207.428	3310
207.496	3429
207.563	2328
207.631	2807
207.699	2609
207.767	3001
207.834	2539
207.902	3489
207.970	3402
208.038	3520
208.105	3592
208.173	3291
208.241	3989
208.309	5335
208.376	3971
208.444	6615
208.512	4703
208.579	2379
208.647	3890
208.715	4345
208.782	4270
208.850	3006
208.918	2902
208.985	2906
209.053	3508
209.120	4220
209.188	2822
209.256	3428
209.323	3302
209.391	4383
209.459	4923
209.526	3094
209.594	2937
209.661	3750
209.729	3651
209.796	4076
209.864	3406
209.932	3223
209.999	5030
210.067	4683
210.134	4613
210.202	3927
210.269	5995
210.337	5847
210.404	4283
210.472	4345
210.539	3532
210.607	4393
210.674	4306
210.742	3615
210.809	3518
210.877	4882
210.944	5103
211.012	4285
211.079	6280
211.146	4022
211.214	4321
211.281	6074
211.349	5264
211.416	4711
211.484	4742
211.551	4786
211.618	4912
211.686	4354
211.753	3266
211.821	4897
211.888	4276
211.955	4931
212.023	4681
212.090	4541
212.157	3947
212.225	5750
212.292	7535
212.359	12205
212.427	24100
212.494	14996
212.561	8034
212.629	6498
212.696	4924
212.763	5713
212.831	5100
212.898	5065
212.965	4480
213.032	4929
213.100	5333
213.167	5467
213.234	6338
213.301	5534
213.369	4536
213.436	5052
213.503	3758
213.570	5638
213.638	5760
213.705	4276
213.772	3530
213.839	4917
213.906	6542
213.973	6426
214.041	4861
214.108	5551
214.175	5204
214.242	5014
214.309	5090
214.376	5332
214.444	5241
214.511	6578
214.578	6026
214.645	5862
214.712	7149
214.779	6296
214.846	5907
214.913	6517
214.980	6756
215.048	7345
215.115	7856
215.182	7313
215.249	6032
215.316	6462
215.383	5220
215.450	4937
215.517	5604
215.584	5478
215.651	4868
215.718	4790
215.785	6137
215.852	5529
215.919	7421
215.986	6683
216.053	5116
216.120	4462
216.187	6527
216.254	5201
216.321	5563
216.388	5413
216.455	7110
216.522	6659
216.589	7127
216.656	11106
216.722	11331
216.789	8247
216.856	8633
216.923	7462
216.990	7532
217.057	7369
217.124	9157
217.191	8537
217.258	9035
217.324	10250
217.391	12021
217.458	8575
217.525	7287
217.592	6890
217.659	5908
217.725	8068
217.792	9231
217.859	9399
217.926	6803
217.993	5289
218.059	5650
218.126	5043
218.193	5386
218.260	5161
218.327	4521
218.393	4848
218.460	4731
218.527	3757
218.594	4753
218.660	8514
218.727	9884
218.794	4898
218.860	5334
218.927	3605
218.994	3973
219.061	4706
219.127	6139
219.194	8736
219.261	5609
219.327	4030
219.394	5067
219.461	2865
219.527	3581
219.594	6101
219.661	6443
219.727	3560
219.794	5372
219.860	3947
219.927	5928
219.994	8285
220.060	13541
220.127	10236
220.193	8225
220.260	7008
220.326	9828
220.393	14046
220.460	17619
220.526	12605
220.593	9222
220.659	9932
220.726	8781
220.792	16776
220.859	16971
220.925	22557
220.992	27227
221.058	24933
221.125	23674
221.191	17070
221.258	9563
221.324	7617
221.391	6726
221.457	6036
221.524	6602
221.590	8247
221.657	18986
221.723	15990
221.789	12468
221.856	13754
221.922	8487
221.989	7484
222.055	5954
222.121	5222
222.188	8774
222.254	6753
222.321	6009
222.387	4179
222.453	4687
222.520	5243
222.586	4365
222.652	4596
222.719	4626
222.785	5582
222.851	4948
222.918	4450
222.984	5147
223.050	4962
223.116	3432
223.183	4863
223.249	4073
223.315	3397
223.382	3717
223.448	3933
223.514	3082
223.580	4108
223.647	3394
223.713	3532
223.779	4083
223.845	4088
223.911	5340
223.978	3639
224.044	4664
224.110	4656
224.176	4019
224.242	4146
224.309	2684
224.375	4727
224.441	4619
224.507	3663
224.573	3246
224.639	5243
224.705	3657
224.772	4228
224.838	3780
224.904	5159
224.970	4419
225.036	4542
225.102	4611
225.168	5081
225.234	4109
225.300	4167
225.366	3912
225.432	3927
225.499	4308
225.565	4531
225.631	4726
225.697	5819
225.763	7548
225.829	8083
225.895	7631
225.961	11094
226.027	10665
226.093	8897
226.159	10416
226.225	14709
226.291	27593
226.357	43875
226.423	26623
226.489	17371
226.554	11906
226.620	11035
226.686	12455
226.752	19817
226.818	27327
226.884	52297
226.950	48987
227.016	23312
227.082	15069
227.148	11828
227.214	12181
227.279	10740
227.345	8698
227.411	9033
227.477	9308
227.543	17713
227.609	19286
227.674	12027
227.740	9226
227.806	7996
227.872	6826
227.938	6005
228.003	10855
228.069	7497
228.135	5294
228.201	5224
228.267	5308
228.332	8343
228.398	8916
228.464	6656
228.530	4694
228.595	5356
228.661	4935
228.727	10204
228.792	8596
228.858	6133
228.924	6220
228.990	7866
229.055	6589
229.121	9360
229.187	6307
229.252	6425
229.318	4853
229.384	6692
229.449	7575
229.515	3626
229.581	3561
229.646	5708
229.712	6561
229.777	11556
229.843	13780
229.909	11431
229.974	11135
230.040	11411
230.105	8615
230.171	9531
230.236	11438
230.302	15117
230.368	13570
230.433	8559
230.499	9042
230.564	8995
230.630	6763
230.695	6889
230.761	6801
230.826	5148
230.892	9810
230.957	6724
231.023	6195
231.088	7696
231.154	6271
231.219	7310
231.284	9108
231.350	10217
231.415	8041
231.481	6470
231.546	5450
231.612	5381
231.677	4867
231.742	5147
231.808	7411
231.873	4674
231.939	4051
232.004	11562
232.069	11740
232.135	6746
232.200	6916
232.265	5930
232.331	4339
232.396	4670
232.461	4931
232.527	5293
232.592	5059
232.657	5758
232.723	7734
232.788	6917
232.853	5305
232.918	4977
232.984	5109
233.049	4269
233.114	6341
233.179	8000
233.245	9556
233.310	11380
233.375	4488
233.440	5066
233.506	4240
233.571	4476
233.636	5630
233.701	4397
233.766	8271
233.832	9543
233.897	6467
233.962	6437
234.027	8771
234.092	6800
234.157	5707
234.222	7293
234.288	8435
234.353	19672
234.418	18382
234.483	14197
234.548	11974
234.613	10372
234.678	10335
234.743	9002
234.808	20306
234.873	15585
234.938	10296
235.004	8773
235.069	7614
235.134	7464
235.199	8441
235.264	6624
235.329	5902
235.394	8023
235.459	7904
235.524	7758
235.589	7558
235.654	6275
235.719	6131
235.784	6488
235.849	6399
235.913	11495
235.978	12454
236.043	14691
236.108	9234
236.173	8207
236.238	9150
236.303	6851
236.368	5730
236.433	9922
236.498	14693
236.563	14187
236.627	21758
236.692	64437
236.757	61960
236.822	25905
236.887	18994
236.952	16817
237.017	13023
237.081	14210
237.146	19173
237.211	33755
237.276	65012
237.341	102341
237.405	58154
237.470	26731
237.535	19297
237.600	13658
237.664	11037
237.729	10422
237.794	12553
237.859	23185
237.923	16158
237.988	10608
238.053	13184
238.118	13093
238.182	24955
238.247	23620
238.312	13155
238.376	10640
238.441	8312
238.506	9641
238.570	5960
238.635	7551
238.700	6478
238.764	6663
238.829	12127
238.893	15194
238.958	11176
239.023	11455
239.087	7726
239.152	8144
239.216	6337
239.281	7677
239.346	7516
239.410	6466
239.475	7745
239.539	21962
239.604	20303
239.668	9585
239.733	7344
239.797	12560
239.862	28804
239.926	27655
239.991	13976
240.055	8380
240.120	7823
240.184	8452
240.249	6222
240.313	6855
240.378	6709
240.442	14617
240.507	23394
240.571	9971
240.635	11796
240.700	16346
240.764	9668
240.829	7132
240.893	5048
240.957	7031
241.022	13713
241.086	22513
241.151	12770
241.215	6736
241.279	9491
241.344	13378
241.408	10624
241.472	9959
241.537	11114
241.601	10189
241.665	8366
241.730	9495
241.794	9927
241.858	9014
241.922	9409
241.987	9723
242.051	7517
242.115	8833
242.179	8751
242.244	8147
242.308	8614
242.372	8130
242.436	8997
242.501	9594
242.565	7297
242.629	7298
242.693	8406
242.757	7825
242.822	7940
242.886	8705
242.950	9156
243.014	8732
243.078	9973
243.142	10984
243.206	7998
243.271	10079
243.335	9884
243.399	13667
243.463	37849
243.527	93047
243.591	38308
243.655	18071
243.719	12067
243.783	12606
243.847	18510
243.911	23645
243.975	27341
244.040	21592
244.104	12346
244.168	9795
244.232	14814
244.296	22028
244.360	22463
244.424	14825
244.488	9380
244.552	10169
244.615	6042
244.679	7955
244.743	10090
244.807	12064
244.871	8358
244.935	8146
244.999	6761
245.063	9141
245.127	10570
245.191	15903
245.255	16859
245.319	13567
245.383	13665
245.446	10957
245.510	7965
245.574	9653
245.638	10576
245.702	8031
245.766	21916
245.829	15520
245.893	10884
245.957	9921
246.021	10831
246.085	11266
246.149	12851
246.212	27389
246.276	42343
246.340	21853
246.404	16067
246.467	15282
246.531	23472
246.595	15661
246.659	13980
246.722	12056
246.786	17330
246.850	16179
246.913	20692
246.977	11597
247.041	10725
247.104	12957
247.168	12323
247.232	28027
247.295	54707
247.359	31506
247.423	15449
247.486	24537
247.550	17702
247.614	13257
247.677	18301
247.741	12543
247.804	10244
247.868	12716
247.932	23443
247.995	52203
248.059	22722
248.122	12161
248.186	15553
248.249	27268
248.313	78068
248.376	89984
248.440	59826
248.503	25532
248.567	20738
248.630	27943
248.694	40754
248.757	47616
248.821	89272
248.884	60689
248.948	50724
249.011	71251
249.075	100024
249.138	91910
249.202	41229
249.265	26340
249.328	24534
249.392	22430
249.455	20388
249.519	16693
249.582	20282
249.645	31555
249.709	24741
249.772	15716
249.835	15282
249.899	16543
249.962	15918
250.025	15560
250.089	32458
250.152	49759
250.215	26041
250.279	18296
250.342	18846
250.405	18580
250.468	17189
250.532	22847
250.595	32126
250.658	86967
250.721	146188
250.785	67442
250.848	37040
250.911	23228
250.974	21364
251.038	26286
251.101	54264
251.164	30973
251.227	31721
251.290	29879
251.354	38796
251.417	118251
251.480	132239
251.543	96618
251.606	199963
251.669	175881
251.732	82173
251.795	78516
251.859	78313
251.922	139698
251.985	97784
252.048	41141
252.111	32251
252.174	30971
252.237	51487
252.300	106417
252.363	107954
252.426	174929
252.489	92082
252.552	47736
252.615	33221
252.678	35846
252.741	76989
252.804	98439
252.867	180420
252.930	129333
252.993	73514
253.056	45899
253.119	34931
253.182	25556
253.245	42098
253.308	34886
253.371	31456
253.434	29415
253.497	27139
253.559	48870
253.622	38366
253.685	46677
253.748	52965
253.811	25457
253.874	26395
253.937	26467
254.000	22194
254.062	34991
254.125	55651
254.188	47709
254.251	45218
254.314	21709
254.376	37067
254.439	46278
254.502	39988
254.565	38065
254.628	67197
254.690	44340
254.753	24350
254.816	20340
254.878	22131
254.941	35755
255.004	40723
255.067	19847
255.129	21991
255.192	13356
255.255	12144
255.317	16121
255.380	11311
255.443	8933
255.505	8408
255.568	8886
255.631	10749
255.693	11535
255.756	9378
255.819	10225
255.881	9053
255.944	8133
256.006	7473
256.069	8335
256.132	8123
256.194	12164
256.257	21973
256.319	17860
256.382	17341
256.444	14037
256.507	11508
256.569	11270
256.632	10311
256.694	17169
256.757	38431
256.819	111600
256.882	53481
256.944	23986
257.007	19114
257.069	20472
257.132	14654
257.194	12893
257.257	12504
257.319	13624
257.381	14636
257.444	30707
257.506	118486
257.569	148786
257.631	76914
257.693	45194
257.756	22549
257.818	18655
257.880	14330
257.943	13504
258.005	12716
258.067	11674
258.130	11903
258.192	14410
258.254	27460
258.317	17668
258.379	12702
258.441	29424
258.503	31034
258.566	25304
258.628	36260
258.690	13191
258.753	14599
258.815	26934
258.877	17866
258.939	11281
259.001	11081
259.064	10811
259.126	12275
259.188	15952
259.250	13000
259.312	14898
259.375	32861
259.437	26295
259.499	12749
259.561	11163
259.623	12678
259.685	11820
259.747	12004
259.809	24341
259.872	47018
259.934	62871
259.996	72150
260.058	25226
260.120	12669
260.182	11183
260.244	9631
260.306	9111
260.368	10213
260.430	9690
260.492	19976
260.554	34276
260.616	27823
260.678	42094
260.740	54287
260.802	18752
260.864	14955
260.926	13631
260.988	13129
261.050	13706
261.112	25837
261.174	53324
261.236	41724
261.298	18134
261.359	22189
261.421	31799
261.483	14746
261.545	12682
261.607	8775
261.669	10585
261.731	15864
261.793	38044
261.854	24387
261.916	16420
261.978	12247
262.040	13035
262.102	10337
262.164	14096
262.225	14605
262.287	10671
262.349	27343
262.411	25256
262.472	12424
262.534	15522
262.596	31868
262.658	14060
262.719	9055
262.781	12736
262.843	28424
262.904	17038
262.966	13424
263.028	15850
263.090	52064
263.151	143342
263.213	55242
263.275	35175
263.336	17465
263.398	11515
263.459	10265
263.521	11396
263.583	26652
263.644	20809
263.706	10361
263.767	8160
263.829	7397
263.891	7152
263.952	6694
264.014	6643
264.075	12351
264.137	29073
264.198	17236
264.260	7988
264.321	7986
264.383	20585
264.444	47460
264.506	17289
264.567	11820
264.629	17432
264.690	37787
264.752	18188
264.813	12490
264.875	7714
264.936	8967
264.998	7913
265.059	6957
265.120	9401
265.182	15650
265.243	57120
265.305	65406
265.366	19351
265.427	11405
265.489	10250
265.550	7961
265.611	11282
265.673	10759
265.734	9448
265.795	7698
265.857	6782
265.918	9163
265.979	19627
266.040	90318
266.102	86755
266.163	27096
266.224	21828
266.286	14529
266.347	10258
266.408	10631
266.469	10597
266.530	9071
266.592	9374
266.653	17655
266.714	33820
266.775	13463
266.836	9487
266.898	7956
266.959	14664
267.020	12477
267.081	10258
267.142	8492
267.203	9254
267.264	8323
267.326	10686
267.387	8378
267.448	7397
267.509	8915
267.570	8903
267.631	7954
267.692	7639
267.753	9115
267.814	8257
267.875	15493
267.936	38080
267.997	18924
268.058	17046
268.119	11201
268.180	10687
268.241	9510
268.302	8126
268.363	7592
268.424	9757
268.485	9562
268.546	7462
268.607	6357
268.668	6369
268.729	6412
268.790	8227
268.851	9335
268.912	22708
268.972	31269
269.033	16915
269.094	9588
269.155	7876
269.216	6876
269.277	9434
269.338	7801
269.398	7566
269.459	10593
269.520	14428
269.581	19474
269.642	21842
269.702	16325
269.763	12152
269.824	10264
269.885	13919
269.945	20854
270.006	10354
270.067	7654
270.128	7697
270.188	6690
270.249	7671
270.310	7176
270.370	7547
270.431	8030
270.492	6470
270.553	8197
270.613	18947
270.674	36455
270.734	18185
270.795	10633
270.856	13930
270.916	13510
270.977	9700
271.038	12013
271.098	12959
271.159	19160
271.219	19581
271.280	10164
271.340	8203
271.401	9785
271.462	18336
271.522	13858
271.583	9940
271.643	9661
271.704	10366
271.764	13177
271.825	27467
271.885	79598
271.946	112194
272.006	42117
272.066	47941
272.127	85032
272.187	31802
272.248	18391
272.308	19054
272.369	53119
272.429	36232
272.489	26850
272.550	29081
272.610	29849
272.671	25200
272.731	17104
272.791	26683
272.852	21821
272.912	18278
272.972	11191
273.033	10729
273.093	15111
273.153	18241
273.214	13812
273.274	15312
273.334	40278
273.394	84234
273.455	40492
273.515	34920
273.575	75338
273.635	35823
273.696	38643
273.756	76282
273.816	37986
273.876	22307
273.936	30205
273.997	52123
274.057	19279
274.117	16785
274.177	25431
274.237	93261
274.297	83668
274.358	50225
274.418	61095
274.478	54343
274.538	22999
274.598	17232
274.658	37513
274.718	50491
274.778	25426
274.838	15661
274.898	24574
274.958	64232
275.018	70207
275.078	53527
275.138	23437
275.198	14917
275.258	11599
275.318	13626
275.378	26950
275.438	31841
275.498	20368
275.558	31031
275.618	70143
275.678	58947
275.738	38048
275.798	30426
275.858	17442
275.918	10394
275.978	12870
276.038	14389
276.098	11160
276.157	22461
276.217	63513
276.277	32431
276.337	23758
276.397	13744
276.457	16425
276.517	12583
276.576	9530
276.636	9896
276.696	17257
276.756	36729
276.815	30788
276.875	15186
276.935	15602
276.995	16490
277.055	9817
277.114	11502
277.174	14985
277.234	49599
277.293	25376
277.353	15474
277.413	10798
277.472	12542
277.532	13468
277.592	15184
277.651	41141
277.711	83302
277.771	32456
277.830	91380
277.890	83246
277.950	52012
278.009	134624
278.069	63396
278.128	57932
278.188	87436
278.248	43051
278.307	88597
278.367	59269
278.426	20857
278.486	14417
278.545	11597
278.605	10912
278.664	10642
278.724	13003
278.783	27801
278.843	74630
278.902	26509
278.962	17529
279.021	17775
279.081	19078
279.140	19022
279.199	18656
279.259	17245
279.318	20574
279.378	24901
279.437	42702
279.496	128187
279.556	287283
279.615	253236
279.675	82773
279.734	48771
279.793	64352
279.853	98985
279.912	44485
279.971	25774
280.031	24990
280.090	40054
280.149	75116
280.208	57347
280.268	190814
280.327	217502
280.386	65529
280.445	49098
280.505	48781
280.564	23836
280.623	20160
280.682	28080
280.742	45201
280.801	18000
280.860	13860
280.919	13213
280.978	12384
281.037	11313
281.097	10186
281.156	11045
281.215	11288
281.274	14299
281.333	46961
281.392	41582
281.451	12094
281.510	11026
281.569	9942
281.628	8687
281.688	9450
281.747	11445
281.806	11903
281.865	9168
281.924	8968
281.983	9854
282.042	6935
282.101	8093
282.160	8196
282.219	8007
282.278	10240
282.337	31586
282.396	26081
282.454	11664
282.513	14859
282.572	47554
282.631	32660
282.690	12663
282.749	10307
282.808	12918
282.867	12472
282.926	13112
282.985	9176
283.043	8020
283.102	8830
283.161	11307
283.220	20893
283.279	52218
283.338	19017
283.396	12664
283.455	12958
283.514	14007
283.573	21069
283.631	17409
283.690	12490
283.749	12257
283.808	22837
283.866	29792
283.925	13750
283.984	12403
284.043	17371
284.101	18317
284.160	13487
284.219	17172
284.277	17456
284.336	24893
284.395	65314
284.453	59014
284.512	27449
284.570	34665
284.629	32966
284.688	31852
284.746	35350
284.805	41817
284.863	53417
284.922	66408
284.981	82625
285.039	117977
285.098	189546
285.156	340835
285.215	356997
285.273	357631
285.332	367561
285.390	232984
285.449	148748
285.507	104952
285.566	77025
285.624	60363
285.683	47314
285.741	38233
285.799	31826
285.858	29174
285.916	26488
285.975	21640
286.033	19029
286.091	16560
286.150	16235
286.208	16053
286.267	15954
286.325	17159
286.383	25758
286.442	21567
286.500	14214
286.558	11708
286.616	11552
286.675	15550
286.733	14405
286.791	12664
286.850	14299
286.908	17656
286.966	30256
287.024	14237
287.083	10735
287.141	9617
287.199	10963
287.257	16671
287.315	12521
287.374	13339
287.432	30581
287.490	22223
287.548	13512
287.606	11027
287.664	11465
287.723	13830
287.781	19301
287.839	11763
287.897	13759
287.955	17953
288.013	26267
288.071	53153
288.129	161579
288.187	388224
288.245	215792
288.303	77635
288.361	44271
288.419	32640
288.477	24134
288.535	18305
288.593	14284
288.651	12535
288.709	10300
288.767	10487
288.825	9471
288.883	7733
288.941	9336
288.999	9211
289.057	7212
289.115	7459
289.173	7909
289.231	8863
289.289	8898
289.346	8921
289.404	9958
289.462	17112
289.520	17839
289.578	10099
289.636	6829
289.694	5783
289.751	5893
289.809	5607
289.867	6802
289.925	9618
289.983	12199
290.040	7024
290.098	6242
290.156	8592
290.214	9779
290.271	7897
290.329	6173
290.387	5262
290.444	6110
290.502	4720
290.560	5993
290.617	6237
290.675	6141
290.733	7277
290.790	8098
290.848	5834
290.906	7461
290.963	8623
291.021	7322
291.078	7643
291.136	9347
291.194	22110
291.251	51834
291.309	17061
291.366	8164
291.424	8560
291.481	8199
291.539	8536
291.596	8639
291.654	5468
291.711	5791
291.769	8588
291.826	17615
291.884	12594
291.941	6909
291.999	7427
292.056	9011
292.114	10204
292.171	6202
292.228	8206
292.286	10292
292.343	17885
292.401	22534
292.458	14239
292.515	9725
292.573	11879
292.630	11324
292.687	10797
292.745	9416
292.802	12625
292.859	26865
292.917	52382
292.974	34193
293.031	12984
293.089	8291
293.146	8094
293.203	7121
293.260	6177
293.318	8513
293.375	11956
293.432	8199
293.489	7140
293.546	7846
293.604	12292
293.661	28058
293.718	77654
293.775	42768
293.832	22872
293.889	19741
293.947	18857
294.004	12491
294.061	14982
294.118	24874
294.175	52569
294.232	56906
294.289	26660
294.346	15027
294.403	13298
294.460	11269
294.517	9235
294.574	9639
294.631	8536
294.688	11912
294.745	23364
294.802	79160
294.859	91846
294.916	36822
294.973	22205
295.030	19236
295.087	16559
295.144	12169
295.201	10374
295.258	9761
295.315	13102
295.372	30353
295.429	64701
295.486	30544
295.542	18799
295.599	33546
295.656	61507
295.713	42881
295.770	61661
295.827	25985
295.883	13138
295.940	13025
295.997	21530
296.054	22428
296.111	11979
296.167	8224
296.224	7620
296.281	6866
296.338	7668
296.394	8400
296.451	10419
296.508	26806
296.564	55646
296.621	37497
296.678	65443
296.734	102898
296.791	40489
296.848	22231
296.904	23470
296.961	49192
297.018	70514
297.074	53432
297.131	22692
297.187	16794
297.244	23804
297.301	60536
297.357	115957
297.414	44592
297.470	19499
297.527	13183
297.583	13077
297.640	12542
297.696	10566
297.753	8852
297.809	7279
297.866	5496
297.922	6264
297.979	6998
298.035	9557
298.092	15632
298.148	38943
298.204	42697
298.261	21882
298.317	29854
298.374	82035
298.430	52612
298.486	23201
298.543	17036
298.599	18416
298.656	24400
298.712	34688
298.768	71366
298.824	54584
298.881	19795
298.937	12730
298.993	11227
299.050	14246
299.106	13442
299.162	10795
299.218	12215
299.275	10398
299.331	12150
299.387	21024
299.443	69872
299.500	85535
299.556	36525
299.612	19363
299.668	19106
299.724	23998
299.780	27301
299.837	16533
299.893	22561
299.949	64341
300.005	82590
300.061	62145
300.117	104529
300.173	55323
300.229	27073
300.285	33534
300.341	39070
300.397	21439
300.453	13399
300.510	13533
300.566	14925
300.622	16892
300.678	42844
300.734	81986
300.790	65511
300.845	75308
300.901	51791
300.957	73290
301.013	58268
301.069	22862
301.125	17251
301.181	20051
301.237	16365
301.293	11235
301.349	11214
301.405	11546
301.461	11884
301.516	18890
301.572	16629
301.628	23789
301.684	24061
301.740	30486
301.796	54476
301.851	35820
301.907	54561
301.963	58694
302.019	74505
302.074	187549
302.130	200745
302.186	98032
302.242	41504
302.297	27770
302.353	28035
302.409	48746
302.464	46949
302.520	34613
302.576	72929
302.631	87916
302.687	53125
302.743	24021
302.798	14103
302.854	12454
302.910	12781
302.965	15954
303.021	28163
303.076	28958
303.132	33191
303.187	42537
303.243	21859
303.299	12945
303.354	9939
303.410	9792
303.465	9973
303.521	9240
303.576	9981
303.632	12789
303.687	20987
303.743	60481
303.798	57079
303.853	24022
303.909	14400
303.964	13525
304.020	19747
304.075	33470
304.130	27844
304.186	49024
304.241	51621
304.297	40586
304.352	22579
304.358	21754
304.407	15063
304.449	14583
304.463	14425
304.518	15301
304.539	14592
304.573	13471
304.629	13265
304.630	13394
304.684	20047
304.720	36658
304.739	44815
304.794	74308
304.811	63591
304.850	37670
304.902	18755
304.905	17580
304.960	12600
304.992	13062
305.015	13447
305.071	14372
305.083	14483
305.126	14519
305.173	9723
305.181	8990
305.236	7845
305.264	8366
305.292	9095
305.347	13909
305.354	14207
305.402	15735
305.445	16284
305.457	16370
305.512	17639
305.535	17868
305.567	18399
305.622	18724
305.626	19191
305.678	32143
305.716	57848
305.733	66128
305.788	80791
305.807	69439
305.843	51216
305.897	63066
305.898	63134
305.953	66761
305.988	44899
306.008	33500
306.063	22079
306.078	20333
306.118	16163
306.168	11461
306.173	11115
306.228	9700
306.259	8970
306.283	8472
306.338	8720
306.349	8715
306.393	9060
306.440	11232
306.448	11560
306.503	11638
306.530	12062
306.558	15597
306.613	32190
306.620	34762
306.668	52576
306.711	70581
306.723	71598
306.778	58524
306.801	44515
306.833	29369
306.888	15732
306.892	15185
306.943	12116
306.982	11066
306.997	10708
307.052	10334
307.072	10003
307.107	10359
307.162	12885
307.163	12922
307.217	17983
307.253	21143
307.272	21768
307.327	22968
307.343	22165
307.381	20789
307.434	19416
307.436	19978
307.491	38603
307.524	55923
307.546	59896
307.600	64003
307.614	57830
307.655	36214
307.704	18829
307.710	18242
307.765	21279
307.795	24828
307.819	28376
307.874	41833
307.885	42208
307.929	36027
307.975	28441
307.984	29249
308.038	42122
308.065	52220
308.093	89536
308.148	179084
308.156	198089
308.202	286302
308.246	346487
308.257	337458
308.312	194101
308.336	139527
308.366	108664
308.421	73890
308.426	70270
308.475	45899
308.517	31396
308.530	29293
308.585	26182
308.607	24870
308.639	24814
308.694	27034
308.697	27275
308.748	42386
308.787	57581
308.803	57086
308.857	46703
308.877	40798
308.912	37843
308.967	40440
308.967	40473
309.021	60350
309.058	77328
309.076	96448
309.130	164119
309.148	188318
309.185	290035
309.238	453367
309.239	454737
309.293	485662
309.328	462057
309.348	407672
309.402	222408
309.418	174979
309.457	130250
309.508	86442
309.511	86084
309.566	90289
309.598	94723
309.620	115870
309.674	177806
309.688	194189
309.729	183393
309.778	151770
309.783	148139
309.837	101347
309.868	77262
309.892	85293
309.946	110217
309.959	118569
310.001	143531
310.049	164785
310.055	159147
310.109	94353
310.139	58396
310.163	47556
310.218	30110
310.229	27150
310.272	22219
310.319	17490
310.326	17064
310.381	14492
310.409	13557
310.435	13255
310.489	12321
310.499	12226
310.543	12769
310.589	13247
310.598	13159
310.652	12951
310.679	12647
310.706	11923
310.760	10387
310.769	10131
310.814	9253
310.859	8774
310.868	8978
310.923	9665
310.948	10125
310.977	11227
311.031	13400
311.038	13707
311.085	13181
311.128	12015
311.139	11790
311.193	11034
311.218	10557
311.247	10164
311.301	9458
311.308	9372
311.356	9706
311.398	9979
311.410	9878
311.464	9241
311.488	8938
311.518	9387
311.572	10202
311.578	10303
311.626	15044
311.668	19195
311.680	18710
311.734	15971
311.758	14766
311.788	15194
311.842	15958
311.847	16007
311.896	19842
311.937	23194
311.950	22982
312.004	21760
312.027	21142
312.058	18126
312.112	12703
312.117	12143
312.165	11167
312.207	10313
312.297	15819
312.386	13157
312.476	15465
312.566	33328
312.656	14721
312.745	9591
312.835	10882
312.925	13068
313.015	11321
313.104	11821
313.194	11490
313.284	11855
313.374	20018
313.463	16855
313.553	10591
313.643	10546
313.732	8859
313.822	9695
313.912	11535
314.001	14770
314.091	14892
314.180	19969
314.270	18814
314.360	20066
314.449	17257
314.539	12022
314.628	10963
314.718	14191
314.808	15215
314.897	12154
314.987	13159
315.076	18986
315.166	21091
315.255	16729
315.345	18814
315.434	17012
315.524	16325
315.613	20519
315.703	27077
315.792	39385
315.881	107380
315.971	38536
316.060	34090
316.150	38347
316.239	35863
316.328	15977
316.418	11995
316.507	14185
316.597	18838
316.686	17069
316.775	20694
316.865	37018
316.954	12439
317.043	10314
317.133	12346
317.222	11779
317.311	11239
317.400	11284
317.490	19141
317.579	21952
317.668	16814
317.757	26753
317.847	58384
317.936	184352
318.025	78924
318.114	49582
318.203	30750
318.293	42324
318.382	85239
318.471	62377
318.560	74490
318.649	107939
318.738	25060
318.828	22529
318.917	23111
319.006	25897
319.095	51839
319.184	138857
319.273	85154
319.362	50795
319.451	19227
319.540	18328
319.629	43759
319.718	68217
319.807	30457
319.896	53599
319.985	169620
320.074	64731
320.163	18881
320.252	28585
320.341	23580
320.430	23056
320.519	36409
320.608	22277
320.697	18024
320.786	18466
320.875	24923
320.964	33446
321.053	50463
321.142	73171
321.230	72126
321.319	54797
321.408	121505
321.497	49419
321.586	50527
321.675	47427
321.764	45264
321.852	33397
321.941	72582
322.030	48237
322.119	51453
322.207	122992
322.296	65170
322.385	42542
322.474	54731
322.562	155372
322.651	73011
322.740	57464
322.829	72501
322.917	57057
323.006	41868
323.095	40153
323.183	25037
323.272	38583
323.361	61297
323.449	146202
323.538	51793
323.626	107801
323.715	62530
323.804	32399
323.892	97248
323.981	59182
324.069	21031
324.158	50931
324.246	44556
324.335	29238
324.424	46008
324.512	19495
324.601	29100
324.689	62796
324.778	108312
324.866	46349
324.954	15761
325.043	17587
325.131	28513
325.220	40188
325.308	45911
325.397	38156
325.485	24159
325.574	13387
325.662	12729
325.750	16955
325.839	12386
325.927	10299
326.015	15449
326.104	17714
326.192	21553
326.280	11912
326.369	12106
326.457	22368
326.545	38755
326.634	16393
326.722	9194
326.810	12586
326.898	12216
326.987	15910
327.075	35295
327.163	30186
327.251	18185
327.340	46608
327.428	61170
327.516	15511
327.604	13206
327.692	11629
327.781	12556
327.869	19681
327.957	14191
328.045	16441
328.133	8909
328.221	12620
328.309	12215
328.397	12046
328.485	16268
328.574	26250
328.662	82061
328.750	36004
328.838	14398
328.926	11747
329.014	10468
329.102	18527
329.190	40472
329.278	28154
329.366	9227
329.454	9293
329.542	8387
329.630	8926
329.718	10270
329.806	14988
329.893	11769
329.981	12480
330.069	17933
330.157	54690
330.245	143987
330.333	69744
330.421	18253
330.509	27926
330.597	97700
330.684	57879
330.772	19835
330.860	23523
330.948	29527
331.036	15290
331.123	8364
331.211	10345
331.299	13999
331.387	28580
331.475	45610
331.562	16316
331.650	10434
331.738	12666
331.825	14228
331.913	10173
332.001	10136
332.089	14406
332.176	23286
332.264	47806
332.352	38296
332.439	18136
332.527	12487
332.614	10431
332.702	13420
332.790	12744
332.877	29435
332.965	55974
333.052	26466
333.140	31139
333.228	71422
333.315	22269
333.403	15152
333.490	33860
333.578	41359
333.665	99111
333.753	42195
333.840	15094
333.928	16921
334.015	36221
334.103	57304
334.190	155889
334.278	43485
334.365	28279
334.452	22946
334.540	17500
334.627	19365
334.715	26954
334.802	49091
334.889	176833
334.977	167067
335.064	40607
335.151	21459
335.239	20016
335.326	26112
335.413	90441
335.501	105935
335.588	22088
335.675	17632
335.762	22676
335.850	35277
335.937	36429
336.024	70887
336.111	207859
336.199	101525
336.286	33222
336.373	18844
336.460	14148
336.547	13441
336.635	17315
336.722	16390
336.809	15923
336.896	25212
336.983	64581
337.070	130653
337.157	167820
337.245	111810
337.332	69521
337.419	14872
337.506	12991
337.593	15706
337.680	46754
337.767	116012
337.854	38738
337.941	40872
338.028	47031
338.115	20163
338.202	22520
338.289	37294
338.376	110150
338.463	39508
338.550	74680
338.637	68937
338.724	26535
338.811	32710
338.898	12342
338.984	10291
339.071	15471
339.158	18324
339.245	49843
339.332	30791
339.419	29296
339.506	24812
339.593	9139
339.679	12176
339.766	12227
339.853	16063
339.940	36712
340.027	13372
340.113	14567
340.200	19458
340.287	14870
340.374	19811
340.460	32893
340.547	16542
340.634	28278
340.720	92419
340.807	50114
340.894	11785
340.980	13274
341.067	12327
341.154	15075
341.240	25945
341.327	50189
341.414	22376
341.500	29259
341.587	13813
341.674	12868
341.760	33441
341.847	38671
341.933	12860
342.020	7641
342.106	8193
342.193	14937
342.279	25419
342.366	23296
342.452	32843
342.539	19152
342.625	46087
342.712	98757
342.798	40812
342.885	18084
342.971	7630
343.058	8379
343.144	9140
343.230	10967
343.317	14100
343.403	12925
343.490	8317
343.576	9593
343.662	11995
343.749	13909
343.835	16597
343.921	32497
344.008	156631
344.094	309614
344.180	71131
344.267	35566
344.353	102357
344.439	95656
344.525	48698
344.612	24847
344.698	20571
344.784	14066
344.870	9038
344.957	12774
345.043	19879
345.129	17106
345.215	31972
345.301	21824
345.387	13911
345.474	8308
345.560	8915
345.646	10529
345.732	11419
345.818	19187
345.904	14929
345.990	15106
346.076	14035
346.162	27420
346.249	13334
346.335	9932
346.421	13029
346.507	45793
346.593	132314
346.679	32845
346.765	12988
346.851	13550
346.937	13458
347.023	11475
347.108	13949
347.194	13560
347.280	13966
347.366	17911
347.452	50984
347.538	166807
347.624	121072
347.710	95189
347.796	17615
347.882	11340
347.967	9655
348.053	14126
348.139	10787
348.225	9616
348.311	11178
348.397	10164
348.482	14107
348.568	16557
348.654	11022
348.740	20207
348.825	21286
348.911	24632
348.997	80632
349.083	135219
349.168	23198
349.254	17813
349.340	17637
349.425	10474
349.511	17334
349.597	18798
349.682	37841
349.768	108793
349.854	45575
349.939	12006
350.025	10158
350.110	11138
350.196	10077
350.282	8310
350.367	7538
350.453	14974
350.538	14235
350.624	17073
350.709	13900
350.795	9795
350.880	10576
350.966	13340
351.051	17763
351.137	12446
351.222	13857
351.308	40561
351.393	98122
351.479	32892
351.564	15074
351.649	12152
351.735	9186
351.820	9402
351.906	10716
351.991	18060
352.076	64964
352.162	88711
352.247	21397
352.332	17058
352.418	39760
352.503	47072
352.588	148325
352.673	112073
352.759	27518
352.844	16035
352.929	17593
353.014	23671
353.100	15788
353.185	31459
353.270	41539
353.355	37348
353.441	13014
353.526	13769
353.611	34703
353.696	39919
353.781	22845
353.866	12635
353.952	14327
354.037	36534
354.122	75914
354.207	67395
354.292	24768
354.377	13082
354.462	10992
354.547	18078
354.632	15411
354.717	23579
354.802	35189
354.887	14764
354.972	9916
355.057	9573
355.142	8943
355.227	13765
355.312	24182
355.397	53943
355.482	119360
355.567	54402
355.652	41145
355.737	46255
355.822	124885
355.907	89006
355.991	18032
356.076	12179
356.161	10521
356.246	10057
356.331	13140
356.416	32783
356.501	178434
356.585	166522
356.670	33310
356.755	23420
356.840	34544
356.924	150479
357.009	425800
357.094	152984
357.179	43584
357.263	29505
357.348	27740
357.433	27857
357.517	27227
357.602	21810
357.687	19836
357.771	44382
357.856	149822
357.941	79521
358.025	111446
358.110	392582
358.195	173106
358.279	36211
358.364	29672
358.448	99121
358.533	238810
358.617	170341
358.702	162663
358.787	60666
358.871	40243
358.956	31863
359.040	12176
359.125	11652
359.209	16879
359.294	78230
359.378	127919
359.462	41127
359.547	19922
359.631	13674
359.716	10791
359.800	13260
359.885	17737
359.969	14729
360.053	10898
360.138	12320
360.222	21121
360.306	39694
360.391	31684
360.475	85122
360.559	165109
360.644	101943
360.728	66497
360.812	108239
360.896	249229
360.981	114680
361.065	62471
361.149	21071
361.233	19694
361.318	17083
361.402	19139
361.486	17154
361.570	14327
361.654	21401
361.739	49284
361.823	182545
361.907	244853
361.991	53130
362.075	36991
362.159	74545
362.243	55903
362.327	66690
362.411	79290
362.495	38934
362.580	21074
362.664	17733
362.748	17059
362.832	24970
362.916	48243
363.000	142445
363.084	309625
363.168	311139
363.252	80483
363.336	35925
363.420	44299
363.503	128515
363.587	129901
363.671	32851
363.755	27801
363.839	38303
363.923	21829
364.007	46311
364.091	46710
364.175	66098
364.258	211068
364.342	206058
364.426	283369
364.510	146410
364.594	60548
364.677	66485
364.761	232609
364.845	147143
364.929	67232
365.013	52599
365.096	45139
365.180	51957
365.264	59077
365.347	179345
365.431	73467
365.515	25455
365.598	16835
365.682	15569
365.766	24523
365.849	27219
365.933	18332
366.017	22162
366.100	16182
366.184	10047
366.267	11458
366.351	12405
366.435	11445
366.518	9983
366.602	10214
366.685	13144
366.769	14796
366.852	24925
366.936	41537
367.019	26634
367.103	20213
367.186	29789
367.270	12291
367.353	10353
367.436	12785
367.520	12075
367.603	17763
367.687	26807
367.770	44052
367.853	27550
367.937	79912
368.020	116024
368.104	31469
368.187	36002
368.270	49117
368.353	42538
368.437	45024
368.520	75006
368.603	59006
368.687	98390
368.770	158554
368.853	42009
368.936	42241
369.020	36695
369.103	17508
369.186	14137
369.269	15721
369.352	31715
369.436	41019
369.519	26443
369.602	16002
369.685	16518
369.768	16434
369.851	13663
369.934	11028
370.018	17811
370.101	37804
370.184	29078
370.267	21171
370.350	41828
370.433	57889
370.516	135225
370.599	156733
370.682	60700
370.765	100666
370.848	115932
370.931	189880
371.014	66917
371.097	19201
371.180	15886
371.263	11367
371.346	9447
371.429	12054
371.511	14760
371.594	27074
371.677	38210
371.760	37673
371.843	38944
371.926	162490
372.009	321843
372.091	106559
372.174	85351
372.257	168928
372.340	67261
372.423	55860
372.505	57732
372.588	29122
372.671	72496
372.754	195071
372.836	90328
372.919	66870
373.002	112483
373.085	42897
373.167	41443
373.250	96299
373.332	179158
373.415	235548
373.498	431673
373.580	164016
373.663	243943
373.746	283781
373.828	73543
373.911	33578
373.993	38456
374.076	113510
374.159	94899
374.241	60040
374.324	174943
374.406	107194
374.489	146367
374.571	358450
374.654	142793
374.736	83059
374.819	224619
374.901	318912
374.983	300052
375.066	58057
375.148	29708
375.231	97310
375.313	163835
375.395	64119
375.478	20744
375.560	17227
375.643	24830
375.725	78230
375.807	278086
375.890	188624
375.972	76372
376.054	49349
376.136	60980
376.219	32242
376.301	93284
376.383	235844
376.465	88864
376.548	71033
376.630	82766
376.712	211944
376.794	88498
376.877	16021
376.959	12515
377.041	15535
377.123	27203
377.205	28222
377.287	10673
377.369	11169
377.452	12788
377.534	11557
377.616	14026
377.698	12305
377.780	10705
377.862	13616
377.944	14325
378.026	9003
378.108	10976
378.190	10273
378.272	10679
378.354	8868
378.436	9729
378.518	19347
378.600	58304
378.682	54798
378.764	124362
378.846	86824
378.928	30865
379.010	44260
379.091	23923
379.173	13147
379.255	13241
379.337	19669
379.419	66262
379.501	165716
379.583	61831
379.664	22193
379.746	51061
379.828	127867
379.910	166963
379.991	131523
380.073	25765
380.155	19315
380.237	15895
380.318	12673
380.400	15631
380.482	32734
380.564	46784
380.645	47985
380.727	46300
380.809	27073
380.890	21276
380.972	16889
381.053	16390
381.135	19051
381.217	51082
381.298	130260
381.380	62003
381.461	56546
381.543	222608
381.624	239687
381.706	50293
381.787	32725
381.869	36153
381.951	106283
382.032	336397
382.113	202839
382.195	57337
382.276	42828
382.358	93520
382.439	203083
382.521	219649
382.602	311052
382.684	166858
382.765	320066
382.846	442694
382.928	728940
383.009	392780
383.090	317471
383.172	952031
383.253	1190905
383.334	437603
383.416	347415
383.497	190106
383.578	139158
383.659	274543
383.741	840667
383.822	1581221
383.903	822831
383.984	331073
384.066	409530
384.147	239334
384.228	67501
384.309	55418
384.390	43183
384.471	33832
384.553	35074
384.634	44411
384.715	43073
384.796	28309
384.877	37872
384.958	123826
385.039	138466
385.120	54765
385.201	27611
385.282	32552
385.363	33596
385.444	35629
385.525	60382
385.606	163078
385.687	122105
385.768	39243
385.849	49714
385.930	175100
386.011	261053
386.092	72177
386.173	24758
386.254	20656
386.335	21195
386.416	26955
386.496	84156
386.577	120302
386.658	43864
386.739	30788
386.820	25356
386.901	22146
386.981	21154
387.062	19519
387.143	38176
387.224	127269
387.304	107361
387.385	42795
387.466	31717
387.547	36018
387.627	29423
387.708	58532
387.789	210297
387.869	227368
387.950	59231
388.031	19026
388.111	17437
388.192	35122
388.273	46843
388.353	32016
388.434	23448
388.514	49181
388.595	174951
388.676	223353
388.756	115591
388.837	119738
388.917	68183
388.998	19502
389.078	18423
389.159	17304
389.239	16587
389.320	28812
389.400	25031
389.480	51494
389.561	123700
389.641	56394
389.722	26456
389.802	42524
389.883	58074
389.963	139828
390.043	78118
390.124	30082
390.204	53171
390.284	145031
390.365	85458
390.445	97476
390.525	241759
390.605	205082
390.686	73939
390.766	31022
390.846	19532
390.927	15704
391.007	15866
391.087	18776
391.167	21702
391.247	17390
391.328	22683
391.408	31884
391.488	23793
391.568	14455
391.648	23323
391.728	31639
391.808	30273
391.888	37205
391.969	80088
392.049	112856
392.129	48697
392.209	63610
392.289	139963
392.369	74947
392.449	58484
392.529	43842
392.609	38791
392.689	55144
392.769	144857
392.849	119841
392.929	98083
393.009	205449
393.089	174090
393.169	197601
393.248	562840
393.328	1401499
393.408	1341166
393.488	510393
393.568	181845
393.648	94599
393.728	60672
393.807	44750
393.887	37523
393.967	33923
394.047	36786
394.127	42027
394.206	60683
394.286	188718
394.366	680955
394.446	652263
394.525	162688
394.605	51493
394.685	43964
394.764	82075
394.844	131158
394.924	93787
395.003	37194
395.083	28262
395.163	23630
395.242	24526
395.322	24341
395.402	19558
395.481	25452
395.561	64874
395.640	154805
395.720	140602
395.799	158153
395.879	113101
395.958	83149
396.038	272345
396.117	879341
396.197	869077
396.276	278933
396.356	111223
396.435	83994
396.515	68192
396.594	90492
396.673	172798
396.753	545484
396.832	1260463
396.912	943134
396.991	290335
397.070	94896
397.150	54491
397.229	41091
397.308	62068
397.388	97428
397.467	47437
397.546	23216
397.625	22149
397.705	28320
397.784	28237
397.863	17719
397.942	14751
398.022	16417
398.101	50737
398.180	120916
398.259	59860
398.338	21814
398.417	20743
398.497	14855
398.576	15094
398.655	12157
398.734	11824
398.813	12802
398.892	46460
398.971	131837
399.050	60051
399.129	13938
399.208	10477
399.287	10449
399.366	9120
399.445	9432
399.524	10970
399.603	10627
399.682	23716
399.761	56825
399.840	144895
399.919	95864
399.998	17168
400.077	9796
400.156	8992
400.235	12110
400.313	10843
400.392	16235
400.471	71640
400.550	103087
400.629	28792
400.708	14964
400.786	14720
400.865	32191
400.944	35025
401.023	18627
401.102	7197
401.180	6474
401.259	8938
401.338	11692
401.416	17407
401.495	13902
401.574	11329
401.652	10743
401.731	15426
401.810	15122
401.888	9393
401.967	7203
402.046	11298
402.124	14732
402.203	19115
402.281	12235
402.360	18724
402.438	40087
402.517	27018
402.596	11836
402.674	11102
402.753	8386
402.831	9221
402.910	13410
402.988	54388
403.066	164066
403.145	85370
403.223	57191
403.302	139818
403.380	100119
403.459	101647
403.537	39408
403.615	16943
403.694	7628
403.772	8113
403.850	6972
403.929	7933
404.007	8890
404.085	22977
404.164	25807
404.242	11304
404.320	14565
404.398	31676
404.477	72359
404.555	267614
404.633	203295
404.711	38409
404.789	16340
404.868	14391
404.946	8770
405.024	7229
405.102	7006
405.180	7525
405.258	5431
405.336	8685
405.415	8072
405.493	20414
405.571	19922
405.649	8594
405.727	8258
405.805	14374
405.883	14187
405.961	13559
406.039	15033
406.117	9670
406.195	17836
406.273	75776
406.351	233640
406.429	120633
406.507	22315
406.585	11183
406.663	12644
406.740	17822
406.818	13806
406.896	8570
406.974	11121
407.052	28664
407.130	148980
407.208	182346
407.285	35056
407.363	11369
407.441	10101
407.519	9785
407.596	12080
407.674	32504
407.752	82388
407.830	70566
407.907	27476
407.985	14340
408.063	8357
408.141	7394
408.218	14242
408.296	16252
408.373	13608
408.451	13682
408.529	12266
408.606	6865
408.684	6570
408.762	6655
408.839	5549
408.917	5662
408.994	7539
409.072	9286
409.149	9446
409.227	16834
409.304	20652
409.382	18974
409.459	20324
409.537	27491
409.614	25007
409.692	18117
409.769	18714
409.846	29821
409.924	35897
410.001	28654
410.079	19331
410.156	14491
410.233	12371
410.311	11444
410.388	9977
410.465	14096
410.543	13677
410.620	9533
410.697	11553
410.775	14028
410.852	7837
410.929	15454
411.006	17995
411.083	13543
411.161	28997
411.238	26890
411.315	12982
411.392	9136
411.469	15320
411.547	16621
411.624	9555
411.701	9511
411.778	11833
411.855	24889
411.932	13118
412.009	7892
412.086	7283
412.163	10402
412.240	10988
412.317	14569
412.394	12224
412.471	6504
412.548	6467
412.625	7694
412.702	11468
412.779	18893
412.856	12434
412.933	5652
413.010	5802
413.087	14498
413.164	69885
413.241	86152
413.318	21832
413.395	16448
413.471	22075
413.548	10559
413.625	7738
413.702	10406
413.779	7639
413.855	4863
413.932	5029
414.009	5029
414.086	5183
414.162	6143
414.239	13347
414.316	65403
414.393	131767
414.469	43159
414.546	7479
414.623	5953
414.699	6656
414.776	10263
414.853	6050
414.929	7671
415.006	6689
415.082	8682
415.159	6956
415.236	7284
415.312	7853
415.389	17164
415.465	21849
415.542	11790
415.618	8744
415.695	15073
415.771	10449
415.848	9345
415.924	8043
416.000	7095
416.077	5961
416.153	4137
416.230	3443
416.306	4819
416.383	4700
416.459	4915
416.535	4828
416.612	4576
416.688	5125
416.764	6203
416.841	6174
416.917	6498
416.993	6228
417.069	9811
417.146	12002
417.222	15544
417.298	10195
417.374	6849
417.451	8456
417.527	12390
417.603	11879
417.679	9181
417.755	8139
417.831	5647
417.908	3839
417.984	5767
418.060	5504
418.136	21081
418.212	24252
418.288	9923
418.364	6589
418.440	7876
418.516	11641
418.592	15354
418.668	29852
418.744	45594
418.820	31877
418.896	9237
418.972	4569
419.048	8054
419.124	21427
419.200	15882
419.276	5903
419.352	5152
419.428	4870
419.504	9157
419.579	10907
419.655	8565
419.731	9206
419.807	32351
419.883	52690
419.959	34358
420.034	11817
420.110	25147
420.186	88747
420.262	59030
420.337	13401
420.413	11972
420.489	6902
420.565	6588
420.640	7090
420.716	8524
420.792	5925
420.867	8632
420.943	8856
421.019	17186
421.094	12655
421.170	8019
421.245	7166
421.321	9260
421.397	10388
421.472	21649
421.548	48742
421.623	33197
421.699	15693
421.774	16076
421.850	15252
421.925	26156
422.001	23501
422.076	21586
422.152	26537
422.227	41318
422.302	48491
422.378	71891
422.453	133108
422.529	304997
422.604	651243
422.679	760430
422.755	614354
422.830	290102
422.905	127977
422.981	72902
423.056	48642
423.131	36784
423.207	27885
423.282	28824
423.357	38991
423.432	28367
423.508	29592
423.583	53622
423.658	36414
423.733	15945
423.808	17548
423.883	20342
423.959	18770
424.034	18033
424.109	14555
424.184	10065
424.259	8183
424.334	8431
424.409	6436
424.484	8988
424.559	8902
424.634	9467
424.709	14207
424.784	15000
424.859	10294
424.934	18655
425.009	66428
425.084	98343
425.159	32781
425.234	10066
425.309	9314
425.384	53148
425.459	87635
425.534	23487
425.609	8144
425.683	7334
425.758	5930
425.833	7780
425.908	10839
425.983	44123
426.058	101680
426.132	40306
426.207	10178
426.282	14054
426.357	11112
426.431	6543
426.506	6410
426.581	7127
426.655	6643
426.730	6456
426.805	6573
426.879	8423
426.954	8234
427.029	20222
427.103	98146
427.178	203188
427.253	76087
427.327	14440
427.402	29296
427.476	86231
427.551	41120
427.625	11010
427.700	8501
427.774	6704
427.849	7732
427.923	6629
427.998	6411
428.072	9076
428.147	21293
428.221	92196
428.296	226757
428.370	103005
428.444	18061
428.519	18183
428.593	29825
428.667	25298
428.742	31920
428.816	40617
428.890	160676
428.965	249043
429.039	82333
429.113	35985
429.188	15027
429.262	8633
429.336	18835
429.410	48751
429.485	28491
429.559	25521
429.633	19802
429.707	11593
429.781	33739
429.855	166622
429.930	217510
430.004	98441
430.078	127390
430.152	131963
430.226	283941
430.300	241310
430.374	42538
430.448	18129
430.522	50133
430.596	119986
430.670	86059
430.744	257424
430.818	298059
430.892	56531
430.966	13665
431.040	8647
431.114	5223
431.188	5691
431.262	6176
431.336	6731
431.410	16671
431.484	40255
431.557	23618
431.631	7613
431.705	11651
431.779	55806
431.853	199169
431.927	117053
432.000	15744
432.074	7839
432.148	7938
432.222	6961
432.295	5167
432.369	6978
432.443	14188
432.516	87525
432.590	186872
432.664	60045
432.737	9941
432.811	5739
432.885	4098
432.958	4875
433.032	3631
433.106	4064
433.179	3428
433.253	4865
433.326	3667
433.400	3487
433.473	4175
433.547	3901
433.620	5729
433.694	14955
433.767	11632
433.841	5988
433.914	6431
433.988	7169
434.061	5334
434.134	5133
434.208	3765
434.281	3672
434.355	4289
434.428	7726
434.501	6648
434.575	4477
434.648	4225
434.721	4921
434.795	2982
434.868	3369
434.941	3860
435.014	5206
435.088	6531
435.161	15967
435.234	19909
435.307	18471
435.381	10920
435.454	11274
435.527	14313
435.600	14768
435.673	11139
435.746	8737
435.819	7591
435.892	7217
435.966	6695
436.039	6314
436.112	4515
436.185	4487
436.258	3460
436.331	3042
436.404	3064
436.477	3053
436.550	3466
436.623	4039
436.696	3775
436.769	5844
436.842	4610
436.915	5723
436.987	8476
437.060	5654
437.133	4105
437.206	3823
437.279	4386
437.352	5065
437.425	4368
437.498	5935
437.570	15069
437.643	12514
437.716	5243
437.789	4335
437.861	14349
437.934	34790
438.007	13494
438.080	5452
438.152	6713
438.225	17182
438.298	110003
438.370	241223
438.443	89448
438.516	29305
438.588	7705
438.661	4743
438.734	4481
438.806	6698
438.879	6519
438.951	12201
439.024	16990
439.096	7450
439.169	4183
439.241	4065
439.314	4221
439.386	7381
439.459	10668
439.531	16130
439.604	6800
439.676	4716
439.749	3358
439.821	3693
439.893	4032
439.966	4523
440.038	7407
440.110	7671
440.183	4155
440.255	4010
440.327	9735
440.400	49016
440.472	170189
440.544	87751
440.617	15333
440.689	14460
440.761	19131
440.833	28202
440.905	15654
440.978	4969
441.050	4120
441.122	4742
441.194	4148
441.266	4429
441.338	4239
441.411	12502
441.483	65761
441.555	76844
441.627	15375
441.699	10950
441.771	9171
441.843	5206
441.915	4349
441.987	4666
442.059	4698
442.131	7125
442.203	10688
442.275	12874
442.347	12995
442.419	24788
442.491	123503
442.563	245797
442.635	85009
442.706	44295
442.778	27894
442.850	8948
442.922	6002
442.994	9211
443.066	12135
443.137	10874
443.209	9846
443.281	16570
443.353	37724
443.425	146902
443.496	440464
443.568	381218
443.640	125995
443.711	26803
443.783	12815
443.855	9247
443.926	5971
443.998	7887
444.070	8676
444.141	9683
444.213	14014
444.285	15231
444.356	11070
444.428	10260
444.499	6654
444.571	4822
444.642	5784
444.714	7893
444.785	12324
444.857	14190
444.928	23755
445.000	13649
445.071	18485
445.143	22143
445.214	19586
445.285	31944
445.357	87334
445.428	299725
445.500	549573
445.571	338635
445.642	181006
445.714	63529
445.785	41006
445.856	17170
445.928	17408
445.999	15735
446.070	12254
446.141	13173
446.213	14649
446.284	8654
446.355	7289
446.426	6385
446.497	6725
446.569	10840
446.640	14998
446.711	11043
446.782	5050
446.853	7106
446.924	7744
446.995	7068
447.066	6458
447.138	9164
447.209	4496
447.280	3539
447.351	3452
447.422	4229
447.493	5762
447.564	8618
447.635	11479
447.706	5050
447.777	3433
447.847	2809
447.918	3551
447.989	6817
448.060	8092
448.131	17134
448.202	15034
448.273	11691
448.344	4749
448.414	4497
448.485	4166
448.556	4041
448.627	2609
448.698	3879
448.768	2737
448.839	5266
448.910	9563
448.981	8540
449.051	4226
449.122	3385
449.193	2187
449.263	3391
449.334	2742
449.405	7163
449.475	15472
449.546	8543
449.616	10460
449.687	8436
449.758	3670
449.828	3840
449.899	3570
449.969	3138
450.040	2426
450.110	4571
450.181	4117
450.251	4282
450.322	3017
450.392	3688
450.463	2869
450.533	3174
450.604	3045
450.674	3953
450.744	3722
450.815	3452
450.885	3644
450.955	3757
451.026	3174
451.096	3762
451.166	4748
451.237	12049
451.307	21442
451.377	7305
451.447	3815
451.518	3687
451.588	3653
451.658	3990
451.728	7032
451.799	26039
451.869	20975
451.939	4578
452.009	2774
452.079	3132
452.149	3942
452.219	8449
452.289	28091
452.360	14508
452.430	4276
452.500	6600
452.570	7547
452.640	14129
452.710	35688
452.780	38978
452.850	29267
452.920	23754
452.990	7971
453.060	6946
453.129	10335
453.199	9944
453.269	35304
453.339	53379
453.409	71506
453.479	94869
453.549	123130
453.619	121486
453.688	33279
453.758	7562
453.828	4366
453.898	4199
453.968	2996
454.037	4610
454.087	4089
454.107	3869
454.168	2939
454.177	2791
454.247	2412
454.249	2465
454.316	3511
454.330	3715
454.386	4377
454.411	8476
454.456	15067
454.492	15410
454.525	15736
454.574	9117
454.595	6274
454.655	3273
454.665	2832
454.734	5363
454.736	5506
454.804	9045
454.817	12257
454.873	24600
454.898	23352
454.943	20655
454.979	13859
455.013	7968
455.060	5804
455.082	5250
455.141	7300
455.152	7465
455.221	19137
455.222	19349
455.291	29907
455.303	28790
455.360	22578
455.384	29052
455.430	40155
455.465	30440
455.499	20885
455.546	21823
455.569	22022
455.627	12745
455.638	11146
455.707	4637
455.708	4642
455.777	3215
455.789	3271
455.846	3497
455.869	3397
455.916	3237
455.950	3554
455.985	3795
456.031	3490
456.054	3323
456.112	3260
456.124	3259
456.193	3070
456.193	3054
456.262	4387
456.274	4599
456.332	5115
456.355	5323
456.401	5594
456.436	4666
456.470	3761
456.516	3335
456.540	3165
456.597	2971
456.609	2878
456.678	3579
456.678	3574
456.747	2588
456.759	2597
456.817	2646
456.840	2445
456.886	2062
456.920	2822
456.955	3479
457.001	3351
457.024	3622
457.082	5143
457.093	5258
457.162	6860
457.163	6880
457.232	6493
457.243	6155
457.301	4215
457.324	3664
457.370	3222
457.405	3730
457.439	4115
457.485	4191
457.508	4321
457.566	4583
457.577	4697
457.646	5996
457.647	6036
457.715	11298
457.727	12554
457.784	19385
457.808	25604
457.853	34986
457.889	39511
457.922	39248
457.969	25153
457.991	23425
458.050	30453
458.060	31384
458.129	54473
458.130	54988
458.198	59940
458.211	53703
458.267	24966
458.292	17479
458.336	11566
458.372	10908
458.405	14638
458.453	22116
458.474	27501
458.533	51628
458.543	53916
458.611	94747
458.614	94691
458.680	56334
458.694	45184
458.749	17520
458.775	12350
458.818	7727
458.855	6775
458.887	6418
458.936	5523
458.955	5220
459.016	4923
459.024	4893
459.093	5204
459.097	5244
459.162	6315
459.177	6402
459.230	6305
459.257	6733
459.299	7215
459.338	7190
459.368	7341
459.418	8404
459.437	8248
459.499	5922
459.505	5771
459.574	4704
459.579	4661
459.643	4039
459.659	4055
459.711	4732
459.740	4623
459.780	4359
459.820	4855
459.849	5312
459.900	6172
459.917	6260
459.981	6183
459.986	6144
460.054	5093
460.061	5114
460.123	6298
460.141	6457
460.191	7318
460.222	7977
460.260	8600
460.302	10009
460.328	9480
460.382	6334
460.397	6032
460.462	5441
460.465	5558
460.534	9791
460.543	10290
460.602	27607
460.623	34449
460.671	49318
460.703	66684
460.739	68027
460.783	54236
460.808	42874
460.864	9858
460.876	7267
460.944	5737
460.945	5719
461.013	5330
461.024	5399
461.081	6459
461.104	6807
461.150	6161
461.184	5629
461.218	5701
461.264	5764
461.286	5831
461.345	6294
461.355	6226
461.423	5105
461.425	5095
461.491	5896
461.505	5951
461.559	10654
461.585	13380
461.628	20409
461.665	27235
461.696	30287
461.745	37610
461.764	33683
461.825	10236
461.832	9503
461.901	7518
461.905	7516
461.969	6686
461.985	6377
462.037	6440
462.065	6324
462.105	6468
462.145	7129
462.173	10170
462.225	15782
462.241	16987
462.305	23562
462.310	23066
462.378	13743
462.385	12315
462.446	7102
462.465	6274
462.514	7042
462.545	7571
462.582	7281
462.625	6872
462.650	6600
462.705	6187
462.718	6366
462.785	6227
462.786	6263
462.854	9414
462.865	9956
462.922	12339
462.945	13385
462.990	10966
463.025	7931
463.058	6561
463.104	5533
463.126	5539
463.184	5477
463.194	5532
463.262	6127
463.264	6150
463.330	6257
463.344	6215
463.398	7379
463.424	7929
463.466	7440
463.504	7357
463.533	7420
463.583	6791
463.601	7093
463.663	8354
463.669	8509
463.737	10553
463.743	10773
463.805	17395
463.823	19177
463.873	26667
463.903	31730
463.940	33816
463.982	36483
464.008	30202
464.062	13550
464.076	12173
464.142	6528
464.144	6504
464.211	6307
464.221	6367
464.279	7071
464.301	7281
464.347	7973
464.381	8510
464.414	9477
464.461	10732
464.482	11444
464.540	13493
464.550	13401
464.617	12727
464.620	12684
464.685	11888
464.699	11616
464.753	12050
464.779	12343
464.820	12471
464.859	12646
464.888	12491
464.938	12140
464.956	12623
465.018	14359
465.023	14135
465.091	10666
465.098	10344
465.158	11338
465.177	11600
465.226	11359
465.257	11176
465.293	11321
465.336	11311
465.361	12248
465.416	14508
465.428	15512
465.495	21080
465.496	21183
465.563	32566
465.575	34644
465.631	42024
465.654	45275
465.698	29752
465.734	15375
465.765	12230
465.813	8460
465.833	8643
465.893	9357
465.900	9358
465.968	9374
465.972	9353
466.035	8990
466.052	8912
466.102	9220
466.131	9319
466.170	9084
466.210	8863
466.237	9260
466.290	9948
466.304	10150
466.369	11119
466.372	11126
466.439	10697
466.449	10639
466.506	12505
466.528	13139
466.573	18417
466.607	22427
466.641	33765
466.687	49484
466.708	54750
466.766	69458
466.775	64487
466.842	25640
466.845	23755
466.909	15820
466.925	14013
466.977	13541
467.004	13291
467.044	13319
467.083	13303
467.111	14427
467.163	16499
467.178	16949
467.242	18672
467.245	18636
467.312	17237
467.321	17023
467.379	16698
467.400	16533
467.446	17986
467.480	18981
467.559	17494
467.638	13770
467.717	15138
467.796	18225
467.875	19438
467.955	17527
468.034	25608
468.113	59814
468.192	84871
468.271	27392
468.350	18440
468.429	22569
468.508	22695
468.588	18457
468.667	15443
468.746	16524
468.825	14866
468.904	12888
468.983	16264
469.062	24450
469.141	30297
469.220	15206
469.299	12814
469.378	13370
469.456	16353
469.535	15832
469.614	14476
469.693	15314
469.772	21067
469.851	27561
469.930	21688
470.009	15097
470.088	16122
470.166	21363
470.245	32713
470.324	42548
470.403	31922
470.482	20942
470.560	16609
470.639	17370
470.718	19698
470.797	16689
470.875	18255
470.954	24547
471.033	27042
471.111	13182
471.190	11351
471.269	10417
471.347	11376
471.426	12784
471.505	13733
471.583	14948
471.662	14040
471.740	13427
471.819	12571
471.898	12596
471.976	12636
472.055	12105
472.133	13927
472.212	18938
472.290	19447
472.369	14361
472.447	11650
472.526	10899
472.604	12721
472.683	13654
472.761	15043
472.839	14226
472.918	12546
472.996	13356
473.075	15924
473.153	15334
473.231	12388
473.310	15167
473.388	15182
473.466	13019
473.545	15935
473.623	21157
473.701	22709
473.780	13155
473.858	11093
473.936	15755
474.014	12590
474.093	15453
474.171	21886
474.249	27369
474.327	20880
474.405	11525
474.484	12064
474.562	11696
474.640	11724
474.718	12946
474.796	13296
474.874	12137
474.952	10194
475.030	11372
475.108	12034
475.187	12338
475.265	16064
475.343	24576
475.421	29950
475.499	14449
475.577	13726
475.655	17411
475.733	33161
475.811	58607
475.889	52049
475.966	40040
476.044	13991
476.122	19564
476.200	24391
476.278	21133
476.356	12299
476.434	14243
476.512	17772
476.590	25684
476.667	22676
476.745	11965
476.823	12957
476.901	12877
476.979	12838
477.056	12173
477.134	12588
477.212	13082
477.290	13014
477.367	10984
477.445	11440
477.523	10962
477.601	10942
477.678	12462
477.756	14220
477.834	16986
477.911	11957
477.989	11845
478.066	11565
478.144	12917
478.222	18543
478.299	31566
478.377	32505
478.454	12190
478.532	10697
478.609	11758
478.687	13507
478.764	10759
478.842	11981
478.919	15101
478.997	14027
479.074	10717
479.152	13068
479.229	17863
479.307	13046
479.384	9733
479.461	10304
479.539	11489
479.616	13205
479.694	12182
479.771	12561
479.848	12913
479.926	16954
480.003	22686
480.080	12022
480.157	10714
480.235	10587
480.312	11242
480.389	12335
480.467	19871
480.544	25613
480.621	15051
480.698	13994
480.775	15555
480.853	15183
480.930	13343
481.007	13305
481.084	14572
481.161	16861
481.238	15832
481.315	10374
481.392	11867
481.470	10856
481.547	12583
481.624	11408
481.701	12442
481.778	12093
481.855	14105
481.932	21651
482.009	32733
482.086	29567
482.163	15363
482.240	24031
482.317	42419
482.393	38425
482.470	15163
482.547	13822
482.624	11924
482.701	13582
482.778	13552
482.855	11496
482.932	11870
483.009	11944
483.085	14551
483.162	18382
483.239	18464
483.316	12847
483.393	12887
483.469	13392
483.546	14316
483.623	15541
483.699	12533
483.776	12870
483.853	14497
483.930	19170
484.006	51887
484.083	87548
484.160	47153
484.236	47559
484.313	40416
484.389	30909
484.466	29175
484.543	26638
484.619	29199
484.696	30652
484.772	32172
484.849	32452
484.925	26717
485.002	24706
485.078	27864
485.155	28780
485.231	24236
485.308	22488
485.384	24550
485.461	29638
485.537	51555
485.614	67073
485.690	28988
485.766	22715
485.843	26054
485.919	39556
485.995	47313
486.072	24040
486.148	22479
486.224	21408
486.301	24513
486.377	29069
486.453	30171
486.530	26575
486.606	30586
486.682	35798
486.758	45359
486.835	55885
486.911	43787
486.987	68596
487.063	92579
487.139	118676
487.215	83232
487.292	40079
487.368	29113
487.444	32908
487.520	43420
487.596	47312
487.672	69701
487.748	200368
487.824	325522
487.900	140249
487.976	46688
488.052	38130
488.128	44760
488.204	37168
488.280	27172
488.356	30349
488.432	63383
488.508	99493
488.584	43250
488.660	25773
488.736	25187
488.812	25809
488.888	34589
488.964	44738
489.039	105974
489.115	179656
489.191	124184
489.267	29017
489.343	24226
489.418	20286
489.494	19357
489.570	17872
489.646	21905
489.722	20036
489.797	20688
489.873	31966
489.949	70199
490.024	72237
490.100	21530
490.176	20071
490.251	27460
490.327	38240
490.403	25525
490.478	20313
490.554	17609
490.629	16539
490.705	17164
490.781	19171
490.856	19705
490.932	22603
491.007	23541
491.083	22028
491.158	19837
491.234	25144
491.309	54450
491.385	65909
491.460	22079
491.536	21771
491.611	20248
491.686	22105
491.762	31323
491.837	68786
491.913	126524
491.988	172080
492.063	240457
492.139	72219
492.214	37252
492.289	18922
492.365	16254
492.440	19868
492.515	21439
492.590	20481
492.666	16527
492.741	21913
492.816	33025
492.891	22417
492.967	16467
493.042	15784
493.117	15456
493.192	17743
493.267	26836
493.342	72142
493.418	107793
493.493	27062
493.568	14606
493.643	14703
493.718	20086
493.793	31359
493.868	39665
493.943	26971
494.018	18698
494.093	14350
494.168	15732
494.243	14797
494.318	13142
494.393	13246
494.468	13813
494.543	13936
494.618	16725
494.693	15817
494.768	14344
494.842	15276
494.917	13039
494.992	14222
495.067	14907
495.142	13050
495.217	15433
495.292	15662
495.366	18367
495.441	22531
495.516	29661
495.591	40259
495.665	152750
495.740	386413
495.815	223104
495.890	30749
495.964	19569
496.039	21832
496.114	19037
496.188	22522
496.263	22030
496.338	17894
496.412	20771
496.487	24787
496.561	26511
496.636	30124
496.710	20984
496.785	22811
496.860	26624
496.934	20503
497.009	20914
497.083	19224
497.158	20516
497.232	23264
497.307	31044
497.381	24388
497.455	28520
497.530	38549
497.604	28241
497.679	26776
497.753	41537
497.827	56767
497.902	48761
497.976	52677
498.050	116572
498.125	472945
498.199	604214
498.273	101087
498.348	60732
498.422	48682
498.496	44335
498.570	45075
498.645	30222
498.719	29034
498.793	34716
498.867	51406
498.941	70161
499.016	192642
499.090	538093
499.164	281887
499.238	30180
499.312	23008
499.386	30887
499.460	30632
499.534	25632
499.609	30908
499.683	42522
499.757	43426
499.831	80464
499.905	344879
499.979	419016
500.053	65606
500.127	61045
500.201	49251
500.275	28633
500.349	25531
500.422	28842
500.496	43100
500.570	90828
500.644	216916
500.718	402910
500.792	134638
500.866	27141
500.940	31167
501.013	29701
501.087	27284
501.161	48731
501.235	65239
501.309	110713
501.382	326044
501.456	367363
501.530	78355
501.603	109537
501.677	60310
501.751	20003
501.825	23605
501.898	42680
501.972	130084
502.046	112532
502.119	26583
502.193	57930
502.266	145600
502.340	95015
502.413	60654
502.487	130948
502.561	85331
502.634	31686
502.708	22265
502.781	20339
502.855	17782
502.928	12216
503.002	14343
503.075	13795
503.149	16754
503.222	16134
503.295	16517
503.369	21757
503.442	28228
503.516	90847
503.589	257481
503.662	205004
503.736	59895
503.809	114793
503.882	119500
503.956	139939
504.029	169122
504.102	136641
504.175	200492
504.249	92597
504.322	39649
504.395	30387
504.468	20856
504.542	18330
504.615	14106
504.688	13480
504.761	12186
504.834	17912
504.907	24578
504.980	41356
505.053	23394
505.127	23829
505.200	32306
505.273	24253
505.346	17300
505.419	12809
505.492	12626
505.565	10893
505.638	11261
505.711	11692
505.784	10729
505.857	11184
505.930	12784
506.003	11152
506.076	13501
506.149	16778
506.221	22521
506.294	20413
506.367	48730
506.440	179089
506.513	138616
506.586	26389
506.659	17184
506.731	14786
506.804	16642
506.877	27476
506.950	20207
507.022	13366
507.095	16151
507.168	23260
507.241	16298
507.313	11941
507.386	13672
507.459	23644
507.531	15334
507.604	11114
507.677	11305
507.749	8629
507.822	15527
507.894	29533
507.967	36274
508.040	19351
508.112	15809
508.185	15628
508.257	14859
508.330	26305
508.402	17365
508.475	14759
508.547	16257
508.620	16249
508.692	25315
508.765	19196
508.837	11928
508.909	12197
508.982	12532
509.054	16123
509.127	13815
509.199	11487
509.271	10001
509.344	10884
509.416	10641
509.488	11263
509.560	12633
509.633	14065
509.705	16862
509.777	16127
509.849	24788
509.922	18385
509.994	11929
510.066	13301
510.138	11708
510.210	22851
510.283	21358
510.355	18936
510.427	16907
510.499	16599
510.571	17598
510.643	15642
510.715	27986
510.787	30104
510.859	18058
510.931	20646
511.003	27842
511.076	29215
511.148	14377
511.219	14813
511.291	22583
511.363	32233
511.435	15273
511.507	12442
511.579	13370
511.651	13566
511.723	12959
511.795	13109
511.867	12773
511.939	17371
512.010	34994
512.082	35908
512.154	14770
512.226	15178
512.298	20421
512.369	32525
512.441	26168
512.513	27137
512.585	20262
512.656	20092
512.728	24007
512.800	17582
512.871	15814
512.943	16751
513.015	13522
513.086	16092
513.158	18711
513.230	19014
513.301	29803
513.373	39208
513.444	21415
513.516	15525
513.588	15645
513.659	19592
513.731	24403
513.802	22187
513.874	44021
513.945	95110
514.016	38958
514.088	17299
514.159	17793
514.231	26301
514.302	32644
514.374	22657
514.445	19048
514.516	41541
514.588	37566
514.659	20477
514.730	37678
514.802	36375
514.873	22391
514.944	23148
515.016	19719
515.087	25879
515.158	29907
515.229	44954
515.301	22722
515.372	26497
515.443	19217
515.514	17214
515.585	15591
515.656	17019
515.728	15939
515.799	15910
515.870	18053
515.941	19347
516.012	19847
516.083	25562
516.154	29411
516.225	41336
516.296	42739
516.367	37656
516.438	44136
516.509	56791
516.580	79380
516.651	254657
516.722	984521
516.793	648508
516.864	98549
516.935	80067
517.006	83787
517.077	112353
517.148	247550
517.219	919217
517.289	1845867
517.360	539818
517.431	158118
517.502	47503
517.573	38525
517.643	34666
517.714	36128
517.785	39058
517.856	42949
517.926	54252
517.997	65394
518.068	82801
518.138	109296
518.209	163598
518.280	584688
518.350	2189369
518.421	1329288
518.492	178975
518.562	80631
518.633	64327
518.703	62901
518.774	100393
518.845	234260
518.915	274909
518.986	98735
519.056	57619
519.127	80105
519.197	118639
519.268	238233
519.338	185732
519.408	43779
519.479	52485
519.549	45492
519.620	27521
519.690	21880
519.760	19667
519.831	22123
519.901	23892
519.971	18408
520.042	20082
520.112	24186
520.182	29124
520.253	35928
520.323	25663
520.393	43085
520.463	91765
520.534	56852
520.604	130188
520.674	61272
520.744	39715
520.814	128796
520.885	139510
520.955	69888
521.025	251253
521.095	144000
521.165	24597
521.235	20491
521.305	18428
521.375	17710
521.445	18853
521.515	26811
521.585	32730
521.655	36384
521.725	25743
521.795	24584
521.865	15828
521.935	25687
522.005	26304
522.075	16161
522.145	17802
522.215	20293
522.285	30940
522.355	36842
522.424	71867
522.494	72225
522.564	38702
522.634	63764
522.704	216180
522.774	120024
522.843	24497
522.913	20977
522.983	27769
523.053	22049
523.122	21059
523.192	27469
523.262	106421
523.331	146330
523.401	30263
523.471	16462
523.540	18495
523.610	13293
523.680	13468
523.749	13373
523.819	17746
523.888	21140
523.958	14205
524.027	14393
524.097	17369
524.166	15235
524.236	17844
524.305	19244
524.375	14404
524.444	12801
524.514	17146
524.583	15564
524.653	20387
524.722	24208
524.791	18909
524.861	15929
524.930	13955
524.999	15643
525.069	25266
525.138	19340
525.207	23871
525.277	18404
525.346	17914
525.415	16942
525.484	18231
525.554	23189
525.623	24764
525.692	22284
525.761	26168
525.830	29189
525.900	33842
525.969	50411
526.038	84153
526.107	154020
526.176	498143
526.245	502446
526.314	154942
526.383	245852
526.452	394774
526.522	530376
526.591	705514
526.660	200489
526.729	98157
526.797	82668
526.867	148837
526.935	626343
527.004	1267298
527.073	905537
527.142	105709
527.211	39381
527.280	31864
527.349	33221
527.418	18463
527.487	18401
527.555	16183
527.624	14408
527.693	13265
527.762	14919
527.831	12491
527.899	13927
527.968	13539
528.037	12798
528.106	19385
528.174	36617
528.243	31822
528.312	37008
528.380	64633
528.449	22660
528.518	14265
528.586	9646
528.655	11349
528.723	11027
528.792	10616
528.861	12398
528.929	11845
528.998	11757
529.066	10767
529.135	10589
529.203	9743
529.272	10144
529.340	11740
529.409	13330
529.477	10669
529.545	14827
529.614	21325
529.682	20378
529.751	27021
529.819	27205
529.887	21679
529.956	12576
530.024	13276
530.092	11755
530.161	16288
530.229	27816
530.297	18669
530.365	12253
530.434	11597
530.502	10009
530.570	11118
530.638	8304
530.707	12739
530.775	14701
530.843	10966
530.911	10373
530.979	11012
531.047	10715
531.115	11622
531.183	10091
531.252	12103
531.320	12088
531.388	10728
531.456	12175
531.524	10052
531.592	12488
531.660	14023
531.728	11650
531.796	10925
531.864	10523
531.932	12028
532.000	12528
532.067	13862
532.135	15165
532.203	17533
532.271	18035
532.339	32899
532.407	95606
532.475	76472
532.542	27883
532.610	27596
532.678	33705
532.746	134375
532.814	458522
532.881	152596
532.949	25286
533.017	17587
533.084	14062
533.152	12581
533.220	12846
533.287	16228
533.355	13480
533.423	11741
533.490	10767
533.558	12060
533.625	12721
533.693	14450
533.761	14645
533.828	15871
533.896	14767
533.963	30114
534.031	44298
534.098	60375
534.166	35587
534.233	14555
534.300	17028
534.368	16968
534.435	16399
534.503	19410
534.570	26634
534.637	25616
534.705	22987
534.772	29035
534.840	48241
534.907	212472
534.974	373815
535.041	58217
535.109	26334
535.176	17122
535.243	14767
535.310	14799
535.378	14899
535.445	12998
535.512	12207
535.579	13483
535.646	12939
535.714	14076
535.781	16209
535.848	15438
535.915	15608
535.982	15103
536.049	14818
536.116	16784
536.183	14687
536.250	15858
536.317	16777
536.384	21610
536.451	31514
536.518	35377
536.585	24640
536.652	28550
536.719	43158
536.786	38122
536.853	27037
536.920	36574
536.987	62048
537.053	60187
537.120	202969
537.187	243290
537.254	28884
537.321	18524
537.388	18764
537.454	14499
537.521	14404
537.588	14047
537.654	16204
537.721	19531
537.788	20653
537.855	15132
537.921	17794
537.988	17569
538.055	17060
538.121	16129
538.188	18635
538.254	29367
538.321	64527
538.388	45859
538.454	20286
538.521	17059
538.587	15379
538.654	15331
538.720	14967
538.787	16250
538.853	17104
538.920	21402
538.986	23244
539.053	18174
539.119	19633
539.185	20326
539.252	22120
539.318	38847
539.385	29823
539.451	23449
539.517	23742
539.583	26046
539.650	53680
539.716	182036
539.782	67388
539.849	21887
539.915	20307
539.981	20955
540.047	26746
540.114	24132
540.180	24348
540.246	22484
540.312	31099
540.378	61740
540.444	69676
540.510	61179
540.576	200785
540.643	87989
540.709	21356
540.775	20495
540.841	18803
540.907	25630
540.973	49841
541.039	41240
541.105	41363
541.171	24161
541.237	20216
541.303	21288
541.369	23275
541.435	30638
541.500	56653
541.566	41780
541.632	20183
541.698	17197
541.764	17973
541.830	16753
541.896	16562
541.961	18895
542.027	18647
542.093	20458
542.159	20153
542.224	22169
542.290	32032
542.356	53887
542.421	71354
542.487	33290
542.553	22417
542.618	24021
542.684	20792
542.750	22706
542.815	24296
542.881	40965
542.947	161317
543.012	156482
543.078	25039
543.143	18803
543.209	20827
543.274	21239
543.340	24019
543.405	55771
543.471	120070
543.536	31971
543.602	18876
543.667	17977
543.732	17206
543.798	16265
543.863	17469
543.928	15503
543.994	15444
544.059	17220
544.124	17154
544.190	17534
544.255	18921
544.320	19702
544.386	21169
544.451	29013
544.516	35482
544.581	33233
544.646	91167
544.712	193127
544.777	42694
544.842	24451
544.907	25521
544.972	21517
545.037	21407
545.102	23016
545.168	22557
545.233	24396
545.298	26182
545.363	30988
545.428	33709
545.493	56238
545.558	146551
545.623	74667
545.688	25397
545.753	23321
545.818	22655
545.883	22887
545.947	22768
546.012	25693
546.077	28130
546.142	27238
546.207	26593
546.272	35799
546.337	39608
546.401	30930
546.466	28000
546.531	25712
546.596	30548
546.661	31226
546.725	30710
546.790	27802
546.855	30233
546.919	29967
546.984	33759
547.049	37423
547.113	43715
547.178	42581
547.243	45910
547.307	52611
547.372	60891
547.436	67055
547.501	57677
547.565	60259
547.630	65472
547.695	66248
547.759	65112
547.823	63472
547.888	55487
547.952	56057
548.017	57570
548.081	67639
548.146	75734
548.210	70681
548.274	63561
548.339	63588
548.403	58137
548.468	54317
548.532	52814
548.596	54809
548.660	56355
548.725	61921
548.789	70822
548.853	72410
548.917	62994
548.982	70297
549.046	70591
549.110	52086
549.174	50401
549.238	55989
549.303	58867
549.367	64048
549.431	60308
549.495	57633
549.559	56885
549.623	63218
549.687	73634
549.751	88541
549.815	86904
549.879	82691
549.943	77086
550.007	80885
550.071	83338
550.135	87018
550.199	78123
550.263	70778
550.327	70497
550.391	82016
550.455	79497
550.519	77673
550.582	84250
550.646	106409
550.710	115229
550.774	95256
550.838	96245
550.901	97215
550.965	106141
551.029	111691
551.093	123431
551.156	144521
551.220	206850
551.284	262878
551.347	165795
551.411	169918
551.475	192677
551.538	109109
551.602	94966
551.666	87919
551.729	81175
551.793	78522
551.856	77185
551.920	76273
551.983	77080
552.047	74733
552.110	76624
552.174	75537
552.237	78600
552.301	73645
552.364	70457
552.428	68145
552.491	71408
552.554	75899
552.618	75861
552.681	80148
552.745	83760
552.808	119387
552.871	177329
552.934	122991
552.998	87594
553.061	79297
553.124	72006
553.187	69073
553.251	70530
553.314	72087
553.377	71816
553.440	80495
553.503	115163
553.567	168040
553.630	86117
553.693	74322
553.756	73950
553.819	70518
553.882	67783
553.945	67291
554.008	66546
554.071	66215
554.134	68789
554.197	63499
554.260	60133
554.323	65480
554.386	65309
554.449	67529
554.512	67975
554.575	64948
554.638	64807
554.701	65604
554.764	63503
554.827	59264
554.889	58196
554.952	54169
555.015	53000
555.078	54430
555.141	55872
555.203	54864
555.266	55559
555.329	55468
555.391	52920
555.454	55137
555.517	55008
555.580	52638
555.642	48396
555.705	48426
555.768	48662
555.830	48273
555.893	45051
555.955	44668
556.018	44638
556.080	45024
556.143	46277
556.206	46780
556.268	47006
556.330	47649
556.393	46168
556.455	44265
556.518	54821
556.580	60761
556.643	42291
556.705	39203
556.767	39504
556.830	40915
556.892	43686
556.955	63949
557.017	54803
557.079	41183
557.142	39450
557.204	43314
557.266	78823
557.328	76019
557.391	37809
557.453	35396
557.515	36019
557.577	42565
557.639	48302
557.701	38717
557.764	36812
557.826	40630
557.888	43458
557.950	46152
558.012	50196
558.074	63737
558.136	145293
558.198	448189
558.260	196305
558.322	61610
558.384	59848
558.446	66694
558.508	75589
558.570	94822
558.632	134506
558.694	204764
558.756	212285
558.818	607988
558.880	1780916
558.942	716361
559.003	480582
559.065	282477
559.127	91797
559.189	85019
559.251	92353
559.312	122921
559.374	295044
559.436	1153474
559.498	728325
559.559	118600
559.621	88048
559.683	92930
559.744	144853
559.806	498672
559.868	953905
559.929	212085
559.991	92288
560.052	128086
560.114	407075
560.176	313363
560.237	214754
560.299	440647
560.360	115046
560.422	40590
560.483	32760
560.545	29584
560.606	27942
560.667	25819
560.729	25705
560.790	25310
560.852	24922
560.913	24119
560.974	23756
561.036	24004
561.097	24887
561.158	25095
561.220	25641
561.281	25005
561.342	25650
561.403	29916
561.465	36432
561.526	87550
561.587	142582
561.648	43101
561.709	25049
561.771	23651
561.832	22649
561.893	22681
561.954	22428
562.015	22596
562.076	22799
562.137	21893
562.198	21607
562.259	22355
562.320	23050
562.381	25783
562.442	40388
562.503	34106
562.564	22709
562.625	21477
562.686	21035
562.747	25992
562.808	24619
562.869	21627
562.930	26134
562.991	24832
563.051	23085
563.112	22268
563.173	21616
563.234	21319
563.294	20331
563.355	22082
563.416	22830
563.477	21594
563.537	21985
563.598	22599
563.659	22305
563.720	22359
563.780	22683
563.841	24743
563.901	21508
563.962	20674
564.023	21773
564.083	22198
564.144	22602
564.204	20795
564.265	21944
564.325	25276
564.386	45536
564.446	47569
564.507	22100
564.567	18959
564.628	21173
564.688	19819
564.749	20237
564.809	22740
564.869	28223
564.930	21868
564.990	19397
565.050	19711
565.111	19640
565.171	18643
565.231	19351
565.292	19364
565.352	18746
565.412	20245
565.472	21182
565.532	23563
565.593	21282
565.653	20141
565.713	21367
565.773	22674
565.833	27084
565.893	38104
565.953	23818
566.013	19580
566.074	22108
566.134	27716
566.194	41766
566.254	47502
566.314	30723
566.374	22225
566.434	22316
566.494	22909
566.554	20896
566.614	21205
566.673	22069
566.733	24033
566.793	23898
566.853	24832
566.913	24299
566.973	24728
567.033	26434
567.092	28797
567.152	25723
567.212	26482
567.272	24918
567.331	26681
567.391	26140
567.451	27275
567.511	35368
567.570	38899
567.630	25599
567.690	24296
567.749	24462
567.809	24455
567.868	27189
567.928	30528
567.988	32900
568.047	35508
568.107	38669
568.166	47236
568.226	70482
568.285	97315
568.345	86332
568.404	71411
568.464	61143
568.523	56709
568.582	56443
568.642	61831
568.701	71804
568.761	97530
568.820	153925
568.879	157682
568.939	125966
568.998	91135
569.057	69921
569.116	57509
569.176	47239
569.235	40649
569.294	35905
569.353	33384
569.413	31847
569.472	30307
569.531	27840
569.590	26455
569.649	23970
569.708	22688
569.767	24628
569.827	32034
569.886	29290
569.945	20989
570.004	21885
570.063	22324
570.122	22870
570.181	23741
570.240	25892
570.299	27411
570.358	28961
570.417	22398
570.475	19390
570.534	20277
570.593	22018
570.652	22588
570.711	23924
570.770	20961
570.829	23230
570.887	23283
570.946	26773
571.005	20909
571.064	20081
571.122	24235
571.181	26620
571.240	21028
571.299	18197
571.357	19861
571.416	20543
571.475	21945
571.533	24574
571.592	19334
571.650	21118
571.709	17885
571.768	19973
571.826	20301
571.885	17318
571.943	17551
572.002	16361
572.060	18296
572.119	15664
572.177	16270
572.236	15086
572.294	14988
572.352	15402
572.411	16841
572.469	15237
572.528	15012
572.586	16160
572.644	19746
572.703	26995
572.761	20641
572.819	16619
572.877	14522
572.936	14677
572.994	15708
573.052	15409
573.110	17274
573.169	18085
573.227	15713
573.285	15392
573.343	16175
573.401	14039
573.459	14184
573.517	14598
573.576	15477
573.634	15170
573.692	17124
573.750	16173
573.808	14693
573.866	16623
573.924	20732
573.982	20753
574.040	16408
574.098	15095
574.155	14202
574.213	14346
574.271	15184
574.329	16783
574.387	14438
574.445	13731
574.503	13413
574.560	12646
574.618	13305
574.676	13716
574.734	13601
574.792	13573
574.849	13011
574.907	12840
574.965	12157
575.022	11280
575.080	12420
575.138	13057
575.195	13848
575.253	13882
575.311	16510
575.368	14081
575.426	12190
575.483	12590
575.541	12866
575.598	12055
575.656	14075
575.713	13075
575.771	13609
575.828	11792
575.886	13679
575.943	13449
576.001	13792
576.058	13418
576.115	14470
576.173	17101
576.230	19343
576.287	23109
576.345	19055
576.402	13886
576.459	15249
576.517	15316
576.574	15344
576.631	16839
576.688	14979
576.746	13726
576.803	12706
576.860	13171
576.917	12866
576.974	13189
577.031	13845
577.089	12653
577.146	13685
577.203	14366
577.260	13853
577.317	14737
577.374	16822
577.431	15435
577.488	14876
577.545	12663
577.602	13087
577.659	13069
577.716	12827
577.773	13757
577.830	13259
577.886	11808
577.943	12746
578.000	11870
578.057	13636
578.114	13674
578.171	14205
578.227	12837
578.284	13415
578.341	14861
578.398	14019
578.454	15199
578.511	16673
578.568	18222
578.625	16175
578.681	12922
578.738	11892
578.794	12377
578.851	11999
578.908	11897
578.964	13085
579.021	13256
579.077	13169
579.134	13291
579.190	11876
579.247	12701
579.303	12053
579.360	12062
579.416	11912
579.473	11707
579.529	11314
579.586	10688
579.642	11941
579.698	12256
579.755	13543
579.811	11481
579.867	11493
579.924	12115
579.980	11633
580.036	12108
580.093	13382
580.149	13941
580.205	14289
580.261	13783
580.317	14069
580.374	14592
580.430	16879
580.486	15650
580.542	14383
580.598	13776
580.619	14152
580.654	14815
580.692	14045
580.710	13682
580.765	13143
580.767	13134
580.823	13350
580.838	13393
580.879	13569
580.911	12910
580.935	12426
580.984	13171
580.991	13289
581.047	12834
581.057	12769
581.103	12524
581.130	12853
581.159	13188
581.203	13737
581.215	13894
581.270	13289
581.276	13286
581.326	13355
581.349	13000
581.382	12476
581.422	13191
581.438	13495
581.494	13614
581.494	13605
581.550	13191
581.567	13643
581.606	14644
581.640	14162
581.661	13880
581.713	13741
581.717	13740
581.773	13735
581.786	13720
581.829	13528
581.859	13715
581.885	13989
581.932	13111
581.940	12929
581.996	14132
582.004	14084
582.052	13850
582.077	13359
582.107	12767
582.150	13136
582.163	13276
582.219	13768
582.223	13726
582.274	13219
582.296	13718
582.330	14509
582.368	14381
582.386	14339
582.441	14458
582.441	14458
582.497	13379
582.514	13502
582.552	13907
582.587	14533
582.608	14883
582.659	14298
582.663	14246
582.719	14136
582.732	13931
582.774	13500
582.805	13643
582.830	13671
582.877	13937
582.885	13969
582.941	14000
582.950	14158
582.996	15039
583.023	14724
583.052	14528
583.095	15096
583.107	15156
583.162	15871
583.168	15838
583.218	15649
583.240	15134
583.273	14471
583.313	14669
583.328	14744
583.384	14491
583.385	14520
583.439	15114
583.458	14652
583.494	13940
583.531	14392
583.549	14623
583.603	14662
583.605	14657
583.660	13985
583.676	14253
583.715	15038
583.748	15162
583.770	15275
583.820	15710
583.825	15761
583.881	15898
583.893	15754
583.936	15095
583.965	15125
583.991	15145
584.038	15083
584.046	15103
584.101	15934
584.110	15923
584.156	15840
584.183	15771
584.211	15562
584.255	15822
584.266	15950
584.321	15981
584.328	15987
584.376	16110
584.400	16275
584.431	16345
584.472	15740
584.486	15616
584.541	16425
584.545	16458
584.596	17029
584.617	17173
584.651	17635
584.689	18253
584.706	18349
584.761	18425
584.762	18416
584.816	18358
584.834	18750
584.871	19483
584.906	19465
584.926	19566
584.978	20709
584.980	20768
585.035	22187
585.051	22681
585.090	24090
585.123	25185
585.145	25713
585.195	27842
585.200	28189
585.254	31409
585.267	32570
585.309	35677
585.340	38645
585.364	41140
585.412	43779
585.419	44289
585.473	49440
585.484	51197
585.528	61777
585.556	74509
585.583	99672
585.628	160711
585.637	183079
585.692	390898
585.700	431565
585.747	573392
585.772	478715
585.801	303930
585.845	107292
585.856	80741
585.910	47504
585.917	44846
585.965	37787
585.989	35080
586.019	32545
586.061	30340
586.074	29832
586.128	29713
586.133	29753
586.183	30915
586.205	30975
586.237	30839
586.277	30260
586.292	29932
586.346	28637
586.349	28620
586.401	29616
586.421	30111
586.455	30841
586.493	31419
586.509	32627
586.564	38021
586.565	38347
586.618	54827
586.637	54736
586.672	49392
586.709	41617
586.727	38846
586.781	38706
586.781	38731
586.835	34861
586.853	33911
586.889	32680
586.925	31664
586.944	31652
586.996	32270
586.998	32322
587.052	32985
587.068	33140
587.106	33848
587.140	34321
587.161	34658
587.212	35573
587.215	35680
587.269	36876
587.284	37108
587.323	37772
587.356	38668
587.377	39120
587.427	39845
587.431	39972
587.485	41239
587.499	41327
587.539	42801
587.571	44142
587.593	44960
587.643	47173
587.648	47466
587.702	49711
587.715	50196
587.755	52285
587.786	54135
587.810	55642
587.858	57642
587.864	58057
587.917	62760
587.930	63610
587.971	67813
588.001	71650
588.025	74366
588.073	77997
588.079	78857
588.133	86701
588.145	88630
588.187	96737
588.217	102528
588.241	108816
588.288	121125
588.295	123262
588.348	142367
588.360	146402
588.402	165688
588.431	179797
588.456	193085
588.503	219481
588.510	224736
588.564	268884
588.575	278750
588.617	327360
588.646	363580
588.671	412586
588.718	515507
588.725	544286
588.778	790167
588.789	847419
588.832	1250734
588.861	1554151
588.886	1856192
588.932	2402384
588.939	2415106
588.993	2284002
589.004	2268437
589.047	1958994
589.075	1656986
589.100	1354230
589.147	815525
589.154	781311
589.207	576362
589.218	539072
589.261	499562
589.290	481135
589.314	502394
589.361	558155
589.368	585859
589.421	835245
589.433	895902
589.475	1352362
589.504	1697610
589.528	1900804
589.576	2184778
589.582	2139836
589.635	1636349
589.647	1504379
589.689	956094
589.718	597965
589.742	486587
589.790	303141
589.795	294086
589.849	221669
589.861	206507
589.902	180371
589.932	160304
589.955	148070
590.004	123298
590.009	121950
590.062	108246
590.075	104832
590.115	97456
590.146	92153
590.168	89629
590.218	83114
590.222	82851
590.275	78057
590.289	76815
590.328	74806
590.360	72662
590.381	71335
590.431	68160
590.435	68172
590.488	66247
590.503	65477
590.541	63922
590.574	62648
590.594	62389
590.645	61153
590.647	61246
590.700	60195
590.716	59725
590.753	58760
590.787	57679
590.806	57849
590.859	57986
590.859	58106
590.912	56724
590.930	56197
590.965	56263
591.001	55956
591.018	55981
591.071	55895
591.072	55750
591.124	55127
591.143	54722
591.177	54888
591.214	54972
591.230	55351
591.283	55984
591.285	55865
591.336	55630
591.356	55345
591.389	55351
591.427	54757
591.442	54280
591.495	52069
591.498	51775
591.547	51563
591.569	51309
591.600	51630
591.640	51574
591.653	51920
591.706	52980
591.711	52937
591.759	53847
591.782	54129
591.811	55430
591.853	56952
591.864	56648
591.917	54084
591.924	53582
591.969	54150
591.995	54203
592.022	54663
592.066	55133
592.075	55448
592.127	56328
592.137	56382
592.180	58393
592.208	59258
592.233	57694
592.279	54253
592.285	54458
592.338	55015
592.350	54985
592.390	54519
592.421	53899
592.443	54683
592.491	55880
592.495	56088
592.548	56660
592.562	56654
592.600	56115
592.633	55329
592.653	55583
592.704	55509
592.705	55825
592.775	55641
592.846	57829
592.916	57974
592.987	59445
593.058	56897
593.128	56644
593.199	56294
593.270	56400
593.341	56601
593.411	58692
593.482	59472
593.553	58966
593.623	59461
593.694	60697
593.764	61579
593.835	60833
593.906	60415
593.976	60066
594.047	62101
594.117	66242
594.188	67387
594.258	64826
594.329	63724
594.399	64830
594.470	65165
594.540	66350
594.611	67030
594.681	68044
594.751	68663
594.822	71815
594.892	73203
594.963	74826
595.033	74508
595.103	77245
595.174	79207
595.244	85703
595.314	89385
595.384	79746
595.455	82328
595.525	84641
595.595	85904
595.665	85417
595.736	84037
595.806	84525
595.876	86914
595.946	86459
596.016	87927
596.087	91552
596.157	91800
596.227	92033
596.297	95429
596.367	100441
596.437	105805
596.507	111205
596.577	112593
596.647	108578
596.717	111907
596.787	111883
596.857	112360
596.927	113639
596.997	112401
597.067	115214
597.137	116820
597.207	118403
597.277	118200
597.347	112965
597.417	111309
597.487	111822
597.557	113772
597.626	115254
597.696	117315
597.766	119348
597.836	117501
597.906	107171
597.975	102730
598.045	104918
598.115	109986
598.185	116643
598.254	128762
598.324	137990
598.394	140274
598.464	135032
598.533	130662
598.603	124258
598.672	120623
598.742	123248
598.812	122270
598.881	126201
598.951	125064
599.020	127562
599.090	131225
599.159	132207
599.229	125737
599.299	126286
599.368	127525
599.437	125952
599.507	117082
599.576	114453
599.646	111433
599.715	112425
599.785	110680
599.854	107930
599.924	108589
599.993	105500
600.062	107188
600.132	111184
600.201	116057
600.270	134702
600.340	138128
600.409	133192
600.478	134036
600.547	136116
600.617	124856
600.686	103553
600.755	95449
600.824	91325
600.894	88868
600.963	88003
601.032	86616
601.101	84140
601.170	80507
601.239	80905
601.308	83137
601.378	79469
601.447	79766
601.516	80606
601.585	83536
601.654	87133
601.723	84041
601.792	85384
601.861	87530
601.930	91869
601.999	92710
602.068	92390
602.137	94926
602.206	96025
602.275	94207
602.343	97501
602.412	97499
602.481	95494
602.550	95113
602.619	97802
602.688	99752
602.756	98253
602.825	99779
602.894	102042
602.963	103767
603.032	104697
603.100	104521
603.169	104385
603.238	106143
603.307	105876
603.375	107223
603.444	109446
603.513	109040
603.581	110992
603.650	112939
603.719	111253
603.787	112787
603.856	116665
603.924	119374
603.993	123289
604.061	125734
604.130	132379
604.198	133558
604.267	136404
604.335	139065
604.404	139876
604.472	140548
604.541	143306
604.609	143653
604.678	144030
604.746	144448
604.815	150993
604.883	150758
604.951	151601
605.020	152756
605.088	155283
605.156	157853
605.225	162551
605.293	159087
605.361	163210
605.429	164967
605.498	168146
605.566	172627
605.634	179857
605.702	186041
605.771	189378
605.839	191336
605.907	184314
605.975	178872
606.043	175857
606.111	175807
606.180	175660
606.248	172632
606.316	175270
606.384	173846
606.452	178677
606.520	182645
606.588	183451
606.656	180498
606.724	177523
606.792	168032
606.860	151779
606.928	137690
606.996	134073
607.064	132949
607.132	134020
607.200	143465
607.267	147941
607.335	150129
607.403	154227
607.471	147292
607.539	143061
607.607	143357
607.674	128198
607.742	128557
607.810	128711
607.878	127282
607.946	130591
608.013	136257
608.081	140711
608.149	140383
608.216	143448
608.284	148761
608.352	147545
608.419	146805
608.487	149431
608.555	142742
608.622	146620
608.690	156168
608.757	172184
608.825	175309
608.893	171952
608.960	161901
609.028	158456
609.095	158840
609.163	150830
609.230	136742
609.298	127112
609.365	135492
609.432	144872
609.500	158460
609.567	180649
609.635	205102
609.702	212231
609.769	200602
609.837	157448
609.904	140289
609.971	146294
610.039	164381
610.106	215209
610.173	395229
610.241	851356
610.308	419133
610.375	177230
610.442	147459
610.509	139479
610.577	142002
610.644	144047
610.711	148396
610.778	152778
610.845	159426
610.912	169008
610.980	174330
611.047	177393
611.114	172628
611.181	164641
611.248	164783
611.315	175350
611.382	178446
611.449	184294
611.516	185075
611.583	184156
611.650	185981
611.717	189885
611.784	195196
611.851	208265
611.918	224633
611.984	266610
612.051	376360
612.118	730232
612.185	1687093
612.252	898060
612.319	279769
612.386	241634
612.452	219562
612.519	212961
612.586	212284
612.653	212127
612.719	217490
612.786	206214
612.853	193593
612.919	188325
612.986	191027
613.053	179828
613.120	169723
613.186	163756
613.253	167050
613.319	166204
613.386	166658
613.453	171138
613.519	175017
613.586	176927
613.652	186637
613.719	180436
613.785	175507
613.852	173355
613.918	171430
613.985	175636
614.051	186320
614.118	202857
614.184	189123
614.250	172192
614.317	175450
614.383	172813
614.449	173797
614.516	173333
614.582	175166
614.648	171637
614.715	169496
614.781	166459
614.847	168196
614.914	164456
614.980	161911
615.046	162023
615.112	167547
615.179	167423
615.245	170520
615.311	171828
615.377	182112
615.443	182715
615.509	176725
615.575	181773
615.642	176607
615.708	186138
615.774	196627
615.840	211844
615.906	236529
615.972	296751
616.038	451855
616.104	885916
616.170	1988345
616.236	1416885
616.302	373493
616.368	292774
616.434	220104
616.500	210165
616.565	233729
616.631	281500
616.697	230963
616.763	247141
616.829	363083
616.895	613463
616.961	523919
617.026	233245
617.092	181910
617.158	176585
617.224	171188
617.289	160265
617.355	152031
617.421	152762
617.487	153917
617.552	145669
617.618	141722
617.684	142960
617.749	145101
617.815	136855
617.880	135319
617.946	135048
618.012	138273
618.077	142802
618.143	134986
618.208	136414
618.274	147771
618.339	148262
618.405	122142
618.470	123640
618.536	123535
618.601	123296
618.667	113887
618.732	110177
618.798	108810
618.863	107564
618.928	107354
618.994	111822
619.059	112172
619.124	122591
619.190	110132
619.255	106741
619.320	107189
619.386	109803
619.451	105110
619.516	103467
619.581	104914
619.647	107249
619.712	106873
619.777	103244
619.842	104726
619.907	106615
619.972	107005
620.038	107188
620.103	102561
620.168	102228
620.233	104110
620.298	104159
620.363	105763
620.428	108406
620.493	111176
620.558	111125
620.623	113964
620.688	113891
620.753	112150
620.818	114781
620.883	114709
620.948	114880
621.013	114225
621.078	112759
621.143	113740
621.207	116364
621.272	112621
621.337	113014
621.402	111193
621.467	113646
621.532	113556
621.596	113115
621.661	106934
621.726	106682
621.791	107277
621.855	109758
621.920	108805
621.985	111568
622.049	113320
622.114	112651
622.179	111857
622.243	115789
622.308	118268
622.373	121860
622.437	120380
622.502	112518
622.566	111678
622.631	112219
622.695	116458
622.760	114140
622.824	114317
622.889	115397
622.953	118936
623.018	137420
623.082	132458
623.147	120320
623.211	115130
623.276	118978
623.340	111231
623.404	109675
623.469	108300
623.533	108644
623.597	107577
623.662	108633
623.726	100285
623.790	94071
623.854	93531
623.919	95626
623.983	95944
624.047	98535
624.111	96594
624.176	100700
624.240	102146
624.304	107945
624.368	98610
624.432	99901
624.496	102491
624.560	109614
624.625	108864
624.689	105902
624.753	109467
624.817	104843
624.881	101136
624.945	92505
625.009	91210
625.073	94921
625.137	98855
625.201	108138
625.265	104612
625.329	96313
625.393	97365
625.456	97170
625.520	100326
625.584	103656
625.648	108159
625.712	119267
625.776	146286
625.839	145525
625.903	96696
625.967	84360
626.031	98203
626.095	119459
626.158	93827
626.222	73705
626.286	70684
626.349	67468
626.413	65033
626.477	67091
626.540	65278
626.604	64380
626.668	63281
626.731	61968
626.795	63751
626.858	64810
626.922	61773
626.986	63055
627.049	60067
627.113	63901
627.176	60258
627.240	60572
627.303	59065
627.366	59426
627.430	60728
627.493	60731
627.557	59739
627.620	61604
627.684	61275
627.747	62341
627.810	56500
627.874	53913
627.937	51180
628.000	55033
628.064	52800
628.127	47012
628.190	47815
628.253	46907
628.317	43429
628.380	43832
628.443	42187
628.506	43372
628.569	41345
628.632	39119
628.696	40016
628.759	39018
628.822	37264
628.885	36880
628.948	37271
629.011	37858
629.074	35456
629.137	34380
629.200	34238
629.263	38044
629.326	33567
629.389	34545
629.452	34475
629.515	34886
629.578	33542
629.641	34469
629.704	34057
629.767	34833
629.830	33046
629.892	32435
629.955	32039
630.018	35418
630.081	34830
630.144	38559
630.207	32935
630.269	34738
630.332	32477
630.395	31220
630.458	29736
630.520	29557
630.583	30748
630.646	30512
630.708	30295
630.771	30105
630.834	31625
630.896	30615
630.959	31277
631.021	30030
631.084	29263
631.146	31599
631.209	31503
631.272	30046
631.334	29770
631.397	30978
631.459	31173
631.522	32878
631.584	32381
631.646	35278
631.709	36548
631.771	39853
631.834	35652
631.896	33054
631.958	30570
632.021	31920
632.083	28998
632.145	30541
632.208	29521
632.270	30328
632.332	27706
632.395	27395
632.457	29272
632.519	28880
632.581	28237
632.643	26915
632.706	28495
632.768	26331
632.830	27917
632.892	28342
632.954	27221
633.016	29399
633.078	27462
633.141	28122
633.203	27218
633.265	29128
633.327	27353
633.389	28506
633.451	31088
633.513	32097
633.575	31037
633.637	32272
633.698	30175
633.760	29892
633.822	30890
633.884	31408
633.946	31782
634.008	31441
634.070	32135
634.132	34842
634.193	35250
634.255	38351
634.317	38558
634.379	38678
634.441	34780
634.502	32173
634.564	30673
634.626	28092
634.687	28371
634.749	27410
634.811	27068
634.873	26300
634.934	26395
634.996	27204
635.057	25908
635.119	26223
635.181	27114
635.242	28319
635.304	24970
635.365	30115
635.427	26661
635.488	28594
635.550	25787
635.611	26704
635.673	26082
635.734	30550
635.796	28855
635.857	32553
635.918	31921
635.980	37882
636.041	37584
636.102	40773
636.164	40168
636.225	39705
636.286	32823
636.348	32206
636.409	27912
636.470	27452
636.531	26112
636.593	26197
636.654	25645
636.715	24933
636.776	24032
636.838	22508
636.899	24424
636.960	23449
637.021	21914
637.082	22387
637.143	23099
637.204	22229
637.265	21483
637.326	22903
637.387	22349
637.448	21548
637.509	21908
637.570	23337
637.631	22936
637.692	20848
637.753	20331
637.814	22563
637.875	20694
637.936	21805
637.997	19649
638.058	21955
638.119	22351
638.179	21825
638.240	19573
638.301	20947
638.362	20584
638.423	20161
638.483	20968
638.544	19111
638.605	19950
638.666	19134
638.726	20566
638.787	20815
638.848	18901
638.908	20036
638.969	19984
639.030	20060
639.090	18832
639.151	19565
639.211	20672
639.272	23866
639.332	30366
639.393	23255
639.453	19996
639.514	20532
639.574	19202
639.635	18640
639.695	19281
639.756	17782
639.816	20291
639.877	21115
639.937	29055
639.997	32094
640.058	18317
640.118	18127
640.178	18487
640.239	17904
640.299	17639
640.359	18549
640.420	19118
640.480	21709
640.540	23560
640.600	21774
640.661	20707
640.721	21419
640.781	23322
640.841	19228
640.901	18979
640.961	19186
641.021	20959
641.082	22122
641.142	24909
641.202	20198
641.262	15279
641.322	17997
641.382	16464
641.442	17776
641.502	16867
641.562	18453
641.622	16588
641.682	19366
641.742	19938
641.802	18054
641.861	18343
641.921	18024
641.981	19344
642.041	19023
642.101	20410
642.161	16579
642.221	16512
642.280	16742
642.340	16389
642.400	16571
642.460	17267
642.519	16707
642.579	15253
642.639	17702
642.698	14192
642.758	19335
642.818	17092
642.877	16409
642.937	17916
642.997	19823
643.056	23277
643.116	17346
643.175	19233
643.235	17332
643.294	19410
643.354	21510
643.414	22852
643.473	27507
643.532	34777
643.592	47972
643.651	74024
643.711	123595
643.770	238431
643.830	570680
643.889	1099766
643.948	234769
644.008	47923
644.067	32294
644.126	24754
644.186	22541
644.245	19623
644.304	18201
644.363	20370
644.423	17342
644.482	18302
644.541	20159
644.600	18736
644.659	26025
644.719	29900
644.778	44641
644.837	71461
644.896	147636
644.955	316623
645.014	95788
645.073	26207
645.132	21186
645.191	19495
645.250	19130
645.309	20261
645.368	21352
645.427	27257
645.486	42426
645.545	64539
645.604	23865
645.663	18513
645.722	18629
645.781	21023
645.840	25165
645.898	32636
645.957	46251
646.016	66695
646.075	117489
646.134	221120
646.192	604756
646.251	792476
646.310	110609
646.369	35741
646.427	29759
646.486	21993
646.545	19791
646.603	17483
646.662	17573
646.721	16517
646.779	17211
646.838	18019
646.896	23516
646.955	28837
647.014	43656
647.072	80920
647.131	209350
647.189	90575
647.248	19280
647.306	16086
647.365	16461
647.423	12999
647.481	14537
647.540	11819
647.598	13249
647.657	12315
647.715	13617
647.773	11574
647.832	13066
647.890	11178
647.948	10742
648.007	12662
648.065	9806
648.123	11340
648.181	13359
648.240	12198
648.298	12259
648.356	10820
648.414	12645
648.472	10893
648.531	12262
648.589	11144
648.647	11146
648.705	11251
648.763	11561
648.821	13178
648.879	13812
648.937	15612
648.995	19514
649.053	23785
649.111	37341
649.169	55701
649.227	95404
649.285	199000
649.343	541216
649.401	229482
649.459	48425
649.516	30212
649.574	20465
649.632	28513
649.690	32141
649.748	25714
649.806	33216
649.863	59791
649.921	147733
649.979	88185
650.037	16905
650.094	10528
650.152	11489
650.210	10213
650.268	11320
650.325	10339
650.383	11123
650.440	8499
650.498	9807
650.556	9145
650.613	9303
650.671	9458
650.728	10353
650.786	9632
650.843	12315
650.901	7756
650.958	9265
651.016	7289
651.073	8609
651.131	7468
651.188	8099
651.246	7919
651.303	7610
651.360	8243
651.418	7858
651.475	8178
651.532	7292
651.590	7622
651.647	7684
651.704	8093
651.762	8126
651.819	7754
651.876	7548
651.933	6895
651.990	7786
652.048	5005
652.105	7161
652.162	7621
652.219	7049
652.276	7480
652.333	7567
652.390	6605
652.448	8486
652.505	7266
652.562	7500
652.619	7122
652.676	9085
652.733	10194
652.790	7667
652.847	6688
652.904	8056
652.961	5965
653.017	6702
653.074	6688
653.131	7603
653.188	5815
653.245	6434
653.302	6675
653.359	6886
653.415	6929
653.472	6168
653.529	6545
653.586	5926
653.642	6234
653.699	7022
653.756	5519
653.813	6467
653.869	7284
653.926	6621
653.983	5852
654.039	6321
654.096	5749
654.152	7880
654.209	5566
654.266	7060
654.322	5936
654.379	7584
654.435	7373
654.492	8118
654.548	10070
654.605	12767
654.661	8121
654.717	6745
654.774	7217
654.830	7001
654.887	6836
654.943	6819
655.000	7229
655.056	6945
655.112	6956
655.168	6322
655.225	6427
655.281	7691
655.337	8252
655.394	9868
655.450	8667
655.506	8609
655.562	9314
655.618	9264
655.675	6309
655.731	6552
655.787	5696
655.843	7384
655.899	5701
655.955	7715
656.011	6352
656.067	5358
656.123	6745
656.179	6976
656.235	6808
656.291	5539
656.347	6185
656.403	5929
656.459	5984
656.515	7003
656.571	6500
656.627	6441
656.683	6838
656.739	7693
656.795	6884
656.850	7889
656.906	8216
656.962	7608
657.018	6096
657.074	8025
657.129	9123
657.185	12359
657.241	22570
657.297	14407
657.352	7074
657.408	5544
657.464	7172
657.519	5746
657.575	5301
657.630	6027
657.686	5241
657.742	5908
657.797	5841
657.853	6161
657.908	6411
657.964	5993
658.019	5499
658.075	6547
658.130	5529
658.186	5284
658.241	5823
658.297	5819
658.352	5191
658.407	5627
658.463	5407
658.518	6480
658.573	5819
658.629	5104
658.684	5225
658.739	5398
658.795	5653
658.850	6387
658.905	5261
658.960	6775
659.016	4252
659.071	6442
659.126	5909
659.181	6772
659.236	10114
659.291	10156
659.346	7332
659.401	6277
659.457	5988
659.512	6806
659.567	7221
659.622	5564
659.677	5560
659.732	4827
659.787	6012
659.842	6247
659.897	6821
659.952	5341
660.007	5075
660.061	6514
660.116	4575
660.171	5502
660.226	5589
660.281	6237
660.336	4066
660.391	6702
660.445	4918
660.500	5811
660.555	5294
660.610	5849
660.664	5448
660.719	5664
660.774	5056
660.828	6134
660.883	5506
660.938	5874
660.992	4450
661.047	5027
661.101	4922
661.156	5385
661.211	4504
661.265	6171
661.320	5262
661.374	5869
661.429	4993
661.483	6138
661.538	4110
661.592	5715
661.647	6153
661.701	6285
661.755	6030
661.810	4865
661.864	5171
661.919	5858
661.973	5447
662.027	5622
662.081	4868
662.136	5624
662.190	5026
662.244	5571
662.299	5768
662.353	5281
662.407	5419
662.461	5397
662.515	5503
662.569	5277
662.624	6066
662.678	6212
662.732	4791
662.786	5480
662.840	5411
662.894	5883
662.948	5317
663.002	4780
663.056	4632
663.110	5150
663.164	5294
663.218	5625
663.272	5546
663.326	6559
663.380	5896
663.434	7001
663.488	5280
663.542	5963
663.595	5360
663.649	5961
663.703	5196
663.757	5786
663.811	5059
663.864	5073
663.918	5834
663.972	5354
664.026	5035
664.079	4962
664.133	5933
664.187	6197
664.240	5441
664.294	5533
664.348	5808
664.401	6565
664.455	4740
664.508	5493
664.562	5021
664.615	5481
664.669	4435
664.722	5505
664.776	5113
664.829	5205
664.883	4801
664.936	5464
664.990	4988
665.043	6421
665.097	5622
665.150	7111
665.203	5368
665.257	5962
665.310	5857
665.363	6146
665.417	5295
665.470	5602
665.523	5793
665.576	6934
665.630	5125
665.683	5453
665.736	6194
665.789	6327
665.842	5716
665.895	6414
665.949	5862
666.002	5984
666.055	5696
666.108	6295
666.161	5055
666.214	6654
666.267	6288
666.320	7081
666.373	6389
666.426	5654
666.479	4940
666.532	6284
666.585	7019
666.638	6367
666.691	6037
666.744	6897
666.796	5549
666.849	5806
666.902	6058
666.955	4964
667.008	4931
667.060	6278
667.113	4859
667.166	6236
667.219	5774
667.271	5987
667.324	5157
667.377	6588
667.430	5769
667.482	6368
667.535	5893
667.587	6272
667.640	6617
667.693	7625
667.745	10723
667.798	10911
667.850	5473
667.903	6464
667.955	5896
668.008	6209
668.060	6187
668.113	6933
668.165	6073
668.218	7154
668.270	5317
668.322	6725
668.375	5878
668.427	6020
668.479	5213
668.532	6862
668.584	6066
668.636	6101
668.689	5797
668.741	6381
668.793	5411
668.845	5774
668.898	6303
668.950	5602
669.002	5340
669.054	6027
669.106	5383
669.158	6694
669.211	6365
669.263	6717
669.315	6290
669.367	6533
669.419	6300
669.471	7372
669.523	7136
669.575	7835
669.627	7182
669.679	5688
669.731	5924
669.783	6944
669.835	5217
669.886	5837
669.938	6200
669.990	6941
670.042	5126
670.094	6643
670.146	6708
670.197	7472
670.249	7895
670.301	10058
670.353	12148
670.404	15866
670.456	20680
670.508	31290
670.560	44399
670.611	65934
670.663	107569
670.715	252057
670.766	402826
670.818	124380
670.869	21647
670.921	13510
670.972	11071
671.024	9099
671.075	6950
671.127	7244
671.178	6295
671.230	7215
671.281	6567
671.333	7916
671.384	8400
671.436	11104
671.487	12456
671.538	16507
671.590	21392
671.641	32212
671.692	56537
671.744	103756
671.795	61583
671.846	20388
671.897	11304
671.949	9145
672.000	7870
672.051	8070
672.102	6797
672.153	7106
672.204	5484
672.256	6517
672.307	4826
672.358	6347
672.409	5065
672.460	6933
672.511	5181
672.562	5699
672.613	3946
672.664	5269
672.715	5846
672.766	6210
672.817	4416
672.868	6262
672.919	5123
672.970	5449
673.021	4964
673.071	4928
673.122	5192
673.173	5820
673.224	4912
673.275	4774
673.326	4564
673.376	4652
673.427	3872
673.478	5529
673.528	5044
673.579	5031
673.630	5198
673.680	5934
673.731	4201
673.782	4226
673.832	5065
673.883	5352
673.934	4081
673.984	4460
674.035	5369
674.085	4677
674.136	4698
674.186	5099
674.237	5263
674.287	6840
674.338	5788
674.388	5778
674.438	4590
674.489	4488
674.539	4920
674.589	5843
674.640	5690
674.690	5857
674.740	5275
674.791	5390
674.841	4714
674.891	5340
674.942	4623
674.992	5195
675.042	3737
675.092	3565
675.142	4753
675.193	4604
675.243	3640
675.293	5572
675.343	3992
675.393	5162
675.443	5183
675.493	4579
675.543	4212
675.593	4436
675.643	4566
675.693	4663
675.743	4680
675.793	4327
675.843	4356
675.893	4772
675.943	4369
675.993	3985
676.043	4465
676.093	5157
676.142	4757
676.192	4834
676.242	4328
676.292	3469
676.341	4621
676.391	4103
676.441	3630
676.491	4008
676.540	3493
676.590	4383
676.640	3444
676.689	3579
676.739	3921
676.789	4459
676.838	3650
676.888	4007
676.937	3761
676.987	3902
677.037	3674
677.086	3271
677.136	3093
677.185	4394
677.235	3122
677.284	4259
677.333	3397
677.383	3812
677.432	2191
677.482	3597
677.531	3417
677.580	4567
677.630	3522
677.679	2899
677.728	3350
677.778	4066
677.827	3416
677.876	3013
677.925	3041
677.975	3856
678.024	3336
678.073	3688
678.122	3661
678.171	4214
678.220	3381
678.269	5484
678.319	4677
678.368	5506
678.417	4133
678.466	5050
678.515	4826
678.564	3920
678.613	3715
678.662	4646
678.711	3783
678.760	4506
678.809	4169
678.857	4152
678.906	3691
678.955	3997
679.004	4209
679.053	3886
679.102	3225
679.151	3647
679.199	3653
679.248	4266
679.297	3683
679.346	4013
679.394	2541
679.443	4661
679.492	3415
679.540	3805
679.589	3780
679.638	4117
679.686	3427
679.735	4232
679.784	4003
679.832	4969
679.881	2917
679.929	4119
679.978	3301
680.026	3508
680.075	2751
680.123	3557
680.172	3750
680.220	3426
680.268	3513
680.317	3565
680.365	3104
680.414	2728
680.462	3509
680.510	4168
680.559	3256
680.607	3306
680.655	2859
680.703	3318
680.752	2968
680.800	2982
680.848	2742
680.896	2802
680.945	2911
680.993	3110
681.041	2548
681.089	3759
681.137	1832
681.185	2690
681.233	3160
681.258	3202
681.281	3236
681.329	2162
681.377	2130
681.380	2182
681.425	3011
681.473	4323
681.502	3635
681.521	3146
681.569	3696
681.617	3841
681.624	3868
681.665	4020
681.713	3129
681.745	3209
681.761	3235
681.809	2798
681.857	3290
681.867	3383
681.904	3691
681.952	3320
681.989	3741
682.000	3861
682.048	3470
682.096	2480
682.111	2682
682.143	3081
682.191	2255
682.233	3606
682.239	3802
682.286	3613
682.334	3315
682.354	2985
682.382	2531
682.430	3712
682.476	3238
682.477	3223
682.525	3287
682.572	2537
682.598	3151
682.620	3641
682.667	3028
682.715	3880
682.720	3852
682.763	3556
682.810	3815
682.841	3410
682.857	3187
682.905	3424
682.952	2898
682.963	2964
683.000	3197
683.047	2686
683.085	4424
683.095	4889
683.142	3013
683.190	3073
683.206	3086
683.237	3054
683.284	3750
683.328	2654
683.332	2558
683.379	3502
683.426	2443
683.449	2785
683.473	3150
683.521	3096
683.568	3894
683.571	3811
683.615	2571
683.662	3610
683.693	2918
683.709	2558
683.757	2812
683.804	2976
683.814	3170
683.851	3767
683.898	3571
683.936	3351
683.945	3309
683.992	2603
684.039	3446
684.057	3546
684.086	3674
684.133	3932
684.179	2249
684.180	2187
684.227	3833
684.274	3784
684.300	3892
684.321	3967
684.368	3129
684.415	3844
684.422	3733
684.462	3090
684.509	3566
684.543	3226
684.556	3091
684.603	3645
684.649	3474
684.665	3590
684.696	3822
684.743	3438
684.786	3864
684.790	3895
684.837	3155
684.883	3399
684.908	3403
684.930	3408
684.977	4097
685.023	3535
685.029	3577
685.070	3807
685.117	3783
685.150	4055
685.164	4194
685.210	3733
685.257	4206
685.272	4100
685.303	3749
685.350	3824
685.393	3839
685.396	3847
685.443	4142
685.490	4609
685.514	4711
685.536	4694
685.583	4024
685.629	3705
685.636	3654
685.675	3567
685.722	4632
685.757	4186
685.768	3981
685.815	3727
685.861	3224
685.878	3304
685.908	3580
685.954	3729
686.000	4592
686.000	4602
686.047	4429
686.093	4858
686.121	4636
686.139	4447
686.185	4524
686.232	3902
686.242	3866
686.278	3717
686.324	3852
686.363	3793
686.370	3808
686.416	3626
686.463	4387
686.484	4215
686.509	3970
686.555	3841
686.601	3918
686.606	3979
686.647	4477
686.693	3310
686.727	3406
686.739	3457
686.785	4444
686.831	3641
686.848	3334
686.877	2829
686.923	3697
686.969	3728
686.969	3727
687.015	3807
687.061	3796
687.090	3876
687.107	3946
687.153	4163
687.199	4669
687.211	4518
687.245	4054
687.291	3931
687.332	3537
687.336	3518
687.382	3845
687.428	4373
687.453	4844
687.474	5044
687.520	4456
687.565	4604
687.574	4451
687.611	4096
687.657	4389
687.695	4292
687.702	4296
687.748	4878
687.794	5185
687.816	5103
687.839	4808
687.885	4534
687.931	4644
687.937	4571
687.976	4185
688.022	4320
688.058	4161
688.067	4207
688.113	4259
688.158	3896
688.179	4331
688.204	4627
688.249	4553
688.295	4654
688.300	4553
688.340	4064
688.386	5117
688.421	4682
688.431	4534
688.477	4239
688.522	4548
688.542	4728
688.567	4992
688.613	4786
688.658	5285
688.663	5217
688.703	4622
688.749	4509
688.784	4705
688.794	4754
688.839	4589
688.884	4562
688.905	4509
688.930	4483
688.975	4587
689.020	4756
689.026	4742
689.065	4761
689.110	4750
689.146	4411
689.155	4321
689.201	4725
689.246	4385
689.267	4780
689.291	5213
689.336	4437
689.381	5254
689.388	5135
689.426	4404
689.471	4846
689.509	4383
689.516	4343
689.561	4707
689.606	4642
689.630	4908
689.651	5033
689.696	4529
689.741	4407
689.750	4378
689.785	4518
689.830	4730
689.871	4891
689.875	4890
689.920	4793
689.965	4372
689.992	4718
690.010	5002
690.054	4743
690.099	4889
690.112	4820
690.144	4496
690.189	4496
690.233	4129
690.233	4133
690.278	4359
690.323	4457
690.354	4556
690.367	4609
690.412	4713
690.457	5242
690.474	5306
690.501	5234
690.546	4908
690.590	4691
690.595	4685
690.635	5008
690.680	4884
690.716	5051
690.724	5032
690.769	5463
690.813	5562
690.836	5071
690.857	4786
690.902	5393
690.946	5415
690.957	5553
690.991	6382
691.035	6875
691.077	8460
691.080	8495
691.124	7138
691.168	6641
691.198	5782
691.213	5474
691.257	5593
691.301	5259
691.318	5297
691.346	5497
691.390	5179
691.434	5476
691.439	5418
691.478	5064
691.522	5448
691.559	5329
691.567	5301
691.611	5606
691.655	5392
691.680	5308
691.699	5266
691.743	5095
691.787	5156
691.800	5088
691.831	5015
691.875	5289
691.919	5427
691.921	5424
691.964	5445
692.008	5277
692.041	5258
692.052	5353
692.096	5435
692.139	5853
692.162	5979
692.183	5946
692.227	6088
692.271	5552
692.282	5606
692.315	5881
692.359	5842
692.402	6064
692.403	6074
692.447	5717
692.490	5800
692.523	5283
692.534	5204
692.578	6013
692.622	5794
692.643	6039
692.666	6065
692.709	5738
692.753	5462
692.763	5362
692.797	5283
692.840	5629
692.884	5618
692.884	5628
692.928	5722
692.971	5557
693.004	5702
693.015	5718
693.059	5898
693.102	5740
693.124	5678
693.146	5688
693.189	5658
693.233	5540
693.245	5612
693.276	5751
693.320	5590
693.363	5596
693.365	5577
693.407	5578
693.450	5920
693.485	5752
693.493	5755
693.537	6419
693.580	6481
693.605	6753
693.624	7021
693.667	7350
693.710	8007
693.725	8160
693.753	9022
693.797	10635
693.840	11990
693.845	12128
693.883	11266
693.926	9440
693.966	8558
693.970	8504
694.013	7656
694.056	6753
694.086	6206
694.099	6213
694.142	6200
694.185	6085
694.206	6084
694.229	6105
694.272	5813
694.315	6124
694.326	6011
694.358	6025
694.401	6476
694.444	6937
694.446	6943
694.487	6968
694.530	6566
694.566	6864
694.573	6902
694.616	6258
694.659	6069
694.686	5862
694.702	5872
694.745	6033
694.787	5857
694.806	5905
694.830	5908
694.873	5829
694.916	5603
694.926	5570
694.959	5845
695.002	6219
695.044	6327
695.046	6338
695.087	6514
695.130	5884
695.166	6003
695.172	6109
695.215	6266
695.258	6533
695.286	6763
695.301	6779
695.343	6815
695.386	6595
695.406	6524
695.428	6563
695.471	6721
695.514	6881
695.526	6854
695.556	6956
695.599	7389
695.641	7536
695.646	7548
695.684	7194
695.726	6602
695.766	6278
695.769	6303
695.811	6298
695.854	6388
695.886	6474
695.896	6483
695.938	6336
695.981	6256
696.005	6140
696.023	6359
696.065	6848
696.108	7839
696.125	7909
696.150	7527
696.192	7387
696.235	6884
696.245	6829
696.277	7068
696.319	7018
696.361	7366
696.365	7342
696.404	6959
696.446	6817
696.485	6616
696.488	6656
696.530	7005
696.572	7243
696.604	7513
696.614	7480
696.656	7082
696.698	6910
696.724	6658
696.740	6757
696.783	7223
696.825	7485
696.844	7618
696.867	7720
696.909	7822
696.951	7984
696.964	8011
696.992	7968
697.034	7791
697.076	7766
697.083	7723
697.118	7848
697.160	8068
697.202	8210
697.203	8195
697.244	7932
697.286	7753
697.323	7405
697.327	7454
697.369	7882
697.411	8202
697.442	8473
697.453	8466
697.494	8341
697.536	8237
697.562	8154
697.578	8212
697.620	8244
697.661	8254
697.682	8274
697.703	8548
697.744	9075
697.786	9672
697.801	9796
697.828	9577
697.869	9349
697.911	8974
697.921	8890
697.952	8712
697.994	8338
698.035	8117
698.040	8056
698.077	7856
698.118	7675
698.160	7434
698.160	7414
698.201	8120
698.243	8755
698.279	9404
698.284	9419
698.325	9259
698.367	9143
698.399	8986
698.408	9002
698.449	9041
698.491	9043
698.518	9029
698.532	9052
698.573	9068
698.614	9073
698.638	9047
698.656	8954
698.697	8699
698.738	8427
698.757	8292
698.779	8422
698.820	8612
698.862	8813
698.877	8865
698.903	9032
698.944	9270
698.985	9507
698.996	9552
699.026	9578
699.067	9583
699.116	9569
699.235	9937
699.354	8339
699.474	9008
699.593	9507
699.713	9424
699.832	9701
699.951	10057
700.070	9253
700.190	9123
700.309	8434
700.428	9585
700.547	8385
700.667	8727
700.786	8706
700.905	8280
701.024	9096
701.143	7565
701.262	8592
701.381	9214
701.500	8955
701.619	8746
701.738	8069
701.857	9446
701.976	8228
702.095	8306
702.214	8905
702.333	8590
702.452	8302
702.571	9371
702.690	8132
702.809	8367
702.928	8474
703.047	7777
703.165	8649
703.284	8238
703.403	8254
703.522	8846
703.640	8652
703.759	10028
703.878	9185
703.997	8131
704.115	7981
704.234	7913
704.353	8230
704.471	8456
704.590	8111
704.708	8590
704.827	7890
704.946	7643
705.064	8115
705.183	7845
705.301	8969
705.420	11226
705.538	9874
705.656	8634
705.775	8793
705.893	13343
706.012	11122
706.130	10230
706.249	9377
706.367	8925
706.485	9172
706.604	9130
706.722	9222
706.840	11289
706.958	11486
707.077	9754
707.195	8615
707.313	8671
707.431	9083
707.549	8427
707.668	8142
707.786	8980
707.904	8545
708.022	8740
708.140	8390
708.258	8796
708.376	9236
708.494	8590
708.612	10141
708.730	12576
708.848	10039
708.966	10808
709.084	10431
709.202	10046
709.320	9462
709.438	10220
709.556	9683
709.674	9123
709.791	9615
709.909	9596
710.027	9746
710.145	9535
710.263	9440
710.380	8370
710.498	9235
710.616	9799
710.733	8799
710.851	9102
710.969	8561
711.086	8939
711.204	9592
711.322	9193
711.439	8518
711.557	8612
711.674	9516
711.792	8798
711.909	8895
712.027	9504
712.144	8910
712.262	8992
712.379	9412
712.497	14110
712.614	11436
712.732	10769
712.849	10507
712.966	12151
713.084	12345
713.201	11472
713.318	10450
713.436	11106
713.553	11005
713.670	11317
713.787	12303
713.905	11053
714.022	11256
714.139	10773
714.256	13704
714.373	19389
714.490	34492
714.608	96785
714.725	389495
714.842	196496
714.959	18267
715.076	13157
715.193	11665
715.310	12096
715.427	10408
715.544	10234
715.661	10033
715.778	10626
715.895	9890
716.011	10208
716.128	9752
716.245	10406
716.362	11600
716.479	10051
716.596	10188
716.713	10461
716.829	9942
716.946	8918
717.063	8446
717.180	8944
717.296	8963
717.413	8817
717.530	8819
717.646	9369
717.763	9026
717.880	8900
717.996	8560
718.113	8310
718.229	7992
718.346	8109
718.462	8813
718.579	11002
718.695	13295
718.812	10303
718.928	9407
719.045	8066
719.161	8013
719.277	7988
719.394	8146
719.510	9687
719.626	10098
719.743	11995
719.859	15718
719.975	33074
720.092	129840
720.208	160409
720.324	16462
720.440	9746
720.557	10624
720.673	13597
720.789	14299
720.905	18754
721.021	8780
721.137	7727
721.253	7567
721.369	8131
721.486	8260
721.602	9276
721.718	8551
721.834	7466
721.950	7975
722.066	7989
722.181	7113
722.297	7418
722.413	8358
722.529	7213
722.645	7346
722.761	8088
722.877	7743
722.993	7301
723.108	8064
723.224	7294
723.340	6974
723.456	7211
723.571	7016
723.687	6355
723.803	6794
723.918	6520
724.034	5866
724.150	6282
724.265	8139
724.381	11043
724.497	9398
724.612	6887
724.728	6686
724.843	6724
724.959	8298
725.074	11601
725.190	8855
725.305	6719
725.421	6315
725.536	6070
725.651	5857
725.767	5532
725.882	5472
725.997	5652
726.113	6299
726.228	6764
726.343	6280
726.459	6585
726.574	6042
726.689	5883
726.804	6114
726.920	6452
727.035	6197
727.150	6585
727.265	6494
727.380	6289
727.495	5994
727.610	5486
727.725	6030
727.841	6772
727.956	8345
728.071	6364
728.186	5389
728.301	5624
728.416	6123
728.531	6200
728.645	5428
728.760	6541
728.875	6415
728.990	6475
729.105	5731
729.220	5784
729.335	5976
729.449	5817
729.564	5577
729.679	5732
729.794	6387
729.908	5599
730.023	5440
730.138	5673
730.253	5704
730.367	5401
730.482	4914
730.596	5843
730.711	5984
730.826	7036
730.940	5908
731.055	7236
731.169	5605
731.284	4829
731.398	5716
731.513	6202
731.627	5621
731.742	8118
731.856	6864
731.970	7035
732.085	8806
732.199	11013
732.313	17155
732.428	51363
732.542	138615
732.656	43327
732.771	10152
732.885	9132
732.999	9146
733.113	8802
733.227	8366
733.342	8127
733.456	8072
733.570	7041
733.684	7634
733.798	8102
733.912	8075
734.026	7496
734.140	7405
734.254	7297
734.368	10579
734.482	9755
734.596	7381
734.710	7530
734.824	7533
734.938	6850
735.052	7019
735.166	7317
735.280	7194
735.393	8126
735.507	7986
735.621	8581
735.735	9405
735.849	7422
735.962	6725
736.076	6850
736.190	7402
736.303	9137
736.417	8715
736.531	7331
736.644	5430
736.758	6837
736.872	6642
736.985	6541
737.099	7049
737.212	6812
737.326	6423
737.439	6868
737.553	5932
737.666	6435
737.780	5645
737.893	5726
738.007	6510
738.120	6042
738.233	6312
738.347	6383
738.460	6375
738.573	7118
738.687	5577
738.800	6751
738.913	7614
739.026	7702
739.140	6218
739.253	5793
739.366	6110
739.479	5752
739.592	4895
739.705	6199
739.818	6061
739.932	5840
740.045	6359
740.158	5789
740.271	6560
740.384	5997
740.497	5684
740.610	5980
740.723	5661
740.836	6608
740.949	6262
741.062	6681
741.174	5383
741.287	5597
741.400	4605
741.513	5852
741.626	5654
741.739	5070
741.851	5637
741.964	5791
742.077	4639
742.189	5818
742.302	6242
742.415	5442
742.527	6133
742.640	4719
742.753	4503
742.865	5615
742.978	5262
743.090	5015
743.203	5677
743.316	4909
743.428	5133
743.541	5215
743.653	4318
743.766	5504
743.878	4891
743.990	5268
744.103	5066
744.215	4084
744.327	5590
744.440	6116
744.552	5854
744.664	4516
744.777	4348
744.889	3606
745.001	5092
745.113	4602
745.226	4598
745.338	4905
745.450	4854
745.562	4337
745.674	4415
745.786	4246
745.898	4701
746.010	4125
746.122	5072
746.234	5812
746.347	5327
746.459	4069
746.570	4231
746.682	5756
746.794	5379
746.906	4659
747.018	4279
747.130	4521
747.242	4275
747.354	4391
747.466	4683
747.577	4477
747.689	4595
747.801	4106
747.913	4449
748.024	4908
748.136	3813
748.248	4839
748.359	4321
748.471	4919
748.583	4037
748.694	4718
748.806	4433
748.918	4782
749.029	4874
749.141	5526
749.252	4111
749.364	5267
749.475	7574
749.587	4695
749.698	4057
749.809	4605
749.921	4509
750.032	4029
750.144	4465
750.255	3550
750.366	3585
750.478	3878
750.589	4454
750.700	4319
750.811	4408
750.923	4915
751.034	8225
751.145	6262
751.256	3505
751.367	3980
751.479	3967
751.590	3950
751.701	3240
751.812	3654
751.923	3605
752.034	3735
752.145	4141
752.256	3620
752.367	3405
752.478	3729
752.589	4505
752.700	3982
752.811	3495
752.922	3342
753.032	4319
753.143	4727
753.254	3201
753.365	3948
753.476	4293
753.586	4175
753.697	3451
753.808	3806
753.919	3208
754.029	3482
754.140	4301
754.251	3830
754.361	3426
754.472	3400
754.582	3438
754.693	4144
754.804	4361
754.914	3867
755.025	3482
755.135	4188
755.246	3533
755.356	3560
755.466	3764
755.577	4431
755.687	4126
755.798	3736
755.908	3339
756.018	3355
756.129	3754
756.239	3580
756.349	4658
756.460	3770
756.570	3600
756.680	3875
756.790	3987
756.900	4438
757.011	3441
757.121	3283
757.231	3456
757.341	3780
757.451	2919
757.561	3716
757.671	3647
757.781	3637
757.891	4275
758.001	3315
758.111	4483
758.221	3735
758.331	3727
758.441	4244
758.551	3945
758.661	4474
758.771	3578
758.880	3847
758.990	4241
759.100	5076
759.210	3674
759.320	4289
759.429	3991
759.539	4305
759.649	4165
759.758	5056
759.868	5351
759.978	4267
760.087	5270
760.197	5257
760.307	4984
760.416	4339
760.526	3689
760.635	5085
760.745	3533
760.854	4640
760.964	5677
761.073	5156
761.182	4441
761.292	3945
761.401	4154
761.511	3403
761.620	4154
761.729	4499
761.839	4034
761.948	4402
762.057	4157
762.166	3588
762.276	2163
762.385	5991
762.494	3649
762.603	3385
762.712	4910
762.822	3836
762.931	3837
763.040	2960
763.149	4189
763.258	4294
763.367	4567
763.476	4932
763.585	4550
763.694	3831
763.803	4315
763.912	5297
764.021	4162
764.130	4098
764.238	4874
764.347	5481
764.456	4913
764.565	5057
764.674	4804
764.783	5259
764.891	3962
765.000	6211
765.109	6574
765.217	5744
765.326	7329
765.435	8581
765.543	10538
765.652	11338
765.761	15082
765.869	21964
765.978	35067
766.086	66975
766.195	144326
766.303	393676
766.412	787514
766.520	451234
766.629	115960
766.737	50962
766.846	31954
766.954	22640
767.062	18216
767.171	14841
767.279	12144
767.387	9186
767.496	8202
767.604	8371
767.712	8123
767.820	6898
767.928	6827
768.037	6160
768.145	6950
768.253	7539
768.361	5484
768.469	6150
768.577	6255
768.685	7070
768.793	6592
768.901	6263
769.009	8461
769.117	8875
769.225	11779
769.333	16977
769.441	27927
769.549	56322
769.657	141901
769.765	446073
769.873	544798
769.981	130210
770.088	37906
770.196	21027
770.304	15957
770.412	14182
770.519	10331
770.627	7997
770.735	7859
770.842	7009
770.950	6935
771.058	6843
771.165	7173
771.273	6327
771.380	6454
771.488	7252
771.595	5903
771.703	6473
771.810	6175
771.918	5854
772.025	6841
772.133	7955
772.240	6887
772.348	6932
772.455	7312
772.562	5956
772.670	6144
772.777	6295
772.884	6607
772.991	5389
773.099	6230
773.206	5287
773.313	5965
773.420	6771
773.528	5547
773.635	5639
773.742	5752
773.849	6472
773.956	6137
774.063	6442
774.170	5170
774.277	6602
774.384	5097
774.491	5959
774.598	6892
774.705	6634
774.812	5532
774.919	6152
775.026	5151
775.133	4796
775.239	5128
775.346	4840
775.453	4998
775.560	4737
775.667	5213
775.773	4294
775.880	5875
775.987	4867
776.093	6218
776.200	5042
776.307	3853
776.413	4773
776.520	5395
776.627	4340
776.733	4920
776.840	3914
776.946	6805
777.053	4568
777.159	5740
777.266	3991
777.372	6210
777.478	5353
777.585	5331
777.691	5014
777.798	5085
777.904	5744
778.010	5742
778.117	5111
778.223	4439
778.329	4985
778.435	4771
778.542	4656
778.648	3637
778.754	4586
778.860	4654
778.966	5024
779.072	4040
779.178	3848
779.284	3728
779.391	3943
779.497	3393
779.603	6353
779.708	4035
779.815	9178
779.920	21945
780.026	17237
780.132	5127
780.238	3806
780.344	4143
780.450	5263
780.556	3492
780.661	5068
780.767	3969
780.873	3336
780.979	4437
781.085	3394
781.190	3905
781.296	2956
781.402	4173
781.507	3739
781.613	3269
781.719	3134
781.824	4658
781.930	4884
782.035	4367
782.141	4032
782.246	3905
782.352	3421
782.457	4054
782.563	4592
782.668	3653
782.773	3295
782.879	2565
782.984	4192
783.090	4533
783.195	5893
783.300	4960
783.405	4134
783.511	3452
783.616	3694
783.721	3314
783.826	3261
783.932	4208
784.037	3898
784.142	3288
784.247	3490
784.352	4190
784.457	3057
784.562	3736
784.667	3329
784.772	2977
784.877	3100
784.982	3981
785.087	2780
785.192	3568
785.297	3246
785.402	3335
785.507	2963
785.611	3375
785.716	2480
785.821	3466
785.926	3091
786.031	3007
786.135	3106
786.240	3431
786.345	2189
786.450	2604
786.554	3027
786.659	3053
786.763	2506
786.868	3495
786.973	4646
787.077	2483
787.182	3655
787.286	3587
787.391	3084
787.495	2255
787.600	2752
787.704	2832
787.809	3318
787.913	2194
788.017	3348
788.122	3088
788.226	2101
788.330	2632
788.435	2597
788.539	3337
788.643	2023
788.747	2447
788.852	2469
788.956	1771
789.060	3145
789.164	2817
789.268	2380
789.372	2718
789.476	2795
789.580	1758
789.684	2276
789.788	3399
789.892	2612
789.996	2373
790.100	1854
790.204	3075
790.308	1937
790.412	2229
790.516	3088
790.620	2793
790.724	3586
790.828	2517
790.931	1752
791.035	4363
791.139	2789
791.242	1317
791.346	3047
791.450	2807
791.554	1796
791.657	1636
791.761	2999
791.864	2777
791.968	2787
792.072	3129
792.175	2671
792.279	2488
792.382	2148
792.486	2152
792.589	2395
792.693	2792
792.796	1230
792.899	3341
793.003	2466
793.106	386
793.209	1516
793.313	3648
793.416	567
793.519	3112
793.623	4091
793.726	4115
793.829	2180
793.932	2390
794.035	1619
794.138	3808
794.242	3392
794.345	1667
794.448	3357
794.551	3702
794.654	11612
794.757	8500
794.860	2150
794.963	2115
795.066	1569
795.169	3263
795.272	1849
795.375	3303
795.477	708
795.580	2135
795.683	2118
795.786	1945
795.889	848
795.991	3135
796.094	2597
796.197	554
796.300	3219
796.402	1227
796.505	765
796.608	799
796.710	2436
796.813	1703
796.915	2320
797.018	2908
797.120	2205
797.223	754
797.326	3364
797.428	1528
797.530	2055
797.633	1841
797.735	3130
797.838	1903
797.940	3048
798.042	1218
798.145	990
798.247	2186
798.349	217
798.452	2773
798.554	1669
798.656	597
798.758	2314
798.860	1487
798.962	2282
799.065	2261
799.167	484
799.269	2693
799.371	2419
799.473	2779
799.575	1709
799.677	1788
799.779	3094
799.881	1526
799.983	2493
800.085	1473
800.187	1938
800.289	747
800.390	1928
800.492	2483
800.594	2414
800.696	782
800.798	1508
800.899	1293
801.001	1872
801.103	1747
801.205	1116
801.306	1672
801.408	688
801.509	1076
801.611	1925
801.713	1914
801.814	1183
801.916	1260
802.017	2022
802.119	520
802.220	1868
802.322	-142
802.423	3571
802.525	487
802.626	848
802.727	2380
802.829	1806
802.930	-681
803.031	2546
803.133	1696
803.234	1057
803.335	1300
803.436	676
803.538	1845
803.639	122
803.740	1749
803.841	452
803.942	2303
804.043	1856
804.144	542
804.245	1325
804.346	798
804.447	697
804.548	1841
804.649	2470
804.750	1086
804.851	1965
804.952	1454
805.053	1374
805.154	-76
805.255	1861
805.355	1209
805.456	767
805.557	1215
805.658	1083
805.758	1951
805.859	1743
805.960	1504
806.061	606
806.161	262
806.262	1758
806.362	761
806.463	969
806.564	1453
806.664	1724
806.765	1587
806.865	953
806.966	1256
807.066	795
807.166	1915
807.267	1485
807.367	1168
807.468	1626
807.568	-318
807.668	2296
807.769	2115
807.869	1331
807.969	1333
808.069	1107
808.170	818
808.270	768
808.370	1208
808.470	2211
808.570	218
808.670	1332
808.770	2302
808.870	1022
808.970	1579
809.070	767
809.170	847
809.271	1541
809.370	557
809.470	1528
809.570	846
809.670	1016
809.770	794
809.870	1719
809.970	1438
810.070	654
810.169	1724
810.269	-351
810.369	1678
810.469	1382
810.568	276
810.668	366
810.768	839
810.867	1587
810.967	-296
811.066	1087
811.166	1426
811.265	2128
811.365	190
811.464	1301
811.564	1655
811.663	1278
811.763	-370
811.862	1234
811.962	1929
812.061	832
812.160	1049
812.260	803
812.359	1040
812.458	268
812.557	1833
812.657	1605
812.756	1234
812.855	837
812.954	812
813.053	1648
813.153	1185
813.252	421
813.351	802
813.450	1545
813.549	364
813.648	1842
813.747	452
813.846	1731
813.945	578
814.044	1204
814.143	1504
814.242	1787
814.341	788
814.439	1873
814.538	1655
814.637	1264
814.736	779
814.835	1554
814.933	739
815.032	1701
815.131	2394
815.229	2359
815.328	3127
815.427	2116
815.525	2689
815.624	2289
815.722	1862
815.821	2921
815.919	2626
816.018	2408
816.116	2273
816.215	2549
816.313	2470
816.412	3044
816.510	3187
816.609	4252
816.707	3457
816.805	2451
816.904	2885
817.002	4078
817.100	3782
817.198	4381
817.296	2613
817.395	3051
817.493	3617
817.591	3751
817.689	4453
817.787	5421
817.885	8183
817.983	15709
818.081	34656
818.179	88213
818.277	178039
818.375	72910
818.473	14321
818.571	8378
818.669	7241
818.767	7125
818.865	7004
818.963	9123
819.061	14902
819.158	28496
819.256	70040
819.354	178771
819.452	280470
819.549	87382
819.647	19395
819.745	9739
819.842	8909
819.940	6683
820.038	4619
820.135	4311
820.233	5332
820.330	3425
820.428	3579
820.525	2941
820.623	2967
820.720	2998
820.818	2002
820.915	3373
821.012	3075
821.110	1823
821.207	2516
821.304	1927
821.402	2526
821.499	3080
821.596	2455
821.693	3143
821.791	2789
821.888	3136
821.985	4342
822.082	2325
822.179	2937
822.276	2175
822.373	2484
822.470	2083
822.567	2015
822.664	1876
822.761	3743
822.858	1122
822.955	2080
823.052	1407
823.149	1370
823.246	2078
823.343	1696
823.440	2109
823.536	2150
823.633	1797
823.730	2127
823.827	2616
823.923	1930
824.020	3308
824.117	2364
824.213	1861
824.310	1092
824.407	878
824.503	1688
824.600	2235
824.696	1639
824.793	2097
824.889	1533
824.986	1950
825.082	1145
825.179	2265
825.275	1875
825.371	1375
825.468	2046
825.564	636
825.660	2197
825.757	2568
825.853	1835
825.949	311
826.045	918
826.142	2044
826.238	1119
826.334	2038
826.430	463
826.526	1591
826.622	1182
826.718	1610
826.814	586
826.910	2054
827.006	461
827.102	338
827.198	2333
827.294	1775
827.390	962
827.486	2681
827.582	-200
827.678	664
827.774	2053
827.869	289
827.965	1798
828.061	1421
828.157	1581
828.252	1914
828.348	323
828.444	2281
828.539	968
828.635	603
828.731	2165
828.826	572
828.922	604
829.017	1471
829.113	1898
829.208	913
829.304	654
829.399	2475
829.495	341
829.590	2685
829.685	870
829.781	1015
829.876	551
829.971	932
830.066	959
830.162	1883
830.257	1513
830.352	211
830.447	1449
830.543	2097
830.638	47
830.733	2023
830.828	819
830.923	2149
831.018	578
831.113	279
831.208	477
831.303	1002
831.398	326
831.493	1318
831.588	1399
831.683	494
831.778	852
831.873	1383
831.967	1571
832.062	1357
832.157	789
832.252	1757
832.346	1098
832.441	1069
832.536	2065
832.631	4457
832.725	2619
832.820	999
832.914	845
833.009	413
833.104	1148
833.198	2171
833.293	697
833.387	1345
833.482	1248
833.576	838
833.670	1254
833.765	1863
833.859	661
833.954	1423
834.048	1040
834.142	1216
834.237	201
834.331	889
834.425	496
834.519	427
834.613	2007
834.708	854
834.802	1785
834.896	133
834.990	1039
835.084	1425
835.178	806
835.272	1387
835.366	1301
835.460	1500
835.554	548
835.648	514
835.742	958
835.836	1432
835.930	374
836.024	1152
836.117	1868
836.211	428
836.305	1193
836.399	1532
836.493	-495
836.586	1153
836.680	-69
836.774	915
836.867	1127
836.961	639
837.055	-160
837.148	1225
837.242	772
837.335	1019
837.429	697
837.522	603
837.616	622
837.709	1892
837.803	469
837.896	1121
837.989	1007
838.083	1361
838.176	1757
838.269	633
838.363	766
838.456	1313
838.549	1642
838.642	2015
838.735	3552
838.829	1245
838.922	-153
839.015	1371
839.108	162
839.201	1171
839.294	986
839.387	968
839.480	535
839.573	1036
839.666	828
839.759	-198
839.852	-25
839.945	706
840.038	50
840.131	1015
840.223	171
840.316	-5
840.409	40
840.502	63
840.594	2278
840.687	74
840.780	184
840.873	308
840.965	613
841.058	2240
841.150	1340
841.243	177
841.336	520
841.428	859
841.521	491
841.613	285
841.706	1149
841.798	1132
841.890	788
841.983	335
842.075	1969
842.167	1141
842.260	744
842.352	2034
842.444	974
842.537	2061
842.629	984
842.721	1549
842.813	670
842.905	681
842.997	780
843.090	1005
843.182	1431
843.274	1647
843.366	4359
843.458	5598
843.550	3759
843.642	52
843.734	371
843.826	998
843.918	1158
844.009	479
844.101	16
844.193	942
844.285	224
844.377	978
844.469	1124
844.560	930
844.652	671
844.744	378
844.835	-328
844.927	484
845.019	1186
845.110	1150
845.202	1393
845.293	230
845.385	377
845.476	636
845.568	789
845.659	1314
845.751	740
845.842	150
845.934	77
846.025	145
846.116	751
846.208	-99
846.299	482
846.390	1015
846.482	613
846.573	1673
846.664	952
846.755	551
846.846	1327
846.937	-668
847.029	-145
847.120	-31
847.211	-148
847.302	1459
847.393	-680
847.484	562
847.575	-450
847.666	304
847.757	157
847.847	680
847.938	484
848.029	512
848.120	62
848.211	-333
848.302	-104
848.392	867
848.483	407
848.574	544
848.664	368
848.755	155
848.846	313
848.936	-181
849.027	971
849.118	663
849.208	-289
849.299	2091
849.389	1754
849.480	6325
849.570	9876
849.661	20493
849.751	26780
849.841	6171
849.932	923
850.022	162
850.112	641
850.203	860
850.293	523
850.383	788
850.474	-373
850.564	485
850.654	26
850.744	467
850.834	26
850.924	716
851.014	157
851.104	241
851.194	-287
851.284	835
851.374	978
851.464	319
851.554	546
851.644	490
851.734	1096
851.824	400
851.914	661
852.004	997
852.094	-273
852.183	224
852.273	1130
852.363	-414
852.452	1290
852.542	625
852.632	-421
852.721	99
852.811	-558
852.901	1101
852.990	367
853.080	444
853.169	398
853.259	1609
853.348	678
853.438	1167
853.527	1874
853.617	3101
853.706	7452
853.795	12923
853.885	32750
853.974	57998
854.063	112110
854.152	139364
854.242	35326
854.331	5682
854.420	3723
854.509	1870
854.598	2126
854.687	1404
854.777	2236
854.866	717
854.955	2215
855.044	273
855.133	248
855.222	563
855.311	35
855.400	334
855.488	334
855.577	726
855.666	96
855.755	932
855.844	286
855.933	771
856.021	892
856.110	1551
856.199	-375
856.288	-369
856.376	1062
856.465	-291
856.554	1527
856.642	-280
856.731	187
856.819	1038
856.908	676
856.996	282
857.085	522
857.173	771
857.262	51
857.350	131
857.438	44
857.527	418
857.615	667
857.703	-259
857.792	-497
857.880	446
857.968	739
858.056	666
858.145	561
858.233	410
858.321	152
858.409	851
858.497	-787
858.585	373
858.673	823
858.761	-222
858.849	299
858.937	-74
859.025	995
859.113	730
859.201	-168
859.289	890
859.377	164
859.465	-18
859.552	607
859.640	-76
859.728	954
859.816	100
859.903	561
859.991	-438
860.079	-236
860.166	688
860.254	-269
860.342	671
860.429	-352
860.517	-404
860.604	717
860.692	326
860.779	77
860.867	728
860.954	-770
861.042	866
861.129	-369
861.216	442
861.304	-427
861.391	-219
861.478	46
861.565	587
861.653	553
861.740	-382
861.827	-900
861.914	573
862.001	383
862.089	524
862.176	440
862.263	-190
862.350	405
862.437	-306
862.524	-255
862.611	413
862.698	-26
862.785	494
862.871	791
862.958	758
863.045	-470
863.132	247
863.219	238
863.306	131
863.392	425
863.479	581
863.566	-37
863.652	1187
863.739	410
863.826	1017
863.912	352
863.999	1
864.086	398
864.172	240
864.259	-134
864.345	667
864.432	184
864.518	-127
864.604	795
864.691	52
864.777	81
864.863	825
864.950	553
865.036	969
865.122	2887
865.209	2608
865.295	2327
865.381	1798
865.467	2953
865.553	3751
865.639	3822
865.726	7997
865.812	16438
865.898	30086
865.984	42256
866.070	86021
866.156	68670
866.242	12920
866.328	3893
866.414	1658
866.499	2093
866.585	2123
866.671	1023
866.757	2491
866.843	2676
866.928	1369
867.014	1033
867.100	2088
867.186	1029
867.271	2028
867.357	1844
867.442	2571
867.528	1203
867.614	913
867.699	1424
867.785	1977
867.870	1972
867.956	2168
868.041	2239
868.127	1049
868.212	1359
868.297	1985
868.383	1402
868.468	2225
868.553	3110
868.639	3651
868.724	4824
868.809	3239
868.894	1531
868.979	1775
869.065	1379
869.150	454
869.235	1049
869.320	1825
869.405	736
869.490	876
869.575	1162
869.660	1755
869.745	1492
869.830	157
869.915	709
870.000	572
870.085	1080
870.169	1639
870.254	1162
870.339	685
870.424	660
870.509	1188
870.593	1302
870.678	1104
870.763	1167
870.847	926
870.932	1029
871.016	250
871.101	1013
871.186	1177
871.270	1595
871.355	320
871.439	1132
871.523	602
871.608	619
871.692	1512
871.777	2001
871.861	1447
871.945	916
872.030	1315
872.114	865
872.198	380
872.282	230
872.367	1351
872.451	-190
872.535	1413
872.619	562
872.703	783
872.787	1090
872.871	484
872.955	102
873.039	647
873.123	552
873.207	1602
873.291	626
873.375	830
873.459	580
873.543	753
873.627	572
873.711	1013
873.794	875
873.878	175
873.962	-87
874.045	587
874.129	308
874.137	362
874.213	903
874.245	1087
874.296	1382
874.352	572
874.380	177
874.460	783
874.464	807
874.547	724
874.568	602
874.631	226
874.676	617
874.714	956
874.784	1708
874.798	1860
874.881	1214
874.892	1134
874.965	552
874.999	786
875.048	1110
875.107	702
875.131	536
875.215	924
875.215	924
875.298	855
875.323	919
875.381	1109
875.430	1300
875.465	1448
875.538	1298
875.548	1267
875.631	867
875.646	769
875.714	387
875.753	712
875.798	1018
875.861	698
875.881	602
875.964	762
875.968	773
876.047	972
876.076	986
876.130	1061
876.183	1268
876.213	1431
876.291	1504
876.296	1489
876.379	1005
876.398	867
876.462	586
876.506	442
876.545	215
876.613	924
876.628	1114
876.711	520
876.721	675
876.794	1904
876.828	1434
876.877	667
876.935	737
876.960	775
877.043	540
877.043	542
877.125	986
877.150	1147
877.208	1393
877.258	1058
877.291	921
877.365	1311
877.374	1337
877.456	1353
877.472	1166
877.539	565
877.579	911
877.622	1140
877.687	1215
877.704	1290
877.787	1277
877.794	1257
877.869	884
877.901	875
877.952	783
878.008	836
878.034	951
878.115	399
878.117	386
878.199	950
878.222	995
878.282	1206
878.329	1377
878.364	1432
878.437	1107
878.447	1088
878.529	239
878.544	322
878.611	560
878.651	823
878.694	1274
878.758	1133
878.776	1005
878.858	833
878.865	768
878.941	166
878.972	400
879.023	858
879.078	944
879.105	1016
879.185	1501
879.187	1507
879.269	1467
879.292	1281
879.351	701
879.399	588
879.433	692
879.506	1136
879.516	1154
879.598	396
879.613	427
879.680	840
879.720	1036
879.762	1245
879.827	1003
879.844	833
879.926	296
879.933	317
880.007	1158
880.040	1260
880.089	1360
880.147	2158
880.171	2506
880.253	2929
880.254	2935
880.335	5435
880.360	5995
880.417	9557
880.467	13859
880.499	15902
880.574	17326
880.580	16650
880.662	5612
880.680	3756
880.744	2030
880.787	954
880.825	781
880.893	961
880.907	951
880.989	1226
881.000	1166
881.070	1220
881.106	1337
881.152	1214
881.213	1001
881.233	975
881.315	1126
881.319	1101
881.396	952
881.426	1154
881.478	1264
881.532	729
881.559	589
881.639	680
881.641	674
881.722	1048
881.745	848
881.803	848
881.852	1170
881.885	1179
881.958	913
881.966	918
882.047	1545
882.064	1491
882.129	1345
882.171	1605
882.210	2350
882.277	3253
882.291	3072
882.372	2469
882.383	2281
882.454	1529
882.489	1204
882.535	1128
882.596	1130
882.616	956
882.697	697
882.702	648
882.778	605
882.808	685
882.859	837
882.914	1024
882.940	1066
883.020	668
883.021	669
883.102	942
883.127	1073
883.183	1208
883.233	987
883.264	814
883.339	846
883.345	837
883.426	243
883.445	175
883.507	669
883.551	932
883.587	887
883.657	977
883.668	1045
883.749	1632
883.763	1635
883.830	756
883.869	460
883.910	686
883.975	1018
883.991	1057
884.072	856
884.081	841
884.152	1307
884.187	1771
884.233	1798
884.292	1385
884.314	1285
884.394	781
884.398	779
884.475	1018
884.504	1033
884.555	887
884.610	376
884.636	358
884.716	1068
884.716	1077
884.797	1736
884.821	1885
884.877	1553
884.927	1261
884.958	1140
885.033	671
885.038	663
885.118	699
885.139	670
885.199	705
885.244	897
885.279	1106
885.350	1393
885.359	1417
885.439	1615
885.456	1547
885.520	991
885.561	997
885.600	1149
885.667	1204
885.680	1202
885.760	1033
885.773	1043
885.840	1338
885.878	1404
885.920	1294
885.984	1117
886.000	1153
886.080	1394
886.089	1405
886.160	1426
886.195	1392
886.240	1248
886.300	1260
886.320	1402
886.400	1747
886.406	1775
886.480	2041
886.511	2088
886.560	2028
886.616	1842
886.640	1691
886.720	1484
886.722	1470
886.800	1309
886.827	1249
886.879	1394
886.932	1504
886.959	1611
887.038	1953
887.039	1956
887.119	1690
887.143	1570
887.198	1524
887.248	1547
887.278	1634
887.354	1631
887.358	1622
887.437	1629
887.459	1567
887.517	1521
887.564	1556
887.596	1497
887.669	1016
887.676	993
887.755	1016
887.774	994
887.835	743
887.880	539
887.914	861
887.985	1533
887.994	1553
888.073	1662
888.090	1690
888.153	1731
888.195	1685
888.232	1655
888.300	1681
888.311	1615
888.391	1080
888.405	980
888.470	1099
888.510	1168
888.549	1124
888.615	1021
888.628	1156
888.708	2008
888.720	2116
888.787	1715
888.825	1505
888.866	1236
888.930	832
888.945	1005
889.024	1919
889.035	2030
889.103	1556
889.140	1293
889.182	1241
889.245	1187
889.261	1266
889.340	1625
889.349	1660
889.419	1413
889.454	1308
889.498	1194
889.559	1007
889.577	1098
889.656	1508
889.664	1547
889.735	1394
889.768	1314
889.814	1495
889.873	1728
889.978	1189
890.083	2164
890.187	1645
890.292	1491
890.397	1865
890.501	1979
890.606	1255
890.710	1813
890.815	2131
890.919	1887
891.024	1959
891.128	1435
891.233	783
891.337	2036
891.442	1214
891.546	1441
891.650	1248
891.755	1769
891.859	2694
891.963	2135
892.068	1348
892.172	946
892.276	1991
892.380	1254
892.484	1142
892.589	1712
892.693	1648
892.797	1138
892.901	1199
893.005	1066
893.109	1679
893.213	2040
893.317	887
893.421	1128
893.525	1121
893.629	1783
893.733	1796
893.837	1330
893.941	1249
894.045	1825
894.148	740
894.252	1275
894.356	1546
894.460	2100
894.564	1449
894.667	1520
894.771	1457
894.875	613
894.978	867
895.082	1044
895.186	1358
895.289	2272
895.393	1992
895.496	1897
895.600	858
895.703	1089
895.807	1374
895.910	1844
896.014	1617
896.117	1457
896.221	1353
896.324	1271
896.427	869
896.531	1460
896.634	760
896.737	1686
896.840	1629
896.944	1232
897.047	1494
897.150	1098
897.253	538
897.356	1541
897.460	200
897.563	1151
897.666	1489
897.769	1559
897.872	1043
897.975	1603
898.078	860
898.181	1430
898.284	703
898.387	1369
898.490	1682
898.593	434
898.695	843
898.798	1345
898.901	1598
899.004	2123
899.107	836
899.209	1452
899.312	1531
899.415	1761
899.518	1897
899.620	991
899.723	1443
899.826	3547
899.928	2903
900.031	1505
900.133	1277
900.236	400
900.338	424
900.441	1383
900.543	669
900.646	1023
900.748	1311
900.851	743
900.953	547
901.055	1301
901.158	1245
901.260	1062
901.362	1018
901.465	2102
901.567	1229
901.669	1019
901.771	1126
901.873	1532
901.976	1053
902.078	768
902.180	1291
902.282	858
902.384	1029
902.486	1189
902.588	890
902.690	986
902.792	900
902.894	1661
902.996	257
903.098	1640
903.200	1023
903.302	642
903.404	527
903.505	1123
903.607	944
903.709	1419
903.811	1458
903.913	1443
904.014	845
904.116	715
904.218	327
904.319	1464
904.421	1094
904.523	951
904.624	610
904.726	592
904.827	-49
904.929	749
905.030	890
905.132	1305
905.233	1268
905.335	318
905.436	867
905.537	721
905.639	1064
905.740	1368
905.841	1185
905.943	1182
906.044	804
906.145	241
906.247	639
906.348	545
906.449	731
906.550	1151
906.651	1338
906.752	1418
906.854	621
906.955	518
907.056	65
907.157	1395
907.258	807
907.359	1016
907.460	-122
907.561	422
907.662	747
907.762	1365
907.863	993
907.964	313
908.065	1565
908.166	402
908.267	839
908.367	746
908.468	626
908.569	1835
908.670	519
908.770	1436
908.871	2500
908.971	1407
909.072	949
909.173	812
909.273	514
909.374	524
909.474	1124
909.575	1291
909.675	482
909.776	935
909.876	914
909.977	961
910.077	1020
910.177	894
910.278	221
910.378	333
910.478	739
910.579	819
910.679	663
910.779	1222
910.879	1054
910.980	826
911.080	444
911.180	626
911.280	646
911.380	2
911.480	1196
911.580	-371
911.680	309
911.780	2039
911.880	885
911.980	489
912.080	576
912.180	989
912.280	908
912.380	228
912.480	753
912.580	1051
912.679	36
912.779	1502
912.879	891
912.979	683
913.078	186
913.178	595
913.278	567
913.377	226
913.477	657
913.577	896
913.676	1137
913.776	779
913.875	494
913.975	1269
914.074	133
914.174	-10
914.273	280
914.373	1858
914.472	1208
914.572	72
914.671	801
914.770	323
914.870	583
914.969	615
915.068	1177
915.167	617
915.267	747
915.366	798
915.465	363
915.564	926
915.663	159
915.763	1103
915.862	598
915.961	1440
916.060	-241
916.159	428
916.258	663
916.357	310
916.456	882
916.555	1419
916.654	753
916.752	1048
916.851	1064
916.950	219
917.049	-186
917.148	1136
917.247	627
917.345	1350
917.444	497
917.543	1061
917.642	15
917.740	415
917.839	372
917.937	1098
918.036	1105
918.135	229
918.233	1171
918.332	98
918.430	-88
918.529	-25
918.627	993
918.726	788
918.824	1222
918.923	-56
919.021	532
919.119	994
919.218	-153
919.316	854
919.414	547
919.512	1362
919.611	368
919.709	818
919.807	1138
919.905	1766
920.003	188
920.102	1329
920.200	407
920.298	259
920.396	796
920.494	1395
920.592	-238
920.690	766
920.788	38
920.886	850
920.984	1552
921.082	849
921.180	1575
921.277	772
921.375	1750
921.473	1598
921.571	1364
921.669	1609
921.766	1493
921.864	2037
921.962	1689
922.060	1196
922.157	1471
922.255	2181
922.352	1828
922.450	2095
922.548	1184
922.645	1646
922.743	2798
922.840	3884
922.938	3598
923.035	4410
923.133	3903
923.230	5115
923.327	4940
923.425	4378
923.522	4326
923.619	4457
923.717	3641
923.814	3515
923.911	3570
924.008	4733
924.106	3663
924.203	3123
924.300	3475
924.397	3398
924.494	4695
924.591	4112
924.688	3732
924.786	3720
924.883	4054
924.979	3898
925.077	4045
925.173	3712
925.270	3478
925.367	3567
925.464	3593
925.561	4505
925.658	4114
925.755	4193
925.852	4806
925.948	4009
926.045	3942
926.142	4586
926.239	3635
926.335	3117
926.432	3095
926.529	4343
926.625	3611
926.722	3181
926.818	3429
926.915	3827
927.011	3571
927.108	3594
927.204	3202
927.301	3166
927.397	3521
927.494	3576
927.590	2630
927.687	3055
927.783	3958
927.879	3414
927.976	3238
928.072	3081
928.168	3446
928.264	2662
928.361	3445
928.457	4369
928.553	2416
928.649	3794
928.745	3357
928.841	2948
928.937	3423
929.033	3616
929.129	3651
929.225	3465
929.321	3312
929.417	3067
929.513	2786
929.609	3286
929.705	2281
929.801	3804
929.897	2469
929.993	2454
930.089	2692
930.184	2079
930.280	3503
930.376	4138
930.471	2303
930.567	2463
930.663	2845
930.758	1667
930.854	2635
930.950	3224
931.045	2614
931.141	3319
931.236	3314
931.332	3178
931.427	2299
931.523	2576
931.618	3092
931.714	1086
931.809	2743
931.905	3060
932.000	1916
932.095	2071
932.191	3159
932.286	3006
932.381	1888
932.476	2608
932.572	2189
932.667	3006
932.762	2454
932.857	2358
932.952	2601
933.047	1785
933.142	2734
933.237	2078
933.332	2495
933.427	2838
933.522	2031
933.617	2066
933.712	3433
933.807	3543
933.902	2892
933.997	2790
934.092	2431
934.187	2596
934.282	2722
934.376	2666
934.471	2962
934.566	1937
934.661	2200
934.755	2424
934.850	2469
934.945	2439
935.039	2432
935.134	1767
935.228	2841
935.323	3561
935.417	2143
935.512	1692
935.606	1200
935.701	3163
935.795	1668
935.890	1508
935.984	1757
936.079	2021
936.173	2237
936.267	1726
936.362	2073
936.456	2813
936.550	3127
936.644	2261
936.738	1613
936.833	1472
936.927	1725
937.021	1813
937.115	1949
937.209	1816
937.303	2589
937.397	1891
937.491	1503
937.585	3043
937.679	1646
937.773	1940
937.867	997
937.961	2260
938.055	2237
938.149	3223
938.243	896
938.337	1453
938.430	1595
938.524	2772
938.618	1434
938.712	1660
938.805	2263
938.899	3431
938.993	1873
939.086	1356
939.180	462
939.274	1305
939.367	2641
939.461	2164
939.554	1540
939.648	1726
939.741	1772
939.835	1479
939.928	1433
940.022	2086
940.115	1660
940.208	2426
940.302	3027
940.395	2928
940.488	1503
940.582	2216
940.675	1394
940.768	2057
940.861	1306
940.954	2823
941.048	1446
941.141	1565
941.234	2418
941.327	2716
941.420	4166
941.513	2152
941.606	988
941.699	2273
941.792	2479
941.885	2075
941.978	2250
942.071	1618
942.164	654
942.257	1143
942.349	1824
942.442	1958
942.535	1880
942.628	1575
942.721	1943
942.813	1894
942.906	2607
942.999	1705
943.091	1294
943.184	1283
943.277	1408
943.369	1984
943.462	1388
943.554	1746
943.647	1045
943.739	2537
943.832	1558
943.924	1141
944.017	1362
944.109	-89
944.201	1238
944.294	1741
944.386	1595
944.478	520
944.571	1540
944.663	1103
944.755	1392
944.847	1214
944.940	1365
945.032	-210
945.124	549
945.216	2180
945.308	820
945.400	1332
945.492	1228
945.584	1880
945.676	1338
945.768	1243
945.860	1579
945.952	1070
946.044	832
946.136	651
946.228	1476
946.320	917
946.412	1391
946.503	1414
946.595	1632
946.687	706
946.779	431
946.870	1134
946.962	267
947.054	1254
947.145	2306
947.237	1071
947.329	1367
947.420	791
947.512	695
947.603	162
947.695	1665
947.786	621
947.878	1354
947.969	1460
948.061	1414
948.152	1828
948.243	-133
948.335	1081
948.426	181
948.517	1578
948.609	1136
948.700	1069
948.791	1688
948.882	1170
948.973	242
949.065	1575
949.156	1409
949.247	1152
949.338	436
949.429	-399
949.520	159
949.611	895
949.702	1747
949.793	1366
949.884	783
949.975	115
950.066	60
950.157	256
950.247	470
950.338	515
950.429	352
950.520	1243
950.611	590
950.701	882
950.792	439
950.883	1140
950.973	754
951.064	1077
951.155	1214
951.245	1332
951.336	966
951.427	1006
951.517	1886
951.608	773
951.698	407
951.788	935
951.879	557
951.969	794
952.060	797
952.150	557
952.240	1054
952.331	-717
952.421	2273
952.511	707
952.602	980
952.692	-202
952.782	937
952.872	760
952.962	489
953.052	1040
953.143	997
953.233	950
953.323	980
953.413	1042
953.503	781
953.593	599
953.683	762
953.773	-723
953.863	-257
953.953	853
954.042	231
954.132	1248
954.222	1457
954.312	556
954.402	1173
954.492	973
954.581	2362
954.671	941
954.761	13
954.850	610
954.940	-108
955.030	193
955.119	996
955.209	889
955.298	-213
955.388	1173
955.477	1622
955.567	189
955.656	823
955.746	744
955.835	901
955.925	-401
956.014	1653
956.103	-31
956.193	753
956.282	533
956.371	778
956.461	806
956.550	-609
956.639	520
956.728	217
956.817	648
956.906	58
956.995	1760
957.085	687
957.174	887
957.263	-499
957.352	-189
957.441	680
957.530	526
957.619	283
957.708	156
957.796	17
957.885	254
957.974	92
958.063	642
958.152	-815
958.241	260
958.329	304
958.418	629
958.507	-349
958.596	636
958.684	-254
958.773	613
958.861	-331
958.950	563
959.039	10
959.127	79
959.216	630
959.304	266
959.393	-320
959.481	615
959.570	-261
959.658	-84
959.746	704
959.835	1923
959.923	1255
960.011	-307
960.100	436
960.188	-248
960.276	-169
960.365	386
960.453	174
960.541	-396
960.629	872
960.717	-370
960.805	-136
960.893	125
960.981	-260
961.069	1252
961.158	722
961.245	1056
961.333	-184
961.421	189
961.509	118
961.597	-2
961.685	6
961.773	466
961.861	-666
961.949	929
962.036	-298
962.124	159
962.212	-435
962.299	-626
962.387	-903
962.475	389
962.562	121
962.650	346
962.738	-299
962.825	-323
962.913	-49
963.000	-294
963.088	104
963.175	874
963.263	267
963.350	481
963.438	133
963.525	1526
963.612	1998
963.700	6290
963.787	6891
963.874	1797
963.962	-277
964.049	-193
964.136	-345
964.223	-338
964.310	-507
964.398	-340
964.485	420
964.572	887
964.659	1183
964.746	614
964.833	620
964.920	287
965.007	-336
965.094	953
965.181	394
965.268	21
965.355	-148
965.441	441
965.528	-1016
965.615	531
965.702	-464
965.789	-39
965.875	-152
965.962	414
966.049	-103
966.136	457
966.222	211
966.309	473
966.395	-261
966.482	200
966.569	-610
966.655	-48
966.742	-284
966.828	-570
966.915	103
967.001	-303
967.087	-388
967.174	-345
967.260	748
967.347	1421
967.433	4216
967.519	4215
967.605	860
967.692	-31
967.778	-206
967.864	-236
967.950	-1077
968.036	-207
968.123	-504
968.209	208
968.295	-1007
968.381	1309
968.467	440
968.553	-735
968.639	705
968.725	962
968.811	1532
968.897	201
968.983	-313
969.069	-988
969.154	398
969.240	567
969.326	-1606
969.412	-137
969.497	-336
969.583	-683
969.669	816
969.755	388
969.840	-295
969.926	927
970.012	37
970.097	1933
970.183	741
970.268	563
970.354	1477
970.439	2398
970.525	2821
970.610	470
970.696	498
970.781	-150
970.866	-870
970.952	272
971.037	-1136
971.122	-452
971.208	-317
971.293	43
971.378	-964
971.463	115
971.549	-268
971.634	188
971.719	287
971.804	-375
971.889	728
971.974	-1034
972.059	-1117
972.144	48
972.229	-523
972.314	3
972.399	95
972.484	37
972.569	495
972.654	-119
972.739	2193
972.824	334
972.908	313
972.993	78
973.078	70
973.163	-511
973.247	111
973.332	-1292
973.417	1290
973.501	-1418
973.586	185
973.671	395
973.755	-203
973.840	1165
973.924	1227
974.009	418
974.093	-1078
974.178	1628
974.262	1180
974.346	216
974.431	-561
974.515	10
974.600	-663
974.684	-691
974.768	-563
974.852	617
974.937	-1571
975.021	590
975.105	-324
975.189	-498
975.273	-146
975.358	-1097
975.442	-740
975.526	469
975.610	-1044
975.694	-1400
975.778	663
975.862	-575
975.946	-2590
976.030	1303
976.114	-939
976.198	-414
976.281	-174
976.365	74
976.449	-1334
976.533	-60
976.617	-484
976.700	56
976.784	-223
976.868	633
976.951	20
977.035	-433
977.119	207
977.202	-347
977.286	-31
977.369	-243
977.453	42
977.536	-652
977.620	-507
977.703	303
977.787	-281
977.870	614
977.953	829
978.037	-322
978.120	822
978.203	-165
978.287	1017
978.370	-158
978.453	-23
978.536	284
978.620	1744
978.703	615
978.786	-1069
978.869	-1558
978.952	-1717
979.035	465
979.118	-125
979.201	-762
979.284	244
979.367	-147
979.450	-195
979.533	-231
979.616	-944
979.699	-1871
979.782	-181
979.865	-89
979.948	-531
980.030	-380
980.113	74
980.196	-446
980.279	-11
980.361	-595
980.444	-49
980.526	240
980.609	320
980.692	-108
980.774	115
980.857	-1658
980.939	-646
981.022	-761
981.104	-560
981.187	-668
981.269	-652
981.352	-349
981.434	-1110
981.516	-876
981.599	1107
981.681	435
981.763	-459
981.846	-23
981.928	-106
982.010	-169
982.092	-1112
982.174	729
982.256	-630
982.339	-661
982.421	-896
982.503	-425
982.585	-1212
982.667	-510
982.749	-253
982.831	82
982.913	-509
982.995	846
983.077	-318
983.158	1371
983.240	-1101
983.322	68
983.404	601
983.486	143
983.568	358
983.649	-298
983.731	-26
983.813	-126
983.894	-770
983.976	1
984.058	-58
984.139	31
984.221	-754
984.302	521
984.384	-748
984.465	-672
984.547	169
984.628	-538
984.710	298
984.791	-193
984.872	-787
984.954	-1078
985.035	-20
985.116	-268
985.198	-1019
985.279	1354
985.360	-1187
985.441	-1195
985.522	-120
985.604	-206
985.685	-1911
985.766	1117
985.847	523
985.928	-263
986.009	62
986.090	-141
986.171	316
986.252	-770
986.333	-201
986.414	-540
986.495	1029
986.576	124
986.656	362
986.737	-454
986.818	2
986.899	-405
986.980	-372
987.060	150
987.141	-840
987.222	458
987.302	-261
987.383	1491
987.464	-933
987.544	-123
987.625	-132
987.705	186
987.786	308
987.866	-268
987.947	-68
988.027	40
988.108	225
988.188	100
988.268	-286
988.349	157
988.429	-475
988.509	-335
988.589	565
988.670	-1597
988.750	859
988.830	98
988.910	-58
988.990	-630
989.070	-802
989.151	-143
989.231	-938
989.311	-78
989.391	-296
989.471	-619
989.551	-282
989.631	-146
989.711	649
989.791	-520
989.870	-400
989.950	960
990.030	-677
990.110	-744
990.190	-568
990.269	-1117
990.349	235
990.429	-120
990.509	-287
990.588	-709
990.668	-858
990.747	-865
990.827	-623
990.907	-109
990.986	-403
991.066	-1032
991.145	-746
991.225	13
991.304	-1255
991.383	148
991.463	-493
991.542	300
991.622	-693
991.701	-385
991.780	-456
991.859	-414
991.939	-213
992.018	-310
992.097	-212
992.176	800
992.256	-395
992.335	-642
992.414	-689
992.493	-622
992.572	-983
992.651	667
992.730	199
992.809	-825
992.888	-2192
992.967	-858
993.046	-598
993.125	-1244
993.203	-555
993.282	-347
993.361	-648
993.440	-398
993.519	-1733
993.597	-25
993.676	-1803
993.755	114
993.834	-617
993.912	-857
993.991	928
994.069	-422
994.148	-710
994.226	-593
994.305	-346
994.384	-728
994.462	248
994.540	-1522
994.619	-860
994.697	-681
994.776	-970
994.854	156
994.932	-1000
995.011	-423
995.089	-1709
995.167	-1119
995.245	-615
995.324	-1067
995.402	0
995.480	-591
995.558	121
995.636	-1160
995.714	-1595
995.792	-293
995.870	-1912
995.948	-97
996.026	-885
996.104	-1116
996.182	-506
996.260	-1576
996.338	-1033
996.416	-847
996.494	-425
996.572	350
996.649	-1294
996.727	-1287
996.805	-728
996.883	-859
996.960	-853
997.038	-692
997.116	-446
997.193	-1556
997.271	-1787
997.348	-1236
997.426	-997
997.504	-690
997.581	-621
997.658	-886
997.736	-1721
997.813	-1308
997.891	-138
997.968	-1081
998.046	-50
998.123	-1335
998.200	-1062
998.277	-1509
998.355	-74
998.432	-1944
998.509	-1405
998.586	-681
998.663	-1439
998.741	-966
998.818	-1194
998.895	-525
998.972	-438
999.049	-926
999.126	-2058
999.203	-743
999.280	-1364
999.357	-1481
999.434	-1688
999.511	-1441
999.587	-303
999.664	-1646
999.741	-487
999.818	-391
999.895	-1008
999.971	-1831
1000.048	-1850
1000.125	-324
1000.202	-1211
1000.278	-1119
1000.355	-1286
1000.431	-1275
1000.508	-2096
1000.584	-804
1000.661	-397
1000.738	-1752
1000.814	-2118
1000.890	-365
1000.967	-1415
1001.043	-641
1001.120	-1728
1001.196	-1305
1001.272	-1789
1001.349	-648
1001.425	-847
1001.501	-1096
1001.577	-1693
1001.654	-1170
1001.730	-1452
1001.806	-1488
1001.882	-1887
1001.958	-529
1002.034	-1171
1002.110	-1094
1002.186	-1096
1002.262	-1412
1002.338	-1349
1002.414	-266
1002.490	-843
1002.566	-1220
1002.642	-1558
1002.718	-631
1002.794	-434
1002.870	-918
1002.945	-1279
1003.021	-1264
1003.097	-1089
1003.173	-209
1003.248	-1790
1003.324	-855
1003.400	-947
1003.475	-1337
1003.551	-970
1003.626	-1623
1003.702	-1496
1003.777	-1331
1003.853	-1578
1003.928	-1333
1004.004	-646
1004.079	-806
1004.155	-1078
1004.230	-1569
1004.305	-747
1004.381	-990
1004.456	-1843
1004.531	-1578
1004.607	-975
1004.682	-1716
1004.757	-1172
1004.832	-1682
1004.907	-1377
1004.982	-1214
1005.057	-1307
1005.133	-1643
1005.208	-1176
1005.283	-1362
1005.358	-1178
1005.433	-1691
1005.508	-828
1005.583	-1713
1005.657	-1088
1005.732	-836
1005.807	-1216
1005.882	-1151
1005.957	-1812
1006.032	-1340
1006.106	-785
1006.181	-1495
1006.256	-682
1006.331	-2247
1006.405	-1683
1006.480	-1317
1006.554	-1894
1006.629	-1056
1006.704	-1986
1006.778	-1114
1006.853	-1313
1006.927	-1595
1007.002	-1990
1007.076	-1193
1007.150	-765
1007.225	-295
1007.299	-1102
1007.373	-1846
1007.448	-1216
1007.522	-1355
1007.596	-909
1007.671	-1098
1007.745	-1247
1007.819	-2237
1007.893	-1155
1007.967	-1490
1008.041	-2575
1008.115	-351
1008.190	-1468
1008.264	-1073
1008.338	-1990
1008.412	-1778
1008.486	-1112
1008.560	-1185
1008.633	-1557
1008.707	-1748
1008.781	-1521
1008.855	-1339
1008.929	-1344
1009.003	-1961
1009.076	-2064
1009.150	-1747
1009.224	-1654
1009.298	-1666
1009.371	-1993
1009.445	-2172
1009.519	-1924
1009.592	-2393
1009.666	-1847
1009.739	-1760
1009.813	-2643
1009.886	-226
1009.960	-2492
1010.033	-1430
1010.107	-1752
1010.180	-2231
1010.253	-1392
1010.327	-1646
1010.400	-1607
1010.473	-2304
1010.547	799
1010.620	-1898
1010.693	-1352
1010.766	-1303
1010.840	-670
1010.913	-1864
1010.986	-1455
1011.059	-1590
1011.132	-1191
1011.205	-704
1011.278	-2070
1011.351	-1618
1011.424	-1373
1011.497	-2111
1011.570	-1449
1011.643	-1427
1011.716	-1153
1011.789	-1311
1011.862	-1249
1011.934	-1198
1012.007	-2137
1012.080	-1622
1012.153	-1784
1012.225	-1313
1012.298	-2017
1012.371	-1706
1012.443	-1127
1012.516	-1956
1012.588	-1015
1012.661	-1044
1012.733	-1786
1012.806	-743
1012.879	-2333
1012.951	-1199
1013.023	-1070
1013.096	-709
1013.168	-2426
1013.241	-480
1013.313	-1687
1013.385	-1382
1013.458	-2117
1013.530	-687
1013.602	-2595
1013.674	-1035
1013.746	-2195
1013.819	-1920
1013.891	-1092
1013.963	-1878
1014.035	-1613
1014.107	-815
1014.179	-1270
1014.251	-1793
1014.323	-805
1014.395	-2094
1014.467	-874
1014.539	-1609
1014.611	-2062
1014.683	-1424
1014.754	-1612
1014.826	-1906
1014.898	-865
1014.970	-2856
1015.042	-974
1015.113	-1752
1015.185	-2204
1015.257	-2196
1015.328	-1463
1015.400	-2611
1015.471	-1714
1015.543	-2807
1015.615	-1464
1015.686	-2071
1015.757	-1585
1015.829	-1186
1015.901	-1871
1015.972	-1864
1016.043	-2306
1016.115	-2108
1016.186	-2241
1016.257	-1666
1016.328	-1594
1016.400	-906
1016.471	-1848
1016.542	-1460
1016.613	-1661
1016.685	-1351
1016.756	-979
1016.827	-1690
1016.898	-2368
1016.969	-1485
1017.040	-1589
1017.111	-1964
1017.182	-2288
1017.253	-1383
1017.324	-2345
1017.395	-1332
1017.466	-1973
1017.537	-2363
1017.608	-1769
1017.678	-1591
1017.749	-2038
1017.820	-1586
1017.891	-1257
1017.961	-2003
1018.032	-2437
1018.103	-1954
1018.173	-1318
1018.244	-1991
1018.315	-2116
1018.385	-1239
1018.456	-2428
1018.526	-1622
1018.597	-1788
1018.667	-1494
1018.738	-2162
1018.808	-2388
1018.878	-2098
1018.949	-1930
1019.019	-1801
1019.089	-1526
1019.160	-2010
1019.230	-1718
1019.300	-2026
1019.371	-2833
1019.441	-1807
1019.511	-1349
1019.581	-1784
1019.651	-2209
1019.721	-1340
1019.791	-1820
1019.861	-2379
1019.931	-1209
1020.001	-1822
1020.071	-1338
1020.141	-1932
1020.211	-2224
1020.281	-1795
1020.351	-2152
1020.421	-1943
1020.491	-1216
1020.560	-1774
1020.630	-1630
1020.700	-1481
1020.770	-2419
1020.839	-2155
1020.909	-2511
1020.979	-2080
1021.048	-2225
1021.118	-2348
1021.187	-1610
1021.257	-1734
1021.326	-1426
1021.396	-2033
1021.465	-2219
1021.535	-2087
1021.604	-2237
1021.674	-1526
1021.743	-1998
1021.812	-1640
1021.882	-1724
1021.951	-2276
1022.020	-1553
1022.089	-1361
1022.159	-1947
1022.228	-1758
1022.297	-2391
1022.366	-2118
1022.435	-2176
1022.504	-1988
1022.573	-2054
1022.642	-1902
1022.711	-1698
1022.781	-1950
1022.849	-1278
1022.918	-2426
1022.987	-1463
1023.056	-1820
1023.125	-1682
1023.194	-2160
1023.263	-1539
1023.331	-1832
1023.400	-2072
1023.469	-2289
1023.538	-1889
1023.606	-2592
1023.675	-1259
1023.744	-2090
1023.812	-1818
1023.881	-2448
1023.949	-1714
1024.018	-2256
1024.086	-2512
1024.155	-2189
1024.223	-1786
1024.292	-1189
1024.360	-1004
1024.429	-1541
1024.497	-2197
1024.565	-2619
1024.634	-2302
1024.702	-2216
1024.770	-2305
1024.838	-2247
1024.907	-2298
1024.975	-1715
1025.043	-2263
1025.111	-2267
1025.179	-878
1025.247	-1524
1025.315	-2560
1025.383	-2018
1025.451	-2286
1025.519	-2291
1025.587	-2346
1025.655	-2118
1025.723	-1462
1025.791	-1886
1025.859	-2145
1025.927	-1898
1025.995	-2162
1026.062	-1968
1026.130	-2031
1026.198	-2204
1026.266	-2554
1026.333	-1784
1026.401	-1896
1026.469	-2441
1026.536	-1728
1026.604	-2132
1026.671	-2223
1026.739	-2018
1026.806	-2457
1026.874	-2467
1026.941	-1830
1027.009	-2184
1027.076	-2074
1027.144	-1711
1027.211	-2461
1027.278	-2761
1027.345	-1439
1027.413	-2057
1027.480	-2774
1027.547	-1864
1027.614	-2071
1027.682	-1709
1027.749	-1132
1027.816	-2284
1027.883	-2300
1027.950	-2202
1028.017	-2518
1028.084	-1083
1028.151	-2382
1028.218	-2845
1028.285	-1721
1028.352	-2865
1028.419	-2884
1028.486	-2146
1028.553	-1921
1028.619	-2112
1028.686	-1783
1028.753	-2486
1028.820	-2652
1028.886	-2461
1028.953	-2339
1029.020	-2074
1029.086	-2132
1029.153	-2180
1029.220	-2312
1029.286	-1668
1029.353	-2957
1029.419	-2429
1029.486	-2464
1029.552	-2370
1029.619	-2324
1029.685	-2332
1029.751	-2356
1029.818	-1470
1029.884	-2039
1029.951	-1864
1030.017	-2212
1030.083	-1531
1030.149	-2901
1030.216	-2144
1030.282	-2026
1030.348	-2427
1030.414	-1653
1030.480	-2847
1030.546	-2467
1030.612	-1678
1030.678	-2438
1030.744	-2599
1030.810	-2337
1030.876	-1930
1030.942	-2446
1031.008	-2960
1031.074	-2413
1031.140	-1475
1031.206	-1708
1031.272	-2771
1031.337	-2909
1031.403	-1305
1031.469	-2380
1031.534	-1997
1031.600	-1245
1031.666	-2279
1031.731	-2785
1031.797	-2399
1031.863	-2245
1031.928	-2304
1031.994	-2658
1032.059	-2472
1032.125	-1695
1032.190	-1917
1032.256	-2915
1032.321	-3449
1032.386	-1909
1032.452	-2066
1032.517	-1655
1032.582	-3038
1032.647	-2476
1032.713	-2923
1032.778	-2716
1032.843	-2768
1032.908	-1995
1032.974	-1763
1033.039	-2158
1033.104	-2120
1033.169	-2220
1033.234	-2169
1033.299	-1844
1033.364	-1682
1033.429	-1113
1033.494	-1564
1033.559	-2713
1033.624	-2352
1033.688	-2391
1033.753	-2601
1033.818	-1782
1033.883	-1786
1033.948	-2522
1034.013	-1820
1034.077	-1890
1034.142	-1605
1034.207	-388
1034.271	307
1034.336	818
1034.400	30
1034.465	-120
1034.530	-262
1034.594	-1871
1034.658	-2316
1034.723	-2816
1034.787	-1913
1034.852	-2424
1034.916	-2673
1034.981	-2229
1035.045	-1514
1035.109	-1939
1035.173	-1355
1035.238	-2830
1035.302	-1702
1035.366	-1763
1035.430	-1795
1035.495	-3532
1035.559	-2032
1035.623	-2898
1035.687	-2520
1035.751	-2123
1035.815	-2193
1035.879	-1905
1035.943	-2045
1036.007	-2259
1036.071	-2267
1036.135	-2336
1036.198	-2411
1036.262	-1678
1036.326	-1436
1036.390	-1844
1036.454	-2217
1036.517	-1686
1036.581	-1523
1036.645	-820
1036.709	-1590
1036.772	-1864
1036.836	-2258
1036.900	-2500
1036.963	-1886
1037.026	-1947
1037.090	-2347
1037.154	-1637
1037.217	-1508
1037.280	-2987
1037.344	-3465
1037.407	-2996
1037.471	-1469
1037.534	-2531
1037.597	-2765
1037.661	-1983
1037.724	-1945
1037.787	-2265
1037.850	-2002
1037.913	-1966
1037.977	-1854
1038.040	-2401
1038.103	-2165
1038.166	-1813
1038.229	-2109
1038.292	-2322
1038.355	-2061
1038.418	-2793
1038.481	-1272
1038.544	-1819
1038.607	-1798
1038.670	-2158
1038.732	-1795
1038.795	-2394
1038.858	-2803
1038.921	-1576
1038.984	-2062
1039.046	-1320
1039.109	-3143
1039.172	-1906
1039.234	-2294
1039.297	-2091
1039.360	-1894
1039.422	-2807
1039.485	-1448
1039.547	-2073
1039.610	-2273
1039.672	-3089
1039.734	-2563
1039.797	-1378
1039.859	-1467
1039.922	-1962
1039.984	-2348
1040.046	-3482
1040.109	-1907
1040.171	-2844
1040.233	-1980
1040.295	-2427
1040.358	-3047
1040.420	-2815
1040.482	-2524
1040.544	-1874
1040.606	-2135
1040.668	-2686
1040.730	-2347
1040.792	-2697
1040.854	-2148
1040.916	-1935
1040.978	-2511
1041.040	-1871
1041.102	-2161
1041.164	-1991
1041.225	-1757
1041.287	-2567
1041.349	-2497
1041.411	-1703
1041.472	-2278
1041.534	-2698
1041.596	-2635
1041.657	-1948
1041.719	-2054
1041.781	-1583
1041.842	-2184
1041.904	-1859
1041.965	-1659
1042.027	-1890
1042.088	-2100
1042.150	-1690
1042.211	-1751
1042.272	-2156
1042.334	-1495
1042.395	-1937
1042.456	-2395
1042.518	-2552
1042.579	-2309
1042.640	-1882
1042.701	-1769
1042.763	-2028
1042.824	-2034
1042.885	-1975
1042.946	-2105
1043.007	-1886
1043.068	-2779
1043.129	-1842
1043.190	-2431
1043.251	-1753
1043.312	-1813
1043.373	-2030
1043.434	-2142
1043.495	-2139
1043.556	-1516
1043.616	-2464
1043.677	-2684
1043.738	-2322
1043.799	-2108
1043.859	-1969
1043.920	-2963
1043.981	-1925
1044.041	-2194
1044.102	-2951
1044.162	-2169
1044.223	-3034
1044.284	-1788
1044.344	-2164
1044.405	-2453
1044.465	-2137
1044.525	-1692
1044.586	-1872
1044.646	-2032
1044.707	-1709
1044.767	-1718
1044.827	-2172
1044.887	-1849
1044.948	-494
1045.008	-2046
1045.068	-1756
1045.128	-2055
1045.188	-933
1045.249	-1560
1045.309	-1155
1045.369	-950
1045.429	-1704
1045.489	-2949
1045.549	-1464
1045.609	-1734
1045.669	-2445
1045.729	-2622
1045.789	-1505
1045.848	-1997
1045.908	-1977
1045.968	-1728
1046.028	-1451
1046.088	-1593
1046.147	-1770
1046.207	-1479
1046.267	-1386
1046.326	-2039
1046.386	-2167
1046.446	-1146
1046.505	-1265
1046.565	-523
1046.624	-1234
1046.684	-988
1046.743	-1500
1046.803	203
1046.862	-292
1046.922	0
