'Start Wavelength	183.907
'End Wavelength	1046.922
'Gate Delay	5.000
'Gate Width (ms)	1.050
'Laser Output Level	0.000
'X Position	0.000
'Y Position	0.000
'Z Position	0.000
'Grid Point Number	1.000
'Shot Number	100.000
183.907	293.000
183.977	-225.000
184.047	-331
184.116	752
184.186	-858
184.256	311
184.325	165
184.395	243
184.465	466
184.534	502
184.604	-569
184.674	-508
184.743	-773
184.813	192
184.883	251
184.952	37
185.022	-213
185.092	329
185.161	-354
185.231	-210
185.301	-670
185.370	905
185.440	-316
185.509	286
185.579	-26
185.649	-88
185.718	-230
185.788	413
185.857	-1038
185.927	-46
185.996	-670
186.066	-32
186.136	-595
186.205	771
186.275	142
186.344	128
186.414	-356
186.483	-157
186.553	562
186.622	415
186.692	-640
186.761	-48
186.831	-180
186.900	-1010
186.970	-143
187.039	633
187.109	288
187.178	-11
187.248	-401
187.317	810
187.387	-117
187.456	-143
187.526	-46
187.595	759
187.664	-714
187.734	180
187.803	-7
187.873	168
187.942	-416
188.012	350
188.081	41
188.150	-36
188.220	-800
188.289	-201
188.358	-158
188.428	1071
188.497	-1058
188.567	-102
188.636	-259
188.705	-233
188.775	-513
188.844	-841
188.913	1143
188.983	495
189.052	-51
189.121	219
189.191	-806
189.260	347
189.329	-39
189.399	-89
189.468	43
189.537	-100
189.606	-714
189.676	393
189.745	681
189.814	133
189.883	-433
189.953	252
190.022	-98
190.091	719
190.161	-515
190.230	-6
190.299	-1090
190.368	417
190.437	-411
190.507	-597
190.576	323
190.645	-33
190.714	-794
190.783	-13
190.853	-395
190.922	96
190.991	-97
191.060	-166
191.129	-778
191.198	-111
191.268	-666
191.337	300
191.406	149
191.475	-58
191.544	-354
191.613	57
191.682	-466
191.752	107
191.821	-388
191.890	739
191.959	546
192.028	-52
192.097	151
192.166	547
192.235	-1428
192.304	71
192.373	-589
192.442	533
192.511	-1125
192.580	-216
192.650	-95
192.719	55
192.788	-437
192.857	275
192.926	-719
192.995	57
193.064	347
193.133	-407
193.202	275
193.271	716
193.340	572
193.409	584
193.478	-494
193.547	-61
193.615	-395
193.684	440
193.753	-75
193.822	1385
193.891	-581
193.960	252
194.029	1
194.098	346
194.167	-827
194.236	437
194.305	-230
194.374	643
194.443	-229
194.512	275
194.580	-401
194.649	383
194.718	-499
194.787	92
194.856	-844
194.925	500
194.994	-825
195.062	26
195.131	132
195.200	899
195.269	-101
195.338	267
195.407	-746
195.475	366
195.544	481
195.613	-260
195.682	442
195.751	553
195.819	107
195.888	-321
195.957	897
196.026	-452
196.094	-435
196.163	199
196.232	-551
196.301	-130
196.369	12
196.438	256
196.507	-1148
196.576	-337
196.644	29
196.713	-681
196.782	-542
196.850	-122
196.919	-36
196.988	528
197.056	-669
197.125	-551
197.194	-339
197.262	339
197.331	172
197.400	558
197.468	-265
197.537	-176
197.606	-203
197.674	711
197.743	752
197.812	-586
197.880	258
197.949	368
198.017	-67
198.086	176
198.155	-132
198.223	374
198.292	18
198.360	620
198.429	-18
198.497	-545
198.566	136
198.635	1024
198.703	148
198.772	271
198.840	-34
198.909	72
198.977	-17
199.046	827
199.114	302
199.183	-73
199.251	49
199.320	242
199.388	-238
199.457	-331
199.525	-206
199.594	-143
199.662	859
199.731	540
199.799	-373
199.867	-319
199.936	-489
200.004	156
200.073	-499
200.141	-311
200.210	-334
200.278	-522
200.346	-137
200.415	475
200.483	-579
200.552	736
200.620	-275
200.688	345
200.757	-835
200.825	-285
200.893	-790
200.962	113
201.030	-573
201.098	-64
201.167	-77
201.235	-143
201.303	-309
201.372	563
201.440	-458
201.508	254
201.577	63
201.645	67
201.713	211
201.781	116
201.850	-465
201.918	-4
201.986	-54
202.055	996
202.123	-535
202.191	347
202.259	110
202.327	139
202.396	-708
202.464	263
202.532	67
202.600	-545
202.669	-61
202.737	429
202.805	48
202.873	53
202.941	-122
203.009	-116
203.078	-425
203.146	976
203.214	-1098
203.282	180
203.350	763
203.418	-358
203.487	711
203.555	146
203.623	-138
203.691	372
203.759	-105
203.827	277
203.895	-664
203.963	204
204.031	-491
204.099	-368
204.168	-469
204.236	181
204.304	-16
204.372	265
204.440	-300
204.508	215
204.576	-953
204.644	-109
204.712	-391
204.780	206
204.848	-302
204.916	-147
204.984	-70
205.052	308
205.120	697
205.188	530
205.256	26
205.324	202
205.392	-313
205.460	666
205.528	-439
205.596	1429
205.664	148
205.732	-71
205.799	215
205.867	1077
205.935	154
206.003	582
206.071	121
206.139	228
206.207	-573
206.275	784
206.343	370
206.411	5
206.478	71
206.546	47
206.614	99
206.682	765
206.750	-9
206.818	594
206.885	388
206.953	81
207.021	770
207.089	225
207.157	-1121
207.225	-343
207.292	297
207.360	94
207.428	404
207.496	458
207.563	599
207.631	-29
207.699	-942
207.767	132
207.834	-347
207.902	377
207.970	34
208.038	74
208.105	743
208.173	1047
208.241	89
208.309	794
208.376	16
208.444	1187
208.512	857
208.579	-490
208.647	-37
208.715	1556
208.782	-429
208.850	286
208.918	-286
208.985	292
209.053	474
209.120	138
209.188	-1327
209.256	450
209.323	-813
209.391	94
209.459	1115
209.526	-52
209.594	-23
209.661	398
209.729	436
209.796	476
209.864	296
209.932	-245
209.999	302
210.067	601
210.134	-409
210.202	940
210.269	322
210.337	546
210.404	113
210.472	240
210.539	-281
210.607	467
210.674	-222
210.742	-403
210.809	254
210.877	672
210.944	322
211.012	-264
211.079	922
211.146	-104
211.214	9
211.281	424
211.349	241
211.416	748
211.484	189
211.551	154
211.618	345
211.686	823
211.753	-736
211.821	762
211.888	-4
211.955	409
212.023	702
212.090	531
212.157	-359
212.225	715
212.292	1256
212.359	2143
212.427	2060
212.494	1679
212.561	1051
212.629	1191
212.696	142
212.763	919
212.831	-148
212.898	1128
212.965	-512
213.032	632
213.100	-96
213.167	255
213.234	1233
213.301	1226
213.369	-154
213.436	-138
213.503	-177
213.570	576
213.638	59
213.705	156
213.772	-644
213.839	97
213.906	828
213.973	770
214.041	159
214.108	1148
214.175	366
214.242	163
214.309	278
214.376	133
214.444	-212
214.511	863
214.578	609
214.645	492
214.712	344
214.779	547
214.846	-212
214.913	346
214.980	472
215.048	185
215.115	618
215.182	954
215.249	495
215.316	267
215.383	729
215.450	453
215.517	839
215.584	1269
215.651	43
215.718	755
215.785	555
215.852	308
215.919	836
215.986	598
216.053	487
216.120	163
216.187	190
216.254	363
216.321	259
216.388	1247
216.455	1276
216.522	796
216.589	1325
216.656	1663
216.722	1243
216.789	790
216.856	1456
216.923	883
216.990	911
217.057	967
217.124	1597
217.191	599
217.258	1325
217.324	1044
217.391	1146
217.458	1050
217.525	1128
217.592	768
217.659	-131
217.725	1191
217.792	597
217.859	814
217.926	-192
217.993	252
218.059	1149
218.126	20
218.193	634
218.260	736
218.327	-362
218.393	521
218.460	54
218.527	514
218.594	93
218.660	825
218.727	1337
218.794	302
218.860	484
218.927	-122
218.994	385
219.061	-19
219.127	-118
219.194	818
219.261	554
219.327	524
219.394	920
219.461	70
219.527	-390
219.594	339
219.661	421
219.727	-50
219.794	595
219.860	-424
219.927	541
219.994	951
220.060	867
220.127	894
220.193	1314
220.260	638
220.326	1390
220.393	2838
220.460	1998
220.526	1962
220.593	821
220.659	3198
220.726	1192
220.792	2755
220.859	1899
220.925	3179
220.992	3585
221.058	2830
221.125	2580
221.191	2867
221.258	713
221.324	1792
221.391	942
221.457	1329
221.524	1184
221.590	982
221.657	2048
221.723	1104
221.789	1347
221.856	1145
221.922	245
221.989	1135
222.055	384
222.121	21
222.188	1995
222.254	851
222.321	-914
222.387	4
222.453	191
222.520	184
222.586	-204
222.652	649
222.719	-600
222.785	1473
222.851	110
222.918	7
222.984	597
223.050	649
223.116	-722
223.183	1451
223.249	-562
223.315	308
223.382	422
223.448	679
223.514	-674
223.580	575
223.647	-823
223.713	-244
223.779	80
223.845	508
223.911	23
223.978	-17
224.044	27
224.110	373
224.176	467
224.242	314
224.309	-414
224.375	424
224.441	603
224.507	734
224.573	-316
224.639	1069
224.705	-422
224.772	967
224.838	-12
224.904	706
224.970	165
225.036	1026
225.102	-13
225.168	659
225.234	104
225.300	702
225.366	-136
225.432	988
225.499	-198
225.565	713
225.631	-557
225.697	798
225.763	774
225.829	1458
225.895	382
225.961	881
226.027	901
226.093	943
226.159	2361
226.225	2616
226.291	4274
226.357	5583
226.423	3465
226.489	2437
226.554	1658
226.620	1807
226.686	2023
226.752	2456
226.818	3662
226.884	6323
226.950	5117
227.016	3504
227.082	1818
227.148	1859
227.214	968
227.279	978
227.345	585
227.411	1284
227.477	1090
227.543	1232
227.609	-139
227.674	1576
227.740	934
227.806	985
227.872	396
227.938	828
228.003	1466
228.069	921
228.135	-31
228.201	965
228.267	488
228.332	1529
228.398	-344
228.464	1103
228.530	258
228.595	745
228.661	-637
228.727	39
228.792	1135
228.858	783
228.924	-779
228.990	2280
229.055	-282
229.121	1135
229.187	-459
229.252	153
229.318	373
229.384	1687
229.449	710
229.515	-618
229.581	-108
229.646	2732
229.712	60
229.777	1345
229.843	556
229.909	1796
229.974	1528
230.040	1680
230.105	613
230.171	632
230.236	1215
230.302	2199
230.368	439
230.433	460
230.499	770
230.564	2153
230.630	256
230.695	1054
230.761	817
230.826	113
230.892	1644
230.957	72
231.023	346
231.088	435
231.154	105
231.219	1546
231.284	-157
231.350	1295
231.415	-818
231.481	1091
231.546	484
231.612	561
231.677	262
231.742	-135
231.808	1170
231.873	178
231.939	-1034
232.004	2323
232.069	1099
232.135	757
232.200	421
232.265	1312
232.331	137
232.396	864
232.461	-50
232.527	606
232.592	-284
232.657	201
232.723	271
232.788	983
232.853	901
232.918	481
232.984	-236
233.049	574
233.114	364
233.179	616
233.245	782
233.310	1391
233.375	-644
233.440	902
233.506	-294
233.571	238
233.636	195
233.701	750
233.766	725
233.832	426
233.897	297
233.962	-658
234.027	1109
234.092	774
234.157	-282
234.222	1016
234.288	675
234.353	2597
234.418	2786
234.483	1960
234.548	964
234.613	883
234.678	1559
234.743	1126
234.808	2505
234.873	1639
234.938	2200
235.004	1563
235.069	362
235.134	9
235.199	1212
235.264	1266
235.329	-440
235.394	1482
235.459	2180
235.524	980
235.589	895
235.654	686
235.719	-1082
235.784	834
235.849	331
235.913	1714
235.978	1564
236.043	1638
236.108	1392
236.173	999
236.238	533
236.303	657
236.368	625
236.433	2507
236.498	1810
236.563	2426
236.627	4040
236.692	8677
236.757	7556
236.822	5005
236.887	2649
236.952	2775
237.017	1152
237.081	3601
237.146	2919
237.211	6942
237.276	8108
237.341	10049
237.405	6951
237.470	5438
237.535	3339
237.600	2352
237.664	1626
237.729	1514
237.794	927
237.859	4173
237.923	2302
237.988	1494
238.053	2580
238.118	2370
238.182	3035
238.247	3314
238.312	997
238.376	2878
238.441	-482
238.506	2373
238.570	-875
238.635	2097
238.700	668
238.764	1119
238.829	1800
238.893	1213
238.958	1807
239.023	1074
239.087	959
239.152	1756
239.216	254
239.281	1258
239.346	1
239.410	990
239.475	98
239.539	3285
239.604	1516
239.668	1097
239.733	310
239.797	1004
239.862	133
239.926	2103
239.991	1088
240.055	1156
240.120	326
240.184	1441
240.249	452
240.313	752
240.378	941
240.442	1947
240.507	2637
240.571	1256
240.635	465
240.700	2106
240.764	524
240.829	827
240.893	-685
240.957	1857
241.022	2531
241.086	3152
241.151	676
241.215	609
241.279	1587
241.344	790
241.408	1211
241.472	1468
241.537	2548
241.601	1654
241.665	421
241.730	1249
241.794	1847
241.858	1292
241.922	878
241.987	1370
242.051	669
242.115	266
242.179	2103
242.244	723
242.308	1192
242.372	2188
242.436	1077
242.501	2078
242.565	472
242.629	635
242.693	1386
242.757	137
242.822	419
242.886	2096
242.950	1179
243.014	-380
243.078	280
243.142	1432
243.206	286
243.271	2982
243.335	1002
243.399	2922
243.463	3968
243.527	10635
243.591	3136
243.655	2651
243.719	243
243.783	2432
243.847	2375
243.911	3757
243.975	2585
244.040	1611
244.104	2239
244.168	1236
244.232	1477
244.296	2481
244.360	2777
244.424	358
244.488	1657
244.552	1956
244.615	-737
244.679	1295
244.743	637
244.807	767
244.871	1077
244.935	1628
244.999	-295
245.063	676
245.127	1397
245.191	1443
245.255	1121
245.319	1767
245.383	-670
245.446	2691
245.510	-247
245.574	860
245.638	945
245.702	-75
245.766	1918
245.829	2392
245.893	441
245.957	606
246.021	2142
246.085	1719
246.149	74
246.212	4215
246.276	3097
246.340	3246
246.404	2271
246.467	2336
246.531	1156
246.595	3319
246.659	2616
246.722	1365
246.786	2258
246.850	1759
246.913	1671
246.977	485
247.041	2247
247.104	2093
247.168	1639
247.232	3570
247.295	4905
247.359	2963
247.423	755
247.486	3149
247.550	2623
247.614	1182
247.677	1825
247.741	1289
247.804	671
247.868	1926
247.932	2029
247.995	5879
248.059	1641
248.122	1000
248.186	2702
248.249	3760
248.313	6779
248.376	8688
248.440	5193
248.503	1741
248.567	3025
248.630	2546
248.694	4127
248.757	6261
248.821	7780
248.884	7183
248.948	5571
249.011	7622
249.075	9363
249.138	8517
249.202	4740
249.265	2428
249.328	3657
249.392	2329
249.455	2820
249.519	1790
249.582	1598
249.645	4890
249.709	3556
249.772	3191
249.835	2648
249.899	2017
249.962	2720
250.025	2496
250.089	3379
250.152	5707
250.215	2115
250.279	3169
250.342	3217
250.405	3457
250.468	2165
250.532	3163
250.595	4613
250.658	10274
250.721	15627
250.785	7846
250.848	5811
250.911	2734
250.974	2452
251.038	3491
251.101	5635
251.164	3514
251.227	4057
251.290	3242
251.354	5104
251.417	12649
251.480	14909
251.543	11792
251.606	21078
251.669	19745
251.732	10501
251.795	9249
251.859	9847
251.922	15867
251.985	10539
252.048	6616
252.111	5125
252.174	4276
252.237	6406
252.300	10552
252.363	11287
252.426	19547
252.489	9414
252.552	6317
252.615	3973
252.678	5060
252.741	9197
252.804	11117
252.867	20356
252.930	14029
252.993	8362
253.056	7045
253.119	3278
253.182	3152
253.245	4663
253.308	4421
253.371	3317
253.434	3448
253.497	4063
253.559	5624
253.622	4555
253.685	5134
253.748	5402
253.811	2176
253.874	3825
253.937	3213
254.000	3143
254.062	3111
254.125	5425
254.188	8491
254.251	4451
254.314	2169
254.376	3942
254.439	5220
254.502	3822
254.565	4179
254.628	7785
254.690	3924
254.753	1540
254.816	2220
254.878	2825
254.941	4338
255.004	3460
255.067	2112
255.129	1763
255.192	1012
255.255	-86
255.317	1710
255.380	840
255.443	1961
255.505	-73
255.568	55
255.631	735
255.693	1157
255.756	526
255.819	2318
255.881	1368
255.944	778
256.006	636
256.069	665
256.132	478
256.194	980
256.257	2218
256.319	2549
256.382	1441
256.444	2860
256.507	1228
256.569	173
256.632	1657
256.694	3302
256.757	8099
256.819	18586
256.882	8944
256.944	4058
257.007	3645
257.069	2587
257.132	2170
257.194	2634
257.257	1764
257.319	2219
257.381	2377
257.444	6058
257.506	17615
257.569	21467
257.631	10058
257.693	6294
257.756	2804
257.818	2355
257.880	1710
257.943	3129
258.005	148
258.067	1383
258.130	1049
258.192	1518
258.254	1983
258.317	2728
258.379	1976
258.441	3952
258.503	3733
258.566	2044
258.628	4162
258.690	704
258.753	2716
258.815	3803
258.877	965
258.939	2739
259.001	1703
259.064	1996
259.126	1026
259.188	2250
259.250	1677
259.312	2306
259.375	2048
259.437	1568
259.499	1175
259.561	1261
259.623	1585
259.685	1282
259.747	647
259.809	3684
259.872	5202
259.934	8199
259.996	10551
260.058	3860
260.120	1191
260.182	1294
260.244	790
260.306	1074
260.368	1605
260.430	1378
260.492	4202
260.554	6644
260.616	1864
260.678	5343
260.740	5003
260.802	1360
260.864	1766
260.926	1514
260.988	1942
261.050	984
261.112	5045
261.174	11294
261.236	5249
261.298	2057
261.359	2556
261.421	4021
261.483	679
261.545	2548
261.607	-391
261.669	1282
261.731	1554
261.793	4641
261.854	1171
261.916	2166
261.978	1829
262.040	2132
262.102	1270
262.164	1251
262.225	1814
262.287	1422
262.349	2365
262.411	2727
262.472	1386
262.534	1605
262.596	2846
262.658	2135
262.719	13
262.781	2007
262.843	2441
262.904	2241
262.966	995
263.028	1996
263.090	6659
263.151	18375
263.213	7812
263.275	5549
263.336	1669
263.398	2362
263.459	-125
263.521	591
263.583	2913
263.644	2691
263.706	401
263.767	556
263.829	953
263.891	485
263.952	162
264.014	896
264.075	2469
264.137	8750
264.198	3305
264.260	749
264.321	809
264.383	3196
264.444	10403
264.506	3811
264.567	1135
264.629	4871
264.690	8567
264.752	4253
264.813	1677
264.875	1257
264.936	1482
264.998	721
265.059	-241
265.120	1414
265.182	2147
265.243	11109
265.305	12891
265.366	3804
265.427	1571
265.489	1983
265.550	-722
265.611	775
265.673	1188
265.734	1392
265.795	1335
265.857	253
265.918	536
265.979	4525
266.040	16243
266.102	16115
266.163	5489
266.224	4707
266.286	1772
266.347	1195
266.408	823
266.469	1369
266.530	937
266.592	1257
266.653	1118
266.714	3292
266.775	1173
266.836	595
266.898	251
266.959	2705
267.020	1678
267.081	2233
267.142	617
267.203	460
267.264	-365
267.326	931
267.387	327
267.448	212
267.509	931
267.570	531
267.631	612
267.692	15
267.753	977
267.814	126
267.875	1061
267.936	4449
267.997	2990
268.058	2308
268.119	489
268.180	1518
268.241	398
268.302	163
268.363	588
268.424	703
268.485	713
268.546	989
268.607	-495
268.668	173
268.729	184
268.790	546
268.851	833
268.912	2995
268.972	3087
269.033	1535
269.094	-229
269.155	2045
269.216	325
269.277	1005
269.338	149
269.398	286
269.459	-557
269.520	2089
269.581	99
269.642	1725
269.702	1059
269.763	1538
269.824	491
269.885	426
269.945	1751
270.006	1389
270.067	-290
270.128	-100
270.188	65
270.249	144
270.310	-58
270.370	797
270.431	509
270.492	215
270.553	953
270.613	2235
270.674	3523
270.734	594
270.795	-19
270.856	1371
270.916	248
270.977	803
271.038	857
271.098	686
271.159	1685
271.219	1226
271.280	870
271.340	585
271.401	-21
271.462	1614
271.522	981
271.583	635
271.643	985
271.704	1335
271.764	562
271.825	3888
271.885	8939
271.946	11733
272.006	4615
272.066	5608
272.127	8523
272.187	3131
272.248	1699
272.308	1707
272.369	6263
272.429	3685
272.489	3125
272.550	3832
272.610	3767
272.671	3725
272.731	2048
272.791	3153
272.852	1673
272.912	1429
272.972	364
273.033	717
273.093	1378
273.153	3264
273.214	1885
273.274	962
273.334	5922
273.394	10514
273.455	4111
273.515	4625
273.575	9696
273.635	4479
273.696	4091
273.756	8427
273.816	4001
273.876	3046
273.936	3267
273.997	6785
274.057	1719
274.117	1829
274.177	2205
274.237	11876
274.297	9356
274.358	5685
274.418	6710
274.478	6003
274.538	2889
274.598	991
274.658	4913
274.718	5150
274.778	2620
274.838	1648
274.898	2021
274.958	7001
275.018	8501
275.078	5258
275.138	1967
275.198	1756
275.258	411
275.318	1721
275.378	2210
275.438	3967
275.498	2081
275.558	3942
275.618	7182
275.678	6091
275.738	4835
275.798	5620
275.858	2917
275.918	916
275.978	949
276.038	1236
276.098	1074
276.157	2472
276.217	7418
276.277	3114
276.337	2376
276.397	1420
276.457	1063
276.517	596
276.576	1132
276.636	831
276.696	1341
276.756	4571
276.815	2535
276.875	1735
276.935	802
276.995	1239
277.055	588
277.114	671
277.174	213
277.234	5340
277.293	2458
277.353	1162
277.413	383
277.472	1226
277.532	1393
277.592	239
277.651	3491
277.711	7545
277.771	1604
277.830	8925
277.890	7741
277.950	4789
278.009	13314
278.069	5506
278.128	5679
278.188	8537
278.248	3198
278.307	8455
278.367	5506
278.426	1796
278.486	955
278.545	593
278.605	790
278.664	1228
278.724	848
278.783	3537
278.843	8508
278.902	2931
278.962	784
279.021	2145
279.081	2990
279.140	2235
279.199	1669
279.259	1330
279.318	1940
279.378	3458
279.437	2883
279.496	9192
279.556	28989
279.615	23875
279.675	6572
279.734	4703
279.793	5651
279.853	7108
279.912	3511
279.971	2754
280.031	1694
280.090	3318
280.149	5147
280.208	4942
280.268	23112
280.327	22458
280.386	5444
280.445	6044
280.505	4701
280.564	2707
280.623	2102
280.682	4076
280.742	4958
280.801	1469
280.860	486
280.919	1305
280.978	589
281.037	1395
281.097	349
281.156	1367
281.215	551
281.274	1522
281.333	5445
281.392	4278
281.451	1104
281.510	1605
281.569	-191
281.628	502
281.688	965
281.747	1315
281.806	1474
281.865	512
281.924	193
281.983	258
282.042	-434
282.101	364
282.160	567
282.219	1300
282.278	-123
282.337	3490
282.396	2313
282.454	1989
282.513	851
282.572	6660
282.631	2115
282.690	862
282.749	-251
282.808	447
282.867	376
282.926	931
282.985	943
283.043	1373
283.102	-303
283.161	1388
283.220	1949
283.279	6775
283.338	2603
283.396	874
283.455	1002
283.514	1591
283.573	1784
283.631	1972
283.690	1098
283.749	937
283.808	1748
283.866	3242
283.925	489
283.984	-400
284.043	780
284.101	2315
284.160	335
284.219	2611
284.277	1883
284.336	2272
284.395	7873
284.453	6680
284.512	2261
284.570	3925
284.629	2714
284.688	3456
284.746	2420
284.805	3503
284.863	4503
284.922	6067
284.981	8356
285.039	11448
285.098	18575
285.156	31811
285.215	32057
285.273	32739
285.332	33663
285.390	22835
285.449	14690
285.507	10638
285.566	6881
285.624	5566
285.683	4229
285.741	3264
285.799	2972
285.858	3723
285.916	3531
285.975	2206
286.033	1172
286.091	1820
286.150	1576
286.208	1272
286.267	1490
286.325	1652
286.383	2857
286.442	2218
286.500	814
286.558	1045
286.616	567
286.675	2105
286.733	680
286.791	22
286.850	1081
286.908	2261
286.966	3216
287.024	1502
287.083	595
287.141	921
287.199	1152
287.257	2599
287.315	822
287.374	1092
287.432	3615
287.490	3317
287.548	521
287.606	1227
287.664	576
287.723	1653
287.781	2387
287.839	2231
287.897	1498
287.955	2398
288.013	3676
288.071	7464
288.129	23377
288.187	56692
288.245	30565
288.303	11478
288.361	6561
288.419	4272
288.477	2189
288.535	2653
288.593	1322
288.651	1329
288.709	1051
288.767	1752
288.825	588
288.883	825
288.941	748
288.999	1003
289.057	379
289.115	676
289.173	220
289.231	344
289.289	414
289.346	669
289.404	482
289.462	1669
289.520	1664
289.578	632
289.636	-428
289.694	780
289.751	362
289.809	-87
289.867	55
289.925	1549
289.983	921
290.040	939
290.098	-338
290.156	1203
290.214	421
290.271	176
290.329	49
290.387	-131
290.444	-490
290.502	400
290.560	589
290.617	1060
290.675	-141
290.733	-664
290.790	642
290.848	691
290.906	800
290.963	339
291.021	779
291.078	794
291.136	456
291.194	4156
291.251	9901
291.309	2655
291.366	1038
291.424	765
291.481	719
291.539	543
291.596	-83
291.654	383
291.711	175
291.769	1146
291.826	1791
291.884	1643
291.941	-20
291.999	1138
292.056	205
292.114	1351
292.171	-271
292.228	662
292.286	639
292.343	1589
292.401	1976
292.458	1926
292.515	616
292.573	1032
292.630	233
292.687	1397
292.745	1475
292.802	2080
292.859	6779
292.917	8197
292.974	4185
293.031	2042
293.089	743
293.146	361
293.203	555
293.260	134
293.318	261
293.375	3906
293.432	1710
293.489	912
293.546	1101
293.604	1493
293.661	3975
293.718	12036
293.775	7558
293.832	3935
293.889	1302
293.947	1204
294.004	416
294.061	912
294.118	2577
294.175	9515
294.232	15340
294.289	6820
294.346	2565
294.403	3053
294.460	1778
294.517	468
294.574	837
294.631	2094
294.688	1455
294.745	3770
294.802	14378
294.859	20386
294.916	7786
294.973	3356
295.030	2424
295.087	2807
295.144	1459
295.201	2337
295.258	1368
295.315	2109
295.372	4544
295.429	8588
295.486	4709
295.542	3798
295.599	10289
295.656	18600
295.713	11481
295.770	10868
295.827	3789
295.883	2883
295.940	2358
295.997	3918
296.054	3591
296.111	2418
296.167	1545
296.224	1091
296.281	1141
296.338	1220
296.394	1300
296.451	2424
296.508	4846
296.564	9113
296.621	7516
296.678	10843
296.734	16423
296.791	8353
296.848	4702
296.904	3984
296.961	8182
297.018	10966
297.074	8928
297.131	4739
297.187	2903
297.244	3168
297.301	8795
297.357	15145
297.414	6202
297.470	2995
297.527	2022
297.583	2096
297.640	2096
297.696	1514
297.753	1273
297.809	774
297.866	1015
297.922	1274
297.979	377
298.035	682
298.092	2512
298.148	6630
298.204	6038
298.261	3157
298.317	5745
298.374	13804
298.430	7480
298.486	3243
298.543	2449
298.599	3177
298.656	3603
298.712	5239
298.768	10810
298.824	8655
298.881	3118
298.937	2173
298.993	1426
299.050	1871
299.106	1938
299.162	1400
299.218	2270
299.275	1644
299.331	1025
299.387	3422
299.443	9201
299.500	10552
299.556	3336
299.612	2743
299.668	1804
299.724	2235
299.780	1906
299.837	1330
299.893	2401
299.949	9285
300.005	10070
300.061	8941
300.117	15518
300.173	7554
300.229	3116
300.285	5384
300.341	5920
300.397	3429
300.453	1864
300.510	1467
300.566	1030
300.622	2199
300.678	2540
300.734	7280
300.790	8047
300.845	9221
300.901	5757
300.957	8454
301.013	6766
301.069	2903
301.125	1975
301.181	2822
301.237	2325
301.293	1619
301.349	1264
301.405	2251
301.461	2352
301.516	4243
301.572	2279
301.628	3638
301.684	2971
301.740	5406
301.796	8838
301.851	5800
301.907	8686
301.963	8377
302.019	10289
302.074	25392
302.130	28382
302.186	16224
302.242	7452
302.297	5067
302.353	4556
302.409	7307
302.464	6737
302.520	5459
302.576	10891
302.631	13709
302.687	7690
302.743	4152
302.798	2375
302.854	1989
302.910	2653
302.965	2940
303.021	5323
303.076	5530
303.132	5347
303.187	5840
303.243	3720
303.299	2705
303.354	1058
303.410	2704
303.465	2193
303.521	2146
303.576	1837
303.632	2336
303.687	3547
303.743	10398
303.798	9037
303.853	4389
303.909	2248
303.964	3270
304.020	3113
304.075	5286
304.130	4518
304.186	8106
304.241	9431
304.297	7666
304.352	3372
304.358	3291
304.407	2627
304.449	2667
304.463	2684
304.518	2839
304.539	2476
304.573	1885
304.629	1839
304.630	1856
304.684	2723
304.720	5945
304.739	7532
304.794	12336
304.811	10764
304.850	7033
304.902	3792
304.905	3587
304.960	2711
304.992	2849
305.015	2921
305.071	2923
305.083	2900
305.126	2795
305.173	1826
305.181	1670
305.236	1895
305.264	1903
305.292	1970
305.347	2054
305.354	2256
305.402	3448
305.445	3559
305.457	3568
305.512	4242
305.535	3763
305.567	3207
305.622	3401
305.626	3486
305.678	5572
305.716	10349
305.733	11965
305.788	13241
305.807	11495
305.843	8694
305.897	10778
305.898	10794
305.953	11403
305.988	7924
306.008	6135
306.063	4334
306.078	3890
306.118	2625
306.168	2423
306.173	2427
306.228	1538
306.259	1890
306.283	2224
306.338	2305
306.349	2425
306.393	2724
306.440	2941
306.448	3001
306.503	3220
306.530	3222
306.558	3948
306.613	8742
306.620	9217
306.668	11329
306.711	13190
306.723	13250
306.778	9146
306.801	7483
306.833	6000
306.888	3441
306.892	3381
306.943	3059
306.982	2709
306.997	2572
307.052	2471
307.072	2616
307.107	3186
307.162	4478
307.163	4489
307.217	5952
307.253	6772
307.272	6835
307.327	7466
307.343	6924
307.381	5965
307.434	4871
307.436	4954
307.491	9545
307.524	13063
307.546	13533
307.600	12454
307.614	10967
307.655	7298
307.704	5515
307.710	5530
307.765	5944
307.795	7354
307.819	8530
307.874	12453
307.885	12632
307.929	11637
307.975	9885
307.984	10187
308.038	14254
308.065	16834
308.093	23649
308.148	42831
308.156	46354
308.202	59028
308.246	65988
308.257	65217
308.312	47089
308.336	38638
308.366	31034
308.421	19500
308.426	18559
308.475	13293
308.517	10282
308.530	9669
308.585	8467
308.607	7988
308.639	7733
308.694	8013
308.697	8086
308.748	12363
308.787	16467
308.803	16486
308.857	13198
308.877	11830
308.912	11342
308.967	11793
308.967	11807
309.021	15991
309.058	19076
309.076	22957
309.130	37068
309.148	42328
309.185	55206
309.238	76727
309.239	76915
309.293	78436
309.328	75865
309.348	70232
309.402	47628
309.418	41403
309.457	31883
309.508	21404
309.511	21089
309.566	17666
309.598	16358
309.620	16512
309.674	17834
309.688	18359
309.729	17675
309.778	14888
309.783	14622
309.837	11860
309.868	10453
309.892	12165
309.946	16970
309.959	18506
310.001	22101
310.049	24598
310.055	23863
310.109	15393
310.139	10719
310.163	9095
310.218	6236
310.229	5735
310.272	5463
310.319	5552
310.326	5469
310.381	4551
310.409	4270
310.435	4322
310.489	4202
310.499	4201
310.543	4715
310.589	5148
310.598	5126
310.652	5350
310.679	5205
310.706	4913
310.760	4331
310.769	4230
310.814	3903
310.859	3691
310.868	3718
310.923	3762
310.948	3748
310.977	4015
311.031	4720
311.038	4793
311.085	4381
311.128	3853
311.139	3895
311.193	4243
311.218	4270
311.247	4281
311.301	4551
311.308	4569
311.356	4818
311.398	4925
311.410	4779
311.464	4014
311.488	3700
311.518	3819
311.572	3970
311.578	3982
311.626	5235
311.668	6287
311.680	6415
311.734	6965
311.758	7158
311.788	6899
311.842	6428
311.847	6361
311.896	8710
311.937	10795
311.950	10542
312.004	9241
312.027	8642
312.058	7151
312.112	4480
312.117	4209
312.165	4693
312.207	5100
312.297	8976
312.386	6530
312.476	6268
312.566	7427
312.656	4606
312.745	4632
312.835	6047
312.925	6133
313.015	5683
313.104	5419
313.194	5548
313.284	5024
313.374	5344
313.463	5484
313.553	4260
313.643	4063
313.732	4620
313.822	3389
313.912	4542
314.001	5318
314.091	7240
314.180	8649
314.270	6860
314.360	6741
314.449	5166
314.539	4108
314.628	4450
314.718	6089
314.808	5958
314.897	4482
314.987	4933
315.076	4099
315.166	5397
315.255	5484
315.345	5905
315.434	4997
315.524	4676
315.613	6004
315.703	6538
315.792	5768
315.881	5053
315.971	4815
316.060	8585
316.150	12474
316.239	11594
316.328	5834
316.418	4361
316.507	3705
316.597	5335
316.686	4304
316.775	7546
316.865	11101
316.954	4914
317.043	4182
317.133	4053
317.222	3906
317.311	3752
317.400	2705
317.490	5318
317.579	4878
317.668	3465
317.757	4673
317.847	5179
317.936	6018
318.025	8229
318.114	5196
318.203	4895
318.293	9122
318.382	14589
318.471	12076
318.560	19591
318.649	34224
318.738	8173
318.828	5207
318.917	6212
319.006	7375
319.095	16012
319.184	42953
319.273	20004
319.362	9693
319.451	5624
319.540	4639
319.629	8724
319.718	11542
319.807	6995
319.896	16200
319.985	49286
320.074	15990
320.163	7305
320.252	8802
320.341	11781
320.430	9482
320.519	8327
320.608	6560
320.697	5463
320.786	5441
320.875	6466
320.964	6289
321.053	9525
321.142	11330
321.230	11559
321.319	12966
321.408	24883
321.497	10664
321.586	10045
321.675	14045
321.764	14570
321.852	9963
321.941	15330
322.030	8858
322.119	13179
322.207	21509
322.296	18225
322.385	10812
322.474	9413
322.562	25426
322.651	14863
322.740	9437
322.829	12208
322.917	14859
323.006	8692
323.095	7785
323.183	7050
323.272	10836
323.361	15989
323.449	35884
323.538	12149
323.626	27775
323.715	13778
323.804	9177
323.892	25567
323.981	13591
324.069	6342
324.158	15404
324.246	12093
324.335	7808
324.424	8058
324.512	5286
324.601	6913
324.689	10885
324.778	16110
324.866	11739
324.954	4467
325.043	5308
325.131	8143
325.220	14453
325.308	12732
325.397	10267
325.485	6351
325.574	4601
325.662	4102
325.750	3615
325.839	3988
325.927	4348
326.015	5035
326.104	6170
326.192	7188
326.280	4727
326.369	3200
326.457	5632
326.545	8587
326.634	4398
326.722	3648
326.810	3299
326.898	3206
326.987	4949
327.075	7348
327.163	7903
327.251	4636
327.340	8053
327.428	9206
327.516	3188
327.604	3811
327.692	4603
327.781	5409
327.869	7599
327.957	4604
328.045	4087
328.133	3662
328.221	3895
328.309	4288
328.397	3407
328.485	4886
328.574	5373
328.662	12356
328.750	8281
328.838	4920
328.926	3714
329.014	3633
329.102	5184
329.190	16157
329.278	8272
329.366	3261
329.454	3589
329.542	3896
329.630	3528
329.718	3485
329.806	4529
329.893	4997
329.981	4009
330.069	3631
330.157	5366
330.245	10009
330.333	5776
330.421	3203
330.509	4800
330.597	16539
330.684	12072
330.772	7781
330.860	12515
330.948	18512
331.036	5941
331.123	3239
331.211	4302
331.299	5855
331.387	15125
331.475	21966
331.562	6042
331.650	3766
331.738	4052
331.825	5471
331.913	2847
332.001	2802
332.089	5328
332.176	9680
332.264	15896
332.352	11747
332.439	5952
332.527	6049
332.614	4044
332.702	5045
332.790	2911
332.877	8376
332.965	13669
333.052	4442
333.140	5299
333.228	8940
333.315	3825
333.403	4470
333.490	10376
333.578	7663
333.665	8591
333.753	5085
333.840	3208
333.928	4992
334.015	11160
334.103	17313
334.190	47265
334.278	12297
334.365	6291
334.452	4351
334.540	3320
334.627	4721
334.715	5789
334.802	9646
334.889	43673
334.977	31379
335.064	5600
335.151	4565
335.239	5776
335.326	8471
335.413	29301
335.501	30388
335.588	5786
335.675	3737
335.762	8738
335.850	13013
335.937	5772
336.024	14411
336.111	51276
336.199	18525
336.286	4855
336.373	4068
336.460	2480
336.547	3894
336.635	4769
336.722	4370
336.809	4453
336.896	5110
336.983	20173
337.070	42316
337.157	48448
337.245	30911
337.332	17955
337.419	3790
337.506	4096
337.593	5376
337.680	18135
337.767	43877
337.854	13246
337.941	17337
338.028	13350
338.115	5525
338.202	11059
338.289	12276
338.376	27702
338.463	11631
338.550	31646
338.637	24224
338.724	8530
338.811	11483
338.898	3742
338.984	4255
339.071	6897
339.158	5126
339.245	10828
339.332	7188
339.419	9532
339.506	7701
339.593	2164
339.679	3331
339.766	2655
339.853	4982
339.940	6756
340.027	3545
340.113	3937
340.200	5010
340.287	3584
340.374	4496
340.460	7073
340.547	3094
340.634	5212
340.720	14357
340.807	7881
340.894	3335
340.980	3833
341.067	3674
341.154	3988
341.240	5097
341.327	8157
341.414	4955
341.500	5131
341.587	4677
341.674	3713
341.760	5834
341.847	6214
341.933	3138
342.020	1498
342.106	2554
342.193	3138
342.279	4317
342.366	4200
342.452	5488
342.539	3105
342.625	7530
342.712	14362
342.798	6571
342.885	3703
342.971	2419
343.058	2374
343.144	2540
343.230	2674
343.317	3453
343.403	2649
343.490	1680
343.576	2223
343.662	2339
343.749	3452
343.835	3795
343.921	6447
344.008	27266
344.094	47593
344.180	10503
344.267	6205
344.353	17622
344.439	17551
344.525	10914
344.612	20297
344.698	22684
344.784	12878
344.870	5779
344.957	4194
345.043	4677
345.129	3182
345.215	6995
345.301	4928
345.387	3602
345.474	2647
345.560	2608
345.646	3655
345.732	3772
345.818	4103
345.904	3034
345.990	3049
346.076	4268
346.162	6558
346.249	4623
346.335	2779
346.421	3267
346.507	7600
346.593	20497
346.679	5721
346.765	4388
346.851	2713
346.937	2459
347.023	3412
347.108	3229
347.194	2830
347.280	3140
347.366	3187
347.452	7808
347.538	22860
347.624	20947
347.710	15568
347.796	3891
347.882	3544
347.967	4005
348.053	5993
348.139	3480
348.225	2630
348.311	2511
348.397	2882
348.482	3678
348.568	4807
348.654	2526
348.740	2585
348.825	1034
348.911	5059
348.997	13564
349.083	21582
349.168	4124
349.254	3689
349.340	4324
349.425	2847
349.511	3672
349.597	4105
349.682	6087
349.768	16712
349.854	7701
349.939	5217
350.025	2362
350.110	3494
350.196	3370
350.282	2351
350.367	3524
350.453	4787
350.538	4352
350.624	4544
350.709	4949
350.795	2118
350.880	2329
350.966	4977
351.051	4645
351.137	3056
351.222	2810
351.308	7022
351.393	15045
351.479	5276
351.564	2604
351.649	2717
351.735	2072
351.820	2163
351.906	2266
351.991	4186
352.076	11179
352.162	13114
352.247	3108
352.332	3534
352.418	6459
352.503	8281
352.588	24326
352.673	15101
352.759	4685
352.844	2405
352.929	4191
353.014	3694
353.100	3489
353.185	2896
353.270	5795
353.355	5989
353.441	3052
353.526	3217
353.611	5622
353.696	5020
353.781	4893
353.866	2563
353.952	3572
354.037	5251
354.122	11134
354.207	9302
354.292	5115
354.377	3228
354.462	2642
354.547	3423
354.632	5038
354.717	6142
354.802	2778
354.887	3080
354.972	2524
355.057	2826
355.142	2707
355.227	3395
355.312	4618
355.397	8657
355.482	16127
355.567	7701
355.652	7768
355.737	8090
355.822	19264
355.907	13879
355.991	4291
356.076	2713
356.161	3092
356.246	2723
356.331	3832
356.416	6331
356.501	29928
356.585	24799
356.670	5273
356.755	6105
356.840	5876
356.924	20895
357.009	56881
357.094	22366
357.179	7050
357.263	5983
357.348	7236
357.433	6898
357.517	6519
357.602	4578
357.687	4261
357.771	8954
357.856	23349
357.941	14034
358.025	21305
358.110	59829
358.195	28215
358.279	6146
358.364	6115
358.448	16292
358.533	35804
358.617	25326
358.702	24589
358.787	10603
358.871	7892
358.956	5099
359.040	3281
359.125	2743
359.209	4234
359.294	13659
359.378	18872
359.462	7089
359.547	4133
359.631	3172
359.716	2997
359.800	4206
359.885	6259
359.969	2877
360.053	4563
360.138	3998
360.222	3848
360.306	5758
360.391	6000
360.475	14090
360.559	23727
360.644	14466
360.728	8826
360.812	17885
360.896	37956
360.981	23172
361.065	13961
361.149	4009
361.233	4071
361.318	2738
361.402	3948
361.486	4091
361.570	2670
361.654	3634
361.739	7111
361.823	28441
361.907	36519
361.991	7888
362.075	6303
362.159	10406
362.243	7784
362.327	4069
362.411	6469
362.495	4389
362.580	3824
362.664	3147
362.748	1672
362.832	2965
362.916	2496
363.000	8064
363.084	25723
363.168	39772
363.252	11925
363.336	6117
363.420	9784
363.503	37977
363.587	38656
363.671	7484
363.755	5825
363.839	7368
363.923	2796
364.007	6732
364.091	7494
364.175	15185
364.258	53007
364.342	23572
364.426	11379
364.510	6525
364.594	10277
364.677	13312
364.761	33729
364.845	22389
364.929	10980
365.013	8059
365.096	7535
365.180	8437
365.264	19820
365.347	55449
365.431	27489
365.515	9043
365.598	3646
365.682	5399
365.766	10656
365.849	12894
365.933	4612
366.017	9724
366.100	7503
366.184	2913
366.267	3792
366.351	3497
366.435	2235
366.518	2190
366.602	2708
366.685	2971
366.769	3266
366.852	9267
366.936	12032
367.019	4802
367.103	7825
367.186	15929
367.270	3852
367.353	2012
367.436	3195
367.520	2005
367.603	3359
367.687	3679
367.770	6685
367.853	4825
367.937	13217
368.020	18610
368.104	4556
368.187	6065
368.270	8850
368.353	8235
368.437	9411
368.520	21625
368.603	13284
368.687	16664
368.770	25463
368.853	7605
368.936	11464
369.020	13810
369.103	3980
369.186	3206
369.269	2660
369.352	6238
369.436	7027
369.519	6061
369.602	2526
369.685	4899
369.768	3544
369.851	3806
369.934	2225
370.018	3403
370.101	5654
370.184	7268
370.267	6318
370.350	8280
370.433	12379
370.516	21578
370.599	20276
370.682	6984
370.765	17806
370.848	20118
370.931	30085
371.014	17339
371.097	4496
371.180	3873
371.263	2889
371.346	1560
371.429	3342
371.511	3015
371.594	5247
371.677	11005
371.760	15724
371.843	8778
371.926	31030
372.009	54490
372.091	22587
372.174	15293
372.257	28059
372.340	13427
372.423	17712
372.505	24018
372.588	9474
372.671	12141
372.754	27555
372.836	15764
372.919	21792
373.002	36403
373.085	10084
373.167	7731
373.250	15529
373.332	28709
373.415	40989
373.498	64558
373.580	27687
373.663	35378
373.746	41873
373.828	11753
373.911	8031
373.993	10074
374.076	36055
374.159	30785
374.241	12275
374.324	26622
374.406	18349
374.489	24976
374.571	56357
374.654	23103
374.736	16077
374.819	38227
374.901	52620
374.983	46382
375.066	10306
375.148	7462
375.231	30332
375.313	52254
375.395	21856
375.478	5344
375.560	4205
375.643	4779
375.725	14955
375.807	42534
375.890	36674
375.972	17503
376.054	11855
376.136	16716
376.219	7450
376.301	17048
376.383	34839
376.465	14463
376.548	10167
376.630	13515
376.712	32143
376.794	13368
376.877	3345
376.959	2181
377.041	5090
377.123	12515
377.205	14162
377.287	2857
377.369	2679
377.452	2332
377.534	2273
377.616	2592
377.698	2433
377.780	1293
377.862	3405
377.944	3609
378.026	1745
378.108	2918
378.190	2379
378.272	2832
378.354	2725
378.436	1721
378.518	6356
378.600	21444
378.682	14732
378.764	18681
378.846	15386
378.928	7717
379.010	7227
379.091	4408
379.173	2228
379.255	2149
379.337	3436
379.419	10544
379.501	25927
379.583	11835
379.664	4639
379.746	7769
379.828	23244
379.910	25534
379.991	20032
380.073	4366
380.155	4531
380.237	2451
380.318	2770
380.400	2640
380.482	6017
380.564	6598
380.645	5618
380.727	5334
380.809	5028
380.890	3283
380.972	1877
381.053	3165
381.135	4172
381.217	8437
381.298	21122
381.380	10470
381.461	10635
381.543	33023
381.624	34723
381.706	9006
381.787	6689
381.869	8227
381.951	18545
382.032	50324
382.113	34360
382.195	9486
382.276	8262
382.358	13243
382.439	30422
382.521	36568
382.602	47398
382.684	26726
382.765	45049
382.846	49272
382.928	56819
383.009	32955
383.090	31649
383.172	85547
383.253	104604
383.334	48308
383.416	46933
383.497	25262
383.578	15180
383.659	30249
383.741	84041
383.822	152378
383.903	79237
383.984	38094
384.066	59228
384.147	34474
384.228	9568
384.309	7311
384.390	5795
384.471	5199
384.553	6155
384.634	8203
384.715	7483
384.796	4429
384.877	6339
384.958	18995
385.039	20003
385.120	9326
385.201	6054
385.282	9065
385.363	10810
385.444	6611
385.525	11407
385.606	27019
385.687	20738
385.768	9352
385.849	11890
385.930	32920
386.011	46552
386.092	14062
386.173	5597
386.254	6194
386.335	6290
386.416	7059
386.496	15536
386.577	21971
386.658	12154
386.739	8189
386.820	9668
386.901	7512
386.981	6389
387.062	3661
387.143	5452
387.224	18760
387.304	19064
387.385	9250
387.466	6843
387.547	10500
387.627	4667
387.708	9421
387.789	33716
387.869	35255
387.950	11441
388.031	3719
388.111	4960
388.192	18699
388.273	24090
388.353	12508
388.434	5413
388.514	9568
388.595	30903
388.676	37695
388.756	19562
388.837	18994
388.917	11382
388.998	3054
389.078	3769
389.159	3361
389.239	1913
389.320	6617
389.400	3131
389.480	12337
389.561	22672
389.641	11163
389.722	4300
389.802	7146
389.883	12575
389.963	25151
390.043	17203
390.124	9547
390.204	9988
390.284	21793
390.365	15833
390.445	28103
390.525	42410
390.605	29862
390.686	11837
390.766	5657
390.846	3695
390.927	2590
391.007	2231
391.087	4873
391.167	3244
391.247	1859
391.328	6417
391.408	12513
391.488	9975
391.568	2373
391.648	3526
391.728	5064
391.808	5109
391.888	5777
391.969	13123
392.049	18219
392.129	13062
392.209	11886
392.289	22101
392.369	16126
392.449	20698
392.529	11084
392.609	6165
392.689	7816
392.769	20172
392.849	16825
392.929	19160
393.009	37945
393.089	18596
393.169	7072
393.248	14854
393.328	62271
393.408	61879
393.488	13792
393.568	5484
393.648	3202
393.728	3883
393.807	3273
393.887	4831
393.967	5202
394.047	6660
394.127	9633
394.206	18302
394.286	57002
394.366	147403
394.446	147063
394.525	58522
394.605	20721
394.685	16836
394.764	31758
394.844	43321
394.924	26401
395.003	7855
395.083	5640
395.163	5181
395.242	5245
395.322	4937
395.402	4008
395.481	7679
395.561	19292
395.640	42333
395.720	30652
395.799	47203
395.879	40333
395.958	31746
396.038	84775
396.117	179124
396.197	181934
396.276	100396
396.356	45611
396.435	32217
396.515	17181
396.594	10444
396.673	11124
396.753	21937
396.832	59206
396.912	52910
396.991	17763
397.070	6499
397.150	2860
397.229	4514
397.308	2994
397.388	3009
397.467	3632
397.546	2391
397.625	407
397.705	5038
397.784	4123
397.863	2207
397.942	2259
398.022	3399
398.101	16834
398.180	43171
398.259	25564
398.338	7523
398.417	4134
398.497	3432
398.576	3949
398.655	2214
398.734	2323
398.813	3957
398.892	15933
398.971	42729
399.050	20804
399.129	3359
399.208	3201
399.287	2691
399.366	1089
399.445	2532
399.524	3069
399.603	1214
399.682	4366
399.761	14616
399.840	43896
399.919	33600
399.998	5480
400.077	1931
400.156	824
400.235	5224
400.313	2591
400.392	3088
400.471	13106
400.550	16300
400.629	4902
400.708	3480
400.786	5754
400.865	16646
400.944	15639
401.023	7639
401.102	1495
401.180	1951
401.259	2309
401.338	3587
401.416	4303
401.495	3081
401.574	4571
401.652	2780
401.731	4567
401.810	2499
401.888	1883
401.967	1490
402.046	1935
402.124	3884
402.203	4235
402.281	3709
402.360	5501
402.438	19080
402.517	12385
402.596	4918
402.674	4068
402.753	2641
402.831	2268
402.910	3790
402.988	4943
403.066	9578
403.145	6771
403.223	5930
403.302	8383
403.380	6141
403.459	4295
403.537	3632
403.615	2944
403.694	1161
403.772	2569
403.850	2639
403.929	2522
404.007	3172
404.085	4934
404.164	5181
404.242	10005
404.320	32311
404.398	68709
404.477	69766
404.555	64475
404.633	54634
404.711	56365
404.789	43822
404.868	14480
404.946	5973
405.024	4214
405.102	4110
405.180	1920
405.258	1549
405.336	2426
405.415	3436
405.493	6434
405.571	4471
405.649	1854
405.727	1615
405.805	4896
405.883	3495
405.961	5006
406.039	6505
406.117	2447
406.195	3279
406.273	11539
406.351	36103
406.429	23904
406.507	7369
406.585	2075
406.663	2898
406.740	2637
406.818	1618
406.896	1562
406.974	2867
407.052	3551
407.130	23072
407.208	27582
407.285	7167
407.363	1113
407.441	2199
407.519	1056
407.596	2039
407.674	3392
407.752	7049
407.830	13263
407.907	9077
407.985	2117
408.063	1548
408.141	1610
408.218	5558
408.296	2951
408.373	1110
408.451	1471
408.529	997
408.606	11
408.684	146
408.762	252
408.839	384
408.917	538
408.994	790
409.072	652
409.149	125
409.227	2046
409.304	1350
409.382	594
409.459	-275
409.537	1391
409.614	1595
409.692	1181
409.769	833
409.846	796
409.924	3531
410.001	822
410.079	1358
410.156	2164
410.233	1274
410.311	1164
410.388	605
410.465	2112
410.543	983
410.620	1295
410.697	1318
410.775	1377
410.852	-301
410.929	1647
411.006	3792
411.083	2010
411.161	4403
411.238	7864
411.315	4515
411.392	1421
411.469	3194
411.547	2824
411.624	104
411.701	682
411.778	2506
411.855	2592
411.932	958
412.009	1065
412.086	1547
412.163	2391
412.240	2289
412.317	4367
412.394	3394
412.471	1177
412.548	666
412.625	1124
412.702	2189
412.779	3814
412.856	3218
412.933	447
413.010	1327
413.087	3143
413.164	10628
413.241	13556
413.318	3009
413.395	2133
413.471	2926
413.548	1775
413.625	2208
413.702	1600
413.779	1955
413.855	804
413.932	1404
414.009	525
414.086	941
414.162	859
414.239	2701
414.316	10261
414.393	20660
414.469	5657
414.546	1172
414.623	1099
414.699	643
414.776	1200
414.853	955
414.929	1260
415.006	1068
415.082	2948
415.159	1882
415.236	1229
415.312	2061
415.389	2339
415.465	2546
415.542	1537
415.618	706
415.695	2063
415.771	1277
415.848	1354
415.924	2238
416.000	1985
416.077	2321
416.153	-777
416.230	-409
416.306	500
416.383	958
416.459	1403
416.535	250
416.612	1228
416.688	624
416.764	410
416.841	368
416.917	1034
416.993	2065
417.069	1898
417.146	3909
417.222	5947
417.298	2817
417.374	1166
417.451	1656
417.527	1013
417.603	1187
417.679	1033
417.755	421
417.831	426
417.908	900
417.984	410
418.060	551
418.136	2799
418.212	3506
418.288	1421
418.364	907
418.440	763
418.516	2926
418.592	5767
418.668	7001
418.744	5895
418.820	4311
418.896	1469
418.972	209
419.048	582
419.124	3315
419.200	961
419.276	835
419.352	-52
419.428	372
419.504	1040
419.579	621
419.655	130
419.731	903
419.807	4132
419.883	7156
419.959	4149
420.034	1792
420.110	5208
420.186	13655
420.262	9857
420.337	1886
420.413	996
420.489	484
420.565	1415
420.640	386
420.716	948
420.792	-110
420.867	1819
420.943	895
421.019	1280
421.094	901
421.170	654
421.245	255
421.321	945
421.397	-19
421.472	2000
421.548	2684
421.623	2933
421.699	1712
421.774	1817
421.850	686
421.925	1548
422.001	1206
422.076	1526
422.152	1615
422.227	3298
422.302	2532
422.378	3201
422.453	5515
422.529	14296
422.604	49751
422.679	94535
422.755	51870
422.830	14004
422.905	4789
422.981	2549
423.056	1187
423.131	1182
423.207	881
423.282	967
423.357	3600
423.432	1904
423.508	2329
423.583	5209
423.658	4809
423.733	2365
423.808	2259
423.883	1959
423.959	972
424.034	389
424.109	539
424.184	-353
424.259	702
424.334	785
424.409	624
424.484	286
424.559	620
424.634	450
424.709	837
424.784	2012
424.859	1666
424.934	2669
425.009	9298
425.084	14890
425.159	4840
425.234	1550
425.309	1139
425.384	8927
425.459	15452
425.534	5131
425.609	2221
425.683	1239
425.758	830
425.833	874
425.908	2443
425.983	6153
426.058	13955
426.132	7487
426.207	2219
426.282	6539
426.357	5421
426.431	1235
426.506	1336
426.581	1441
426.655	2058
426.730	1179
426.805	583
426.879	2339
426.954	1273
427.029	3380
427.103	15838
427.178	32133
427.253	15038
427.327	3098
427.402	8009
427.476	20796
427.551	9638
427.625	3338
427.700	2473
427.774	1205
427.849	3160
427.923	667
427.998	726
428.072	1405
428.147	5821
428.221	8659
428.296	14065
428.370	5376
428.444	3614
428.519	7470
428.593	15916
428.667	13932
428.742	15623
428.816	12403
428.890	22826
428.965	30061
429.039	17932
429.113	17001
429.188	6018
429.262	2198
429.336	2759
429.410	8688
429.485	7418
429.559	13475
429.633	9651
429.707	2652
429.781	6740
429.855	28496
429.930	33982
430.004	33510
430.078	55759
430.152	37430
430.226	17188
430.300	13611
430.374	3007
430.448	4444
430.522	18384
430.596	46221
430.670	23775
430.744	23632
430.818	31605
430.892	7979
430.966	2062
431.040	1533
431.114	154
431.188	657
431.262	517
431.336	1341
431.410	7225
431.484	17048
431.557	9248
431.631	1037
431.705	903
431.779	2369
431.853	9650
431.927	7023
432.000	1473
432.074	1099
432.148	2747
432.222	2453
432.295	709
432.369	1377
432.443	3192
432.516	15931
432.590	32668
432.664	13141
432.737	2417
432.811	114
432.885	722
432.958	534
433.032	746
433.106	40
433.179	353
433.253	865
433.326	349
433.400	528
433.473	749
433.547	57
433.620	370
433.694	1894
433.767	2760
433.841	651
433.914	840
433.988	863
434.061	697
434.134	971
434.208	307
434.281	46
434.355	352
434.428	1499
434.501	427
434.575	580
434.648	488
434.721	715
434.795	345
434.868	-246
434.941	123
435.014	-8
435.088	1258
435.161	1587
435.234	1684
435.307	1440
435.381	1015
435.454	478
435.527	254
435.600	782
435.673	-150
435.746	262
435.819	366
435.892	550
435.966	939
436.039	513
436.112	1889
436.185	189
436.258	77
436.331	-177
436.404	-345
436.477	339
436.550	258
436.623	226
436.696	-34
436.769	1047
436.842	540
436.915	561
436.987	2100
437.060	587
437.133	-82
437.206	322
437.279	798
437.352	-405
437.425	652
437.498	1215
437.570	2287
437.643	2970
437.716	465
437.789	589
437.861	1560
437.934	6233
438.007	2580
438.080	509
438.152	897
438.225	3342
438.298	18935
438.370	41622
438.443	18832
438.516	5064
438.588	1403
438.661	1032
438.734	773
438.806	573
438.879	1721
438.951	1616
439.024	2878
439.096	942
439.169	842
439.241	-93
439.314	724
439.386	2701
439.459	4122
439.531	3919
439.604	1469
439.676	640
439.749	-100
439.821	-825
439.893	632
439.966	654
440.038	414
440.110	818
440.183	23
440.255	-271
440.327	2669
440.400	10999
440.472	31953
440.544	18780
440.617	2685
440.689	2932
440.761	3348
440.833	5488
440.905	3518
440.978	86
441.050	627
441.122	-68
441.194	-692
441.266	747
441.338	-97
441.411	1949
441.483	10128
441.555	13589
441.627	3965
441.699	4623
441.771	3913
441.843	1950
441.915	25
441.987	675
442.059	592
442.131	1532
442.203	2806
442.275	2934
442.347	2330
442.419	1628
442.491	3500
442.563	7697
442.635	9085
442.706	15919
442.778	11220
442.850	1235
442.922	577
442.994	2318
443.066	2997
443.137	1515
443.209	376
443.281	1454
443.353	4310
443.425	8494
443.496	13870
443.568	12281
443.640	4800
443.711	2200
443.783	1301
443.855	1447
443.926	344
443.998	1385
444.070	2430
444.141	2024
444.213	1545
444.285	2554
444.356	2119
444.428	1767
444.499	1148
444.571	507
444.642	484
444.714	1165
444.785	1982
444.857	5234
444.928	14335
445.000	7371
445.071	8842
445.143	9456
445.214	3398
445.285	7075
445.357	20500
445.428	20732
445.500	31964
445.571	26441
445.642	10825
445.714	14177
445.785	19378
445.856	4761
445.928	1757
445.999	2021
446.070	1484
446.141	2443
446.213	3009
446.284	2082
446.355	3779
446.426	2137
446.497	1162
446.569	4038
446.640	5488
446.711	1756
446.782	915
446.853	1284
446.924	2066
446.995	783
447.066	2661
447.138	5276
447.209	2485
447.280	156
447.351	1343
447.422	373
447.493	1608
447.564	2430
447.635	1687
447.706	153
447.777	528
447.847	607
447.918	1458
447.989	2949
448.060	4296
448.131	10290
448.202	7539
448.273	2695
448.344	2397
448.414	919
448.485	476
448.556	393
448.627	357
448.698	783
448.768	472
448.839	1092
448.910	4755
448.981	3901
449.051	696
449.122	402
449.193	1020
449.263	1250
449.334	774
449.405	1447
449.475	3303
449.546	3644
449.616	5809
449.687	5123
449.758	1772
449.828	94
449.899	847
449.969	509
450.040	967
450.110	1365
450.181	1126
450.251	886
450.322	1003
450.392	1580
450.463	1382
450.533	480
450.604	1226
450.674	1294
450.744	1649
450.815	953
450.885	780
450.955	1662
451.026	377
451.096	2143
451.166	2144
451.237	7415
451.307	17594
451.377	6254
451.447	936
451.518	1558
451.588	929
451.658	2307
451.728	4671
451.799	17920
451.869	19752
451.939	3615
452.009	1776
452.079	1248
452.149	2492
452.219	5501
452.289	20063
452.360	15316
452.430	2480
452.500	1090
452.570	1946
452.640	3538
452.710	10652
452.780	17415
452.850	8203
452.920	4883
452.990	2213
453.060	2205
453.129	3027
453.199	5048
453.269	21517
453.339	38007
453.409	54547
453.479	60153
453.549	88172
453.619	92587
453.688	36893
453.758	6528
453.828	2887
453.898	2565
453.968	1521
454.037	2048
454.087	1809
454.107	1703
454.168	1630
454.177	1613
454.247	1713
454.249	1692
454.316	740
454.330	1129
454.386	2496
454.411	5462
454.456	10344
454.492	12816
454.525	15122
454.574	8178
454.595	5139
454.655	2535
454.665	2142
454.734	2145
454.736	2271
454.804	5548
454.817	7934
454.873	17577
454.898	18168
454.943	19319
454.979	12226
455.013	5930
455.060	3910
455.082	3017
455.141	3646
455.152	3681
455.221	13018
455.222	13169
455.291	22435
455.303	20641
455.360	12997
455.384	13521
455.430	14048
455.465	12910
455.499	11759
455.546	15797
455.569	17539
455.627	11360
455.638	10311
455.707	2932
455.708	2937
455.777	2140
455.789	2131
455.846	2118
455.869	1906
455.916	1470
455.950	1492
455.985	1425
456.031	1754
456.054	1937
456.112	1778
456.124	1755
456.193	1854
456.193	1841
456.262	2116
456.274	2341
456.332	3349
456.355	3192
456.401	2672
456.436	2272
456.470	1983
456.516	1833
456.540	1651
456.597	1126
456.609	1069
456.678	1549
456.678	1540
456.747	762
456.759	756
456.817	1039
456.840	1181
456.886	1146
456.920	1300
456.955	1472
457.001	1634
457.024	1704
457.082	2153
457.093	2296
457.162	2534
457.163	2550
457.232	3060
457.243	2862
457.301	2135
457.324	1892
457.370	1466
457.405	1651
457.439	1889
457.485	2169
457.508	2188
457.566	2178
457.577	2228
457.646	2472
457.647	2487
457.715	2653
457.727	2572
457.784	2374
457.808	2425
457.853	2421
457.889	2430
457.922	2587
457.969	2491
457.991	2300
458.050	2732
458.060	2778
458.129	2818
458.130	2822
458.198	2748
458.211	2650
458.267	2159
458.292	2088
458.336	2052
458.372	2189
458.405	2558
458.453	2895
458.474	2830
458.533	3305
458.543	3426
458.611	4413
458.614	4451
458.680	4099
458.694	3750
458.749	3306
458.775	3356
458.818	2944
458.855	2651
458.887	2691
458.936	2584
458.955	2350
459.016	2066
459.024	2152
459.093	3175
459.097	3221
459.162	2844
459.177	2768
459.230	3047
459.257	3261
459.299	3191
459.338	3021
459.368	3174
459.418	3614
459.437	3509
459.499	3107
459.505	3125
459.574	2928
459.579	2946
459.643	2903
459.659	2960
459.711	3103
459.740	3065
459.780	3188
459.820	3122
459.849	3090
459.900	3676
459.917	3716
459.981	3597
459.986	3623
460.054	3777
460.061	3828
460.123	4013
460.141	3952
460.191	4250
460.222	4654
460.260	4598
460.302	4602
460.328	4708
460.382	4631
460.397	4474
460.462	3416
460.465	3439
460.534	4654
460.543	4818
460.602	7121
460.623	7909
460.671	10111
460.703	13055
460.739	12329
460.783	9506
460.808	8864
460.864	5006
460.876	4434
460.944	3266
460.945	3255
461.013	3580
461.024	3522
461.081	3021
461.104	3010
461.150	3043
461.184	3100
461.218	3381
461.264	3590
461.286	3494
461.345	3400
461.355	3429
461.423	3780
461.425	3770
461.491	4139
461.505	4420
461.559	7510
461.585	8921
461.628	11759
461.665	15385
461.696	16498
461.745	20098
461.764	19236
461.825	8788
461.832	8309
461.901	3827
461.905	3772
461.969	3675
461.985	3692
462.037	4157
462.065	4261
462.105	4851
462.145	5620
462.173	6898
462.225	9538
462.241	10144
462.305	14365
462.310	14090
462.378	8732
462.385	7686
462.446	5117
462.465	4905
462.514	4406
462.545	4307
462.582	4141
462.625	4357
462.650	4406
462.705	3953
462.718	4159
462.785	5516
462.786	5535
462.854	6590
462.865	6837
462.922	8004
462.945	8595
462.990	7329
463.025	5245
463.058	4805
463.104	4689
463.126	4542
463.184	4391
463.194	4352
463.262	3937
463.264	3937
463.330	4743
463.344	4900
463.398	5626
463.424	5843
463.466	5259
463.504	4852
463.533	5214
463.583	5579
463.601	5408
463.663	5006
463.669	5179
463.737	7313
463.743	7497
463.805	11276
463.823	12374
463.873	17121
463.903	20639
463.940	20655
463.982	21129
464.008	18445
464.062	9443
464.076	8783
464.142	5281
464.144	5238
464.211	5455
464.221	5499
464.279	5262
464.301	5140
464.347	5653
464.381	6104
464.414	6514
464.461	7396
464.482	7645
464.540	8109
464.550	7916
464.617	6156
464.620	6094
464.685	7315
464.699	7540
464.753	8549
464.779	9110
464.820	10245
464.859	11417
464.888	10409
464.938	8503
464.956	8955
465.018	10529
465.023	10418
465.091	8736
465.098	8547
465.158	8598
465.177	8669
465.226	8718
465.257	8648
465.293	8273
465.336	7839
465.361	8350
465.416	9372
465.428	10281
465.495	15429
465.496	15487
465.563	20940
465.575	21993
465.631	25403
465.654	27020
465.698	17942
465.734	9043
465.765	8206
465.813	7376
465.833	7219
465.893	7268
465.900	7369
465.968	8253
465.972	8302
466.035	7035
466.052	6688
466.102	6957
466.131	7086
466.170	7194
466.210	7248
466.237	7588
466.290	8365
466.304	8119
466.369	6823
466.372	6885
466.439	8485
466.449	8693
466.506	8960
466.528	9064
466.573	13737
466.607	17211
466.641	21510
466.687	27473
466.708	29230
466.766	34410
466.775	31856
466.842	11840
466.845	10874
466.909	8767
466.925	8364
466.977	8371
467.004	8424
467.044	9381
467.083	10324
467.111	11228
467.163	12866
467.178	13163
467.242	14337
467.245	14265
467.312	12341
467.321	12069
467.379	12144
467.400	12145
467.446	12562
467.480	12827
467.559	12618
467.638	10739
467.717	11481
467.796	10721
467.875	11650
467.955	12276
468.034	20514
468.113	33200
468.192	44301
468.271	11838
468.350	11095
468.429	10007
468.508	10152
468.588	10314
468.667	10920
468.746	11081
468.825	11964
468.904	9950
468.983	12573
469.062	15066
469.141	17738
469.220	10115
469.299	11462
469.378	11077
469.456	14081
469.535	13057
469.614	11598
469.693	12239
469.772	15314
469.851	18312
469.930	13242
470.009	11126
470.088	10970
470.166	10402
470.245	11923
470.324	11189
470.403	10796
470.482	9845
470.560	10149
470.639	9388
470.718	11517
470.797	10434
470.875	12217
470.954	13244
471.033	14931
471.111	9377
471.190	9349
471.269	8723
471.347	9120
471.426	9472
471.505	11736
471.583	11506
471.662	12642
471.740	9724
471.819	11223
471.898	9936
471.976	10856
472.055	9835
472.133	12045
472.212	13056
472.290	14247
472.369	10426
472.447	9883
472.526	9481
472.604	10350
472.683	9505
472.761	10088
472.839	9096
472.918	9808
472.996	9342
473.075	10894
473.153	10721
473.231	10060
473.310	10566
473.388	9753
473.466	9564
473.545	11774
473.623	11718
473.701	11245
473.780	9938
473.858	8338
473.936	10896
474.014	9093
474.093	11519
474.171	13796
474.249	16804
474.327	11673
474.405	7938
474.484	9052
474.562	7872
474.640	9010
474.718	9624
474.796	9339
474.874	9049
474.952	7833
475.030	7706
475.108	8455
475.187	8122
475.265	9095
475.343	9261
475.421	9964
475.499	9092
475.577	10489
475.655	13733
475.733	21592
475.811	33147
475.889	29223
475.966	17593
476.044	9225
476.122	9606
476.200	10629
476.278	9003
476.356	9977
476.434	10494
476.512	11118
476.590	9957
476.667	10992
476.745	9253
476.823	10161
476.901	9723
476.979	11084
477.056	10474
477.134	10531
477.212	9985
477.290	10377
477.367	8901
477.445	9493
477.523	9316
477.601	9641
477.678	9843
477.756	11115
477.834	10485
477.911	9391
477.989	9454
478.066	10400
478.144	10241
478.222	9860
478.299	8858
478.377	9747
478.454	8585
478.532	9345
478.609	8447
478.687	9502
478.764	7925
478.842	8425
478.919	9211
478.997	9760
479.074	9328
479.152	10857
479.229	11263
479.307	9379
479.384	7778
479.461	8602
479.539	8574
479.616	10477
479.694	8269
479.771	10514
479.848	9766
479.926	11787
480.003	11960
480.080	9319
480.157	8305
480.235	8060
480.312	8584
480.389	10948
480.467	13992
480.544	17277
480.621	9937
480.698	11366
480.775	10749
480.853	11197
480.930	9609
481.007	10538
481.084	10795
481.161	10122
481.238	11385
481.315	9250
481.392	9485
481.470	8419
481.547	9449
481.624	9067
481.701	8710
481.778	9704
481.855	9958
481.932	15277
482.009	20259
482.086	13852
482.163	9346
482.240	9404
482.317	8427
482.393	9181
482.470	8154
482.547	9965
482.624	8639
482.701	9100
482.778	8610
482.855	8396
482.932	7983
483.009	7256
483.085	8645
483.162	8509
483.239	8843
483.316	7947
483.393	8345
483.469	8948
483.546	9765
483.623	11728
483.699	8533
483.776	9609
483.853	9621
483.930	16004
484.006	31079
484.083	49588
484.160	30952
484.236	45525
484.313	32564
484.389	26073
484.466	23803
484.543	22824
484.619	22307
484.696	24273
484.772	23811
484.849	25833
484.925	21931
485.002	22981
485.078	23264
485.155	23320
485.231	20406
485.308	21302
485.384	21111
485.461	26109
485.537	33885
485.614	38544
485.690	21146
485.766	19850
485.843	19776
485.919	22365
485.995	22070
486.072	19644
486.148	18584
486.224	18943
486.301	18874
486.377	21595
486.453	19901
486.530	22829
486.606	27642
486.682	31045
486.758	33373
486.835	34826
486.911	30745
486.987	41033
487.063	34123
487.139	32882
487.215	26389
487.292	21796
487.368	20163
487.444	22710
487.520	21234
487.596	19350
487.672	21260
487.748	23181
487.824	23627
487.900	21006
487.976	18576
488.052	19414
488.128	20846
488.204	18680
488.280	18993
488.356	24477
488.432	39046
488.508	50763
488.584	18678
488.660	16301
488.736	16811
488.812	17138
488.888	20358
488.964	23612
489.039	31457
489.115	38368
489.191	26312
489.267	18888
489.343	17202
489.418	16038
489.494	15763
489.570	15001
489.646	17405
489.722	16276
489.797	16076
489.873	26147
489.949	40417
490.024	31556
490.100	14664
490.176	15529
490.251	16321
490.327	17418
490.403	13856
490.478	15083
490.554	12735
490.629	14356
490.705	12965
490.781	14467
490.856	13076
490.932	15440
491.007	13516
491.083	14997
491.158	14511
491.234	20472
491.309	33033
491.385	30856
491.460	13841
491.536	15269
491.611	13725
491.686	13089
491.762	15833
491.837	22489
491.913	32371
491.988	40765
492.063	42089
492.139	22547
492.214	17377
492.289	12529
492.365	11166
492.440	13895
492.515	13438
492.590	14578
492.666	12023
492.741	16312
492.816	19433
492.891	12921
492.967	11272
493.042	10670
493.117	10309
493.192	11837
493.267	15199
493.342	24689
493.418	27156
493.493	12259
493.568	10266
493.643	11623
493.718	13690
493.793	16373
493.868	14406
493.943	11241
494.018	11675
494.093	10673
494.168	11377
494.243	10897
494.318	9758
494.393	10961
494.468	9389
494.543	10535
494.618	10976
494.693	10808
494.768	10306
494.842	10950
494.917	9595
494.992	10927
495.067	9125
495.142	9877
495.217	10439
495.292	10262
495.366	12233
495.441	14782
495.516	16515
495.591	19748
495.665	40914
495.740	67500
495.815	30832
495.890	15465
495.964	12177
496.039	16525
496.114	13840
496.188	13718
496.263	13791
496.338	14072
496.412	14659
496.487	17197
496.561	15727
496.636	15946
496.710	14587
496.785	15171
496.860	17204
496.934	14064
497.009	13322
497.083	12940
497.158	14061
497.232	16282
497.307	16688
497.381	15724
497.455	17672
497.530	20334
497.604	14931
497.679	15654
497.753	21001
497.827	24050
497.902	17118
497.976	23265
498.050	68657
498.125	188519
498.199	150437
498.273	22352
498.348	15724
498.422	15215
498.496	15594
498.570	15602
498.645	13469
498.719	13199
498.793	17787
498.867	24829
498.941	37882
499.016	100278
499.090	194496
499.164	56645
499.238	14613
499.312	13293
499.386	14577
499.460	15302
499.534	14168
499.609	19123
499.683	23145
499.757	24128
499.831	54448
499.905	151754
499.979	116523
500.053	28595
500.127	24332
500.201	16731
500.275	15506
500.349	14026
500.422	14097
500.496	20477
500.570	36817
500.644	95382
500.718	141995
500.792	31622
500.866	15049
500.940	19884
501.013	15762
501.087	15712
501.161	20417
501.235	29733
501.309	72189
501.382	154255
501.456	109359
501.530	36520
501.603	55481
501.677	21888
501.751	12080
501.825	17109
501.898	31925
501.972	66655
502.046	38268
502.119	16166
502.193	37627
502.266	70788
502.340	34558
502.413	40928
502.487	63781
502.561	36052
502.634	15030
502.708	12360
502.781	10671
502.855	11648
502.928	9779
503.002	11659
503.075	10058
503.149	11618
503.222	11504
503.295	10976
503.369	13092
503.442	19919
503.516	60405
503.589	121058
503.662	71055
503.736	31146
503.809	58886
503.882	49639
503.956	69450
504.029	51966
504.102	17251
504.175	14785
504.249	10426
504.322	13748
504.395	11601
504.468	10205
504.542	9373
504.615	8709
504.688	9262
504.761	7806
504.834	10725
504.907	11621
504.980	13724
505.053	11306
505.127	10233
505.200	15277
505.273	13884
505.346	11548
505.419	8834
505.492	11175
505.565	8524
505.638	9087
505.711	8024
505.784	8936
505.857	7616
505.930	11200
506.003	8296
506.076	11146
506.149	12545
506.221	12701
506.294	13871
506.367	35732
506.440	86316
506.513	39370
506.586	13642
506.659	10160
506.731	9070
506.804	10034
506.877	10296
506.950	10634
507.022	9629
507.095	11186
507.168	13032
507.241	9594
507.313	7191
507.386	8539
507.459	9895
507.531	7337
507.604	6978
507.677	9937
507.749	6091
507.822	12054
507.894	16753
507.967	21576
508.040	13883
508.112	12972
508.185	12156
508.257	10511
508.330	14396
508.402	12155
508.475	12808
508.547	13531
508.620	13401
508.692	18711
508.765	13166
508.837	11176
508.909	11081
508.982	11376
509.054	11521
509.127	11477
509.199	10229
509.271	9925
509.344	10244
509.416	10297
509.488	10866
509.560	11056
509.633	11393
509.705	12298
509.777	12904
509.849	15425
509.922	13414
509.994	12128
510.066	14057
510.138	14130
510.210	24290
510.283	20118
510.355	16297
510.427	15450
510.499	14940
510.571	13233
510.643	12105
510.715	17115
510.787	13693
510.859	15379
510.931	14737
511.003	16539
511.076	16809
511.148	13475
511.219	15460
511.291	21995
511.363	21240
511.435	15193
511.507	12128
511.579	13983
511.651	12824
511.723	12469
511.795	11538
511.867	12688
511.939	14271
512.010	21813
512.082	17052
512.154	10749
512.226	12409
512.298	18014
512.369	20244
512.441	17809
512.513	14498
512.585	12935
512.656	14818
512.728	14687
512.800	12277
512.871	12743
512.943	12893
513.015	10968
513.086	12361
513.158	11864
513.230	11235
513.301	14458
513.373	13859
513.444	11571
513.516	11004
513.588	10384
513.659	10912
513.731	12667
513.802	11210
513.874	18357
513.945	19245
514.016	12147
514.088	10742
514.159	10582
514.231	14551
514.302	19220
514.374	15494
514.445	16508
514.516	26130
514.588	18748
514.659	14872
514.730	23952
514.802	16859
514.873	10218
514.944	12833
515.016	13499
515.087	12946
515.158	19024
515.229	22089
515.301	10982
515.372	11384
515.443	9960
515.514	10514
515.585	10188
515.656	11663
515.728	11260
515.799	9556
515.870	11979
515.941	11618
516.012	11540
516.083	15512
516.154	14433
516.225	14468
516.296	15511
516.367	12199
516.438	12561
516.509	13553
516.580	20791
516.651	49030
516.722	109410
516.793	51074
516.864	22567
516.935	21278
517.006	22060
517.077	25482
517.148	51561
517.219	125797
517.289	162267
517.360	101368
517.431	37511
517.502	16570
517.573	17237
517.643	16573
517.714	17958
517.785	17728
517.856	16622
517.926	19740
517.997	18930
518.068	18580
518.138	22827
518.209	30399
518.280	96570
518.350	232927
518.421	84082
518.492	22330
518.562	17031
518.633	16961
518.703	14636
518.774	17409
518.845	17890
518.915	16475
518.986	17065
519.056	18911
519.127	25694
519.197	42992
519.268	99855
519.338	55111
519.408	20326
519.479	17842
519.549	14861
519.620	13916
519.690	12516
519.760	13807
519.831	13579
519.901	12796
519.971	12590
520.042	13774
520.112	14489
520.182	14349
520.253	15105
520.323	14220
520.393	21230
520.463	27839
520.534	22621
520.604	36871
520.674	19658
520.744	19799
520.814	40691
520.885	32243
520.955	46615
521.025	110985
521.095	38371
521.165	15238
521.235	12763
521.305	11566
521.375	12384
521.445	13200
521.515	12060
521.585	15087
521.655	11688
521.725	12907
521.795	13314
521.865	10249
521.935	19446
522.005	14376
522.075	10742
522.145	12059
522.215	12616
522.285	16006
522.355	21919
522.424	34881
522.494	27477
522.564	16250
522.634	22887
522.704	42147
522.774	18281
522.843	10915
522.913	10655
522.983	10631
523.053	10851
523.122	11497
523.192	11709
523.262	23715
523.331	19686
523.401	11525
523.471	9582
523.540	10652
523.610	8108
523.680	9433
523.749	10995
523.819	12798
523.888	11721
523.958	8725
524.027	11212
524.097	11735
524.166	10917
524.236	9358
524.305	13094
524.375	9818
524.444	9431
524.514	11950
524.583	11819
524.653	12308
524.722	14517
524.791	9550
524.861	11346
524.930	8956
524.999	9856
525.069	12462
525.138	11620
525.207	13613
525.277	11342
525.346	9588
525.415	10865
525.484	10496
525.554	11397
525.623	10858
525.692	9315
525.761	9314
525.830	9934
525.900	8755
525.969	12162
526.038	11750
526.107	10784
526.176	16311
526.245	14224
526.314	14541
526.383	18407
526.452	13787
526.522	24091
526.591	27766
526.660	21039
526.729	13253
526.797	16645
526.867	35002
526.935	112275
527.004	74738
527.073	26332
527.142	10429
527.211	10494
527.280	11139
527.349	10757
527.418	7472
527.487	9687
527.555	8388
527.624	8942
527.693	7069
527.762	9331
527.831	7105
527.899	9663
527.968	8439
528.037	7523
528.106	10003
528.174	13291
528.243	12356
528.312	16934
528.380	15579
528.449	9459
528.518	9827
528.586	6915
528.655	9150
528.723	7685
528.792	7879
528.861	8775
528.929	7080
528.998	9193
529.066	7755
529.135	8665
529.203	8702
529.272	8044
529.340	9931
529.409	10963
529.477	8662
529.545	10803
529.614	14426
529.682	13067
529.751	13091
529.819	16858
529.887	9720
529.956	9632
530.024	10245
530.092	8253
530.161	10491
530.229	11451
530.297	9034
530.365	9580
530.434	8001
530.502	10121
530.570	9720
530.638	7776
530.707	9201
530.775	12018
530.843	9240
530.911	9922
530.979	8914
531.047	8413
531.115	9623
531.183	9372
531.252	9674
531.320	9703
531.388	8577
531.456	10586
531.524	6873
531.592	11330
531.660	12379
531.728	9901
531.796	8693
531.864	9802
531.932	10164
532.000	10224
532.067	10176
532.135	11780
532.203	12708
532.271	13221
532.339	18154
532.407	25394
532.475	16064
532.542	15226
532.610	13753
532.678	17013
532.746	50229
532.814	83501
532.881	22307
532.949	11989
533.017	11126
533.084	10016
533.152	9867
533.220	10799
533.287	9435
533.355	10442
533.423	9653
533.490	10550
533.558	10336
533.625	10317
533.693	12034
533.761	12344
533.828	13252
533.896	13473
533.963	22551
534.031	24831
534.098	23299
534.166	16544
534.233	14565
534.300	16909
534.368	16756
534.435	13807
534.503	12931
534.570	14334
534.637	11616
534.705	12358
534.772	11149
534.840	11006
534.907	14450
534.974	13156
535.041	10640
535.109	12481
535.176	8970
535.243	10217
535.310	9947
535.378	9550
535.445	9355
535.512	10694
535.579	9986
535.646	9180
535.714	11834
535.781	14581
535.848	14562
535.915	18651
535.982	20090
536.049	19201
536.116	16917
536.183	14108
536.250	13015
536.317	12807
536.384	12390
536.451	15022
536.518	12816
536.585	11382
536.652	14988
536.719	15532
536.786	10978
536.853	11473
536.920	15206
536.987	17360
537.053	17436
537.120	54068
537.187	35314
537.254	10120
537.321	9538
537.388	11372
537.454	8409
537.521	9368
537.588	9390
537.654	12141
537.721	11834
537.788	11653
537.855	10150
537.921	11138
537.988	9619
538.055	11191
538.121	8394
538.188	10259
538.254	11302
538.321	15538
538.388	10502
538.454	10475
538.521	9671
538.587	9905
538.654	9452
538.720	9855
538.787	9416
538.853	10997
538.920	11595
538.986	12321
539.053	10106
539.119	11955
539.185	10020
539.252	12466
539.318	11795
539.385	13343
539.451	11214
539.517	12938
539.583	14450
539.650	24413
539.716	40485
539.782	14719
539.849	9699
539.915	11312
539.981	9183
540.047	11384
540.114	10563
540.180	12343
540.246	9925
540.312	13226
540.378	15568
540.444	16432
540.510	23099
540.576	41573
540.643	14261
540.709	9829
540.775	10432
540.841	11400
540.907	15584
540.973	21344
541.039	14117
541.105	13420
541.171	10637
541.237	10628
541.303	11832
541.369	13734
541.435	11948
541.500	15380
541.566	10365
541.632	10705
541.698	8853
541.764	11066
541.830	9121
541.896	9590
541.961	9759
542.027	10102
542.093	9447
542.159	11511
542.224	10271
542.290	15722
542.356	14969
542.421	15613
542.487	12967
542.553	10949
542.618	12181
542.684	10916
542.750	10148
542.815	12428
542.881	18088
542.947	42831
543.012	24287
543.078	11086
543.143	9675
543.209	12452
543.274	9718
543.340	12998
543.405	21119
543.471	24478
543.536	11321
543.602	11873
543.667	10049
543.732	11944
543.798	9532
543.863	10965
543.928	10031
543.994	9973
544.059	10564
544.124	10596
544.190	10373
544.255	10846
544.320	10510
544.386	10140
544.451	12051
544.516	12741
544.581	14690
544.646	30442
544.712	35136
544.777	14478
544.842	15313
544.907	16411
544.972	13501
545.037	14071
545.102	15701
545.168	15342
545.233	15303
545.298	16095
545.363	16377
545.428	16262
545.493	22625
545.558	33770
545.623	17680
545.688	14307
545.753	14264
545.818	14044
545.883	14605
545.947	14242
546.012	15656
546.077	14886
546.142	14075
546.207	14109
546.272	14547
546.337	15668
546.401	15179
546.466	14917
546.531	13994
546.596	14252
546.661	14776
546.725	14729
546.790	11861
546.855	14430
546.919	12380
546.984	13902
547.049	13906
547.113	17281
547.178	13018
547.243	15337
547.307	15162
547.372	17539
547.436	17168
547.501	14260
547.565	15395
547.630	15562
547.695	16247
547.759	18118
547.823	16246
547.888	14065
547.952	13904
548.017	14708
548.081	16309
548.146	20388
548.210	17879
548.274	14399
548.339	13593
548.403	13668
548.468	12426
548.532	13754
548.596	12606
548.660	14242
548.725	15107
548.789	15216
548.853	16643
548.917	15015
548.982	20336
549.046	19351
549.110	14307
549.174	13742
549.238	12942
549.303	12641
549.367	13958
549.431	13767
549.495	13220
549.559	12839
549.623	13751
549.687	16055
549.751	19127
549.815	16236
549.879	15707
549.943	14744
550.007	15932
550.071	15685
550.135	17399
550.199	15553
550.263	14713
550.327	18619
550.391	20648
550.455	16125
550.519	16078
550.582	17501
550.646	19283
550.710	18687
550.774	15056
550.838	16226
550.901	16981
550.965	16582
551.029	16860
551.093	18630
551.156	23016
551.220	39950
551.284	34030
551.347	24122
551.411	51304
551.475	44363
551.538	16949
551.602	16130
551.666	15612
551.729	14185
551.793	16251
551.856	15853
551.920	14771
551.983	14760
552.047	14786
552.110	14998
552.174	13403
552.237	14296
552.301	14392
552.364	14789
552.428	15080
552.491	14682
552.554	14230
552.618	15315
552.681	14788
552.745	16281
552.808	18230
552.871	20064
552.934	16453
552.998	15467
553.061	16861
553.124	16397
553.187	15275
553.251	16760
553.314	16670
553.377	17728
553.440	22227
553.503	50374
553.567	58397
553.630	19907
553.693	15652
553.756	15633
553.819	14366
553.882	15579
553.945	16119
554.008	15416
554.071	13644
554.134	15728
554.197	14133
554.260	14785
554.323	16378
554.386	16024
554.449	14925
554.512	16225
554.575	13848
554.638	15842
554.701	14521
554.764	15834
554.827	14459
554.889	14791
554.952	13889
555.015	13615
555.078	14048
555.141	14259
555.203	14249
555.266	14280
555.329	14238
555.391	13535
555.454	12883
555.517	14278
555.580	12607
555.642	13720
555.705	13124
555.768	14276
555.830	14472
555.893	13920
555.955	13232
556.018	14312
556.080	13278
556.143	12871
556.206	12187
556.268	14667
556.330	13041
556.393	14373
556.455	14013
556.518	19515
556.580	16912
556.643	13255
556.705	12413
556.767	12257
556.830	13507
556.892	14003
556.955	14354
557.017	14522
557.079	13452
557.142	13130
557.204	14062
557.266	19157
557.328	16448
557.391	12403
557.453	12742
557.515	12746
557.577	14549
557.639	13390
557.701	12578
557.764	12413
557.826	12656
557.888	13355
557.950	11041
558.012	13271
558.074	13580
558.136	15992
558.198	16506
558.260	14865
558.322	12193
558.384	13094
558.446	13029
558.508	14359
558.570	15110
558.632	19588
558.694	21980
558.756	18446
558.818	30247
558.880	41317
558.942	18622
559.003	17977
559.065	13362
559.127	13897
559.189	12918
559.251	13522
559.312	14452
559.374	20116
559.436	30735
559.498	19016
559.559	12595
559.621	13372
559.683	15477
559.744	22499
559.806	31276
559.868	28681
559.929	17220
559.991	18170
560.052	16465
560.114	20599
560.176	16733
560.237	20200
560.299	18336
560.360	15577
560.422	15573
560.483	16798
560.545	15485
560.606	15991
560.667	15145
560.729	15653
560.790	15401
560.852	16153
560.913	14971
560.974	15334
561.036	15149
561.097	16033
561.158	15318
561.220	15695
561.281	13761
561.342	16291
561.403	17416
561.465	17560
561.526	25219
561.587	26578
561.648	15829
561.709	15399
561.771	16697
561.832	16071
561.893	15630
561.954	16823
562.015	14865
562.076	16669
562.137	15308
562.198	15825
562.259	15368
562.320	16430
562.381	15732
562.442	18015
562.503	16310
562.564	15619
562.625	15662
562.686	16552
562.747	15955
562.808	16324
562.869	17374
562.930	21979
562.991	19127
563.051	17961
563.112	17067
563.173	17075
563.234	15873
563.294	16875
563.355	16006
563.416	16476
563.477	15747
563.537	16673
563.598	17009
563.659	17195
563.720	16071
563.780	17870
563.841	16062
563.901	16674
563.962	16755
564.023	16837
564.083	16596
564.144	16633
564.204	16458
564.265	17551
564.325	20013
564.386	31216
564.446	23082
564.507	17105
564.567	15464
564.628	16461
564.688	15717
564.749	18046
564.809	17824
564.869	19648
564.930	17369
564.990	16493
565.050	14916
565.111	15982
565.171	16169
565.231	15298
565.292	15885
565.352	15768
565.412	15140
565.472	15711
565.532	15541
565.593	15586
565.653	13996
565.713	16727
565.773	16087
565.833	16889
565.893	17854
565.953	16218
566.013	16318
566.074	17877
566.134	20451
566.194	27386
566.254	24565
566.314	18826
566.374	16302
566.434	17592
566.494	15648
566.554	16759
566.614	15841
566.673	16816
566.733	16720
566.793	16749
566.853	16553
566.913	16685
566.973	16031
567.033	16967
567.092	15953
567.152	16878
567.212	17297
567.272	17228
567.331	17309
567.391	16410
567.451	17283
567.511	21827
567.570	20000
567.630	16280
567.690	15068
567.749	14802
567.809	15410
567.868	17068
567.928	16661
567.988	17161
568.047	15883
568.107	15505
568.166	15635
568.226	16190
568.285	16106
568.345	16739
568.404	15958
568.464	16318
568.523	14096
568.582	15020
568.642	14331
568.701	15792
568.761	16623
568.820	15631
568.879	17540
568.939	19798
568.998	16165
569.057	15337
569.116	14894
569.176	14317
569.235	14515
569.294	15444
569.353	14499
569.413	16199
569.472	15212
569.531	14476
569.590	13767
569.649	14765
569.708	14108
569.767	16263
569.827	16379
569.886	14393
569.945	13915
570.004	13913
570.063	15367
570.122	14505
570.181	15836
570.240	18868
570.299	15774
570.358	15194
570.417	12642
570.475	13347
570.534	14248
570.593	14447
570.652	14662
570.711	14971
570.770	13424
570.829	15610
570.887	14806
570.946	14318
571.005	13554
571.064	14431
571.122	13856
571.181	15292
571.240	13128
571.299	14665
571.357	15674
571.416	16417
571.475	16993
571.533	16130
571.592	14145
571.650	15853
571.709	13372
571.768	13138
571.826	13200
571.885	14072
571.943	12925
572.002	13838
572.060	13903
572.119	13337
572.177	12791
572.236	12847
572.294	12468
572.352	12744
572.411	13212
572.469	12953
572.528	12785
572.586	13486
572.644	13610
572.703	14884
572.761	13212
572.819	13189
572.877	11746
572.936	13285
572.994	11682
573.052	13614
573.110	12395
573.169	13485
573.227	11307
573.285	13485
573.343	12351
573.401	12357
573.459	12671
573.517	12361
573.576	11401
573.634	12888
573.692	11945
573.750	12364
573.808	12465
573.866	13499
573.924	15371
573.982	14556
574.040	12452
574.098	13212
574.155	11814
574.213	12312
574.271	12181
574.329	11029
574.387	10682
574.445	11694
574.503	11507
574.560	11503
574.618	10740
574.676	11279
574.734	11524
574.792	11353
574.849	10640
574.907	10880
574.965	10022
575.022	10944
575.080	10069
575.138	12189
575.195	10565
575.253	10730
575.311	11449
575.368	11572
575.426	10436
575.483	11663
575.541	10963
575.598	10402
575.656	11396
575.713	10950
575.771	10962
575.828	12542
575.886	10754
575.943	12065
576.001	12627
576.058	12502
576.115	12449
576.173	14723
576.230	13641
576.287	14439
576.345	12565
576.402	12552
576.459	11669
576.517	12778
576.574	13426
576.631	14424
576.688	13330
576.746	12583
576.803	12559
576.860	12287
576.917	13231
576.974	12220
577.031	11920
577.089	13315
577.146	12226
577.203	13180
577.260	11705
577.317	12865
577.374	13384
577.431	13383
577.488	11977
577.545	13487
577.602	12784
577.659	12596
577.716	12806
577.773	12718
577.830	12264
577.886	13486
577.943	12998
578.000	14024
578.057	15811
578.114	18442
578.171	21932
578.227	30056
578.284	26975
578.341	23263
578.398	18126
578.454	16799
578.511	16158
578.568	16146
578.625	13752
578.681	13199
578.738	12202
578.794	13270
578.851	12633
578.908	13992
578.964	13705
579.021	14453
579.077	12878
579.134	12925
579.190	11478
579.247	12565
579.303	11475
579.360	12837
579.416	12040
579.473	12348
579.529	11589
579.586	13114
579.642	12330
579.698	13393
579.755	13019
579.811	14441
579.867	14289
579.924	14678
579.980	17304
580.036	21599
580.093	28878
580.149	44793
580.205	44667
580.261	32801
580.317	25656
580.374	22459
580.430	20625
580.486	17624
580.542	15354
580.598	15576
580.619	15072
580.654	14207
580.692	13991
580.710	13902
580.765	12778
580.767	12749
580.823	14050
580.838	13727
580.879	12900
580.911	13142
580.935	13338
580.984	12617
580.991	12527
581.047	14035
581.057	14235
581.103	15193
581.130	16735
581.159	18344
581.203	20249
581.215	20748
581.270	19599
581.276	19207
581.326	15518
581.349	15981
581.382	16730
581.422	15816
581.438	15401
581.494	14959
581.494	14954
581.550	15055
581.567	15072
581.606	14977
581.640	14161
581.661	13727
581.713	14512
581.717	14582
581.773	13865
581.786	14006
581.829	14387
581.859	13881
581.885	13521
581.932	14266
581.940	14381
581.996	13300
582.004	13327
582.052	13515
582.077	13351
582.107	13130
582.150	14372
582.163	14755
582.219	14246
582.223	14211
582.274	13810
582.296	14226
582.330	14847
582.368	14781
582.386	14804
582.441	14669
582.441	14668
582.497	14248
582.514	13964
582.552	13599
582.587	14832
582.608	15489
582.659	14498
582.663	14420
582.719	14625
582.732	14684
582.774	14950
582.805	15167
582.830	15316
582.877	15222
582.885	15231
582.941	16127
582.950	16253
582.996	16872
583.023	18144
583.052	19932
583.095	22509
583.107	23225
583.162	29679
583.168	29769
583.218	29839
583.240	28161
583.273	25058
583.313	22411
583.328	21591
583.384	21090
583.385	21015
583.439	18367
583.458	18000
583.494	17641
583.531	17007
583.549	16765
583.603	16339
583.605	16317
583.660	15682
583.676	15538
583.715	15454
583.748	15833
583.770	16111
583.820	16372
583.825	16368
583.881	15783
583.893	15638
583.936	15460
583.965	15285
583.991	15093
584.038	15697
584.046	15786
584.101	15220
584.110	15218
584.156	15270
584.183	15488
584.211	15688
584.255	15317
584.266	15252
584.321	14508
584.328	14606
584.376	15542
584.400	15741
584.431	16011
584.472	15859
584.486	15756
584.541	15338
584.545	15323
584.596	15296
584.617	15622
584.651	16481
584.689	17024
584.706	17104
584.761	16775
584.762	16759
584.816	16323
584.834	16424
584.871	16584
584.906	17077
584.926	17354
584.978	16977
584.980	16978
585.035	18371
585.051	18320
585.090	18491
585.123	18893
585.145	18904
585.195	18592
585.200	18617
585.254	19023
585.267	19137
585.309	19585
585.340	20035
585.364	20358
585.412	19644
585.419	19523
585.473	20568
585.484	20427
585.528	20536
585.556	21595
585.583	22877
585.628	23810
585.637	24561
585.692	31896
585.700	32898
585.747	36315
585.772	35072
585.801	29590
585.845	22854
585.856	22124
585.910	20586
585.917	20310
585.965	19983
585.989	20347
586.019	20924
586.061	20686
586.074	20612
586.128	20942
586.133	20988
586.183	22055
586.205	22152
586.237	22492
586.277	23072
586.292	23132
586.346	22861
586.349	22850
586.401	23514
586.421	23695
586.455	24578
586.493	26097
586.509	28103
586.564	35896
586.565	36118
586.618	52206
586.637	53263
586.672	41136
586.709	30207
586.727	27751
586.781	24971
586.781	25006
586.835	23275
586.853	23150
586.889	23351
586.925	23228
586.944	23197
586.996	24475
586.998	24563
587.052	24579
587.068	24801
587.106	25186
587.140	25034
587.161	24869
587.212	25334
587.215	25426
587.269	25719
587.284	25745
587.323	25806
587.356	25963
587.377	26162
587.427	27081
587.431	27172
587.485	26923
587.499	26786
587.539	26984
587.571	27449
587.593	27936
587.643	28782
587.648	28828
587.702	27551
587.715	27658
587.755	29111
587.786	29483
587.810	29348
587.858	28907
587.864	29103
587.917	31129
587.930	31578
587.971	32771
588.001	32999
588.025	33070
588.073	33555
588.079	33701
588.133	33549
588.145	33818
588.187	35331
588.217	35844
588.241	36888
588.288	38786
588.295	39173
588.348	42324
588.360	42876
588.402	45087
588.431	46522
588.456	48463
588.503	52603
588.510	53399
588.564	58771
588.575	60049
588.617	66115
588.646	70208
588.671	76207
588.718	89817
588.725	93987
588.778	130823
588.789	140133
588.832	223480
588.861	287677
588.886	396230
588.932	622168
588.939	640443
588.993	716722
589.004	715383
589.047	446266
589.075	281382
589.100	215625
589.147	114943
589.154	111594
589.207	89026
589.218	84570
589.261	82575
589.290	82104
589.314	86701
589.361	97886
589.368	102908
589.421	147888
589.433	159219
589.475	276784
589.504	368940
589.528	470240
589.576	651955
589.582	632601
589.635	372296
589.647	320540
589.689	181110
589.718	92958
589.742	81920
589.790	62039
589.795	61977
589.849	60813
589.861	60895
589.902	64403
589.932	64519
589.955	57491
590.004	43448
590.009	43143
590.062	39437
590.075	38434
590.115	37786
590.146	37270
590.168	37642
590.218	37933
590.222	38056
590.275	38591
590.289	38614
590.328	39049
590.360	39032
590.381	38537
590.431	37295
590.435	37431
590.488	37817
590.503	37845
590.541	37849
590.574	37691
590.594	37670
590.645	37418
590.647	37483
590.700	36000
590.716	35531
590.753	35998
590.787	36251
590.806	36392
590.859	36515
590.859	36620
590.912	36398
590.930	36278
590.965	36667
591.001	36721
591.018	36904
591.071	37181
591.072	37076
591.124	37787
591.143	37974
591.177	38223
591.214	38178
591.230	38598
591.283	39762
591.285	39682
591.336	40184
591.356	40274
591.389	39860
591.427	38923
591.442	38457
591.495	36577
591.498	36330
591.547	37260
591.569	37445
591.600	37766
591.640	37952
591.653	38253
591.706	39203
591.711	39171
591.759	41177
591.782	42114
591.811	43970
591.853	46137
591.864	45359
591.917	40701
591.924	39900
591.969	40092
591.995	40086
592.022	40416
592.066	40499
592.075	41430
592.127	46516
592.137	47319
592.180	51395
592.208	53687
592.233	50240
592.279	43167
592.285	43081
592.338	41323
592.350	40774
592.390	40115
592.421	39431
592.443	39872
592.491	40425
592.495	40566
592.548	40745
592.562	40672
592.600	40838
592.633	40737
592.653	40495
592.704	39319
592.705	39560
592.775	40258
592.846	39953
592.916	39314
592.987	41194
593.058	39903
593.128	39159
593.199	40254
593.270	38615
593.341	38749
593.411	37627
593.482	37366
593.553	38413
593.623	38000
593.694	39215
593.764	41998
593.835	38134
593.906	38340
593.976	38089
594.047	40665
594.117	45567
594.188	45655
594.258	36721
594.329	37271
594.399	37262
594.470	36835
594.540	36939
594.611	38145
594.681	36208
594.751	36435
594.822	39375
594.892	40033
594.963	40994
595.033	40700
595.103	39617
595.174	42982
595.244	56354
595.314	67424
595.384	41219
595.455	40296
595.525	40240
595.595	40684
595.665	40956
595.736	40291
595.806	40663
595.876	39955
595.946	39852
596.016	38201
596.087	40305
596.157	40400
596.227	39128
596.297	41547
596.367	41603
596.437	45080
596.507	55338
596.577	65496
596.647	43469
596.717	40469
596.787	39913
596.857	40632
596.927	40894
596.997	40035
597.067	41431
597.137	43104
597.207	43643
597.277	41752
597.347	41518
597.417	42082
597.487	43016
597.557	42929
597.626	42443
597.696	45191
597.766	52244
597.836	63545
597.906	45906
597.975	42017
598.045	41010
598.115	40340
598.185	41284
598.254	42950
598.324	43158
598.394	41788
598.464	42578
598.533	41801
598.603	40880
598.672	41661
598.742	41231
598.812	41278
598.881	40821
598.951	41538
599.020	41269
599.090	40508
599.159	41470
599.229	40212
599.299	39932
599.368	41441
599.437	40438
599.507	41350
599.576	42896
599.646	43949
599.715	43926
599.785	43155
599.854	44889
599.924	48745
599.993	45549
600.062	43390
600.132	43387
600.201	44612
600.270	45471
600.340	45147
600.409	44983
600.478	45942
600.547	45150
600.617	47086
600.686	45711
600.755	44318
600.824	45523
600.894	46054
600.963	44995
601.032	45107
601.101	45498
601.170	45240
601.239	45871
601.308	48208
601.378	46697
601.447	47250
601.516	46261
601.585	48180
601.654	48105
601.723	49222
601.792	50292
601.861	50673
601.930	53246
601.999	53774
602.068	50692
602.137	51398
602.206	51252
602.275	53001
602.343	53230
602.412	53304
602.481	52294
602.550	52613
602.619	52671
602.688	53560
602.756	54241
602.825	53727
602.894	54408
602.963	53902
603.032	54838
603.100	53792
603.169	52714
603.238	54986
603.307	51993
603.375	52875
603.444	54017
603.513	51359
603.581	51606
603.650	53983
603.719	46943
603.787	46236
603.856	47201
603.924	47925
603.993	47578
604.061	46580
604.130	47170
604.198	48223
604.267	48037
604.335	49387
604.404	48075
604.472	49374
604.541	49850
604.609	50783
604.678	51593
604.746	51403
604.815	53098
604.883	52148
604.951	51170
605.020	52001
605.088	49276
605.156	47145
605.225	47531
605.293	46181
605.361	46809
605.429	46207
605.498	46893
605.566	47274
605.634	47850
605.702	47892
605.771	47796
605.839	49608
605.907	46477
605.975	47832
606.043	47462
606.111	45367
606.180	49548
606.248	47014
606.316	47448
606.384	49722
606.452	47434
606.520	39398
606.588	36021
606.656	34026
606.724	34715
606.792	33238
606.860	31809
606.928	30505
606.996	31519
607.064	30978
607.132	30738
607.200	30858
607.267	32377
607.335	31223
607.403	32644
607.471	31495
607.539	31671
607.607	31323
607.674	30027
607.742	31871
607.810	30600
607.878	30373
607.946	29165
608.013	30787
608.081	30854
608.149	30881
608.216	30516
608.284	31898
608.352	30836
608.419	33205
608.487	43726
608.555	34736
608.622	29910
608.690	30528
608.757	30848
608.825	31468
608.893	32329
608.960	33705
609.028	37249
609.095	46002
609.163	33185
609.230	30981
609.298	31664
609.365	29139
609.432	31527
609.500	33044
609.567	33030
609.635	34199
609.702	34670
609.769	36361
609.837	36980
609.904	33746
609.971	32299
610.039	38243
610.106	47120
610.173	72267
610.241	140273
610.308	186757
610.375	122586
610.442	50992
610.509	37114
610.577	34988
610.644	32213
610.711	31773
610.778	32539
610.845	31175
610.912	32997
610.980	33793
611.047	37256
611.114	34079
611.181	30815
611.248	30326
611.315	32302
611.382	30549
611.449	30959
611.516	31788
611.583	31635
611.650	31403
611.717	31545
611.784	31568
611.851	33288
611.918	34852
611.984	36184
612.051	45319
612.118	69226
612.185	136118
612.252	102052
612.319	41993
612.386	35807
612.452	34275
612.519	37828
612.586	50035
612.653	38495
612.719	32431
612.786	32668
612.853	31309
612.919	30476
612.986	32197
613.053	30403
613.120	29297
613.186	28730
613.253	31148
613.319	29094
613.386	28864
613.453	29409
613.519	32290
613.586	32305
613.652	36363
613.719	34496
613.785	32726
613.852	30290
613.918	29170
613.985	31534
614.051	32825
614.118	40593
614.184	39536
614.250	29096
614.317	28993
614.383	29658
614.449	29020
614.516	30003
614.582	31056
614.648	28812
614.715	29708
614.781	28880
614.847	32389
614.914	32438
614.980	31979
615.046	30210
615.112	30443
615.179	29619
615.245	30306
615.311	30524
615.377	30233
615.443	29937
615.509	31588
615.575	32228
615.642	30979
615.708	32936
615.774	35179
615.840	39729
615.906	42865
615.972	44007
616.038	53579
616.104	89267
616.170	179070
616.236	165009
616.302	61760
616.368	46313
616.434	42232
616.500	42822
616.565	41874
616.631	43525
616.697	40699
616.763	41344
616.829	45409
616.895	60090
616.961	58357
617.026	45624
617.092	39445
617.158	39159
617.224	37312
617.289	38245
617.355	38996
617.421	40647
617.487	40891
617.552	37595
617.618	37212
617.684	36813
617.749	37850
617.815	36086
617.880	35988
617.946	35335
618.012	36944
618.077	35568
618.143	36434
618.208	36781
618.274	38295
618.339	39776
618.405	38284
618.470	38386
618.536	40708
618.601	44379
618.667	43101
618.732	40519
618.798	39018
618.863	39398
618.928	38513
618.994	40988
619.059	42060
619.124	44723
619.190	41338
619.255	39415
619.320	41014
619.386	39480
619.451	37615
619.516	39183
619.581	39920
619.647	39238
619.712	39894
619.777	40205
619.842	40330
619.907	40712
619.972	39515
620.038	40802
620.103	39400
620.168	37914
620.233	38648
620.298	39338
620.363	37679
620.428	39007
620.493	38941
620.558	38665
620.623	39379
620.688	38642
620.753	38126
620.818	37307
620.883	38591
620.948	38804
621.013	38925
621.078	39768
621.143	39676
621.207	42534
621.272	42891
621.337	42715
621.402	47791
621.467	57179
621.532	59253
621.596	50054
621.661	46839
621.726	45339
621.791	45118
621.855	46224
621.920	46444
621.985	49981
622.049	54579
622.114	51384
622.179	48908
622.243	53195
622.308	51266
622.373	52207
622.437	51217
622.502	50128
622.566	49909
622.631	50526
622.695	51098
622.760	50716
622.824	48582
622.889	48069
622.953	50481
623.018	54788
623.082	53135
623.147	49539
623.211	47673
623.276	48080
623.340	46660
623.404	45780
623.469	47024
623.533	45597
623.597	45112
623.662	45879
623.726	45723
623.790	44064
623.854	45791
623.919	46387
623.983	44729
624.047	45652
624.111	43753
624.176	45112
624.240	45081
624.304	46874
624.368	45082
624.432	44585
624.496	43891
624.560	44769
624.625	44462
624.689	43182
624.753	43530
624.817	43162
624.881	41479
624.945	41014
625.009	41779
625.073	40880
625.137	42305
625.201	44321
625.265	45077
625.329	41805
625.393	42204
625.456	41424
625.520	42909
625.584	45650
625.648	52074
625.712	73388
625.776	144371
625.839	158397
625.903	70864
625.967	47454
626.031	70090
626.095	97694
626.158	47194
626.222	36597
626.286	36218
626.349	35717
626.413	35932
626.477	37988
626.540	34876
626.604	34155
626.668	36190
626.731	35779
626.795	38510
626.858	36080
626.922	35491
626.986	35313
627.049	34237
627.113	34930
627.176	33818
627.240	33774
627.303	32705
627.366	33040
627.430	34300
627.493	34409
627.557	35527
627.620	36026
627.684	33905
627.747	33550
627.810	32102
627.874	33253
627.937	32322
628.000	33566
628.064	34347
628.127	30172
628.190	31782
628.253	32817
628.317	31155
628.380	30030
628.443	29834
628.506	31350
628.569	29918
628.632	28114
628.696	29542
628.759	29201
628.822	28853
628.885	28245
628.948	28992
629.011	28951
629.074	28165
629.137	27518
629.200	27655
629.263	30569
629.326	26927
629.389	27725
629.452	28679
629.515	28985
629.578	27417
629.641	29237
629.704	28556
629.767	28401
629.830	28440
629.892	26548
629.955	26341
630.018	28895
630.081	26055
630.144	28368
630.207	26364
630.269	30742
630.332	30130
630.395	28411
630.458	25295
630.520	24327
630.583	26615
630.646	24751
630.708	24832
630.771	24585
630.834	25991
630.896	23223
630.959	24661
631.021	22693
631.084	25604
631.146	27419
631.209	29766
631.272	24641
631.334	23167
631.397	23692
631.459	22246
631.522	23026
631.584	23088
631.646	23496
631.709	23595
631.771	26078
631.834	24332
631.896	22856
631.958	22093
632.021	23247
632.083	22850
632.145	24087
632.208	22665
632.270	23482
632.332	21623
632.395	21221
632.457	22774
632.519	22587
632.581	23168
632.643	21512
632.706	22301
632.768	21553
632.830	22612
632.892	21312
632.954	22095
633.016	22981
633.078	22110
633.141	20525
633.203	21701
633.265	20874
633.327	21488
633.389	20432
633.451	22889
633.513	23323
633.575	25199
633.637	22787
633.698	21695
633.760	21081
633.822	20827
633.884	20557
633.946	21272
634.008	20337
634.070	20963
634.132	22060
634.193	21381
634.255	21154
634.317	19461
634.379	20204
634.441	20767
634.502	20257
634.564	20365
634.626	19413
634.687	20506
634.749	20580
634.811	18458
634.873	17476
634.934	19114
634.996	20541
635.057	19253
635.119	19099
635.181	19113
635.242	19961
635.304	16984
635.365	21079
635.427	19701
635.488	19551
635.550	18009
635.611	19586
635.673	17648
635.734	20786
635.796	20188
635.857	20159
635.918	19402
635.980	20467
636.041	18932
636.102	19854
636.164	19418
636.225	19903
636.286	17219
636.348	19602
636.409	17870
636.470	17692
636.531	19057
636.593	21643
636.654	21744
636.715	18487
636.776	17489
636.838	17362
636.899	19549
636.960	17472
637.021	17844
637.082	17182
637.143	18037
637.204	16732
637.265	16935
637.326	17554
637.387	18012
637.448	15697
637.509	18568
637.570	16256
637.631	16938
637.692	15161
637.753	15304
637.814	16770
637.875	16312
637.936	17366
637.997	15449
638.058	17339
638.119	18017
638.179	16357
638.240	16743
638.301	16082
638.362	15495
638.423	17154
638.483	17450
638.544	15047
638.605	17316
638.666	15280
638.726	16835
638.787	16133
638.848	16427
638.908	15375
638.969	15466
639.030	16384
639.090	14635
639.151	14515
639.211	17512
639.272	18073
639.332	20180
639.393	16702
639.453	15254
639.514	15645
639.574	15499
639.635	14258
639.695	16231
639.756	14290
639.816	16087
639.877	15397
639.937	18387
639.997	19081
640.058	14605
640.118	13874
640.178	15172
640.239	14643
640.299	15318
640.359	13724
640.420	14993
640.480	14948
640.540	13817
640.600	13937
640.661	14924
640.721	14089
640.781	17360
640.841	13426
640.901	15190
640.961	14319
641.021	15631
641.082	14494
641.142	16708
641.202	15997
641.262	13804
641.322	15001
641.382	14159
641.442	15486
641.502	14602
641.562	15157
641.622	13857
641.682	14837
641.742	13707
641.802	15793
641.861	15012
641.921	14455
641.981	16037
642.041	16245
642.101	16974
642.161	13085
642.221	13928
642.280	13470
642.340	13266
642.400	13221
642.460	14906
642.519	14359
642.579	14153
642.639	15428
642.698	11833
642.758	16465
642.818	13840
642.877	12587
642.937	14624
642.997	15566
643.056	16169
643.116	12395
643.175	15298
643.235	13481
643.294	13983
643.354	14358
643.414	14128
643.473	13949
643.532	14108
643.592	15199
643.651	17928
643.711	21646
643.770	30713
643.830	58334
643.889	110355
643.948	33319
644.008	15813
644.067	13763
644.126	12665
644.186	13345
644.245	13358
644.304	10663
644.363	14017
644.423	10600
644.482	13355
644.541	13033
644.600	11223
644.659	13727
644.719	13352
644.778	14661
644.837	15919
644.896	20790
644.955	32522
645.014	18649
645.073	14759
645.132	12795
645.191	13414
645.250	12991
645.309	14314
645.368	12017
645.427	13687
645.486	13125
645.545	15748
645.604	11499
645.663	13255
645.722	11623
645.781	13719
645.840	12807
645.898	12318
645.957	14875
646.016	14404
646.075	18013
646.134	26849
646.192	55645
646.251	75012
646.310	19323
646.369	12016
646.427	12686
646.486	11478
646.545	11769
646.603	11642
646.662	12152
646.721	12111
646.779	10500
646.838	10274
646.896	11977
646.955	11287
647.014	13356
647.072	14983
647.131	22295
647.189	14088
647.248	9985
647.306	10770
647.365	12050
647.423	8969
647.481	11792
647.540	9370
647.598	10511
647.657	10890
647.715	11541
647.773	10338
647.832	11654
647.890	11023
647.948	11045
648.007	12365
648.065	9697
648.123	10963
648.181	12447
648.240	12490
648.298	10691
648.356	11179
648.414	11377
648.472	11985
648.531	11825
648.589	11290
648.647	10927
648.705	11389
648.763	11019
648.821	10453
648.879	9573
648.937	11537
648.995	11956
649.053	11508
649.111	11513
649.169	14139
649.227	16300
649.285	22282
649.343	46489
649.401	28925
649.459	18729
649.516	15380
649.574	11849
649.632	16489
649.690	17340
649.748	15131
649.806	14507
649.863	18926
649.921	20013
649.979	15127
650.037	11036
650.094	10201
650.152	11017
650.210	9261
650.268	10884
650.325	10532
650.383	9305
650.440	9956
650.498	9697
650.556	10976
650.613	9119
650.671	10522
650.728	9792
650.786	10726
650.843	10097
650.901	8503
650.958	10109
651.016	10217
651.073	9613
651.131	9209
651.188	9073
651.246	10245
651.303	9981
651.360	9205
651.418	9623
651.475	10742
651.532	9004
651.590	10382
651.647	8323
651.704	9653
651.762	9390
651.819	9662
651.876	9218
651.933	9518
651.990	10779
652.048	8126
652.105	8396
652.162	9592
652.219	9300
652.276	9779
652.333	9283
652.390	8295
652.448	9541
652.505	9689
652.562	9155
652.619	9541
652.676	11323
652.733	11398
652.790	8400
652.847	7526
652.904	8796
652.961	8164
653.017	8091
653.074	8948
653.131	8654
653.188	8471
653.245	7764
653.302	8113
653.359	8631
653.415	9196
653.472	8435
653.529	9524
653.586	8094
653.642	7634
653.699	9035
653.756	8195
653.813	7343
653.869	8835
653.926	8129
653.983	7282
654.039	8874
654.096	8486
654.152	9381
654.209	8383
654.266	8690
654.322	7717
654.379	9699
654.435	11533
654.492	10031
654.548	12564
654.605	15597
654.661	12063
654.717	9631
654.774	9496
654.830	9114
654.887	8776
654.943	9620
655.000	9736
655.056	10316
655.112	10605
655.168	7975
655.225	8982
655.281	10344
655.337	12972
655.394	17948
655.450	14288
655.506	12835
655.562	18893
655.618	15319
655.675	8884
655.731	8633
655.787	8092
655.843	9709
655.899	7527
655.955	8280
656.011	8558
656.067	7907
656.123	8534
656.179	9655
656.235	10162
656.291	7547
656.347	10096
656.403	8214
656.459	9465
656.515	9230
656.571	9712
656.627	10327
656.683	9227
656.739	9504
656.795	8800
656.850	8324
656.906	10474
656.962	9797
657.018	8560
657.074	8982
657.129	9333
657.185	9127
657.241	10310
657.297	7791
657.352	8113
657.408	8236
657.464	9932
657.519	8766
657.575	8700
657.630	9333
657.686	8509
657.742	8349
657.797	8603
657.853	7861
657.908	9548
657.964	8309
658.019	8842
658.075	7636
658.130	9457
658.186	8138
658.241	8821
658.297	7975
658.352	8713
658.407	8516
658.463	7789
658.518	8689
658.573	8429
658.629	7725
658.684	7716
658.739	8232
658.795	7279
658.850	8530
658.905	8280
658.960	8774
659.016	7025
659.071	7415
659.126	8942
659.181	7611
659.236	10986
659.291	10449
659.346	9569
659.401	9075
659.457	9986
659.512	9837
659.567	9582
659.622	7560
659.677	8483
659.732	8175
659.787	9304
659.842	8449
659.897	12402
659.952	9444
660.007	8301
660.061	7937
660.116	8133
660.171	7652
660.226	7692
660.281	8486
660.336	7759
660.391	8343
660.445	7430
660.500	7988
660.555	8541
660.610	8472
660.664	8726
660.719	7977
660.774	8884
660.828	8549
660.883	8679
660.938	8640
660.992	7367
661.047	7727
661.101	8738
661.156	8103
661.211	7663
661.265	8372
661.320	8024
661.374	7630
661.429	8708
661.483	8386
661.538	7864
661.592	8362
661.647	8329
661.701	7600
661.755	8777
661.810	8421
661.864	7851
661.919	8561
661.973	9203
662.027	7386
662.081	7799
662.136	8559
662.190	8031
662.244	9133
662.299	8505
662.353	9031
662.407	8401
662.461	8457
662.515	9636
662.569	9108
662.624	9161
662.678	8619
662.732	8543
662.786	8785
662.840	8868
662.894	8231
662.948	8350
663.002	7987
663.056	8216
663.110	7905
663.164	7285
663.218	7592
663.272	8041
663.326	8205
663.380	8044
663.434	8871
663.488	8293
663.542	9759
663.595	9053
663.649	8107
663.703	8696
663.757	8436
663.811	7885
663.864	8102
663.918	8048
663.972	8529
664.026	7810
664.079	7955
664.133	9260
664.187	7686
664.240	7888
664.294	7916
664.348	9293
664.401	8451
664.455	7805
664.508	7553
664.562	8367
664.615	7237
664.669	7199
664.722	8230
664.776	8485
664.829	8569
664.883	7944
664.936	8620
664.990	9133
665.043	9445
665.097	10239
665.150	11305
665.203	8319
665.257	9276
665.310	8788
665.363	9081
665.417	9310
665.470	9317
665.523	9170
665.576	7540
665.630	9260
665.683	9083
665.736	9561
665.789	8967
665.842	9119
665.895	9166
665.949	9095
666.002	8491
666.055	8051
666.108	9404
666.161	9565
666.214	8854
666.267	9000
666.320	9543
666.373	9183
666.426	9076
666.479	8940
666.532	10383
666.585	10573
666.638	9664
666.691	10240
666.744	10203
666.796	9738
666.849	9432
666.902	9626
666.955	8342
667.008	8429
667.060	8600
667.113	8859
667.166	8023
667.219	8352
667.271	9046
667.324	8179
667.377	9058
667.430	8435
667.482	9271
667.535	9298
667.587	9763
667.640	8360
667.693	9125
667.745	10012
667.798	9903
667.850	9264
667.903	9579
667.955	9173
668.008	9797
668.060	10766
668.113	11109
668.165	10954
668.218	10543
668.270	10226
668.322	9617
668.375	9655
668.427	10424
668.479	8687
668.532	9377
668.584	10302
668.636	9447
668.689	9573
668.741	8703
668.793	9602
668.845	9538
668.898	9470
668.950	9468
669.002	10082
669.054	9464
669.106	9829
669.158	10098
669.211	10758
669.263	8987
669.315	10938
669.367	9910
669.419	9668
669.471	11040
669.523	10105
669.575	10853
669.627	10621
669.679	9609
669.731	9995
669.783	10007
669.835	10835
669.886	10432
669.938	10332
669.990	10734
670.042	11284
670.094	11711
670.146	11703
670.197	13143
670.249	15412
670.301	17301
670.353	21625
670.404	27351
670.456	37995
670.508	53763
670.560	81750
670.611	127499
670.663	214188
670.715	401674
670.766	513298
670.818	255647
670.869	76097
670.921	40875
670.972	28075
671.024	22546
671.075	17784
671.127	15786
671.178	14171
671.230	13356
671.281	12502
671.333	12178
671.384	11836
671.436	11987
671.487	12037
671.538	11742
671.590	11857
671.641	12877
671.692	12760
671.744	15187
671.795	14842
671.846	12467
671.897	11272
671.949	10942
672.000	10852
672.051	9754
672.102	10917
672.153	10652
672.204	9878
672.256	9834
672.307	10548
672.358	10753
672.409	10285
672.460	9490
672.511	9879
672.562	9426
672.613	9370
672.664	9495
672.715	9699
672.766	9639
672.817	9267
672.868	8579
672.919	9126
672.970	9018
673.021	8176
673.071	9081
673.122	9292
673.173	9399
673.224	8460
673.275	9049
673.326	8407
673.376	8586
673.427	8747
673.478	8692
673.528	8830
673.579	8183
673.630	8589
673.680	9722
673.731	7581
673.782	8027
673.832	8486
673.883	9406
673.934	8743
673.984	7541
674.035	7700
674.085	8688
674.136	9380
674.186	9424
674.237	10725
674.287	14106
674.338	9106
674.388	8742
674.438	8917
674.489	8077
674.539	7809
674.589	8580
674.640	9029
674.690	8831
674.740	9984
674.791	10245
674.841	9003
674.891	8387
674.942	8301
674.992	8074
675.042	7317
675.092	7868
675.142	7587
675.193	7702
675.243	7534
675.293	8805
675.343	7836
675.393	8913
675.443	8563
675.493	7520
675.543	7200
675.593	7802
675.643	7884
675.693	8328
675.743	8021
675.793	8103
675.843	7889
675.893	8009
675.943	7571
675.993	6602
676.043	8411
676.093	7796
676.142	7377
676.192	7618
676.242	7368
676.292	7594
676.341	7947
676.391	8499
676.441	6963
676.491	7352
676.540	7073
676.590	7857
676.640	7762
676.689	7604
676.739	6503
676.789	7287
676.838	6566
676.888	8192
676.937	6410
676.987	6905
677.037	7261
677.086	6410
677.136	7021
677.185	7268
677.235	5852
677.284	7046
677.333	7197
677.383	5796
677.432	6114
677.482	6396
677.531	6546
677.580	6916
677.630	6305
677.679	6415
677.728	7093
677.778	6552
677.827	7113
677.876	5898
677.925	5989
677.975	6640
678.024	6762
678.073	6714
678.122	7432
678.171	7325
678.220	7781
678.269	8380
678.319	7827
678.368	6930
678.417	6300
678.466	8657
678.515	7979
678.564	7810
678.613	7491
678.662	7569
678.711	6866
678.760	6754
678.809	6350
678.857	7120
678.906	8087
678.955	6984
679.004	7612
679.053	7200
679.102	7305
679.151	7752
679.199	7001
679.248	6370
679.297	7422
679.346	7097
679.394	6051
679.443	6882
679.492	6871
679.540	6601
679.589	6874
679.638	7317
679.686	6481
679.735	5825
679.784	6559
679.832	6642
679.881	6402
679.929	5605
679.978	5454
680.026	5853
680.075	6425
680.123	5908
680.172	6402
680.220	5039
680.268	6542
680.317	5832
680.365	5777
680.414	5887
680.462	5038
680.510	6569
680.559	6297
680.607	5993
680.655	6067
680.703	6453
680.752	5545
680.800	5310
680.848	5031
680.896	5250
680.945	5572
680.993	5369
681.041	6051
681.089	5286
681.137	5053
681.185	4975
681.233	6050
681.258	5681
681.281	5284
681.329	5829
681.377	5438
681.380	5557
681.425	6849
681.473	5712
681.502	6373
681.521	6733
681.569	7210
681.617	7010
681.624	6994
681.665	6526
681.713	7450
681.745	7034
681.761	6761
681.809	6087
681.857	7100
681.867	6972
681.904	6345
681.952	6790
681.989	7232
682.000	7307
682.048	6952
682.096	7139
682.111	7360
682.143	7679
682.191	7846
682.233	8130
682.239	8126
682.286	7305
682.334	7418
682.354	7425
682.382	7317
682.430	8387
682.476	7122
682.477	7052
682.525	7408
682.572	8242
682.598	7638
682.620	7090
682.667	8580
682.715	8874
682.720	8936
682.763	8966
682.810	8304
682.841	8259
682.857	8201
682.905	8722
682.952	9146
682.963	9081
683.000	8682
683.047	9167
683.085	9326
683.095	9313
683.142	8407
683.190	8981
683.206	8701
683.237	8111
683.284	9495
683.328	9229
683.332	9173
683.379	8798
683.426	8492
683.449	8862
683.473	9134
683.521	9267
683.568	9681
683.571	9681
683.615	9251
683.662	9421
683.693	9285
683.709	9168
683.757	9789
683.804	10074
683.814	10065
683.851	9899
683.898	10201
683.936	9517
683.945	9305
683.992	9845
684.039	9540
684.057	9760
684.086	10151
684.133	10374
684.179	10366
684.180	10327
684.227	10583
684.274	10696
684.300	10579
684.321	10510
684.368	10807
684.415	11001
684.422	11034
684.462	11041
684.509	10382
684.543	10825
684.556	10975
684.603	10101
684.649	11257
684.665	11221
684.696	11157
684.743	11455
684.786	12108
684.790	12137
684.837	12402
684.883	12995
684.908	13365
684.930	13704
684.977	14345
685.023	14096
685.029	14118
685.070	13551
685.117	13286
685.150	13362
685.164	13557
685.210	14353
685.257	14475
685.272	14470
685.303	14041
685.350	14233
685.393	13754
685.396	13709
685.443	13553
685.490	14321
685.514	14242
685.536	14178
685.583	14813
685.629	14040
685.636	14093
685.675	14269
685.722	14207
685.757	14687
685.768	14820
685.815	14759
685.861	15288
685.878	14966
685.908	14513
685.954	15652
686.000	15840
686.000	15833
686.047	16135
686.093	17636
686.121	17843
686.139	17623
686.185	16523
686.232	16040
686.242	15970
686.278	15908
686.324	15721
686.363	15376
686.370	15324
686.416	15321
686.463	15694
686.484	15517
686.509	15391
686.555	15339
686.601	15411
686.606	15461
686.647	15570
686.693	15703
686.727	15456
686.739	15431
686.785	15692
686.831	15307
686.848	15560
686.877	15925
686.923	15691
686.969	15701
686.969	15699
687.015	15272
687.061	16509
687.090	16437
687.107	16355
687.153	16412
687.199	16268
687.211	16115
687.245	15674
687.291	15851
687.332	16527
687.336	16627
687.382	16747
687.428	16751
687.453	16789
687.474	16471
687.520	16464
687.565	15937
687.574	15847
687.611	16075
687.657	16009
687.695	16503
687.702	16590
687.748	17014
687.794	17435
687.816	17418
687.839	17155
687.885	16606
687.931	15615
687.937	15613
687.976	16124
688.022	16604
688.058	17236
688.067	17367
688.113	16721
688.158	17087
688.179	17012
688.204	16934
688.249	17652
688.295	17704
688.300	17684
688.340	17782
688.386	18494
688.421	18351
688.431	18223
688.477	17897
688.522	17862
688.542	17810
688.567	17879
688.613	17975
688.658	17865
688.663	17897
688.703	18323
688.749	18395
688.784	18598
688.794	18686
688.839	18383
688.884	18669
688.905	18545
688.930	18258
688.975	18566
689.020	18194
689.026	18184
689.065	18516
689.110	18753
689.146	18642
689.155	18557
689.201	18177
689.246	18024
689.267	18150
689.291	18599
689.336	18927
689.381	18710
689.388	18792
689.426	19020
689.471	18916
689.509	18904
689.516	18917
689.561	18715
689.606	18868
689.630	18634
689.651	18564
689.696	18867
689.741	19106
689.750	19197
689.785	19665
689.830	19663
689.871	19312
689.875	19278
689.920	19217
689.965	19212
689.992	18995
690.010	19051
690.054	19514
690.099	20305
690.112	20387
690.144	20518
690.189	20745
690.233	20643
690.233	20668
690.278	21163
690.323	21242
690.354	21452
690.367	21672
690.412	22197
690.457	23231
690.474	23250
690.501	23414
690.546	24719
690.590	25316
690.595	25367
690.635	26948
690.680	28397
690.716	29937
690.724	30769
690.769	35110
690.813	39982
690.836	42091
690.857	47421
690.902	59333
690.946	71966
690.957	75137
690.991	101247
691.035	138515
691.077	172909
691.080	173442
691.124	169805
691.168	164926
691.198	162917
691.213	151838
691.257	120280
691.301	88632
691.318	76203
691.346	68432
691.390	56175
691.434	43597
691.439	42215
691.478	39119
691.522	35513
691.559	32147
691.567	31941
691.611	30376
691.655	28804
691.680	27854
691.699	27590
691.743	27335
691.787	26547
691.800	26265
691.831	26046
691.875	26253
691.919	26247
691.921	26196
691.964	25911
692.008	25800
692.041	25416
692.052	25401
692.096	25363
692.139	25902
692.162	25706
692.183	25485
692.227	24885
692.271	25008
692.282	24934
692.315	25074
692.359	25030
692.402	24560
692.403	24600
692.447	24803
692.490	24974
692.523	24929
692.534	25119
692.578	25677
692.622	26183
692.643	26286
692.666	25962
692.709	25465
692.753	25069
692.763	24892
692.797	25231
692.840	25363
692.884	26076
692.884	26135
692.928	27058
692.971	28575
693.004	29042
693.015	28874
693.059	28551
693.102	28055
693.124	27798
693.146	28558
693.189	29911
693.233	31314
693.245	31672
693.276	33490
693.320	35991
693.363	38062
693.365	38084
693.407	42553
693.450	46840
693.485	50709
693.493	52822
693.537	62906
693.580	73353
693.605	79340
693.624	90959
693.667	118452
693.710	146784
693.725	156935
693.753	205048
693.797	281443
693.840	358295
693.845	366064
693.883	361959
693.926	354306
693.966	349013
693.970	342719
694.013	271303
694.056	200374
694.086	151569
694.099	143489
694.142	116717
694.185	90179
694.206	77420
694.229	72503
694.272	62832
694.315	53448
694.326	50759
694.358	47692
694.401	43921
694.444	40236
694.446	39956
694.487	37968
694.530	35690
694.566	33753
694.573	33604
694.616	32184
694.659	31122
694.686	30245
694.702	29968
694.745	28966
694.787	27978
694.806	27494
694.830	27583
694.873	27814
694.916	27796
694.926	27773
694.959	27281
695.002	26526
695.044	25482
695.046	25397
695.087	26027
695.130	26463
695.166	26927
695.172	26964
695.215	26502
695.258	26231
695.286	26044
695.301	26140
695.343	25952
695.386	26038
695.406	25983
695.428	25858
695.471	25524
695.514	25200
695.526	25081
695.556	25289
695.599	25278
695.641	25347
695.646	25292
695.684	24988
695.726	24792
695.766	24291
695.769	24358
695.811	24712
695.854	25011
695.886	25183
695.896	25155
695.938	24486
695.981	24343
696.005	24000
696.023	24147
696.065	24342
696.108	24872
696.125	25020
696.150	25297
696.192	25583
696.235	25563
696.245	25581
696.277	25822
696.319	25806
696.361	26038
696.365	25986
696.404	26860
696.446	27851
696.485	28692
696.488	28731
696.530	28249
696.572	27792
696.604	27252
696.614	27050
696.656	26166
696.698	25172
696.724	24479
696.740	24471
696.783	24328
696.825	24237
696.844	24137
696.867	24212
696.909	24266
696.951	24082
696.964	24035
696.992	23867
697.034	23376
697.076	23017
697.083	22897
697.118	23574
697.160	24274
697.202	25022
697.203	24980
697.244	24502
697.286	24036
697.323	23463
697.327	23476
697.369	23066
697.411	22687
697.442	22413
697.453	22570
697.494	22902
697.536	23204
697.562	23390
697.578	23441
697.620	23360
697.661	23261
697.682	23178
697.703	23397
697.744	23708
697.786	24028
697.801	24063
697.828	24268
697.869	24531
697.911	24734
697.921	24741
697.952	24576
697.994	24265
698.035	23890
698.040	23783
698.077	23756
698.118	23705
698.160	23602
698.160	23540
698.201	23664
698.243	23696
698.279	23650
698.284	23752
698.325	24114
698.367	24514
698.399	24784
698.408	24708
698.449	24009
698.491	23371
698.518	22830
698.532	22953
698.573	23217
698.614	23462
698.638	23538
698.656	23811
698.697	24284
698.738	24800
698.757	24969
698.779	25060
698.820	25119
698.862	25162
698.877	25123
698.903	25498
698.944	25976
698.985	26465
698.996	26533
699.026	26209
699.067	25668
699.116	24959
699.235	24980
699.354	23337
699.474	24191
699.593	25626
699.713	25678
699.832	23964
699.951	24652
700.070	22965
700.190	24205
700.309	23863
700.428	25055
700.547	23422
700.667	23303
700.786	24255
700.905	22463
701.024	23405
701.143	22511
701.262	21871
701.381	22216
701.500	21779
701.619	21992
701.738	21601
701.857	21963
701.976	20297
702.095	20214
702.214	21284
702.333	21513
702.452	21699
702.571	20310
702.690	21521
702.809	20875
702.928	19751
703.047	20914
703.165	21723
703.284	20320
703.403	20436
703.522	21225
703.640	21452
703.759	23420
703.878	26354
703.997	21287
704.115	20334
704.234	20315
704.353	19647
704.471	20226
704.590	18975
704.708	19817
704.827	20003
704.946	20576
705.064	21075
705.183	20108
705.301	25676
705.420	38588
705.538	34913
705.656	30181
705.775	27404
705.893	34695
706.012	39680
706.130	30002
706.249	29492
706.367	28774
706.485	30509
706.604	29361
706.722	28088
706.840	29679
706.958	30158
707.077	27536
707.195	27900
707.313	26010
707.431	26591
707.549	25975
707.668	26284
707.786	26785
707.904	26324
708.022	25883
708.140	25365
708.258	24625
708.376	26066
708.494	26204
708.612	29605
708.730	41818
708.848	39557
708.966	35316
709.084	31931
709.202	32129
709.320	35094
709.438	34674
709.556	33867
709.674	33258
709.791	33387
709.909	32304
710.027	32499
710.145	31541
710.263	33022
710.380	31998
710.498	31453
710.616	33239
710.733	31002
710.851	30817
710.969	31895
711.086	30359
711.204	29982
711.322	30086
711.439	29325
711.557	29623
711.674	29457
711.792	29186
711.909	29452
712.027	29931
712.144	27620
712.262	29206
712.379	32607
712.497	46109
712.614	47003
712.732	39750
712.849	37466
712.966	36245
713.084	39966
713.201	39363
713.318	39076
713.436	37018
713.553	37188
713.670	38287
713.787	38531
713.905	39151
714.022	36682
714.139	35541
714.256	35969
714.373	35727
714.490	37823
714.608	42740
714.725	82694
714.842	87858
714.959	36786
715.076	33633
715.193	32741
715.310	32503
715.427	31907
715.544	31670
715.661	31588
715.778	31455
715.895	35907
716.011	34562
716.128	32261
716.245	32443
716.362	30431
716.479	33145
716.596	30681
716.713	31016
716.829	30312
716.946	30531
717.063	29346
717.180	29007
717.296	29465
717.413	29957
717.530	28796
717.646	27039
717.763	29177
717.880	27791
717.996	28068
718.113	27505
718.229	27681
718.346	27334
718.462	27045
718.579	28434
718.695	28070
718.812	31140
718.928	30851
719.045	27318
719.161	24978
719.277	24677
719.394	24491
719.510	26900
719.626	26320
719.743	31569
719.859	28282
719.975	28631
720.092	38129
720.208	55970
720.324	30170
720.440	26729
720.557	27647
720.673	28726
720.789	38172
720.905	67588
721.021	35600
721.137	26273
721.253	26250
721.369	26681
721.486	28469
721.602	32268
721.718	25278
721.834	23750
721.950	24353
722.066	23268
722.181	23553
722.297	25228
722.413	23854
722.529	23719
722.645	22876
722.761	23236
722.877	21605
722.993	22628
723.108	24315
723.224	21812
723.340	23087
723.456	22217
723.571	21812
723.687	21193
723.803	22248
723.918	21185
724.034	21222
724.150	21232
724.265	22041
724.381	32835
724.497	38801
724.612	21284
724.728	21035
724.843	20425
724.959	22130
725.074	31700
725.190	35066
725.305	21118
725.421	21144
725.536	18212
725.651	19103
725.767	19091
725.882	19203
725.997	19678
726.113	19052
726.228	18452
726.343	19217
726.459	17797
726.574	19277
726.689	18234
726.804	17950
726.920	18987
727.035	19085
727.150	18949
727.265	17950
727.380	18064
727.495	19360
727.610	16621
727.725	17745
727.841	18816
727.956	22580
728.071	21506
728.186	17557
728.301	16081
728.416	17687
728.531	16915
728.645	15959
728.760	17453
728.875	17239
728.990	16057
729.105	17019
729.220	17073
729.335	16447
729.449	17014
729.564	16357
729.679	16263
729.794	15827
729.908	17597
730.023	16895
730.138	16263
730.253	15119
730.367	15902
730.482	15149
730.596	15681
730.711	15963
730.826	14737
730.940	16289
731.055	15682
731.169	14754
731.284	15654
731.398	15962
731.513	16394
731.627	15482
731.742	17202
731.856	17932
731.970	14367
732.085	15478
732.199	15068
732.313	16073
732.428	19706
732.542	27988
732.656	21466
732.771	15102
732.885	14917
732.999	15076
733.113	15278
733.227	15903
733.342	14534
733.456	15004
733.570	14093
733.684	14185
733.798	14607
733.912	14854
734.026	13574
734.140	14068
734.254	14686
734.368	19422
734.482	24249
734.596	15076
734.710	14530
734.824	14344
734.938	13018
735.052	14058
735.166	15093
735.280	14578
735.393	13867
735.507	14556
735.621	16766
735.735	22590
735.849	15086
735.962	14700
736.076	14994
736.190	14845
736.303	16819
736.417	20181
736.531	13689
736.644	14741
736.758	12632
736.872	13600
736.985	13699
737.099	12714
737.212	13074
737.326	13687
737.439	13704
737.553	13398
737.666	12805
737.780	12380
737.893	13089
738.007	12437
738.120	13726
738.233	12715
738.347	12870
738.460	12844
738.573	13058
738.687	13419
738.800	13045
738.913	12945
739.026	12662
739.140	12908
739.253	13283
739.366	13023
739.479	13380
739.592	12872
739.705	13806
739.818	13818
739.932	13116
740.045	12530
740.158	12530
740.271	13554
740.384	12719
740.497	12828
740.610	13632
740.723	13132
740.836	12769
740.949	12966
741.062	13947
741.174	14059
741.287	13259
741.400	12715
741.513	13161
741.626	12847
741.739	13370
741.851	13013
741.964	13446
742.077	12683
742.189	13193
742.302	13006
742.415	13748
742.527	12984
742.640	12578
742.753	12844
742.865	11993
742.978	12230
743.090	12410
743.203	12749
743.316	13119
743.428	13044
743.541	13263
743.653	13560
743.766	13357
743.878	13450
743.990	14722
744.103	14498
744.215	13827
744.327	12764
744.440	13105
744.552	14555
744.664	13838
744.777	12994
744.889	13001
745.001	13601
745.113	12832
745.226	12818
745.338	13455
745.450	13454
745.562	13736
745.674	13758
745.786	13497
745.898	13124
746.010	13670
746.122	13021
746.234	13935
746.347	13481
746.459	13638
746.570	13209
746.682	13321
746.794	14064
746.906	13173
747.018	13282
747.130	13118
747.242	13651
747.354	13694
747.466	14949
747.577	13916
747.689	14049
747.801	14390
747.913	14150
748.024	14062
748.136	13837
748.248	14081
748.359	14010
748.471	14068
748.583	14736
748.694	13897
748.806	15089
748.918	15309
749.029	15648
749.141	14976
749.252	14246
749.364	14094
749.475	15415
749.587	15920
749.698	14716
749.809	14744
749.921	14619
750.032	14153
750.144	14691
750.255	13955
750.366	14608
750.478	14595
750.589	14305
750.700	14761
750.811	16084
750.923	16105
751.034	15893
751.145	16795
751.256	16045
751.367	15143
751.479	15801
751.590	14453
751.701	15929
751.812	14896
751.923	15395
752.034	15968
752.145	15308
752.256	15023
752.367	16109
752.478	16817
752.589	15951
752.700	16106
752.811	15341
752.922	16714
753.032	15944
753.143	16669
753.254	16717
753.365	17878
753.476	17806
753.586	17205
753.697	17084
753.808	16256
753.919	17076
754.029	17242
754.140	17482
754.251	17541
754.361	18478
754.472	17367
754.582	18436
754.693	18608
754.804	17903
754.914	17225
755.025	18824
755.135	18149
755.246	19274
755.356	18939
755.466	20354
755.577	19016
755.687	20131
755.798	20494
755.908	20799
756.018	20126
756.129	20196
756.239	20280
756.349	20967
756.460	21058
756.570	21564
756.680	21647
756.790	21490
756.900	21441
757.011	21929
757.121	23274
757.231	22068
757.341	22293
757.451	22558
757.561	23322
757.671	23989
757.781	24105
757.891	25637
758.001	25848
758.111	24980
758.221	26310
758.331	25719
758.441	25893
758.551	27128
758.661	27863
758.771	27765
758.880	29580
758.990	29174
759.100	29728
759.210	30776
759.320	31773
759.429	30768
759.539	31200
759.649	31771
759.758	33464
759.868	34394
759.978	33882
760.087	35290
760.197	35855
760.307	37411
760.416	37277
760.526	37557
760.635	39047
760.745	39955
760.854	41131
760.964	42478
761.073	43940
761.182	44238
761.292	46058
761.401	47373
761.511	48497
761.620	48820
761.729	50915
761.839	52300
761.948	53884
762.057	54530
762.166	57260
762.276	60056
762.385	62213
762.494	63104
762.603	65439
762.712	68937
762.822	71779
762.931	74010
763.040	76826
763.149	80910
763.258	83998
763.367	89247
763.476	93667
763.585	98131
763.694	103432
763.803	109211
763.912	116849
764.021	121986
764.130	129576
764.238	140805
764.347	150658
764.456	161401
764.565	173164
764.674	188988
764.783	205667
764.891	226970
765.000	253065
765.109	281374
765.217	313905
765.326	358987
765.435	412783
765.543	479779
765.652	558962
765.761	659545
765.869	772961
765.978	910599
766.086	1041357
766.195	1112350
766.303	1018142
766.412	661432
766.520	804861
766.629	1068064
766.737	1087172
766.846	996545
766.954	861209
767.062	729118
767.171	611708
767.279	513744
767.387	432345
767.496	374349
767.604	326345
767.712	291552
767.820	263671
767.928	241844
768.037	224625
768.145	213376
768.253	205256
768.361	201381
768.469	201620
768.577	203667
768.685	214701
768.793	227525
768.901	249417
769.009	285346
769.117	332944
769.225	405270
769.333	515469
769.441	665228
769.549	864575
769.657	1033669
769.765	943623
769.873	716825
769.981	966315
770.088	979721
770.196	833614
770.304	674381
770.412	544673
770.519	449369
770.627	374692
770.735	319294
770.842	274740
770.950	239717
771.058	213170
771.165	190335
771.273	171996
771.380	156475
771.488	144691
771.595	132559
771.703	121299
771.810	115042
771.918	106383
772.025	100294
772.133	92843
772.240	88628
772.348	84490
772.455	80870
772.562	75397
772.670	72182
772.777	69208
772.884	67525
772.991	64463
773.099	61335
773.206	58775
773.313	57235
773.420	55440
773.528	52517
773.635	51081
773.742	50389
773.849	48734
773.956	46865
774.063	44974
774.170	44215
774.277	42832
774.384	42013
774.491	40281
774.598	39285
774.705	39170
774.812	39131
774.919	38655
775.026	36756
775.133	36768
775.239	35654
775.346	34093
775.453	33615
775.560	33058
775.667	33514
775.773	32383
775.880	32198
775.987	29968
776.093	29669
776.200	29045
776.307	28268
776.413	28597
776.520	27055
776.627	28249
776.733	26551
776.840	25172
776.946	27409
777.053	25985
777.159	24628
777.266	23702
777.372	25216
777.478	23707
777.585	23747
777.691	22635
777.798	21949
777.904	22764
778.010	22835
778.117	22178
778.223	21026
778.329	21336
778.435	20264
778.542	20537
778.648	20282
778.754	19660
778.860	20206
778.966	19629
779.072	19332
779.178	19787
779.284	19842
779.391	20128
779.497	22672
779.603	27491
779.708	39053
779.815	79339
779.920	240989
780.026	327101
780.132	80164
780.238	29949
780.344	23306
780.450	22041
780.556	19318
780.661	16591
780.767	16846
780.873	16231
780.979	17144
781.085	15022
781.190	14971
781.296	15233
781.402	14816
781.507	13993
781.613	14743
781.719	13714
781.824	14073
781.930	14777
782.035	14315
782.141	13141
782.246	12416
782.352	12380
782.457	13079
782.563	13142
782.668	13859
782.773	13407
782.879	12781
782.984	13311
783.090	13133
783.195	13301
783.300	13355
783.405	12414
783.511	11702
783.616	12003
783.721	11918
783.826	11550
783.932	12494
784.037	12012
784.142	10932
784.247	11926
784.352	11487
784.457	10836
784.562	10863
784.667	9927
784.772	11442
784.877	10056
784.982	11263
785.087	10396
785.192	11357
785.297	11398
785.402	10452
785.507	10604
785.611	10256
785.716	9759
785.821	11031
785.926	9830
786.031	10260
786.135	10234
786.240	10699
786.345	9058
786.450	9950
786.554	10260
786.659	9119
786.763	8818
786.868	9797
786.973	10002
787.077	8554
787.182	9983
787.286	9258
787.391	8566
787.495	9541
787.600	9027
787.704	8652
787.809	9507
787.913	8934
788.017	8883
788.122	9417
788.226	8982
788.330	8307
788.435	8657
788.539	8395
788.643	7280
788.747	7910
788.852	8241
788.956	8283
789.060	8300
789.164	8775
789.268	7519
789.372	8272
789.476	8562
789.580	7896
789.684	7428
789.788	8526
789.892	7501
789.996	8706
790.100	7954
790.204	7383
790.308	8023
790.412	8066
790.516	7794
790.620	7734
790.724	8158
790.828	7575
790.931	6593
791.035	9199
791.139	7232
791.242	7071
791.346	8836
791.450	7262
791.554	6776
791.657	6684
791.761	7941
791.864	7737
791.968	7234
792.072	8536
792.175	6781
792.279	6844
792.382	7694
792.486	7450
792.589	7005
792.693	6940
792.796	6165
792.899	7897
793.003	7184
793.106	4969
793.209	6747
793.313	7445
793.416	5159
793.519	8312
793.623	6853
793.726	7746
793.829	6777
793.932	7092
794.035	6879
794.138	8999
794.242	9688
794.345	11003
794.448	19346
794.551	40862
794.654	134710
794.757	205565
794.860	45333
794.963	13216
795.066	8717
795.169	8664
795.272	6792
795.375	7088
795.477	6194
795.580	7361
795.683	5950
795.786	6601
795.889	5004
795.991	7243
796.094	7307
796.197	5529
796.300	6389
796.402	5668
796.505	4848
796.608	5790
796.710	6291
796.813	5904
796.915	4507
797.018	5859
797.120	6145
797.223	4100
797.326	6222
797.428	4823
797.530	5832
797.633	4897
797.735	6518
797.838	6167
797.940	6798
798.042	5157
798.145	4391
798.247	5597
798.349	4684
798.452	5173
798.554	5026
798.656	3357
798.758	6115
798.860	5047
798.962	4413
799.065	4354
799.167	4349
799.269	5624
799.371	4989
799.473	4883
799.575	4501
799.677	5018
799.779	6656
799.881	4045
799.983	5693
800.085	5693
800.187	5541
800.289	3645
800.390	5032
800.492	4843
800.594	5589
800.696	4566
800.798	4625
800.899	4299
801.001	4424
801.103	4069
801.205	3812
801.306	3893
801.408	4100
801.509	4291
801.611	5045
801.713	4716
801.814	3585
801.916	3717
802.017	4189
802.119	3874
802.220	4667
802.322	2725
802.423	7256
802.525	4770
802.626	4679
802.727	3874
802.829	5166
802.930	1818
803.031	5200
803.133	4728
803.234	3534
803.335	4448
803.436	3351
803.538	3771
803.639	3139
803.740	4181
803.841	2840
803.942	4916
804.043	5080
804.144	3344
804.245	3361
804.346	3043
804.447	2464
804.548	4134
804.649	4620
804.750	4067
804.851	3432
804.952	3892
805.053	4046
805.154	2521
805.255	4272
805.355	3620
805.456	3144
805.557	3730
805.658	2645
805.758	4025
805.859	4045
805.960	2872
806.061	2417
806.161	3565
806.262	4029
806.362	3130
806.463	3141
806.564	4007
806.664	4300
806.765	3367
806.865	4433
806.966	3491
807.066	2610
807.166	3244
807.267	3431
807.367	2709
807.468	3566
807.568	1412
807.668	4117
807.769	3466
807.869	3233
807.969	2967
808.069	3559
808.170	2981
808.270	2822
808.370	4178
808.470	4061
808.570	1927
808.670	3164
808.770	3348
808.870	3072
808.970	2886
809.070	2428
809.170	2649
809.271	3147
809.370	2403
809.470	3520
809.570	2015
809.670	2126
809.770	3279
809.870	4126
809.970	2926
810.070	2331
810.169	2994
810.269	1287
810.369	4056
810.469	2905
810.568	2209
810.668	2360
810.768	1901
810.867	2400
810.967	2365
811.066	3081
811.166	3270
811.265	3456
811.365	3383
811.464	2919
811.564	3261
811.663	3675
811.763	2372
811.862	2673
811.962	3887
812.061	3483
812.160	2548
812.260	3208
812.359	3366
812.458	4397
812.557	8521
812.657	12651
812.756	6464
812.855	3018
812.954	2880
813.053	2705
813.153	2939
813.252	1946
813.351	2716
813.450	2165
813.549	1420
813.648	2835
813.747	1733
813.846	3092
813.945	1655
814.044	2170
814.143	2600
814.242	2645
814.341	2511
814.439	1843
814.538	2875
814.637	1921
814.736	1909
814.835	3081
814.933	2599
815.032	2401
815.131	1733
815.229	1919
815.328	2519
815.427	2262
815.525	2695
815.624	2364
815.722	1670
815.821	2545
815.919	1974
816.018	1312
816.116	2606
816.215	1671
816.313	2032
816.412	2340
816.510	2095
816.609	3013
816.707	2080
816.805	2370
816.904	2688
817.002	2776
817.100	2610
817.198	2428
817.296	1238
817.395	1808
817.493	3132
817.591	2207
817.689	2626
817.787	1745
817.885	3104
817.983	2726
818.081	3876
818.179	7292
818.277	15985
818.375	16275
818.473	6622
818.571	4258
818.669	3492
818.767	3035
818.865	2928
818.963	3089
819.061	2977
819.158	3396
819.256	8614
819.354	14760
819.452	32554
819.549	24544
819.647	9182
819.745	3053
819.842	3774
819.940	2851
820.038	2481
820.135	2884
820.233	3099
820.330	2484
820.428	2615
820.525	2733
820.623	2450
820.720	1585
820.818	1851
820.915	2649
821.012	2708
821.110	991
821.207	2962
821.304	754
821.402	1803
821.499	2637
821.596	2764
821.693	3032
821.791	2726
821.888	1889
821.985	2896
822.082	1603
822.179	2346
822.276	1462
822.373	2558
822.470	1161
822.567	2283
822.664	1582
822.761	2308
822.858	848
822.955	2274
823.052	1561
823.149	839
823.246	1294
823.343	1399
823.440	2398
823.536	1246
823.633	1663
823.730	1510
823.827	1693
823.923	829
824.020	3741
824.117	2244
824.213	1007
824.310	2887
824.407	1994
824.503	2105
824.600	1617
824.696	2297
824.793	2354
824.889	889
824.986	1449
825.082	2108
825.179	2227
825.275	1093
825.371	1152
825.468	1772
825.564	649
825.660	2124
825.757	1434
825.853	2478
825.949	1285
826.045	2358
826.142	1143
826.238	2667
826.334	1562
826.430	1010
826.526	2346
826.622	1462
826.718	1450
826.814	1257
826.910	2265
827.006	1156
827.102	1044
827.198	2606
827.294	1520
827.390	1968
827.486	2576
827.582	505
827.678	584
827.774	2314
827.869	954
827.965	3355
828.061	895
828.157	1670
828.252	1241
828.348	1218
828.444	2306
828.539	931
828.635	913
828.731	1270
828.826	734
828.922	1925
829.017	1991
829.113	2588
829.208	1429
829.304	447
829.399	1612
829.495	1490
829.590	2106
829.685	181
829.781	1600
829.876	1526
829.971	1335
830.066	1027
830.162	1599
830.257	1620
830.352	1510
830.447	2913
830.543	1514
830.638	1120
830.733	2545
830.828	1036
830.923	2349
831.018	1448
831.113	2053
831.208	1522
831.303	1958
831.398	1748
831.493	772
831.588	1533
831.683	443
831.778	1535
831.873	1526
831.967	2290
832.062	388
832.157	349
832.252	2059
832.346	401
832.441	2367
832.536	1808
832.631	2898
832.725	2052
832.820	910
832.914	1050
833.009	1161
833.104	1653
833.198	1127
833.293	729
833.387	1646
833.482	1261
833.576	1440
833.670	2049
833.765	913
833.859	581
833.954	1751
834.048	1343
834.142	1799
834.237	723
834.331	1307
834.425	1145
834.519	888
834.613	737
834.708	1875
834.802	1655
834.896	1162
834.990	628
835.084	1915
835.178	1185
835.272	1507
835.366	1016
835.460	1589
835.554	1752
835.648	909
835.742	533
835.836	730
835.930	301
836.024	1566
836.117	2374
836.211	598
836.305	2288
836.399	3742
836.493	328
836.586	2551
836.680	942
836.774	344
836.867	2179
836.961	873
837.055	159
837.148	1178
837.242	1293
837.335	803
837.429	1631
837.522	1684
837.616	2097
837.709	3973
837.803	2616
837.896	1652
837.989	1616
838.083	2683
838.176	4954
838.269	3345
838.363	1648
838.456	1056
838.549	2092
838.642	1835
838.735	2884
838.829	2460
838.922	890
839.015	721
839.108	1245
839.201	1583
839.294	1604
839.387	2126
839.480	621
839.573	2395
839.666	3108
839.759	1674
839.852	104
839.945	1219
840.038	75
840.131	1147
840.223	1276
840.316	2129
840.409	1889
840.502	1018
840.594	1517
840.687	-407
840.780	1482
840.873	1330
840.965	1343
841.058	2325
841.150	4181
841.243	2835
841.336	1767
841.428	787
841.521	1004
841.613	703
841.706	1964
841.798	1733
841.890	1347
841.983	239
842.075	1549
842.167	1165
842.260	1343
842.352	1816
842.444	2800
842.537	5012
842.629	7100
842.721	2120
842.813	1394
842.905	635
842.997	1554
843.090	1947
843.182	2853
843.274	4452
843.366	10026
843.458	18160
843.550	12529
843.642	1990
843.734	2013
843.826	2031
843.918	1996
844.009	1359
844.101	1134
844.193	1712
844.285	390
844.377	1597
844.469	2173
844.560	1087
844.652	956
844.744	1322
844.835	1348
844.927	1539
845.019	1122
845.110	1815
845.202	1096
845.293	1044
845.385	217
845.476	881
845.568	1563
845.659	1152
845.751	2247
845.842	520
845.934	288
846.025	1216
846.116	1799
846.208	1432
846.299	1535
846.390	1297
846.482	1637
846.573	1505
846.664	1475
846.755	1411
846.846	2919
846.937	-259
847.029	740
847.120	1333
847.211	1391
847.302	1890
847.393	296
847.484	1469
847.575	1069
847.666	1209
847.757	1206
847.847	1451
847.938	1486
848.029	1497
848.120	1345
848.211	1114
848.302	877
848.392	982
848.483	1479
848.574	990
848.664	868
848.755	1152
848.846	1418
848.936	492
849.027	1187
849.118	916
849.208	1168
849.299	628
849.389	1497
849.480	1682
849.570	1105
849.661	1211
849.751	2475
849.841	866
849.932	1127
850.022	771
850.112	1568
850.203	420
850.293	934
850.383	669
850.474	855
850.564	349
850.654	1510
850.744	1663
850.834	714
850.924	1278
851.014	949
851.104	1164
851.194	1620
851.284	1201
851.374	1065
851.464	562
851.554	1439
851.644	1566
851.734	3643
851.824	4739
851.914	6420
852.004	13428
852.094	11226
852.183	2059
852.273	2007
852.363	841
852.452	1167
852.542	835
852.632	743
852.721	994
852.811	289
852.901	684
852.990	536
853.080	490
853.169	1060
853.259	322
853.348	919
853.438	870
853.527	1706
853.617	467
853.706	1383
853.795	242
853.885	2258
853.974	4355
854.063	6095
854.152	9329
854.242	4211
854.331	1731
854.420	794
854.509	884
854.598	1624
854.687	1067
854.777	1378
854.866	163
854.955	1390
855.044	391
855.133	574
855.222	866
855.311	405
855.400	922
855.488	94
855.577	266
855.666	811
855.755	1086
855.844	1239
855.933	756
856.021	965
856.110	801
856.199	738
856.288	642
856.376	907
856.465	237
856.554	975
856.642	923
856.731	432
856.819	635
856.908	515
856.996	1279
857.085	389
857.173	550
857.262	858
857.350	654
857.438	1620
857.527	1515
857.615	551
857.703	970
857.792	507
857.880	695
857.968	-145
858.056	426
858.145	672
858.233	445
858.321	282
858.409	1109
858.497	-87
858.585	-488
858.673	1347
858.761	532
858.849	-128
858.937	-677
859.025	1406
859.113	913
859.201	-281
859.289	71
859.377	768
859.465	319
859.552	1243
859.640	-564
859.728	392
859.816	256
859.903	725
859.991	863
860.079	43
860.166	778
860.254	32
860.342	683
860.429	176
860.517	58
860.604	172
860.692	329
860.779	764
860.867	452
860.954	20
861.042	695
861.129	756
861.216	529
861.304	117
861.391	50
861.478	1124
861.565	748
861.653	543
861.740	547
861.827	311
861.914	543
862.001	273
862.089	543
862.176	463
862.263	348
862.350	714
862.437	-8
862.524	963
862.611	13
862.698	256
862.785	1082
862.871	-61
862.958	1025
863.045	-198
863.132	839
863.219	806
863.306	-448
863.392	1157
863.479	-57
863.566	337
863.652	565
863.739	51
863.826	894
863.912	446
863.999	-556
864.086	114
864.172	-403
864.259	235
864.345	905
864.432	79
864.518	527
864.604	208
864.691	701
864.777	206
864.863	429
864.950	570
865.036	-524
865.122	419
865.209	472
865.295	186
865.381	631
865.467	-367
865.553	1318
865.639	382
865.726	83
865.812	1119
865.898	1905
865.984	2836
866.070	4911
866.156	5139
866.242	1547
866.328	466
866.414	98
866.499	569
866.585	-146
866.671	97
866.757	-197
866.843	315
866.928	246
867.014	258
867.100	294
867.186	760
867.271	286
867.357	515
867.442	1738
867.528	899
867.614	590
867.699	-219
867.785	767
867.870	25
867.956	80
868.041	636
868.127	907
868.212	743
868.297	613
868.383	340
868.468	354
868.553	809
868.639	1082
868.724	1833
868.809	2151
868.894	517
868.979	1131
869.065	192
869.150	-344
869.235	61
869.320	-528
869.405	441
869.490	109
869.575	-851
869.660	1012
869.745	823
869.830	-359
869.915	399
870.000	-638
870.085	-207
870.169	325
870.254	39
870.339	-35
870.424	-72
870.509	2
870.593	503
870.678	480
870.763	375
870.847	290
870.932	-189
871.016	227
871.101	182
871.186	-154
871.270	131
871.355	-550
871.439	317
871.523	649
871.608	-244
871.692	-130
871.777	399
871.861	625
871.945	-598
872.030	2
872.114	201
872.198	-192
872.282	-405
872.367	187
872.451	-300
872.535	296
872.619	393
872.703	-665
872.787	-247
872.871	378
872.955	206
873.039	-541
873.123	148
873.207	644
873.291	-687
873.375	-436
873.459	-220
873.543	-507
873.627	-546
873.711	147
873.794	142
873.878	77
873.962	-170
874.045	-188
874.129	-17
874.137	-5
874.213	112
874.245	-88
874.296	-411
874.352	-57
874.380	119
874.460	-23
874.464	-29
874.547	965
874.568	790
874.631	257
874.676	405
874.714	536
874.784	419
874.798	396
874.881	816
874.892	653
874.965	-468
874.999	-148
875.048	281
875.107	-368
875.131	-612
875.215	233
875.215	233
875.298	37
875.323	-156
875.381	-575
875.430	181
875.465	714
875.538	-113
875.548	-226
875.631	-198
875.646	-149
875.714	50
875.753	-407
875.798	-868
875.861	-78
875.881	139
875.964	435
875.968	402
876.047	-51
876.076	72
876.130	205
876.183	-140
876.213	-286
876.291	94
876.296	115
876.379	95
876.398	43
876.462	-109
876.506	-64
876.545	-85
876.613	405
876.628	550
876.711	-74
876.721	17
876.794	644
876.828	299
876.877	-240
876.935	185
876.960	396
877.043	-236
877.043	-234
877.125	353
877.150	406
877.208	525
877.258	294
877.291	163
877.365	612
877.374	647
877.456	12
877.472	49
877.539	363
877.579	738
877.622	1027
877.687	205
877.704	-15
877.787	-10
877.794	-69
877.869	-483
877.901	-300
877.952	-122
878.008	-167
878.034	-182
878.115	421
878.117	436
878.199	114
878.222	164
878.282	138
878.329	-67
878.364	-147
878.437	245
878.447	299
878.529	47
878.544	11
878.611	-164
878.651	156
878.694	470
878.758	136
878.776	56
878.858	645
878.865	633
878.941	499
878.972	391
879.023	111
879.078	-282
879.105	-371
879.185	394
879.187	408
879.269	-101
879.292	4
879.351	323
879.399	319
879.433	183
879.506	469
879.516	549
879.598	152
879.613	133
879.680	-100
879.720	142
879.762	447
879.827	-158
879.844	-347
879.926	-43
879.933	-8
880.007	582
880.040	432
880.089	196
880.147	44
880.171	-99
880.253	610
880.254	608
880.335	469
880.360	559
880.417	908
880.467	1221
880.499	1517
880.574	1956
880.580	1951
880.662	847
880.680	718
880.744	438
880.787	342
880.825	86
880.893	-143
880.907	-114
880.989	-47
881.000	5
881.070	455
881.106	368
881.152	162
881.213	248
881.233	210
881.315	305
881.319	272
881.396	323
881.426	581
881.478	683
881.532	458
881.559	400
881.639	536
881.641	538
881.722	67
881.745	60
881.803	381
881.852	237
881.885	-28
881.958	617
881.966	674
882.047	357
882.064	287
882.129	608
882.171	678
882.210	462
882.277	902
882.291	980
882.372	439
882.383	339
882.454	173
882.489	423
882.535	274
882.596	11
882.616	209
882.697	766
882.702	805
882.778	743
882.808	617
882.859	372
882.914	300
882.940	292
883.020	258
883.021	262
883.102	740
883.127	749
883.183	668
883.233	779
883.264	693
883.339	163
883.345	170
883.426	331
883.445	475
883.507	918
883.551	911
883.587	554
883.657	171
883.668	247
883.749	660
883.763	753
883.830	718
883.869	551
883.910	494
883.975	721
883.991	682
884.072	102
884.081	73
884.152	269
884.187	205
884.233	254
884.292	551
884.314	607
884.394	530
884.398	549
884.475	611
884.504	312
884.555	45
884.610	251
884.636	450
884.716	737
884.716	741
884.797	716
884.821	720
884.877	583
884.927	406
884.958	484
885.033	629
885.038	621
885.118	426
885.139	364
885.199	136
885.244	86
885.279	412
885.350	1030
885.359	994
885.439	460
885.456	355
885.520	381
885.561	447
885.600	470
885.667	503
885.680	495
885.760	534
885.773	493
885.840	597
885.878	763
885.920	765
885.984	500
886.000	577
886.080	1277
886.089	1367
886.160	1218
886.195	898
886.240	512
886.300	243
886.320	300
886.400	417
886.406	437
886.480	894
886.511	961
886.560	767
886.616	671
886.640	893
886.720	1555
886.722	1562
886.800	693
886.827	402
886.879	425
886.932	656
886.959	834
887.038	1180
887.039	1180
887.119	936
887.143	868
887.198	985
887.248	1061
887.278	1225
887.354	1618
887.358	1607
887.437	1294
887.459	1215
887.517	1525
887.564	1738
887.596	1482
887.669	880
887.676	880
887.755	771
887.774	755
887.835	798
887.880	910
887.914	1011
887.985	1018
887.994	958
888.073	343
888.090	250
888.153	715
888.195	974
888.232	903
888.300	841
888.311	873
888.391	1065
888.405	1079
888.470	1136
888.510	1193
888.549	1061
888.615	835
888.628	798
888.708	527
888.720	487
888.787	421
888.825	404
888.866	706
888.930	1124
888.945	1130
889.024	1161
889.035	1170
889.103	837
889.140	638
889.182	756
889.245	928
889.261	925
889.340	906
889.349	906
889.419	1135
889.454	1239
889.498	1154
889.559	1051
889.577	1093
889.656	1278
889.664	1298
889.735	1407
889.768	1456
889.814	1015
889.873	429
889.978	1145
890.083	1471
890.187	1325
890.292	905
890.397	814
890.501	334
890.606	1039
890.710	1607
890.815	1595
890.919	743
891.024	833
891.128	1563
891.233	1116
891.337	449
891.442	629
891.546	323
891.650	469
891.755	333
891.859	2012
891.963	1222
892.068	1198
892.172	1309
892.276	219
892.380	1036
892.484	781
892.589	837
892.693	312
892.797	-202
892.901	1393
893.005	720
893.109	776
893.213	917
893.317	1279
893.421	1485
893.525	688
893.629	1581
893.733	707
893.837	808
893.941	-487
894.045	1141
894.148	2100
894.252	5312
894.356	2728
894.460	978
894.564	78
894.667	699
894.771	667
894.875	1231
894.978	665
895.082	-88
895.186	707
895.289	1469
895.393	1037
895.496	927
895.600	-20
895.703	982
895.807	1610
895.910	667
896.014	-197
896.117	747
896.221	687
896.324	-515
896.427	291
896.531	606
896.634	428
896.737	775
896.840	465
896.944	940
897.047	446
897.150	814
897.253	95
897.356	1068
897.460	1187
897.563	525
897.666	484
897.769	1375
897.872	828
897.975	1042
898.078	882
898.181	1030
898.284	788
898.387	810
898.490	1065
898.593	1061
898.695	867
898.798	230
898.901	-408
899.004	849
899.107	624
899.209	417
899.312	284
899.415	848
899.518	816
899.620	1109
899.723	786
899.826	305
899.928	661
900.031	503
900.133	266
900.236	-229
900.338	888
900.441	687
900.543	669
900.646	559
900.748	-40
900.851	316
900.953	300
901.055	234
901.158	-152
901.260	443
901.362	849
901.465	54
901.567	534
901.669	819
901.771	14
901.873	238
901.976	691
902.078	-194
902.180	307
902.282	418
902.384	-522
902.486	945
902.588	1242
902.690	512
902.792	-319
902.894	934
902.996	-402
903.098	88
903.200	472
903.302	301
903.404	525
903.505	708
903.607	1202
903.709	531
903.811	-122
903.913	709
904.014	455
904.116	767
904.218	1147
904.319	729
904.421	-598
904.523	586
904.624	475
904.726	1
904.827	-77
904.929	-1
905.030	-535
905.132	-449
905.233	-195
905.335	-26
905.436	-135
905.537	-296
905.639	-714
905.740	-75
905.841	810
905.943	1055
906.044	-175
906.145	578
906.247	339
906.348	194
906.449	555
906.550	337
906.651	1334
906.752	336
906.854	-313
906.955	110
907.056	210
907.157	127
907.258	-7
907.359	257
907.460	897
907.561	228
907.662	203
907.762	472
907.863	811
907.964	521
908.065	961
908.166	98
908.267	949
908.367	97
908.468	-33
908.569	-210
908.670	580
908.770	837
908.871	293
908.971	306
909.072	-69
909.173	89
909.273	347
909.374	-115
909.474	-314
909.575	1126
909.675	873
909.776	122
909.876	57
909.977	138
910.077	406
910.177	475
910.278	-238
910.378	-174
910.478	263
910.579	427
910.679	610
910.779	504
910.879	626
910.980	-205
911.080	-610
911.180	181
911.280	-379
911.380	603
911.480	-30
911.580	93
911.680	-478
911.780	572
911.880	-403
911.980	175
912.080	-292
912.180	820
912.280	313
912.380	351
912.480	-1071
912.580	385
912.679	141
912.779	322
912.879	-287
912.979	122
913.078	-406
913.178	648
913.278	-317
913.377	104
913.477	551
913.577	-444
913.676	-128
913.776	693
913.875	-180
913.975	287
914.074	-839
914.174	356
914.273	-495
914.373	454
914.472	-603
914.572	-312
914.671	140
914.770	431
914.870	-591
914.969	316
915.068	-179
915.167	240
915.267	-27
915.366	136
915.465	708
915.564	69
915.663	284
915.763	-232
915.862	-211
915.961	-249
916.060	601
916.159	-302
916.258	-629
916.357	-77
916.456	-531
916.555	272
916.654	-838
916.752	356
916.851	-751
916.950	23
917.049	276
917.148	-465
917.247	1081
917.345	-198
917.444	398
917.543	-556
917.642	-73
917.740	119
917.839	-377
917.937	51
918.036	169
918.135	-208
918.233	330
918.332	-276
918.430	325
918.529	-23
918.627	-36
918.726	-52
918.824	-274
918.923	-22
919.021	684
919.119	-248
919.218	631
919.316	547
919.414	-583
919.512	-293
919.611	-570
919.709	174
919.807	-58
919.905	-660
920.003	-114
920.102	421
920.200	-617
920.298	-832
920.396	-690
920.494	-224
920.592	-714
920.690	928
920.788	325
920.886	-104
920.984	506
921.082	65
921.180	605
921.277	213
921.375	-180
921.473	190
921.571	552
921.669	69
921.766	-230
921.864	386
921.962	174
922.060	227
922.157	-85
922.255	46
922.352	-228
922.450	939
922.548	336
922.645	-184
922.743	475
922.840	763
922.938	84
923.035	297
923.133	-123
923.230	-261
923.327	6
923.425	878
923.522	894
923.619	-688
923.717	-114
923.814	-210
923.911	165
924.008	23
924.106	202
924.203	-520
924.300	116
924.397	305
924.494	376
924.591	361
924.688	239
924.786	-507
924.883	-99
924.979	-92
925.077	-361
925.173	-153
925.270	-287
925.367	-36
925.464	148
925.561	-164
925.658	8
925.755	993
925.852	-7
925.948	-61
926.045	314
926.142	-448
926.239	-525
926.335	412
926.432	160
926.529	-554
926.625	325
926.722	-494
926.818	-95
926.915	370
927.011	663
927.108	102
927.204	-315
927.301	195
927.397	260
927.494	346
927.590	218
927.687	392
927.783	-1003
927.879	296
927.976	-196
928.072	-416
928.168	-496
928.264	-44
928.361	-419
928.457	5
928.553	-283
928.649	-64
928.745	58
928.841	69
928.937	-250
929.033	582
929.129	-56
929.225	-206
929.321	220
929.417	611
929.513	313
929.609	16
929.705	-928
929.801	505
929.897	-618
929.993	463
930.089	-99
930.184	-436
930.280	-349
930.376	1181
930.471	-128
930.567	256
930.663	-884
930.758	30
930.854	-160
930.950	-393
931.045	-737
931.141	759
931.236	-460
931.332	-177
931.427	-11
931.523	752
931.618	-178
931.714	151
931.809	244
931.905	361
932.000	-361
932.095	-714
932.191	245
932.286	-121
932.381	-779
932.476	-723
932.572	-485
932.667	506
932.762	64
932.857	-163
932.952	-165
933.047	-382
933.142	260
933.237	166
933.332	42
933.427	395
933.522	569
933.617	723
933.712	450
933.807	-197
933.902	-583
933.997	644
934.092	-537
934.187	-575
934.282	239
934.376	79
934.471	216
934.566	-795
934.661	-223
934.755	-514
934.850	30
934.945	-379
935.039	76
935.134	227
935.228	-256
935.323	-260
935.417	-329
935.512	-64
935.606	-498
935.701	246
935.795	456
935.890	-201
935.984	-261
936.079	-129
936.173	-257
936.267	-127
936.362	68
936.456	99
936.550	-616
936.644	-887
936.738	-215
936.833	-457
936.927	-112
937.021	-749
937.115	121
937.209	-144
937.303	-442
937.397	-509
937.491	-299
937.585	-335
937.679	115
937.773	-214
937.867	-267
937.961	-196
938.055	-326
938.149	676
938.243	-363
938.337	-137
938.430	-276
938.524	-499
938.618	-110
938.712	-552
938.805	719
938.899	-842
938.993	-4
939.086	-377
939.180	17
939.274	81
939.367	-272
939.461	-959
939.554	-442
939.648	-906
939.741	-755
939.835	-452
939.928	-141
940.022	496
940.115	-417
940.208	-526
940.302	-172
940.395	226
940.488	-421
940.582	105
940.675	-352
940.768	-227
940.861	-709
940.954	-373
941.048	-55
941.141	-777
941.234	-548
941.327	-450
941.420	-4
941.513	-29
941.606	-612
941.699	-143
941.792	-221
941.885	205
941.978	-604
942.071	-700
942.164	-600
942.257	-50
942.349	153
942.442	6
942.535	-1264
942.628	144
942.721	-457
942.813	-811
942.906	-215
942.999	-232
943.091	-335
943.184	-33
943.277	-1174
943.369	-20
943.462	-534
943.554	-110
943.647	-1349
943.739	-192
943.832	-1033
943.924	-776
944.017	-438
944.109	-1940
944.201	-1062
944.294	-167
944.386	-692
944.478	-775
944.571	-819
944.663	-990
944.755	-502
944.847	-34
944.940	-634
945.032	-1402
945.124	-235
945.216	-537
945.308	-665
945.400	-42
945.492	-976
945.584	-1247
945.676	-706
945.768	-1385
945.860	12
945.952	-370
946.044	259
946.136	-438
946.228	47
946.320	-156
946.412	-867
946.503	-534
946.595	281
946.687	-839
946.779	-864
946.870	80
946.962	-1311
947.054	633
947.145	-838
947.237	-674
947.329	-842
947.420	-1202
947.512	-880
947.603	-325
947.695	-681
947.786	-768
947.878	-1166
947.969	-159
948.061	-921
948.152	-317
948.243	-920
948.335	-288
948.426	-1310
948.517	-1456
948.609	-2306
948.700	-1335
948.791	-1455
948.882	-1310
948.973	-823
949.065	-824
949.156	-1045
949.247	-1614
949.338	46
949.429	-955
949.520	-519
949.611	-1414
949.702	-1060
949.793	-1325
949.884	-1392
949.975	-191
950.066	-868
950.157	-1766
950.247	-404
950.338	-1252
950.429	-798
950.520	-557
950.611	-597
950.701	-638
950.792	-1350
950.883	-793
950.973	-743
951.064	-550
951.155	-62
951.245	-486
951.336	-669
951.427	-1365
951.517	-258
951.608	-941
951.698	-734
951.788	-511
951.879	-997
951.969	-888
952.060	-234
952.150	-1043
952.240	14
952.331	-1773
952.421	-475
952.511	-1178
952.602	-316
952.692	-337
952.782	-1664
952.872	-1931
952.962	-788
953.052	-929
953.143	-1794
953.233	-258
953.323	-348
953.413	-1164
953.503	-103
953.593	-495
953.683	-858
953.773	-1024
953.863	-991
953.953	-257
954.042	-974
954.132	-1101
954.222	-1105
954.312	-696
954.402	-901
954.492	-95
954.581	-388
954.671	-1117
954.761	-1551
954.850	22
954.940	-950
955.030	-740
955.119	-720
955.209	-535
955.298	-1176
955.388	-1927
955.477	-486
955.567	-1096
955.656	-337
955.746	-404
955.835	-1085
955.925	-1382
956.014	-661
956.103	-539
956.193	-869
956.282	-573
956.371	-945
956.461	-569
956.550	-1531
956.639	-173
956.728	-1097
956.817	-1053
956.906	-974
956.995	378
957.085	-1205
957.174	-126
957.263	-1839
957.352	-772
957.441	-1122
957.530	-991
957.619	-159
957.708	-499
957.796	-1066
957.885	-934
957.974	-1590
958.063	-681
958.152	-1408
958.241	65
958.329	-325
958.418	59
958.507	-1557
958.596	721
958.684	-879
958.773	907
958.861	-232
958.950	-268
959.039	-719
959.127	-307
959.216	-848
959.304	-148
959.393	-355
959.481	239
959.570	156
959.658	120
959.746	670
959.835	-48
959.923	468
960.011	-286
960.100	-5
960.188	-544
960.276	-727
960.365	-490
960.453	-331
960.541	-565
960.629	-401
960.717	-297
960.805	-998
960.893	-598
960.981	-1027
961.069	96
961.158	-1249
961.245	-444
961.333	-587
961.421	-1336
961.509	-447
961.597	-440
961.685	-1218
961.773	-1297
961.861	-1263
961.949	-901
962.036	-1114
962.124	871
962.212	-1378
962.299	-638
962.387	-1502
962.475	-1037
962.562	-1456
962.650	-813
962.738	-582
962.825	-1446
962.913	-1015
963.000	-1131
963.088	-798
963.175	-1104
963.263	-1330
963.350	-180
963.438	-1490
963.525	-1102
963.612	133
963.700	1073
963.787	2948
963.874	1184
963.962	-968
964.049	-231
964.136	-1234
964.223	-691
964.310	-584
964.398	-418
964.485	-1583
964.572	-1320
964.659	-744
964.746	-13
964.833	-1309
964.920	-1090
965.007	-1409
965.094	-892
965.181	-1400
965.268	-1615
965.355	-605
965.441	-983
965.528	-1744
965.615	-262
965.702	-827
965.789	-1252
965.875	-1006
965.962	-1136
966.049	-1353
966.136	-622
966.222	-1868
966.309	-709
966.395	-993
966.482	-457
966.569	-861
966.655	-745
966.742	-1392
966.828	-369
966.915	-955
967.001	-542
967.087	-1183
967.174	-941
967.260	-1908
967.347	-260
967.433	388
967.519	2522
967.605	-779
967.692	-467
967.778	-805
967.864	-1178
967.950	-1774
968.036	-1309
968.123	-1069
968.209	-1189
968.295	-1508
968.381	-424
968.467	-1141
968.553	-1553
968.639	82
968.725	-1093
968.811	-23
968.897	-739
968.983	-699
969.069	-1251
969.154	-1235
969.240	-256
969.326	-1604
969.412	-1439
969.497	-636
969.583	-656
969.669	-368
969.755	-704
969.840	-982
969.926	-845
970.012	-1038
970.097	-768
970.183	-1134
970.268	-954
970.354	-517
970.439	-1228
970.525	853
970.610	-969
970.696	-465
970.781	-1218
970.866	-1623
970.952	-201
971.037	-1645
971.122	-288
971.208	-708
971.293	-997
971.378	-2565
971.463	-751
971.549	-670
971.634	-781
971.719	263
971.804	-838
971.889	-335
971.974	-1291
972.059	-1146
972.144	-459
972.229	-1176
972.314	-879
972.399	-1276
972.484	-1405
972.569	-200
972.654	-1252
972.739	607
972.824	-529
972.908	-884
972.993	-1050
973.078	-622
973.163	-677
973.247	-420
973.332	-2878
973.417	-92
973.501	-1481
973.586	-2005
973.671	-983
973.755	-923
973.840	-549
973.924	-61
974.009	-385
974.093	-738
974.178	-226
974.262	-286
974.346	-628
974.431	-516
974.515	-1027
974.600	-1153
974.684	-350
974.768	-1555
974.852	-512
974.937	-1924
975.021	-530
975.105	-825
975.189	-835
975.273	-300
975.358	-1342
975.442	-1038
975.526	464
975.610	-1755
975.694	-2085
975.778	-631
975.862	-483
975.946	-3050
976.030	-472
976.114	-806
976.198	-925
976.281	-821
976.365	-552
976.449	-1058
976.533	-489
976.617	-1357
976.700	-800
976.784	-907
976.868	-796
976.951	-482
977.035	-448
977.119	-761
977.202	-748
977.286	-1644
977.369	-1373
977.453	-1106
977.536	-992
977.620	-1688
977.703	-833
977.787	-2252
977.870	-660
977.953	-42
978.037	-2094
978.120	-234
978.203	-585
978.287	-872
978.370	-67
978.453	-1112
978.536	-697
978.620	-275
978.703	-18
978.786	-903
978.869	-1134
978.952	-2540
979.035	-269
979.118	-1373
979.201	-1903
979.284	-847
979.367	-1875
979.450	-364
979.533	-1806
979.616	-1543
979.699	-1539
979.782	-1138
979.865	-1255
979.948	-1055
980.030	-1556
980.113	-463
980.196	-1386
980.279	-598
980.361	-1526
980.444	-1311
980.526	-7
980.609	-1553
980.692	-598
980.774	-1213
980.857	-2143
980.939	-236
981.022	-1496
981.104	-1925
981.187	-975
981.269	-696
981.352	-1258
981.434	-1693
981.516	-2154
981.599	-617
981.681	-1959
981.763	-1213
981.846	-1529
981.928	-1285
982.010	-1138
982.092	-1327
982.174	-744
982.256	-1724
982.339	-1240
982.421	-1390
982.503	-964
982.585	-2111
982.667	-1239
982.749	-1781
982.831	-1186
982.913	-2181
982.995	-752
983.077	-1385
983.158	-1414
983.240	-1581
983.322	-1381
983.404	-750
983.486	-1489
983.568	-1436
983.649	-1089
983.731	-905
983.813	-1582
983.894	-1257
983.976	-2082
984.058	-2093
984.139	-542
984.221	-2013
984.302	-1221
984.384	-1368
984.465	-2672
984.547	-1136
984.628	-1676
984.710	-381
984.791	-1458
984.872	-1344
984.954	-1352
985.035	-1592
985.116	-2269
985.198	-1599
985.279	-155
985.360	-1736
985.441	-1446
985.522	-941
985.604	-1553
985.685	-3021
985.766	-746
985.847	-686
985.928	-2410
986.009	-2294
986.090	-2113
986.171	-789
986.252	-2092
986.333	-1480
986.414	-1499
986.495	-1592
986.576	-2471
986.656	-2389
986.737	-1358
986.818	-1097
986.899	-1928
986.980	-1342
987.060	-1262
987.141	-1842
987.222	-1830
987.302	-1141
987.383	-1512
987.464	-1854
987.544	-908
987.625	-1610
987.705	-852
987.786	-843
987.866	-2142
987.947	-1416
988.027	-899
988.108	-2186
988.188	-1193
988.268	-1781
988.349	-1386
988.429	-2365
988.509	-1127
988.589	-1333
988.670	-2902
988.750	-443
988.830	-1772
988.910	-1857
988.990	-1503
989.070	-1224
989.151	-1393
989.231	-1907
989.311	-1540
989.391	-1735
989.471	-1285
989.551	-1588
989.631	-2065
989.711	-1663
989.791	-1545
989.870	-2419
989.950	-1222
990.030	-2775
990.110	-1529
990.190	-2017
990.269	-2009
990.349	-2468
990.429	-1156
990.509	-861
990.588	-1834
990.668	-1800
990.747	-1021
990.827	-1741
990.907	-1243
990.986	-1601
991.066	-1157
991.145	-1731
991.225	-1197
991.304	-2163
991.383	-1883
991.463	-2355
991.542	-1956
991.622	-2353
991.701	-2626
991.780	-1971
991.859	-1387
991.939	-1906
992.018	-2131
992.097	-1820
992.176	-1828
992.256	-1859
992.335	-2731
992.414	-489
992.493	-1885
992.572	-2240
992.651	-192
992.730	-1547
992.809	-1435
992.888	-2283
992.967	-2393
993.046	-1043
993.125	-3055
993.203	-2083
993.282	-1062
993.361	-1971
993.440	-1444
993.519	-2024
993.597	-1105
993.676	-2127
993.755	-1845
993.834	-1908
993.912	-2517
993.991	-913
994.069	-2358
994.148	-1508
994.226	-1793
994.305	-2126
994.384	-2084
994.462	-967
994.540	-2246
994.619	-2400
994.697	-1257
994.776	-2087
994.854	-1541
994.932	-1769
995.011	-1450
995.089	-2695
995.167	-2090
995.245	-2263
995.324	-1737
995.402	-1134
995.480	-2146
995.558	-1732
995.636	-2571
995.714	-1497
995.792	-1027
995.870	-2702
995.948	-1239
996.026	-2081
996.104	-2547
996.182	-959
996.260	-1919
996.338	-2335
996.416	-2761
996.494	-2462
996.572	-628
996.649	-1531
996.727	-2712
996.805	-1941
996.883	-2288
996.960	-2578
997.038	-1321
997.116	-1605
997.193	-2280
997.271	-1696
997.348	-2218
997.426	-1948
997.504	-2040
997.581	-1982
997.658	-1277
997.736	-2557
997.813	-2278
997.891	-1597
997.968	-2049
998.046	-2385
998.123	-2457
998.200	-2040
998.277	-2668
998.355	-649
998.432	-2941
998.509	-1868
998.586	-1150
998.663	-1697
998.741	-1447
998.818	-1728
998.895	-1941
998.972	-1722
999.049	-2230
999.126	-2937
999.203	-1397
999.280	-1651
999.357	-2228
999.434	-2350
999.511	-1573
999.587	-1829
999.664	-2585
999.741	-1790
999.818	-879
999.895	-1478
999.971	-1828
1000.048	-2049
1000.125	-492
1000.202	-2387
1000.278	-1634
1000.355	-1217
1000.431	-2294
1000.508	-2161
1000.584	-2105
1000.661	-1466
1000.738	-2249
1000.814	-1631
1000.890	-1276
1000.967	-2102
1001.043	-1360
1001.120	-3154
1001.196	-1157
1001.272	-1924
1001.349	-2340
1001.425	-1776
1001.501	-1955
1001.577	-1852
1001.654	-1835
1001.730	-2451
1001.806	-1971
1001.882	-2046
1001.958	-1876
1002.034	-1320
1002.110	-1414
1002.186	-2290
1002.262	-2207
1002.338	-1727
1002.414	-1785
1002.490	-1123
1002.566	-1907
1002.642	-2964
1002.718	-870
1002.794	-2765
1002.870	-2444
1002.945	-2041
1003.021	-1767
1003.097	-2126
1003.173	-1232
1003.248	-2305
1003.324	-1782
1003.400	-1395
1003.475	-2068
1003.551	-914
1003.626	-1298
1003.702	-1598
1003.777	-2145
1003.853	-2039
1003.928	-2380
1004.004	-1588
1004.079	-1416
1004.155	-2303
1004.230	-1565
1004.305	-904
1004.381	-2252
1004.456	-1395
1004.531	-2069
1004.607	-974
1004.682	-2095
1004.757	-2181
1004.832	-1284
1004.907	-899
1004.982	-1291
1005.057	-1978
1005.133	-2320
1005.208	-2507
1005.283	-1692
1005.358	-1399
1005.433	-2672
1005.508	-1400
1005.583	-2493
1005.657	-2546
1005.732	-1862
1005.807	-1066
1005.882	-1952
1005.957	-2155
1006.032	-748
1006.106	-1997
1006.181	-1586
1006.256	-2333
1006.331	-2495
1006.405	-2351
1006.480	-1931
1006.554	-2017
1006.629	-2027
1006.704	-1883
1006.778	-2126
1006.853	-1311
1006.927	-2183
1007.002	-1984
1007.076	-1792
1007.150	-2573
1007.225	-1629
1007.299	-1217
1007.373	-2743
1007.448	-1360
1007.522	-1559
1007.596	-1872
1007.671	-2501
1007.745	-918
1007.819	-2392
1007.893	-2500
1007.967	-975
1008.041	-2510
1008.115	-2097
1008.190	-2977
1008.264	-1319
1008.338	-2463
1008.412	-2150
1008.486	-1463
1008.560	-1449
1008.633	-2121
1008.707	-2544
1008.781	-1737
1008.855	-1830
1008.929	-1526
1009.003	-1895
1009.076	-1862
1009.150	-2087
1009.224	-1812
1009.298	-1414
1009.371	-2452
1009.445	-1797
1009.519	-1602
1009.592	-2414
1009.666	-1729
1009.739	-1044
1009.813	-1749
1009.886	-1668
1009.960	-2533
1010.033	-802
1010.107	-1173
1010.180	-2723
1010.253	-1576
1010.327	-2376
1010.400	-1887
1010.473	-1596
1010.547	-1763
1010.620	-1469
1010.693	-1787
1010.766	-1918
1010.840	-1028
1010.913	-1739
1010.986	-2642
1011.059	-1868
1011.132	-2923
1011.205	-1815
1011.278	-1381
1011.351	-2457
1011.424	-1452
1011.497	-2138
1011.570	-1478
1011.643	-1780
1011.716	-2214
1011.789	-2147
1011.862	-1737
1011.934	-866
1012.007	-2551
1012.080	-1931
1012.153	-1768
1012.225	-939
1012.298	-2168
1012.371	-1550
1012.443	-1860
1012.516	-2649
1012.588	-1765
1012.661	-1439
1012.733	-2129
1012.806	-1446
1012.879	-1824
1012.951	-2627
1013.023	-1610
1013.096	-1996
1013.168	-2448
1013.241	-1413
1013.313	-2063
1013.385	-2188
1013.458	-1888
1013.530	-1211
1013.602	-2833
1013.674	-1221
1013.746	-2885
1013.819	-2425
1013.891	-1980
1013.963	-1811
1014.035	-1554
1014.107	-1790
1014.179	-1774
1014.251	-2194
1014.323	-1395
1014.395	-1754
1014.467	-1876
1014.539	-1925
1014.611	-2511
1014.683	-1473
1014.754	-1488
1014.826	-1904
1014.898	-1492
1014.970	-2043
1015.042	-1296
1015.113	-1967
1015.185	-2002
1015.257	-2226
1015.328	-1753
1015.400	-2433
1015.471	-1540
1015.543	-2277
1015.615	-1948
1015.686	-1441
1015.757	-1976
1015.829	-1795
1015.901	-2274
1015.972	-1671
1016.043	-2319
1016.115	-1895
1016.186	-2404
1016.257	-2284
1016.328	-1196
1016.400	-1414
1016.471	-1688
1016.542	-1926
1016.613	-2147
1016.685	-1804
1016.756	-2208
1016.827	-1923
1016.898	-2873
1016.969	-1274
1017.040	-2061
1017.111	-2287
1017.182	-1352
1017.253	-1720
1017.324	-2684
1017.395	-1670
1017.466	-1282
1017.537	-2202
1017.608	-1375
1017.678	-1634
1017.749	-1754
1017.820	-1978
1017.891	-2194
1017.961	-1873
1018.032	-1465
1018.103	-2241
1018.173	-2178
1018.244	-1457
1018.315	-2669
1018.385	-1523
1018.456	-1922
1018.526	-1689
1018.597	-2261
1018.667	-1345
1018.738	-2625
1018.808	-2060
1018.878	-2148
1018.949	-1913
1019.019	-1123
1019.089	-2311
1019.160	-2036
1019.230	-1899
1019.300	-2093
1019.371	-2596
1019.441	-2023
1019.511	-2392
1019.581	-2096
1019.651	-1460
1019.721	-1790
1019.791	-2723
1019.861	-1655
1019.931	-1800
1020.001	-2076
1020.071	-1819
1020.141	-1985
1020.211	-2026
1020.281	-2195
1020.351	-2192
1020.421	-1630
1020.491	-1101
1020.560	-2218
1020.630	-1700
1020.700	-1412
1020.770	-2285
1020.839	-2223
1020.909	-2377
1020.979	-2003
1021.048	-2498
1021.118	-2435
1021.187	-2008
1021.257	-2237
1021.326	-2120
1021.396	-1510
1021.465	-1805
1021.535	-1972
1021.604	-3365
1021.674	-2366
1021.743	-2525
1021.812	-2641
1021.882	-2054
1021.951	-2993
1022.020	-2281
1022.089	-1353
1022.159	-2273
1022.228	-1244
1022.297	-2700
1022.366	-2234
1022.435	-1338
1022.504	-2051
1022.573	-2138
1022.642	-1693
1022.711	-1460
1022.781	-1948
1022.849	-1062
1022.918	-2509
1022.987	-1859
1023.056	-2107
1023.125	-2634
1023.194	-2082
1023.263	-2958
1023.331	-1933
1023.400	-2083
1023.469	-2231
1023.538	-1789
1023.606	-2326
1023.675	-1943
1023.744	-2578
1023.812	-2076
1023.881	-2190
1023.949	-2175
1024.018	-1988
1024.086	-1719
1024.155	-1266
1024.223	-2272
1024.292	-2173
1024.360	-2108
1024.429	-2278
1024.497	-2946
1024.565	-1906
1024.634	-1362
1024.702	-1626
1024.770	-1706
1024.838	-2680
1024.907	-1604
1024.975	-2312
1025.043	-1299
1025.111	-2280
1025.179	-1787
1025.247	-2814
1025.315	-2065
1025.383	-1924
1025.451	-2158
1025.519	-2571
1025.587	-1576
1025.655	-1976
1025.723	-1889
1025.791	-1293
1025.859	-1921
1025.927	-1127
1025.995	-2206
1026.062	-1735
1026.130	-2547
1026.198	-1911
1026.266	-1957
1026.333	-1481
1026.401	-1947
1026.469	-2527
1026.536	-2152
1026.604	-1531
1026.671	-2066
1026.739	-2506
1026.806	-2150
1026.874	-2510
1026.941	-2435
1027.009	-2291
1027.076	-1611
1027.144	-2087
1027.211	-2645
1027.278	-2098
1027.345	-2222
1027.413	-2255
1027.480	-2838
1027.547	-2349
1027.614	-2519
1027.682	-2050
1027.749	-1867
1027.816	-1869
1027.883	-1747
1027.950	-2227
1028.017	-1950
1028.084	-2107
1028.151	-2290
1028.218	-2711
1028.285	-1698
1028.352	-2667
1028.419	-2332
1028.486	-2156
1028.553	-1928
1028.619	-2623
1028.686	-1355
1028.753	-2312
1028.820	-2582
1028.886	-2289
1028.953	-2499
1029.020	-2396
1029.086	-2869
1029.153	-2195
1029.220	-2301
1029.286	-2225
1029.353	-1760
1029.419	-2251
1029.486	-2076
1029.552	-2251
1029.619	-2030
1029.685	-2270
1029.751	-2150
1029.818	-1368
1029.884	-2272
1029.951	-1919
1030.017	-1908
1030.083	-2090
1030.149	-2238
1030.216	-2739
1030.282	-2264
1030.348	-2665
1030.414	-1734
1030.480	-2081
1030.546	-2147
1030.612	-2729
1030.678	-1980
1030.744	-1805
1030.810	-2678
1030.876	-2391
1030.942	-2082
1031.008	-2096
1031.074	-2218
1031.140	-2189
1031.206	-2144
1031.272	-2991
1031.337	-2203
1031.403	-1994
1031.469	-3257
1031.534	-1843
1031.600	-1954
1031.666	-2286
1031.731	-2205
1031.797	-1720
1031.863	-2234
1031.928	-2108
1031.994	-2835
1032.059	-2448
1032.125	-1764
1032.190	-2587
1032.256	-2376
1032.321	-2606
1032.386	-1672
1032.452	-1705
1032.517	-2590
1032.582	-2670
1032.647	-1989
1032.713	-1786
1032.778	-1961
1032.843	-2819
1032.908	-2033
1032.974	-2113
1033.039	-2403
1033.104	-2018
1033.169	-1729
1033.234	-1793
1033.299	-2807
1033.364	-1636
1033.429	-2942
1033.494	-2217
1033.559	-1833
1033.624	-2061
1033.688	-1595
1033.753	-2947
1033.818	-2500
1033.883	-2274
1033.948	-2109
1034.013	-1417
1034.077	-1987
1034.142	-1675
1034.207	-2302
1034.271	-2397
1034.336	-1700
1034.400	-2303
1034.465	-2541
1034.530	-2212
1034.594	-2129
1034.658	-2281
1034.723	-1402
1034.787	-2400
1034.852	-2522
1034.916	-2871
1034.981	-2470
1035.045	-2440
1035.109	-1999
1035.173	-2115
1035.238	-1996
1035.302	-2222
1035.366	-2313
1035.430	-1814
1035.495	-3104
1035.559	-1403
1035.623	-1922
1035.687	-2877
1035.751	-1940
1035.815	-2626
1035.879	-2015
1035.943	-1949
1036.007	-2415
1036.071	-2063
1036.135	-2025
1036.198	-2566
1036.262	-2382
1036.326	-2428
1036.390	-1933
1036.454	-1911
1036.517	-1949
1036.581	-1962
1036.645	-2235
1036.709	-2676
1036.772	-2465
1036.836	-2257
1036.900	-1767
1036.963	-2021
1037.026	-2561
1037.090	-2794
1037.154	-2414
1037.217	-3123
1037.280	-1829
1037.344	-1812
1037.407	-1560
1037.471	-2805
1037.534	-1543
1037.597	-2062
1037.661	-2316
1037.724	-2026
1037.787	-2122
1037.850	-2494
1037.913	-2420
1037.977	-2528
1038.040	-2243
1038.103	-1522
1038.166	-3148
1038.229	-2249
1038.292	-2632
1038.355	-2433
1038.418	-2143
1038.481	-1982
1038.544	-2504
1038.607	-2299
1038.670	-2318
1038.732	-2091
1038.795	-1862
1038.858	-2599
1038.921	-2242
1038.984	-1665
1039.046	-1952
1039.109	-2110
1039.172	-2153
1039.234	-2331
1039.297	-2703
1039.360	-1421
1039.422	-2238
1039.485	-2989
1039.547	-2919
1039.610	-3153
1039.672	-2905
1039.734	-1410
1039.797	-3041
1039.859	-2379
1039.922	-2186
1039.984	-2055
1040.046	-1893
1040.109	-2256
1040.171	-2130
1040.233	-1288
1040.295	-2542
1040.358	-2402
1040.420	-2968
1040.482	-2455
1040.544	-1977
1040.606	-3124
1040.668	-2610
1040.730	-2335
1040.792	-2362
1040.854	-2217
1040.916	-2613
1040.978	-2686
1041.040	-1793
1041.102	-1922
1041.164	-2541
1041.225	-2299
1041.287	-1853
1041.349	-2985
1041.411	-2333
1041.472	-2713
1041.534	-1902
1041.596	-2350
1041.657	-2213
1041.719	-2637
1041.781	-2781
1041.842	-2898
1041.904	-2468
1041.965	-2403
1042.027	-2034
1042.088	-2365
1042.150	-3235
1042.211	-2994
1042.272	-1645
1042.334	-2651
1042.395	-2313
1042.456	-2220
1042.518	-1586
1042.579	-1957
1042.640	-2532
1042.701	-2487
1042.763	-2645
1042.824	-2227
1042.885	-2474
1042.946	-2854
1043.007	-3217
1043.068	-2864
1043.129	-2240
1043.190	-2828
1043.251	-2414
1043.312	-2249
1043.373	-1377
1043.434	-2582
1043.495	-1637
1043.556	-1111
1043.616	-2323
1043.677	-2983
1043.738	-2464
1043.799	-1806
1043.859	-2528
1043.920	-2551
1043.981	-2203
1044.041	-2602
1044.102	-2333
1044.162	-2092
1044.223	-2490
1044.284	-2708
1044.344	-1671
1044.405	-2599
1044.465	-2737
1044.525	-3204
1044.586	-2231
1044.646	-2582
1044.707	-1234
1044.767	-2657
1044.827	-3039
1044.887	-1537
1044.948	-2104
1045.008	-1557
1045.068	-1752
1045.128	-2010
1045.188	-1714
1045.249	-1800
1045.309	-1798
1045.369	-1809
1045.429	-1817
1045.489	-2482
1045.549	-2151
1045.609	-1528
1045.669	-2248
1045.729	-1572
1045.789	-1348
1045.848	-2044
1045.908	-2283
1045.968	-1640
1046.028	-1743
1046.088	-2561
1046.147	-1012
1046.207	-1656
1046.267	-1522
1046.326	-1351
1046.386	-1668
1046.446	-1065
1046.505	-1168
1046.565	-1999
1046.624	-2273
1046.684	-584
1046.743	-458
1046.803	-539
1046.862	-671
1046.922	0
