'Start Wavelength	183.907
'End Wavelength	1046.922
'Gate Delay	5.000
'Gate Width (ms)	1.050
'Laser Output Level	0.000
'X Position	0.000
'Y Position	0.000
'Z Position	0.000
'Grid Point Number	1.000
'Shot Number	100.000
183.907	802.000
183.977	380.000
184.047	507
184.116	76
184.186	35
184.256	248
184.325	-252
184.395	-152
184.465	466
184.534	281
184.604	16
184.674	25
184.743	-721
184.813	521
184.883	336
184.952	130
185.022	-324
185.092	-86
185.161	5
185.231	-347
185.301	-424
185.370	89
185.440	-94
185.509	-143
185.579	-342
185.649	117
185.718	117
185.788	184
185.857	-204
185.927	192
185.996	-346
186.066	344
186.136	-634
186.205	1046
186.275	-466
186.344	502
186.414	-429
186.483	-166
186.553	649
186.622	271
186.692	-361
186.761	358
186.831	348
186.900	169
186.970	285
187.039	276
187.109	837
187.178	690
187.248	-260
187.317	-69
187.387	-665
187.456	356
187.526	-154
187.595	237
187.664	146
187.734	481
187.803	-1044
187.873	403
187.942	-425
188.012	653
188.081	-669
188.150	389
188.220	-89
188.289	-510
188.358	-333
188.428	1013
188.497	-381
188.567	885
188.636	298
188.705	534
188.775	-848
188.844	23
188.913	611
188.983	195
189.052	-105
189.121	-167
189.191	-508
189.260	118
189.329	121
189.399	16
189.468	-50
189.537	404
189.606	-776
189.676	63
189.745	-74
189.814	180
189.883	-1284
189.953	-735
190.022	375
190.091	251
190.161	465
190.230	-142
190.299	-453
190.368	80
190.437	-213
190.507	-322
190.576	-548
190.645	-269
190.714	-459
190.783	-78
190.853	324
190.922	419
190.991	-416
191.060	570
191.129	-500
191.198	418
191.268	-176
191.337	-141
191.406	1
191.475	492
191.544	227
191.613	784
191.682	-372
191.752	26
191.821	-378
191.890	32
191.959	211
192.028	726
192.097	-260
192.166	465
192.235	-1029
192.304	1115
192.373	-209
192.442	177
192.511	-240
192.580	327
192.650	287
192.719	-503
192.788	-484
192.857	-22
192.926	-91
192.995	-343
193.064	-262
193.133	128
193.202	-596
193.271	272
193.340	474
193.409	-593
193.478	109
193.547	453
193.615	312
193.684	139
193.753	-681
193.822	532
193.891	-386
193.960	25
194.029	-245
194.098	1129
194.167	-382
194.236	370
194.305	-495
194.374	-194
194.443	-152
194.512	320
194.580	-720
194.649	-132
194.718	-45
194.787	165
194.856	-592
194.925	1296
194.994	-639
195.062	-46
195.131	-649
195.200	281
195.269	-348
195.338	637
195.407	147
195.475	197
195.544	473
195.613	-150
195.682	-217
195.751	536
195.819	-588
195.888	131
195.957	46
196.026	398
196.094	466
196.163	-119
196.232	447
196.301	96
196.369	72
196.438	396
196.507	-322
196.576	-779
196.644	155
196.713	-435
196.782	-620
196.850	487
196.919	-648
196.988	528
197.056	-638
197.125	766
197.194	548
197.262	62
197.331	-22
197.400	-117
197.468	-160
197.537	37
197.606	-21
197.674	282
197.743	55
197.812	-545
197.880	-105
197.949	-158
198.017	-1130
198.086	24
198.155	655
198.223	-416
198.292	295
198.360	503
198.429	-445
198.497	307
198.566	83
198.635	309
198.703	246
198.772	289
198.840	10
198.909	-226
198.977	-242
199.046	272
199.114	622
199.183	789
199.251	170
199.320	195
199.388	-75
199.457	-536
199.525	-323
199.594	156
199.662	247
199.731	75
199.799	-649
199.867	201
199.936	-735
200.004	363
200.073	984
200.141	63
200.210	-133
200.278	-39
200.346	-43
200.415	85
200.483	-281
200.552	625
200.620	250
200.688	310
200.757	190
200.825	-370
200.893	-836
200.962	-49
201.030	424
201.098	-48
201.167	21
201.235	-389
201.303	-179
201.372	371
201.440	274
201.508	111
201.577	81
201.645	525
201.713	-182
201.781	-180
201.850	28
201.918	765
201.986	-570
202.055	239
202.123	-1
202.191	-82
202.259	203
202.327	83
202.396	124
202.464	318
202.532	-204
202.600	905
202.669	-98
202.737	152
202.805	-33
202.873	117
202.941	235
203.009	-369
203.078	-1138
203.146	80
203.214	89
203.282	-588
203.350	33
203.418	-8
203.487	-354
203.555	-694
203.623	-334
203.691	77
203.759	-210
203.827	133
203.895	-282
203.963	440
204.031	-147
204.099	-130
204.168	-746
204.236	807
204.304	-342
204.372	-190
204.440	-537
204.508	-241
204.576	-165
204.644	162
204.712	-1084
204.780	325
204.848	-549
204.916	160
204.984	-774
205.052	586
205.120	46
205.188	574
205.256	-766
205.324	338
205.392	-523
205.460	821
205.528	-172
205.596	827
205.664	-672
205.732	107
205.799	-276
205.867	397
205.935	260
206.003	340
206.071	-741
206.139	454
206.207	-169
206.275	-205
206.343	-363
206.411	463
206.478	289
206.546	450
206.614	-360
206.682	-211
206.750	-1000
206.818	553
206.885	-287
206.953	-1216
207.021	1270
207.089	-123
207.157	-713
207.225	148
207.292	59
207.360	330
207.428	-207
207.496	381
207.563	528
207.631	1075
207.699	-675
207.767	-463
207.834	-465
207.902	451
207.970	-706
208.038	-10
208.105	-397
208.173	405
208.241	-186
208.309	50
208.376	148
208.444	725
208.512	-81
208.579	-215
208.647	169
208.715	365
208.782	-12
208.850	8
208.918	-799
208.985	1273
209.053	-298
209.120	569
209.188	-934
209.256	564
209.323	-448
209.391	-289
209.459	1273
209.526	1070
209.594	20
209.661	50
209.729	-508
209.796	432
209.864	167
209.932	-1020
209.999	775
210.067	642
210.134	-90
210.202	-279
210.269	1035
210.337	540
210.404	-268
210.472	-336
210.539	-282
210.607	-155
210.674	-319
210.742	821
210.809	-111
210.877	148
210.944	277
211.012	-393
211.079	1117
211.146	110
211.214	-580
211.281	845
211.349	157
211.416	465
211.484	119
211.551	-614
211.618	314
211.686	-37
211.753	-539
211.821	813
211.888	357
211.955	630
212.023	-494
212.090	-230
212.157	-21
212.225	238
212.292	374
212.359	606
212.427	1260
212.494	1415
212.561	-47
212.629	376
212.696	473
212.763	393
212.831	-803
212.898	1414
212.965	-546
213.032	-114
213.100	59
213.167	1
213.234	485
213.301	186
213.369	-198
213.436	190
213.503	167
213.570	530
213.638	-211
213.705	297
213.772	-822
213.839	638
213.906	420
213.973	-402
214.041	-585
214.108	407
214.175	-266
214.242	-155
214.309	277
214.376	1052
214.444	115
214.511	1082
214.578	-531
214.645	352
214.712	391
214.779	638
214.846	55
214.913	570
214.980	1167
215.048	757
215.115	901
215.182	23
215.249	310
215.316	298
215.383	229
215.450	403
215.517	-219
215.584	134
215.651	-364
215.718	197
215.785	278
215.852	-13
215.919	-458
215.986	144
216.053	-79
216.120	264
216.187	-133
216.254	806
216.321	347
216.388	328
216.455	-529
216.522	425
216.589	-567
216.656	933
216.722	599
216.789	316
216.856	-2
216.923	1066
216.990	121
217.057	-10
217.124	315
217.191	-207
217.258	662
217.324	1108
217.391	481
217.458	1063
217.525	326
217.592	315
217.659	-699
217.725	744
217.792	47
217.859	796
217.926	-159
217.993	317
218.059	387
218.126	363
218.193	-516
218.260	462
218.327	51
218.393	-16
218.460	-199
218.527	-285
218.594	-1029
218.660	919
218.727	452
218.794	-96
218.860	-58
218.927	-286
218.994	-132
219.061	-761
219.127	-202
219.194	-501
219.261	412
219.327	-106
219.394	-95
219.461	-7
219.527	143
219.594	-201
219.661	-419
219.727	-950
219.794	336
219.860	-109
219.927	193
219.994	311
220.060	-737
220.127	845
220.193	683
220.260	84
220.326	851
220.393	957
220.460	298
220.526	1518
220.593	220
220.659	1668
220.726	1037
220.792	1195
220.859	996
220.925	1726
220.992	2349
221.058	2543
221.125	1432
221.191	1092
221.258	-161
221.324	651
221.391	-251
221.457	-614
221.524	-234
221.590	457
221.657	1148
221.723	68
221.789	-550
221.856	1343
221.922	-544
221.989	1068
222.055	-921
222.121	-885
222.188	1025
222.254	836
222.321	-468
222.387	-522
222.453	96
222.520	-256
222.586	-876
222.652	852
222.719	6
222.785	-68
222.851	-183
222.918	602
222.984	-613
223.050	457
223.116	-430
223.183	573
223.249	-909
223.315	-952
223.382	-80
223.448	933
223.514	-1390
223.580	206
223.647	-1249
223.713	-276
223.779	-357
223.845	34
223.911	232
223.978	-169
224.044	-86
224.110	-295
224.176	278
224.242	457
224.309	-1559
224.375	279
224.441	-211
224.507	75
224.573	-792
224.639	375
224.705	-574
224.772	463
224.838	-127
224.904	523
224.970	-130
225.036	281
225.102	-1238
225.168	279
225.234	109
225.300	-274
225.366	-908
225.432	21
225.499	-490
225.565	-68
225.631	-379
225.697	-528
225.763	694
225.829	118
225.895	-442
225.961	209
226.027	189
226.093	-617
226.159	545
226.225	1392
226.291	1636
226.357	3758
226.423	1757
226.489	997
226.554	-423
226.620	1170
226.686	394
226.752	1625
226.818	1613
226.884	4473
226.950	3782
227.016	2013
227.082	362
227.148	839
227.214	970
227.279	1226
227.345	154
227.411	158
227.477	-499
227.543	374
227.609	500
227.674	856
227.740	-1107
227.806	646
227.872	-111
227.938	148
228.003	401
228.069	-192
228.135	135
228.201	653
228.267	-67
228.332	-60
228.398	-647
228.464	-431
228.530	-277
228.595	154
228.661	-1037
228.727	373
228.792	781
228.858	-307
228.924	-1375
228.990	1669
229.055	-1360
229.121	568
229.187	-653
229.252	-725
229.318	-261
229.384	550
229.449	-647
229.515	-1250
229.581	-1545
229.646	1549
229.712	-479
229.777	914
229.843	-18
229.909	469
229.974	757
230.040	782
230.105	-430
230.171	-287
230.236	1101
230.302	1475
230.368	284
230.433	91
230.499	-21
230.564	1022
230.630	-706
230.695	-178
230.761	441
230.826	-992
230.892	586
230.957	-16
231.023	-181
231.088	-97
231.154	-261
231.219	494
231.284	-101
231.350	957
231.415	-959
231.481	659
231.546	-47
231.612	607
231.677	-315
231.742	-606
231.808	289
231.873	-413
231.939	-2124
232.004	1383
232.069	169
232.135	-308
232.200	-159
232.265	529
232.331	-590
232.396	-380
232.461	-561
232.527	-1140
232.592	-1179
232.657	584
232.723	-1318
232.788	-147
232.853	-67
232.918	581
232.984	-830
233.049	119
233.114	-1308
233.179	-124
233.245	-126
233.310	-955
233.375	-756
233.440	415
233.506	-572
233.571	-481
233.636	-754
233.701	687
233.766	-258
233.832	-28
233.897	-144
233.962	-1289
234.027	607
234.092	470
234.157	-430
234.222	-433
234.288	-891
234.353	1000
234.418	681
234.483	629
234.548	477
234.613	79
234.678	953
234.743	-812
234.808	882
234.873	-1048
234.938	1533
235.004	390
235.069	-623
235.134	-358
235.199	517
235.264	691
235.329	-1291
235.394	1044
235.459	581
235.524	-793
235.589	-435
235.654	-275
235.719	-1293
235.784	907
235.849	-96
235.913	537
235.978	-87
236.043	-33
236.108	-196
236.173	-566
236.238	-83
236.303	-126
236.368	-479
236.433	443
236.498	-1143
236.563	698
236.627	1605
236.692	6725
236.757	4665
236.822	1806
236.887	310
236.952	1453
237.017	-579
237.081	2199
237.146	36
237.211	4009
237.276	5487
237.341	7419
237.405	3102
237.470	1748
237.535	1081
237.600	418
237.664	876
237.729	611
237.794	169
237.859	2993
237.923	75
237.988	-268
238.053	638
238.118	525
238.182	1257
238.247	2528
238.312	-1021
238.376	695
238.441	-1463
238.506	1032
238.570	-879
238.635	1233
238.700	-562
238.764	-94
238.829	-53
238.893	-132
238.958	450
239.023	227
239.087	-470
239.152	445
239.216	-979
239.281	-134
239.346	734
239.410	464
239.475	-263
239.539	1655
239.604	-549
239.668	1013
239.733	-246
239.797	25
239.862	-3
239.926	602
239.991	100
240.055	401
240.120	12
240.184	368
240.249	-562
240.313	-925
240.378	-454
240.442	1727
240.507	716
240.571	266
240.635	-52
240.700	521
240.764	-207
240.829	1092
240.893	-851
240.957	292
241.022	833
241.086	1687
241.151	-899
241.215	-959
241.279	364
241.344	-305
241.408	785
241.472	-47
241.537	596
241.601	1065
241.665	-1153
241.730	-690
241.794	1270
241.858	428
241.922	-123
241.987	545
242.051	-373
242.115	-670
242.179	411
242.244	-441
242.308	152
242.372	548
242.436	-451
242.501	135
242.565	-939
242.629	-697
242.693	779
242.757	-639
242.822	-390
242.886	894
242.950	683
243.014	-477
243.078	-214
243.142	321
243.206	-329
243.271	990
243.335	-115
243.399	760
243.463	1285
243.527	5568
243.591	576
243.655	601
243.719	-604
243.783	132
243.847	370
243.911	834
243.975	383
244.040	-111
244.104	1572
244.168	549
244.232	-133
244.296	658
244.360	422
244.424	-126
244.488	412
244.552	651
244.615	-1474
244.679	891
244.743	-104
244.807	-556
244.871	-21
244.935	300
244.999	-1888
245.063	-339
245.127	752
245.191	459
245.255	-567
245.319	507
245.383	-1105
245.446	1628
245.510	-898
245.574	417
245.638	224
245.702	-1205
245.766	1241
245.829	1420
245.893	-498
245.957	-76
246.021	1434
246.085	278
246.149	-133
246.212	1867
246.276	674
246.340	651
246.404	800
246.467	1297
246.531	-1376
246.595	1022
246.659	664
246.722	-114
246.786	738
246.850	-212
246.913	617
246.977	-349
247.041	368
247.104	648
247.168	726
247.232	1331
247.295	2119
247.359	1720
247.423	646
247.486	489
247.550	833
247.614	242
247.677	1458
247.741	-271
247.804	-241
247.868	184
247.932	401
247.995	3315
248.059	1013
248.122	409
248.186	1060
248.249	1661
248.313	4299
248.376	5952
248.440	3560
248.503	316
248.567	1519
248.630	1474
248.694	1843
248.757	3685
248.821	4817
248.884	4657
248.948	2613
249.011	4745
249.075	5811
249.138	5057
249.202	2025
249.265	1047
249.328	1266
249.392	483
249.455	1855
249.519	777
249.582	979
249.645	2037
249.709	538
249.772	189
249.835	857
249.899	332
249.962	375
250.025	-17
250.089	2147
250.152	3085
250.215	1739
250.279	885
250.342	806
250.405	819
250.468	400
250.532	1085
250.595	1976
250.658	5491
250.721	10191
250.785	3083
250.848	2348
250.911	306
250.974	1232
251.038	1255
251.101	3033
251.164	887
251.227	1924
251.290	1375
251.354	2318
251.417	8703
251.480	7433
251.543	6133
251.606	15888
251.669	11609
251.732	4551
251.795	4799
251.859	4675
251.922	10196
251.985	6631
252.048	2868
252.111	1552
252.174	882
252.237	3067
252.300	6760
252.363	6025
252.426	13390
252.489	4185
252.552	3404
252.615	445
252.678	2661
252.741	5037
252.804	5922
252.867	13192
252.930	8160
252.993	3779
253.056	3603
253.119	1206
253.182	840
253.245	1194
253.308	2216
253.371	858
253.434	1230
253.497	1382
253.559	2264
253.622	1487
253.685	1209
253.748	1637
253.811	330
253.874	1181
253.937	1002
254.000	667
254.062	1623
254.125	2329
254.188	4898
254.251	2023
254.314	906
254.376	815
254.439	1820
254.502	1708
254.565	2016
254.628	3217
254.690	1219
254.753	-210
254.816	-153
254.878	120
254.941	2125
255.004	1761
255.067	1536
255.129	-23
255.192	444
255.255	-1140
255.317	1118
255.380	1257
255.443	-335
255.505	-461
255.568	-644
255.631	-838
255.693	770
255.756	-579
255.819	998
255.881	-702
255.944	732
256.006	-687
256.069	-368
256.132	-564
256.194	931
256.257	-175
256.319	192
256.382	464
256.444	1419
256.507	638
256.569	518
256.632	506
256.694	504
256.757	4741
256.819	12134
256.882	3845
256.944	1970
257.007	1793
257.069	1182
257.132	407
257.194	1283
257.257	20
257.319	46
257.381	635
257.444	3293
257.506	12576
257.569	13481
257.631	4575
257.693	2977
257.756	461
257.818	585
257.880	-152
257.943	835
258.005	-593
258.067	1159
258.130	165
258.192	657
258.254	1267
258.317	848
258.379	411
258.441	142
258.503	1549
258.566	773
258.628	1636
258.690	116
258.753	786
258.815	1618
258.877	736
258.939	135
259.001	344
259.064	514
259.126	-2
259.188	-35
259.250	763
259.312	965
259.375	1168
259.437	930
259.499	-408
259.561	-275
259.623	272
259.685	422
259.747	482
259.809	1396
259.872	1855
259.934	3961
259.996	5596
260.058	2380
260.120	-455
260.182	1175
260.244	40
260.306	-490
260.368	-68
260.430	-1037
260.492	913
260.554	3866
260.616	205
260.678	2050
260.740	2209
260.802	158
260.864	867
260.926	266
260.988	836
261.050	-209
261.112	2345
261.174	6507
261.236	1829
261.298	470
261.359	770
261.421	1774
261.483	300
261.545	822
261.607	-1314
261.669	148
261.731	331
261.793	2108
261.854	13
261.916	1503
261.978	600
262.040	1260
262.102	447
262.164	-850
262.225	37
262.287	106
262.349	202
262.411	431
262.472	721
262.534	-192
262.596	316
262.658	420
262.719	-1741
262.781	268
262.843	-158
262.904	-13
262.966	-84
263.028	351
263.090	2517
263.151	8323
263.213	3373
263.275	1895
263.336	-48
263.398	606
263.459	-1388
263.521	173
263.583	999
263.644	978
263.706	-1210
263.767	-749
263.829	885
263.891	693
263.952	-397
264.014	-248
264.075	581
264.137	4719
264.198	1646
264.260	-69
264.321	-810
264.383	2342
264.444	6722
264.506	1666
264.567	282
264.629	2293
264.690	3933
264.752	972
264.813	-605
264.875	-372
264.936	813
264.998	105
265.059	-125
265.120	445
265.182	393
265.243	6356
265.305	6680
265.366	1272
265.427	102
265.489	1073
265.550	-1288
265.611	-315
265.673	159
265.734	805
265.795	407
265.857	323
265.918	-226
265.979	1856
266.040	9721
266.102	8971
266.163	2920
266.224	1846
266.286	97
266.347	313
266.408	-85
266.469	91
266.530	-266
266.592	-36
266.653	203
266.714	1254
266.775	96
266.836	500
266.898	-752
266.959	984
267.020	6
267.081	1452
267.142	-916
267.203	-1239
267.264	-1161
267.326	992
267.387	-192
267.448	-1210
267.509	-778
267.570	408
267.631	-550
267.692	-270
267.753	-713
267.814	-1101
267.875	1173
267.936	1730
267.997	1152
268.058	1183
268.119	-284
268.180	-132
268.241	-590
268.302	-71
268.363	-802
268.424	143
268.485	-602
268.546	-374
268.607	155
268.668	-589
268.729	-1197
268.790	-1016
268.851	182
268.912	1277
268.972	1186
269.033	-133
269.094	-1205
269.155	402
269.216	-63
269.277	-386
269.338	-529
269.398	505
269.459	-1598
269.520	631
269.581	121
269.642	1528
269.702	-586
269.763	-414
269.824	-927
269.885	341
269.945	766
270.006	784
270.067	-835
270.128	208
270.188	-469
270.249	-1349
270.310	-776
270.370	-1220
270.431	-498
270.492	77
270.553	-272
270.613	396
270.674	2589
270.734	925
270.795	-256
270.856	-105
270.916	-498
270.977	195
271.038	209
271.098	80
271.159	325
271.219	1148
271.280	-16
271.340	-1018
271.401	-1088
271.462	299
271.522	401
271.583	545
271.643	-66
271.704	128
271.764	-397
271.825	1380
271.885	5562
271.946	7785
272.006	1848
272.066	3266
272.127	5530
272.187	1473
272.248	991
272.308	568
272.369	3382
272.429	1739
272.489	648
272.550	1384
272.610	1668
272.671	906
272.731	714
272.791	1016
272.852	-249
272.912	616
272.972	-141
273.033	-486
273.093	-752
273.153	1309
273.214	870
273.274	635
273.334	3612
273.394	5815
273.455	1497
273.515	2086
273.575	4701
273.635	1287
273.696	1599
273.756	5553
273.816	1912
273.876	475
273.936	739
273.997	3079
274.057	-176
274.117	787
274.177	-7
274.237	7871
274.297	5969
274.358	2070
274.418	3956
274.478	3619
274.538	418
274.598	-190
274.658	857
274.718	2134
274.778	472
274.838	-85
274.898	236
274.958	2739
275.018	3941
275.078	3173
275.138	185
275.198	707
275.258	-644
275.318	-322
275.378	685
275.438	1629
275.498	22
275.558	848
275.618	3434
275.678	4554
275.738	2341
275.798	2749
275.858	1668
275.918	161
275.978	-166
276.038	361
276.098	-86
276.157	1407
276.217	3622
276.277	1408
276.337	948
276.397	-34
276.457	366
276.517	-261
276.576	-225
276.636	-358
276.696	616
276.756	1940
276.815	1670
276.875	400
276.935	-367
276.995	33
277.055	-509
277.114	-768
277.174	202
277.234	2799
277.293	441
277.353	404
277.413	-65
277.472	80
277.532	13
277.592	901
277.651	273
277.711	3681
277.771	-80
277.830	5506
277.890	3741
277.950	2179
278.009	8677
278.069	3304
278.128	1248
278.188	3721
278.248	525
278.307	3672
278.367	2077
278.426	362
278.486	-37
278.545	377
278.605	273
278.664	-737
278.724	-694
278.783	1638
278.843	5407
278.902	871
278.962	-603
279.021	491
279.081	273
279.140	214
279.199	240
279.259	310
279.318	1049
279.378	972
279.437	1221
279.496	7765
279.556	17855
279.615	14443
279.675	2750
279.734	2050
279.793	2349
279.853	6163
279.912	2181
279.971	875
280.031	-163
280.090	2384
280.149	3828
280.208	2570
280.268	13779
280.327	14041
280.386	2318
280.445	2834
280.505	2241
280.564	1336
280.623	-177
280.682	983
280.742	2751
280.801	971
280.860	75
280.919	941
280.978	25
281.037	86
281.097	-406
281.156	216
281.215	-509
281.274	191
281.333	3258
281.392	1936
281.451	181
281.510	584
281.569	-133
281.628	186
281.688	-1166
281.747	58
281.806	-326
281.865	397
281.924	-657
281.983	533
282.042	-1287
282.101	-183
282.160	-142
282.219	-105
282.278	-1238
282.337	2032
282.396	1177
282.454	52
282.513	-409
282.572	4292
282.631	1938
282.690	196
282.749	-910
282.808	473
282.867	477
282.926	614
282.985	-596
283.043	-648
283.102	-514
283.161	-492
283.220	-63
283.279	3922
283.338	890
283.396	-51
283.455	-245
283.514	-135
283.573	829
283.631	291
283.690	82
283.749	1291
283.808	947
283.866	2614
283.925	-622
283.984	416
284.043	-220
284.101	810
284.160	-297
284.219	571
284.277	-255
284.336	484
284.395	4660
284.453	4709
284.512	897
284.570	1723
284.629	1194
284.688	671
284.746	671
284.805	556
284.863	1870
284.922	3183
284.981	2431
285.039	3457
285.098	7188
285.156	17499
285.215	35217
285.273	34788
285.332	20918
285.390	11247
285.449	6015
285.507	3906
285.566	2279
285.624	1800
285.683	1039
285.741	1201
285.799	851
285.858	748
285.916	233
285.975	219
286.033	436
286.091	229
286.150	-15
286.208	171
286.267	-21
286.325	430
286.383	1145
286.442	943
286.500	-616
286.558	-95
286.616	91
286.675	1635
286.733	193
286.791	-13
286.850	576
286.908	866
286.966	1431
287.024	315
287.083	-291
287.141	-368
287.199	-260
287.257	929
287.315	-160
287.374	289
287.432	1972
287.490	994
287.548	230
287.606	154
287.664	-374
287.723	1165
287.781	1768
287.839	91
287.897	-16
287.955	1570
288.013	1420
288.071	4463
288.129	15959
288.187	47684
288.245	22954
288.303	6926
288.361	2787
288.419	1986
288.477	1733
288.535	551
288.593	-48
288.651	60
288.709	-775
288.767	-17
288.825	-239
288.883	487
288.941	-496
288.999	1250
289.057	264
289.115	-100
289.173	101
289.231	-141
289.289	-859
289.346	-250
289.404	-429
289.462	1423
289.520	707
289.578	840
289.636	95
289.694	-769
289.751	-307
289.809	579
289.867	102
289.925	944
289.983	570
290.040	72
290.098	-419
290.156	-325
290.214	61
290.271	-118
290.329	-1005
290.387	-439
290.444	-317
290.502	-662
290.560	243
290.617	64
290.675	-624
290.733	-303
290.790	211
290.848	532
290.906	-38
290.963	-43
291.021	141
291.078	91
291.136	-531
291.194	3064
291.251	8205
291.309	2519
291.366	499
291.424	320
291.481	-85
291.539	-258
291.596	-410
291.654	151
291.711	-207
291.769	-240
291.826	440
291.884	782
291.941	-398
291.999	567
292.056	385
292.114	-295
292.171	603
292.228	-333
292.286	497
292.343	1240
292.401	1504
292.458	1092
292.515	-514
292.573	1459
292.630	549
292.687	60
292.745	788
292.802	402
292.859	5136
292.917	7103
292.974	3375
293.031	553
293.089	539
293.146	64
293.203	-182
293.260	770
293.318	-19
293.375	2202
293.432	464
293.489	-111
293.546	180
293.604	808
293.661	2647
293.718	10708
293.775	5390
293.832	2156
293.889	503
293.947	661
294.004	307
294.061	1262
294.118	2652
294.175	7846
294.232	12611
294.289	4372
294.346	1570
294.403	2022
294.460	661
294.517	212
294.574	-105
294.631	1195
294.688	680
294.745	2811
294.802	12602
294.859	18143
294.916	6010
294.973	2939
295.030	1014
295.087	2090
295.144	693
295.201	1436
295.258	563
295.315	780
295.372	3519
295.429	8310
295.486	3385
295.542	2877
295.599	7948
295.656	15760
295.713	8965
295.770	9689
295.827	3109
295.883	1943
295.940	1860
295.997	3563
296.054	2607
296.111	1950
296.167	637
296.224	1264
296.281	863
296.338	1363
296.394	312
296.451	1091
296.508	3405
296.564	8200
296.621	5827
296.678	9570
296.734	14489
296.791	7307
296.848	2888
296.904	2814
296.961	6684
297.018	10114
297.074	8031
297.131	3569
297.187	2207
297.244	2611
297.301	8106
297.357	15925
297.414	5874
297.470	3230
297.527	1617
297.583	1555
297.640	1248
297.696	1619
297.753	502
297.809	283
297.866	322
297.922	656
297.979	677
298.035	811
298.092	1644
298.148	5060
298.204	5583
298.261	3015
298.317	5219
298.374	12674
298.430	7209
298.486	2789
298.543	2757
298.599	2697
298.656	2145
298.712	3493
298.768	8284
298.824	6728
298.881	2056
298.937	1453
298.993	947
299.050	1982
299.106	1153
299.162	1387
299.218	1434
299.275	964
299.331	824
299.387	2938
299.443	9412
299.500	10310
299.556	3165
299.612	2314
299.668	1094
299.724	1163
299.780	245
299.837	597
299.893	1318
299.949	8545
300.005	9407
300.061	8712
300.117	15569
300.173	7830
300.229	2511
300.285	3235
300.341	4436
300.397	1451
300.453	942
300.510	1318
300.566	1695
300.622	1571
300.678	1998
300.734	6483
300.790	6547
300.845	9727
300.901	5136
300.957	8001
301.013	6781
301.069	3212
301.125	1641
301.181	2981
301.237	2130
301.293	581
301.349	898
301.405	1192
301.461	73
301.516	2013
301.572	992
301.628	3225
301.684	2063
301.740	4121
301.796	6584
301.851	5608
301.907	7458
301.963	7421
302.019	10106
302.074	27638
302.130	28627
302.186	15025
302.242	5704
302.297	3049
302.353	3458
302.409	7109
302.464	5332
302.520	4987
302.576	10199
302.631	12911
302.687	9256
302.743	4122
302.798	3120
302.854	2053
302.910	2112
302.965	4664
303.021	5887
303.076	4922
303.132	5083
303.187	6130
303.243	3902
303.299	1751
303.354	1352
303.410	1658
303.465	1222
303.521	1261
303.576	1273
303.632	2392
303.687	2789
303.743	9032
303.798	9338
303.853	3866
303.909	1641
303.964	1584
304.020	2551
304.075	4626
304.130	4594
304.186	7793
304.241	8832
304.297	6177
304.352	3343
304.358	3227
304.407	2284
304.449	2793
304.463	2970
304.518	2281
304.539	1950
304.573	1412
304.629	2181
304.630	2188
304.684	2565
304.720	5762
304.739	7375
304.794	10767
304.811	9412
304.850	6219
304.902	2868
304.905	2648
304.960	2348
304.992	2112
305.015	1950
305.071	2494
305.083	2286
305.126	1508
305.173	1330
305.181	1314
305.236	352
305.264	1153
305.292	1918
305.347	1008
305.354	1090
305.402	1682
305.445	1915
305.457	1965
305.512	2372
305.535	2377
305.567	2425
305.622	2511
305.626	2578
305.678	3911
305.716	8967
305.733	10927
305.788	11221
305.807	9678
305.843	7013
305.897	8647
305.898	8663
305.953	9652
305.988	6923
306.008	5416
306.063	3199
306.078	2873
306.118	1973
306.168	1400
306.173	1356
306.228	1115
306.259	1091
306.283	1107
306.338	1262
306.349	1329
306.393	1337
306.440	1787
306.448	1934
306.503	1866
306.530	1909
306.558	1997
306.613	5342
306.620	5618
306.668	7390
306.711	9601
306.723	9971
306.778	8042
306.801	6644
306.833	5012
306.888	1698
306.892	1648
306.943	1381
306.982	1467
306.997	1485
307.052	1597
307.072	1622
307.107	1594
307.162	1994
307.163	2002
307.217	2846
307.253	3461
307.272	3672
307.327	4439
307.343	4235
307.381	3715
307.434	2196
307.436	2167
307.491	4230
307.524	6987
307.546	8272
307.600	9014
307.614	8035
307.655	5112
307.704	3336
307.710	3197
307.765	2691
307.795	3588
307.819	4238
307.874	6904
307.885	6786
307.929	6053
307.975	5242
307.984	5211
308.038	6140
308.065	7599
308.093	11454
308.148	23759
308.156	26785
308.202	40315
308.246	48038
308.257	48348
308.312	31099
308.336	23900
308.366	17709
308.421	11160
308.426	10646
308.475	6666
308.517	4885
308.530	4362
308.585	3686
308.607	3569
308.639	3538
308.694	3635
308.697	3676
308.748	4831
308.787	7257
308.803	7785
308.857	6691
308.877	5996
308.912	5102
308.967	4500
308.967	4521
309.021	6068
309.058	7333
309.076	8626
309.130	14905
309.148	17654
309.185	28824
309.238	50409
309.239	50471
309.293	53449
309.328	48686
309.348	44494
309.402	25295
309.418	20729
309.457	14374
309.508	8991
309.511	8690
309.566	6842
309.598	6045
309.620	5812
309.674	6168
309.688	6376
309.729	5966
309.778	4948
309.783	4872
309.837	3682
309.868	3469
309.892	4190
309.946	6553
309.959	7550
310.001	9676
310.049	10757
310.055	10518
310.109	6937
310.139	4545
310.163	3448
310.218	2378
310.229	2208
310.272	2016
310.319	2358
310.326	2267
310.381	1447
310.409	1086
310.435	1105
310.489	1217
310.499	1257
310.543	1404
310.589	1189
310.598	1143
310.652	1722
310.679	1690
310.706	1541
310.760	1141
310.769	1069
310.814	549
310.859	378
310.868	486
310.923	925
310.948	1182
310.977	1098
311.031	949
311.038	929
311.085	557
311.128	124
311.139	240
311.193	918
311.218	1181
311.247	1192
311.301	1385
311.308	1393
311.356	1252
311.398	1210
311.410	1202
311.464	1087
311.488	1063
311.518	1120
311.572	1207
311.578	1220
311.626	1440
311.668	1651
311.680	1708
311.734	1926
311.758	2022
311.788	1554
311.842	749
311.847	671
311.896	1621
311.937	2529
311.950	2467
312.004	2194
312.027	2081
312.058	1870
312.112	1527
312.117	1504
312.165	1653
312.207	1802
312.297	2150
312.386	1453
312.476	1309
312.566	1699
312.656	662
312.745	785
312.835	1198
312.925	1213
313.015	1141
313.104	1346
313.194	1974
313.284	1309
313.374	1217
313.463	915
313.553	712
313.643	972
313.732	2090
313.822	1097
313.912	1836
314.001	1478
314.091	1691
314.180	1630
314.270	1427
314.360	1021
314.449	277
314.539	658
314.628	941
314.718	1009
314.808	721
314.897	782
314.987	1280
315.076	511
315.166	679
315.255	1673
315.345	1609
315.434	230
315.524	1777
315.613	624
315.703	1213
315.792	1650
315.881	940
315.971	1141
316.060	2174
316.150	2697
316.239	2165
316.328	709
316.418	879
316.507	940
316.597	1306
316.686	227
316.775	2367
316.865	2480
316.954	1587
317.043	745
317.133	1099
317.222	348
317.311	1150
317.400	-272
317.490	2164
317.579	626
317.668	1427
317.757	1600
317.847	1568
317.936	1871
318.025	1906
318.114	1232
318.203	1288
318.293	2564
318.382	3376
318.471	2876
318.560	5129
318.649	10405
318.738	1611
318.828	1049
318.917	1248
319.006	1737
319.095	5727
319.184	14432
319.273	5111
319.362	2114
319.451	584
319.540	613
319.629	2587
319.718	2461
319.807	2150
319.896	4601
319.985	16520
320.074	4011
320.163	1207
320.252	1821
320.341	3156
320.430	1505
320.519	2393
320.608	382
320.697	1315
320.786	697
320.875	1583
320.964	547
321.053	1910
321.142	2157
321.230	3888
321.319	2310
321.408	5858
321.497	1913
321.586	2401
321.675	2080
321.764	2799
321.852	1753
321.941	3045
322.030	1510
322.119	2964
322.207	5602
322.296	4525
322.385	2371
322.474	1944
322.562	5873
322.651	3444
322.740	1867
322.829	3423
322.917	3589
323.006	1823
323.095	1291
323.183	1723
323.272	1613
323.361	5565
323.449	10308
323.538	3635
323.626	7715
323.715	3444
323.804	2033
323.892	6539
323.981	2636
324.069	1759
324.158	4770
324.246	3777
324.335	1402
324.424	1824
324.512	1249
324.601	679
324.689	1614
324.778	2000
324.866	2056
324.954	958
325.043	251
325.131	1738
325.220	3355
325.308	2310
325.397	2910
325.485	1138
325.574	473
325.662	496
325.750	293
325.839	1868
325.927	601
326.015	852
326.104	908
326.192	1167
326.280	1386
326.369	1242
326.457	787
326.545	1811
326.634	729
326.722	235
326.810	-2
326.898	1322
326.987	886
327.075	1208
327.163	1872
327.251	1223
327.340	2297
327.428	1269
327.516	-312
327.604	530
327.692	642
327.781	807
327.869	1468
327.957	1191
328.045	695
328.133	1268
328.221	923
328.309	986
328.397	1239
328.485	1417
328.574	1114
328.662	2522
328.750	916
328.838	633
328.926	670
329.014	726
329.102	1825
329.190	4149
329.278	1506
329.366	877
329.454	36
329.542	877
329.630	274
329.718	1339
329.806	769
329.893	1257
329.981	1041
330.069	1278
330.157	4941
330.245	13873
330.333	4652
330.421	978
330.509	1601
330.597	4587
330.684	2392
330.772	1261
330.860	1157
330.948	3682
331.036	965
331.123	-87
331.211	627
331.299	996
331.387	3614
331.475	4599
331.562	924
331.650	285
331.738	235
331.825	1205
331.913	1305
332.001	-25
332.089	499
332.176	1928
332.264	2701
332.352	2335
332.439	971
332.527	873
332.614	211
332.702	1392
332.790	527
332.877	848
332.965	2939
333.052	694
333.140	388
333.228	1169
333.315	46
333.403	862
333.490	1985
333.578	1081
333.665	1781
333.753	999
333.840	41
333.928	1390
334.015	2985
334.103	6051
334.190	15017
334.278	3228
334.365	1056
334.452	1080
334.540	175
334.627	481
334.715	809
334.802	2841
334.889	12918
334.977	8567
335.064	1427
335.151	454
335.239	1363
335.326	2318
335.413	9179
335.501	9499
335.588	1120
335.675	672
335.762	1429
335.850	2087
335.937	1021
336.024	4614
336.111	14648
336.199	4573
336.286	750
336.373	645
336.460	208
336.547	697
336.635	928
336.722	718
336.809	830
336.896	548
336.983	5393
337.070	13288
337.157	15507
337.245	9733
337.332	4652
337.419	1026
337.506	1151
337.593	673
337.680	5707
337.767	13177
337.854	2884
337.941	4219
338.028	2324
338.115	210
338.202	1975
338.289	2963
338.376	7216
338.463	2999
338.550	8138
338.637	7378
338.724	2940
338.811	2680
338.898	1364
338.984	522
339.071	1026
339.158	1974
339.245	3475
339.332	1653
339.419	1679
339.506	1773
339.593	188
339.679	474
339.766	-384
339.853	1450
339.940	846
340.027	380
340.113	539
340.200	201
340.287	529
340.374	890
340.460	886
340.547	358
340.634	1480
340.720	5124
340.807	1409
340.894	356
340.980	301
341.067	-282
341.154	868
341.240	1667
341.327	1906
341.414	1394
341.500	272
341.587	761
341.674	924
341.760	1598
341.847	747
341.933	430
342.020	-564
342.106	611
342.193	150
342.279	1231
342.366	1062
342.452	1375
342.539	259
342.625	1612
342.712	3736
342.798	1238
342.885	336
342.971	-23
343.058	925
343.144	120
343.230	301
343.317	350
343.403	-34
343.490	1237
343.576	161
343.662	552
343.749	617
343.835	2596
343.921	1961
344.008	10874
344.094	19707
344.180	3491
344.267	1630
344.353	6621
344.439	4663
344.525	1946
344.612	3644
344.698	4445
344.784	1095
344.870	731
344.957	414
345.043	470
345.129	-189
345.215	1891
345.301	1153
345.387	934
345.474	-488
345.560	682
345.646	279
345.732	1249
345.818	974
345.904	257
345.990	162
346.076	856
346.162	357
346.249	500
346.335	-575
346.421	1140
346.507	2424
346.593	7594
346.679	174
346.765	1321
346.851	54
346.937	-851
347.023	1171
347.108	1929
347.194	408
347.280	321
347.366	-182
347.452	2523
347.538	8290
347.624	7625
347.710	5083
347.796	770
347.882	826
347.967	1446
348.053	1099
348.139	224
348.225	268
348.311	1025
348.397	135
348.482	363
348.568	721
348.654	277
348.740	145
348.825	-1045
348.911	1423
348.997	5315
349.083	8920
349.168	1530
349.254	132
349.340	143
349.425	-206
349.511	1035
349.597	965
349.682	2442
349.768	6376
349.854	3161
349.939	944
350.025	442
350.110	379
350.196	1014
350.282	-178
350.367	105
350.453	685
350.538	352
350.624	-35
350.709	1632
350.795	127
350.880	1814
350.966	2530
351.051	823
351.137	710
351.222	1261
351.308	1539
351.393	4977
351.479	629
351.564	-648
351.649	620
351.735	906
351.820	-389
351.906	1600
351.991	2321
352.076	3536
352.162	4039
352.247	484
352.332	1416
352.418	1332
352.503	1685
352.588	8329
352.673	4058
352.759	1301
352.844	385
352.929	206
353.014	229
353.100	899
353.185	565
353.270	1693
353.355	1487
353.441	525
353.526	436
353.611	1055
353.696	1136
353.781	1730
353.866	-506
353.952	1485
354.037	480
354.122	3463
354.207	1833
354.292	687
354.377	114
354.462	191
354.547	283
354.632	1922
354.717	2653
354.802	2254
354.887	681
354.972	1006
355.057	400
355.142	-220
355.227	509
355.312	378
355.397	2554
355.482	4068
355.567	972
355.652	3026
355.737	1878
355.822	6833
355.907	3759
355.991	847
356.076	-343
356.161	1021
356.246	-396
356.331	332
356.416	1389
356.501	12418
356.585	10673
356.670	1429
356.755	1524
356.840	1779
356.924	7779
357.009	23229
357.094	6096
357.179	1966
357.263	1549
357.348	2157
357.433	543
357.517	1730
357.602	2165
357.687	1143
357.771	2206
357.856	4509
357.941	2967
358.025	6906
358.110	24458
358.195	9243
358.279	335
358.364	586
358.448	4542
358.533	12432
358.617	8405
358.702	8288
358.787	2407
358.871	1343
358.956	896
359.040	-217
359.125	-433
359.209	1011
359.294	2246
359.378	2893
359.462	565
359.547	882
359.631	-277
359.716	-716
359.800	299
359.885	1806
359.969	-140
360.053	2482
360.138	3544
360.222	814
360.306	708
360.391	1901
360.475	2590
360.559	4370
360.644	3326
360.728	1628
360.812	7617
360.896	16302
360.981	5043
361.065	2587
361.149	770
361.233	156
361.318	371
361.402	836
361.486	1285
361.570	633
361.654	746
361.739	2085
361.823	10533
361.907	14847
361.991	1823
362.075	1528
362.159	747
362.243	2171
362.327	407
362.411	3102
362.495	110
362.580	156
362.664	50
362.748	-266
362.832	264
362.916	-622
363.000	3083
363.084	10171
363.168	15633
363.252	2886
363.336	1116
363.420	3652
363.503	13565
363.587	11996
363.671	1421
363.755	213
363.839	2189
363.923	613
364.007	1193
364.091	1714
364.175	3282
364.258	20603
364.342	6072
364.426	3399
364.510	47
364.594	3110
364.677	4267
364.761	14058
364.845	8294
364.929	2587
365.013	1580
365.096	1961
365.180	1198
365.264	7049
365.347	19806
365.431	7930
365.515	908
365.598	-152
365.682	1652
365.766	944
365.849	1835
365.933	47
366.017	1488
366.100	1388
366.184	45
366.267	1081
366.351	2423
366.435	152
366.518	89
366.602	-47
366.685	-187
366.769	-56
366.852	2199
366.936	2945
367.019	284
367.103	1167
367.186	3590
367.270	10
367.353	-482
367.436	820
367.520	47
367.603	486
367.687	42
367.770	895
367.853	841
367.937	5253
368.020	7389
368.104	43
368.187	1116
368.270	2453
368.353	1581
368.437	1896
368.520	5178
368.603	3291
368.687	4017
368.770	8634
368.853	1265
368.936	2766
369.020	2566
369.103	138
369.186	142
369.269	1056
369.352	1490
369.436	1434
369.519	795
369.602	-1276
369.685	1672
369.768	71
369.851	1323
369.934	-500
370.018	-286
370.101	182
370.184	1693
370.267	1136
370.350	1232
370.433	2596
370.516	7294
370.599	7966
370.682	407
370.765	5349
370.848	7349
370.931	10093
371.014	4761
371.097	-890
371.180	723
371.263	-150
371.346	-1478
371.429	366
371.511	-283
371.594	590
371.677	3094
371.760	3766
371.843	1218
371.926	11909
372.009	20460
372.091	8234
372.174	4279
372.257	11237
372.340	2901
372.423	3514
372.505	5618
372.588	1093
372.671	3996
372.754	9838
372.836	5159
372.919	7257
373.002	12489
373.085	1989
373.167	2365
373.250	5129
373.332	10836
373.415	17192
373.498	25961
373.580	10179
373.663	14219
373.746	15895
373.828	3509
373.911	1846
373.993	2579
374.076	12909
374.159	9928
374.241	3633
374.324	9684
374.406	6164
374.489	10409
374.571	24956
374.654	7867
374.736	5399
374.819	15844
374.901	23202
374.983	18875
375.066	2850
375.148	1126
375.231	9977
375.313	16255
375.395	4285
375.478	356
375.560	96
375.643	1075
375.725	5301
375.807	17957
375.890	14392
375.972	3977
376.054	2932
376.136	3492
376.219	856
376.301	6413
376.383	14984
376.465	5088
376.548	1880
376.630	4539
376.712	13655
376.794	4837
376.877	592
376.959	-461
377.041	672
377.123	2552
377.205	2947
377.287	46
377.369	721
377.452	-837
377.534	-983
377.616	-386
377.698	-141
377.780	-175
377.862	161
377.944	881
378.026	37
378.108	880
378.190	-340
378.272	551
378.354	-291
378.436	-164
378.518	373
378.600	4010
378.682	4201
378.764	6091
378.846	5227
378.928	1075
379.010	710
379.091	1289
379.173	1309
379.255	-457
379.337	-187
379.419	2454
379.501	9290
379.583	2541
379.664	817
379.746	521
379.828	7604
379.910	7372
379.991	7787
380.073	-789
380.155	137
380.237	-323
380.318	-256
380.400	60
380.482	1137
380.564	349
380.645	751
380.727	185
380.809	1009
380.890	-343
380.972	-492
381.053	-278
381.135	688
381.217	2108
381.298	7519
381.380	2463
381.461	2605
381.543	12774
381.624	14013
381.706	1828
381.787	1604
381.869	1256
381.951	7035
382.032	20863
382.113	14433
382.195	972
382.276	2830
382.358	3780
382.439	12113
382.521	15087
382.602	19634
382.684	8743
382.765	15849
382.846	12002
382.928	9901
383.009	3971
383.090	4491
383.172	14776
383.253	20015
383.334	9836
383.416	16744
383.497	7246
383.578	3634
383.659	4854
383.741	14945
383.822	32446
383.903	13757
383.984	9684
384.066	22159
384.147	10902
384.228	1695
384.309	1164
384.390	1426
384.471	519
384.553	1040
384.634	1109
384.715	2292
384.796	299
384.877	1189
384.958	7132
385.039	6072
385.120	1876
385.201	1254
385.282	246
385.363	1656
385.444	581
385.525	3455
385.606	10035
385.687	7949
385.768	1336
385.849	1825
385.930	13234
386.011	18523
386.092	3232
386.173	834
386.254	759
386.335	3336
386.416	3294
386.496	4911
386.577	6368
386.658	2130
386.739	57
386.820	2099
386.901	96
386.981	954
387.062	-39
387.143	1250
387.224	6206
387.304	6161
387.385	2374
387.466	-716
387.547	1902
387.627	-272
387.708	3184
387.789	14307
387.869	14470
387.950	4412
388.031	-389
388.111	-832
388.192	3987
388.273	4628
388.353	1027
388.434	752
388.514	2625
388.595	13825
388.676	14247
388.756	6919
388.837	6145
388.917	2544
388.998	771
389.078	3464
389.159	1945
389.239	-880
389.320	1978
389.400	-1442
389.480	3275
389.561	6915
389.641	3967
389.722	852
389.802	695
389.883	4146
389.963	10318
390.043	5555
390.124	364
390.204	3065
390.284	6362
390.365	3592
390.445	7624
390.525	11926
390.605	7787
390.686	2103
390.766	1433
390.846	407
390.927	-918
391.007	-757
391.087	415
391.167	-245
391.247	-1484
391.328	1459
391.408	2346
391.488	2261
391.568	-1249
391.648	-75
391.728	1301
391.808	1478
391.888	-105
391.969	4331
392.049	5062
392.129	3624
392.209	4314
392.289	9094
392.369	4588
392.449	5275
392.529	1744
392.609	1804
392.689	2142
392.769	7318
392.849	5683
392.929	8107
393.009	12740
393.089	5408
393.169	1352
393.248	3853
393.328	24977
393.408	23153
393.488	3433
393.568	1083
393.648	-299
393.728	88
393.807	-1253
393.887	1111
393.967	38
394.047	486
394.127	577
394.206	4233
394.286	20491
394.366	71010
394.446	68164
394.525	15846
394.605	3474
394.685	3653
394.764	9055
394.844	13461
394.924	6956
395.003	915
395.083	354
395.163	1145
395.242	-123
395.322	400
395.402	-1329
395.481	2771
395.561	5055
395.640	13862
395.720	9899
395.799	16047
395.879	11847
395.958	7697
396.038	31162
396.117	92003
396.197	89976
396.276	29755
396.356	10393
396.435	6183
396.515	3032
396.594	1573
396.673	2612
396.753	6708
396.832	23292
396.912	19469
396.991	5261
397.070	842
397.150	-1037
397.229	916
397.308	26
397.388	-113
397.467	405
397.546	786
397.625	-2050
397.705	1300
397.784	542
397.863	-586
397.942	76
398.022	949
398.101	4783
398.180	14813
398.259	6984
398.338	1912
398.417	-498
398.497	-186
398.576	322
398.655	-519
398.734	58
398.813	952
398.892	4991
398.971	15273
399.050	5455
399.129	-672
399.208	-386
399.287	402
399.366	-1208
399.445	-135
399.524	-151
399.603	-1604
399.682	1033
399.761	4509
399.840	16408
399.919	11843
399.998	324
400.077	-855
400.156	-2040
400.235	2158
400.313	-949
400.392	-295
400.471	3177
400.550	4830
400.629	-761
400.708	519
400.786	304
400.865	3489
400.944	2498
401.023	2451
401.102	-1291
401.180	-37
401.259	-598
401.338	-476
401.416	-261
401.495	-896
401.574	27
401.652	-446
401.731	-48
401.810	-1133
401.888	-730
401.967	-1302
402.046	-537
402.124	501
402.203	-1344
402.281	887
402.360	985
402.438	5536
402.517	1455
402.596	828
402.674	-476
402.753	55
402.831	-23
402.910	439
402.988	1682
403.066	7391
403.145	3621
403.223	2196
403.302	4516
403.380	4909
403.459	3509
403.537	932
403.615	381
403.694	-646
403.772	-355
403.850	-977
403.929	-781
404.007	-1578
404.085	939
404.164	0
404.242	89
404.320	7089
404.398	20829
404.477	17664
404.555	20908
404.633	17801
404.711	13710
404.789	8524
404.868	-179
404.946	-366
405.024	-476
405.102	-48
405.180	-974
405.258	-946
405.336	-47
405.415	-837
405.493	1562
405.571	666
405.649	-1296
405.727	-701
405.805	557
405.883	-565
405.961	180
406.039	548
406.117	-1450
406.195	491
406.273	3280
406.351	15196
406.429	9749
406.507	1326
406.585	-739
406.663	64
406.740	-1495
406.818	-933
406.896	-1211
406.974	928
407.052	-420
407.130	8813
407.208	11333
407.285	3397
407.363	-1194
407.441	-1327
407.519	-716
407.596	-211
407.674	350
407.752	2155
407.830	3722
407.907	1153
407.985	-1131
408.063	1320
408.141	1571
408.218	1780
408.296	-134
408.373	-769
408.451	-1034
408.529	-908
408.606	-1540
408.684	-549
408.762	-872
408.839	-522
408.917	-676
408.994	-1217
409.072	-1588
409.149	-1054
409.227	-740
409.304	-763
409.382	-780
409.459	-1123
409.537	-740
409.614	-883
409.692	-1101
409.769	-560
409.846	-1239
409.924	-329
410.001	-2017
410.079	-620
410.156	-183
410.233	-490
410.311	-854
410.388	-1587
410.465	-433
410.543	-960
410.620	-460
410.697	-319
410.775	-1433
410.852	-1356
410.929	-648
411.006	-401
411.083	-877
411.161	-287
411.238	602
411.315	-577
411.392	-521
411.469	-718
411.547	-7
411.624	-1836
411.701	-974
411.778	-787
411.855	-589
411.932	-669
412.009	-923
412.086	-316
412.163	-364
412.240	-630
412.317	248
412.394	372
412.471	-400
412.548	-942
412.625	-1672
412.702	-256
412.779	38
412.856	-427
412.933	-1894
413.010	-502
413.087	-791
413.164	2510
413.241	3421
413.318	-849
413.395	421
413.471	116
413.548	-306
413.625	-149
413.702	-793
413.779	-297
413.855	-1092
413.932	-1195
414.009	-1997
414.086	-1254
414.162	-987
414.239	502
414.316	3185
414.393	7168
414.469	579
414.546	-1017
414.623	-1181
414.699	-772
414.776	-487
414.853	-1174
414.929	-556
415.006	-568
415.082	-152
415.159	-1083
415.236	-554
415.312	436
415.389	-10
415.465	-1205
415.542	-1030
415.618	-1392
415.695	-251
415.771	-1052
415.848	-1237
415.924	-175
416.000	-1280
416.077	71
416.153	-1922
416.230	-1788
416.306	-1068
416.383	-1085
416.459	-879
416.535	-1011
416.612	-905
416.688	-31
416.764	-1411
416.841	-1467
416.917	-1835
416.993	-260
417.069	-830
417.146	-541
417.222	-505
417.298	-84
417.374	-1485
417.451	-972
417.527	-936
417.603	-1420
417.679	-87
417.755	-388
417.831	-962
417.908	-810
417.984	-1180
418.060	-977
418.136	-54
418.212	-397
418.288	-321
418.364	196
418.440	-1277
418.516	-176
418.592	-83
418.668	1173
418.744	980
418.820	1424
418.896	-830
418.972	-1342
419.048	-947
419.124	633
419.200	-1149
419.276	-1003
419.352	-1598
419.428	-618
419.504	-1275
419.579	-1063
419.655	-1489
419.731	-1075
419.807	47
419.883	1171
419.959	387
420.034	98
420.110	561
420.186	3987
420.262	3658
420.337	-1054
420.413	-799
420.489	-829
420.565	94
420.640	-1242
420.716	-1064
420.792	-1749
420.867	-264
420.943	-1414
421.019	-898
421.094	-977
421.170	-1021
421.245	-1571
421.321	-916
421.397	-1102
421.472	-425
421.548	-630
421.623	-533
421.699	-341
421.774	25
421.850	-1624
421.925	-657
422.001	-607
422.076	-1301
422.152	-2065
422.227	-371
422.302	211
422.378	206
422.453	-169
422.529	3005
422.604	19506
422.679	39710
422.755	19783
422.830	4222
422.905	679
422.981	-736
423.056	-453
423.131	-175
423.207	-634
423.282	-1276
423.357	-98
423.432	-404
423.508	205
423.583	243
423.658	508
423.733	-620
423.808	48
423.883	401
423.959	498
424.034	-460
424.109	1178
424.184	205
424.259	134
424.334	-730
424.409	-1470
424.484	-737
424.559	-941
424.634	-996
424.709	-109
424.784	-967
424.859	-832
424.934	-1050
425.009	3123
425.084	4775
425.159	613
425.234	-150
425.309	-1486
425.384	988
425.459	263
425.534	-328
425.609	-1514
425.683	-769
425.758	-335
425.833	-14
425.908	-126
425.983	491
426.058	5147
426.132	1722
426.207	-727
426.282	1151
426.357	-112
426.431	-1259
426.506	152
426.581	-1338
426.655	-600
426.730	-1482
426.805	-1285
426.879	112
426.954	-901
427.029	-78
427.103	6329
427.178	13577
427.253	6092
427.327	-223
427.402	-93
427.476	2353
427.551	391
427.625	-857
427.700	371
427.774	-807
427.849	734
427.923	-1033
427.998	-1390
428.072	-1505
428.147	293
428.221	1725
428.296	3447
428.370	211
428.444	-537
428.519	993
428.593	2927
428.667	2536
428.742	3283
428.816	2895
428.890	5284
428.965	5753
429.039	3306
429.113	3892
429.188	-92
429.262	-887
429.336	-474
429.410	2205
429.485	3141
429.559	2941
429.633	1609
429.707	-610
429.781	1180
429.855	8282
429.930	9902
430.004	9763
430.078	18624
430.152	11649
430.226	4564
430.300	3020
430.374	-212
430.448	393
430.522	5918
430.596	15813
430.670	8807
430.744	9271
430.818	13835
430.892	1960
430.966	-416
431.040	-696
431.114	-1200
431.188	-1226
431.262	-832
431.336	-1372
431.410	1507
431.484	3390
431.557	1900
431.631	-1032
431.705	-1316
431.779	-862
431.853	2111
431.927	573
432.000	119
432.074	-180
432.148	-560
432.222	-854
432.295	-788
432.369	-900
432.443	400
432.516	6174
432.590	14645
432.664	5402
432.737	-274
432.811	-727
432.885	-1460
432.958	-335
433.032	-1813
433.106	-1353
433.179	-692
433.253	-782
433.326	-848
433.400	-1427
433.473	-469
433.547	-1646
433.620	-685
433.694	-538
433.767	-747
433.841	-1352
433.914	-1126
433.988	-641
434.061	-784
434.134	-613
434.208	-1211
434.281	-895
434.355	-1152
434.428	-1019
434.501	-1600
434.575	-1238
434.648	-776
434.721	-420
434.795	-389
434.868	-1524
434.941	-1473
435.014	-1314
435.088	-1301
435.161	-969
435.234	-492
435.307	-500
435.381	-1103
435.454	-1122
435.527	-942
435.600	-1573
435.673	-846
435.746	-1162
435.819	-870
435.892	-924
435.966	-667
436.039	-1127
436.112	189
436.185	-1877
436.258	-801
436.331	-1291
436.404	-1079
436.477	-845
436.550	-819
436.623	-1078
436.696	-1125
436.769	-957
436.842	-484
436.915	-914
436.987	-936
437.060	-1395
437.133	-630
437.206	-1973
437.279	10
437.352	-949
437.425	-1585
437.498	-1005
437.570	355
437.643	-112
437.716	-721
437.789	-1923
437.861	-472
437.934	1173
438.007	-314
438.080	-1271
438.152	-874
438.225	-176
438.298	8614
438.370	22183
438.443	9740
438.516	1034
438.588	-761
438.661	-1504
438.734	-1272
438.806	-812
438.879	-513
438.951	-778
439.024	-426
439.096	-1304
439.169	-830
439.241	-812
439.314	-1666
439.386	-895
439.459	-126
439.531	675
439.604	-611
439.676	-1014
439.749	-1167
439.821	-443
439.893	-787
439.966	-928
440.038	-400
440.110	-1031
440.183	-914
440.255	-1097
440.327	88
440.400	3742
440.472	15253
440.544	9287
440.617	1168
440.689	-392
440.761	1046
440.833	-91
440.905	494
440.978	-1406
441.050	-580
441.122	-324
441.194	-1762
441.266	-843
441.338	-844
441.411	-401
441.483	4469
441.555	6224
441.627	733
441.699	151
441.771	-556
441.843	-850
441.915	-1061
441.987	-1123
442.059	-710
442.131	-340
442.203	6
442.275	-464
442.347	641
442.419	-310
442.491	-356
442.563	953
442.635	1559
442.706	4569
442.778	4322
442.850	-1614
442.922	-1118
442.994	-722
443.066	484
443.137	-883
443.209	-742
443.281	-1449
443.353	-262
443.425	1594
443.496	3292
443.568	1926
443.640	-124
443.711	-600
443.783	-641
443.855	-587
443.926	-867
443.998	-1039
444.070	852
444.141	-259
444.213	-143
444.285	372
444.356	-981
444.428	206
444.499	-429
444.571	-1221
444.642	-544
444.714	-922
444.785	-890
444.857	974
444.928	3399
445.000	1401
445.071	2141
445.143	2637
445.214	-136
445.285	1391
445.357	5831
445.428	6132
445.500	8727
445.571	7793
445.642	3149
445.714	3197
445.785	7834
445.856	969
445.928	208
445.999	-278
446.070	-143
446.141	-311
446.213	156
446.284	-1242
446.355	89
446.426	-1259
446.497	-213
446.569	770
446.640	737
446.711	55
446.782	-293
446.853	-149
446.924	256
446.995	-733
447.066	156
447.138	741
447.209	711
447.280	-1235
447.351	-1073
447.422	-1581
447.493	13
447.564	-503
447.635	54
447.706	268
447.777	-580
447.847	-454
447.918	-664
447.989	-82
448.060	425
448.131	2884
448.202	2494
448.273	515
448.344	707
448.414	-789
448.485	-379
448.556	-575
448.627	-401
448.698	206
448.768	-1080
448.839	-904
448.910	862
448.981	1415
449.051	-372
449.122	-779
449.193	-667
449.263	-190
449.334	-167
449.405	-197
449.475	1058
449.546	1203
449.616	1403
449.687	1367
449.758	-124
449.828	-711
449.899	-867
449.969	-1140
450.040	-216
450.110	-563
450.181	-436
450.251	-606
450.322	-733
450.392	-770
450.463	-522
450.533	-22
450.604	-974
450.674	-952
450.744	606
450.815	-327
450.885	-296
450.955	-951
451.026	-1310
451.096	-507
451.166	-362
451.237	1504
451.307	6493
451.377	2413
451.447	-368
451.518	-707
451.588	-431
451.658	-593
451.728	1102
451.799	6103
451.869	9004
451.939	1787
452.009	-938
452.079	-1238
452.149	592
452.219	1219
452.289	8052
452.360	7040
452.430	848
452.500	-778
452.570	-97
452.640	786
452.710	3389
452.780	7099
452.850	4080
452.920	1858
452.990	814
453.060	477
453.129	-254
453.199	1288
453.269	8547
453.339	20676
453.409	32845
453.479	29468
453.549	47047
453.619	49841
453.688	23387
453.758	3040
453.828	342
453.898	-329
453.968	281
454.037	-33
454.087	-144
454.107	-207
454.168	-348
454.177	-389
454.247	358
454.249	354
454.316	-353
454.330	-72
454.386	637
454.411	1741
454.456	3163
454.492	5351
454.525	7354
454.574	4138
454.595	2803
454.655	665
454.665	337
454.734	1000
454.736	1130
454.804	2797
454.817	4133
454.873	8224
454.898	8881
454.943	10075
454.979	6141
455.013	2900
455.060	2125
455.082	1960
455.141	3150
455.152	3280
455.221	8375
455.222	8618
455.291	14893
455.303	14913
455.360	14538
455.384	17006
455.430	18877
455.465	16005
455.499	13892
455.546	11116
455.569	9386
455.627	6464
455.638	6180
455.707	1645
455.708	1661
455.777	589
455.789	612
455.846	774
455.869	765
455.916	662
455.950	956
455.985	1177
456.031	878
456.054	639
456.112	172
456.124	183
456.193	1493
456.193	1474
456.262	872
456.274	1135
456.332	2387
456.355	2021
456.401	729
456.436	678
456.470	823
456.516	734
456.540	725
456.597	405
456.609	312
456.678	327
456.678	313
456.747	570
456.759	513
456.817	474
456.840	688
456.886	872
456.920	565
456.955	512
457.001	1012
457.024	1126
457.082	1474
457.093	1613
457.162	2742
457.163	2769
457.232	1663
457.243	1611
457.301	1580
457.324	1037
457.370	382
457.405	991
457.439	1632
457.485	1312
457.508	1017
457.566	1902
457.577	2020
457.646	1426
457.647	1438
457.715	1007
457.727	1043
457.784	1441
457.808	1481
457.853	1521
457.889	1513
457.922	1538
457.969	2209
457.991	2290
458.050	1585
458.060	1565
458.129	2353
458.130	2376
458.198	1917
458.211	1785
458.267	1306
458.292	1157
458.336	1194
458.372	1538
458.405	1999
458.453	2121
458.474	2054
458.533	2331
458.543	2368
458.611	3030
458.614	3058
458.680	2246
458.694	2126
458.749	2283
458.775	2110
458.818	1605
458.855	1280
458.887	1232
458.936	1705
458.955	1827
459.016	1618
459.024	1629
459.093	1937
459.097	1974
459.162	1638
459.177	1640
459.230	2688
459.257	3039
459.299	2617
459.338	2665
459.368	2968
459.418	2834
459.437	2639
459.499	2564
459.505	2612
459.574	2418
459.579	2452
459.643	2174
459.659	2122
459.711	2572
459.740	2799
459.780	3013
459.820	3196
459.849	3228
459.900	3492
459.917	3421
459.981	3209
459.986	3231
460.054	3020
460.061	3071
460.123	3549
460.141	3684
460.191	4546
460.222	4873
460.260	4504
460.302	4532
460.328	4369
460.382	3722
460.397	3801
460.462	3892
460.465	3943
460.534	6171
460.543	6327
460.602	10325
460.623	12120
460.671	18625
460.703	24119
460.739	19113
460.783	10939
460.808	9479
460.864	4293
460.876	3917
460.944	3437
460.945	3419
461.013	3333
461.024	3291
461.081	3313
461.104	3364
461.150	3255
461.184	2946
461.218	2972
461.264	3086
461.286	3058
461.345	3187
461.355	3204
461.423	3443
461.425	3442
461.491	5003
461.505	5479
461.559	11322
461.585	13817
461.628	19586
461.665	25440
461.696	25068
461.745	25374
461.764	21687
461.825	6962
461.832	6945
461.901	4827
461.905	4851
461.969	3760
461.985	3518
462.037	4205
462.065	4604
462.105	5916
462.145	7290
462.173	9708
462.225	14271
462.241	15458
462.305	20939
462.310	20180
462.378	8317
462.385	6730
462.446	5250
462.465	5018
462.514	4501
462.545	4358
462.582	4312
462.625	4566
462.650	4747
462.705	4801
462.718	4990
462.785	6081
462.786	6123
462.854	8298
462.865	8743
462.922	9785
462.945	10133
462.990	7279
463.025	4722
463.058	4691
463.104	4536
463.126	4256
463.184	3902
463.194	4149
463.262	5865
463.264	5923
463.330	6201
463.344	6311
463.398	7102
463.424	7340
463.466	6350
463.504	5404
463.533	5504
463.583	5645
463.601	5798
463.663	6075
463.669	6346
463.737	10136
463.743	10451
463.805	16488
463.823	18238
463.873	27804
463.903	33701
463.940	31183
463.982	28699
464.008	22646
464.062	8724
464.076	8272
464.142	5299
464.144	5304
464.211	6048
464.221	6207
464.279	5408
464.301	5053
464.347	6295
464.381	7347
464.414	8077
464.461	8965
464.482	8989
464.540	9299
464.550	8998
464.617	6162
464.620	6068
464.685	7971
464.699	8343
464.753	9866
464.779	10750
464.820	12307
464.859	13558
464.888	12914
464.938	11785
464.956	11835
465.018	11779
465.023	11603
465.091	9331
465.098	9053
465.158	8893
465.177	8925
465.226	8752
465.257	8476
465.293	8764
465.336	9265
465.361	10440
465.416	12724
465.428	14075
465.495	21762
465.496	21879
465.563	34045
465.575	36214
465.631	37632
465.654	38241
465.698	23645
465.734	11026
465.765	10349
465.813	8969
465.833	8747
465.893	8728
465.900	8715
465.968	8419
465.972	8386
466.035	7563
466.052	7344
466.102	8296
466.131	8758
466.170	8490
466.210	8176
466.237	8619
466.290	9586
466.304	9548
466.369	9116
466.372	9162
466.439	10077
466.449	10178
466.506	11315
466.528	11742
466.573	19840
466.607	25864
466.641	34215
466.687	45722
466.708	47870
466.766	53704
466.775	49225
466.842	14743
466.845	13075
466.909	11419
466.925	11071
466.977	10527
467.004	10243
467.044	11070
467.083	11886
467.111	13142
467.163	15429
467.178	15855
467.242	17493
467.245	17449
467.312	15843
467.321	15602
467.379	16097
467.400	16228
467.446	17340
467.480	18085
467.559	14774
467.638	12556
467.717	13630
467.796	14665
467.875	15013
467.955	15781
468.034	30252
468.113	55751
468.192	71316
468.271	14997
468.350	13270
468.429	11940
468.508	12014
468.588	13844
468.667	19360
468.746	25562
468.825	20453
468.904	12531
468.983	16504
469.062	23271
469.141	24704
469.220	10917
469.299	12409
469.378	12805
469.456	17302
469.535	13927
469.614	13874
469.693	14823
469.772	19608
469.851	27118
469.930	14774
470.009	12495
470.088	11680
470.166	12522
470.245	13964
470.324	13930
470.403	12653
470.482	11518
470.560	12548
470.639	11553
470.718	14693
470.797	13798
470.875	19856
470.954	27725
471.033	25325
471.111	10337
471.190	12042
471.269	10120
471.347	10172
471.426	11081
471.505	13642
471.583	14680
471.662	13814
471.740	12211
471.819	12513
471.898	12602
471.976	11344
472.055	10692
472.133	12240
472.212	17160
472.290	17675
472.369	10904
472.447	10890
472.526	9208
472.604	11444
472.683	10564
472.761	11186
472.839	10095
472.918	11136
472.996	12003
473.075	14394
473.153	12279
473.231	11757
473.310	12640
473.388	11918
473.466	11497
473.545	12764
473.623	14526
473.701	13822
473.780	11929
473.858	14697
473.936	19760
474.014	11904
474.093	12822
474.171	19025
474.249	25743
474.327	13747
474.405	8770
474.484	9637
474.562	9861
474.640	9785
474.718	10613
474.796	9728
474.874	8937
474.952	8853
475.030	8460
475.108	9258
475.187	9588
475.265	10503
475.343	13472
475.421	13390
475.499	9715
475.577	11354
475.655	17604
475.733	32874
475.811	50871
475.889	45794
475.966	21269
476.044	10868
476.122	11137
476.200	13349
476.278	10476
476.356	9636
476.434	10210
476.512	12234
476.590	13368
476.667	12129
476.745	9418
476.823	10862
476.901	9535
476.979	10738
477.056	11376
477.134	14299
477.212	16192
477.290	10701
477.367	8138
477.445	9508
477.523	8445
477.601	10051
477.678	10189
477.756	12628
477.834	12749
477.911	9349
477.989	9826
478.066	9802
478.144	10781
478.222	10251
478.299	12090
478.377	10546
478.454	10498
478.532	8529
478.609	8942
478.687	10169
478.764	8144
478.842	10625
478.919	9762
478.997	9350
479.074	9361
479.152	11441
479.229	14448
479.307	7614
479.384	7437
479.461	7944
479.539	8016
479.616	10127
479.694	7902
479.771	11242
479.848	11096
479.926	15058
480.003	14234
480.080	8384
480.157	8239
480.235	7932
480.312	8742
480.389	11262
480.467	17491
480.544	20888
480.621	10731
480.698	8957
480.775	11554
480.853	11988
480.930	9692
481.007	9936
481.084	10830
481.161	11829
481.238	10302
481.315	8735
481.392	10154
481.470	12983
481.547	15427
481.624	9431
481.701	8432
481.778	9459
481.855	11059
481.932	17369
482.009	29060
482.086	12798
482.163	8157
482.240	9617
482.317	14679
482.393	10847
482.470	8498
482.547	9978
482.624	6949
482.701	9409
482.778	9722
482.855	7410
482.932	7332
483.009	6200
483.085	7581
483.162	8768
483.239	8406
483.316	7138
483.393	7461
483.469	8089
483.546	10110
483.623	10370
483.699	8677
483.776	10182
483.853	11594
483.930	21508
484.006	46961
484.083	70307
484.160	33735
484.236	51120
484.313	35506
484.389	28100
484.466	25168
484.543	24072
484.619	24747
484.696	26297
484.772	28073
484.849	27857
484.925	23936
485.002	24654
485.078	26209
485.155	24856
485.231	22412
485.308	22234
485.384	22602
485.461	32351
485.537	48288
485.614	45212
485.690	22135
485.766	21238
485.843	22035
485.919	26816
485.995	24045
486.072	18440
486.148	18970
486.224	19809
486.301	20149
486.377	23962
486.453	21451
486.530	24135
486.606	33845
486.682	35264
486.758	41464
486.835	42293
486.911	37914
486.987	58256
487.063	44516
487.139	47982
487.215	33958
487.292	22795
487.368	20396
487.444	21907
487.520	23865
487.596	20706
487.672	22983
487.748	27328
487.824	27798
487.900	20725
487.976	20659
488.052	22671
488.128	23398
488.204	21481
488.280	21007
488.356	31346
488.432	57435
488.508	68379
488.584	20670
488.660	18875
488.736	18373
488.812	19549
488.888	24356
488.964	30340
489.039	52224
489.115	63820
489.191	30776
489.267	21093
489.343	18526
489.418	16524
489.494	15884
489.570	14965
489.646	17359
489.722	16852
489.797	18803
489.873	33561
489.949	62104
490.024	34879
490.100	15408
490.176	16577
490.251	18192
490.327	21327
490.403	13810
490.478	14364
490.554	12413
490.629	13676
490.705	13061
490.781	15201
490.856	13422
490.932	16256
491.007	14668
491.083	15283
491.158	15197
491.234	24876
491.309	47133
491.385	33737
491.460	13782
491.536	16831
491.611	12714
491.686	14621
491.762	18879
491.837	34268
491.913	50691
491.988	71196
492.063	63863
492.139	28629
492.214	17170
492.289	11479
492.365	11771
492.440	14861
492.515	13964
492.590	13968
492.666	11625
492.741	19090
492.816	25029
492.891	12657
492.967	11794
493.042	11147
493.117	12196
493.192	14763
493.267	31983
493.342	80918
493.418	75480
493.493	12533
493.568	10146
493.643	12138
493.718	13911
493.793	19869
493.868	17404
493.943	10843
494.018	11178
494.093	10762
494.168	10329
494.243	9822
494.318	9226
494.393	10315
494.468	9031
494.543	9073
494.618	9734
494.693	9129
494.768	10369
494.842	9506
494.917	7816
494.992	9639
495.067	7675
495.142	9057
495.217	9066
495.292	9389
495.366	10988
495.441	12576
495.516	16318
495.591	25977
495.665	69897
495.740	120273
495.815	30438
495.890	13511
495.964	9962
496.039	13915
496.114	10969
496.188	11882
496.263	11567
496.338	12013
496.412	13442
496.487	15785
496.561	14551
496.636	15019
496.710	12567
496.785	15280
496.860	15673
496.934	10453
497.009	11335
497.083	11737
497.158	12555
497.232	15202
497.307	16839
497.381	13092
497.455	18593
497.530	23853
497.604	14795
497.679	17642
497.753	27842
497.827	26867
497.902	20644
497.976	35427
498.050	114970
498.125	329755
498.199	192446
498.273	26746
498.348	20404
498.422	19272
498.496	17262
498.570	17111
498.645	14761
498.719	15903
498.793	20718
498.867	34628
498.941	53268
499.016	167816
499.090	316119
499.164	52731
499.238	13207
499.312	14420
499.386	16731
499.460	15641
499.534	14486
499.609	19592
499.683	26843
499.757	28446
499.831	89141
499.905	259099
499.979	138265
500.053	33589
500.127	28036
500.201	17638
500.275	14315
500.349	14116
500.422	15727
500.496	25608
500.570	57335
500.644	157133
500.718	210171
500.792	26460
500.866	17109
500.940	22430
501.013	15618
501.087	17313
501.161	26270
501.235	41100
501.309	113784
501.382	251997
501.456	125883
501.530	48667
501.603	73467
501.677	18783
501.751	11619
501.825	18940
501.898	43752
501.972	101331
502.046	34741
502.119	18838
502.193	52907
502.266	102523
502.340	34565
502.413	58094
502.487	84946
502.561	39932
502.634	12496
502.708	11357
502.781	8596
502.855	9621
502.928	8333
503.002	9706
503.075	8825
503.149	10216
503.222	10946
503.295	11757
503.369	14148
503.442	27394
503.516	93215
503.589	174263
503.662	77289
503.736	38765
503.809	86904
503.882	55953
503.956	101957
504.029	53036
504.102	18051
504.175	14752
504.249	8914
504.322	13876
504.395	10552
504.468	9312
504.542	9660
504.615	8013
504.688	7598
504.761	7004
504.834	9476
504.907	11419
504.980	12868
505.053	9877
505.127	10662
505.200	15756
505.273	14997
505.346	8861
505.419	6843
505.492	8679
505.565	5550
505.638	6241
505.711	6724
505.784	5942
505.857	6194
505.930	8622
506.003	6134
506.076	10389
506.149	12524
506.221	12098
506.294	15960
506.367	52471
506.440	131185
506.513	38318
506.586	13196
506.659	7330
506.731	7421
506.804	9513
506.877	10632
506.950	9506
507.022	8459
507.095	11639
507.168	11213
507.241	7537
507.313	5947
507.386	7097
507.459	8571
507.531	7453
507.604	5614
507.677	6952
507.749	5608
507.822	12387
507.894	18833
507.967	20330
508.040	11869
508.112	11503
508.185	10303
508.257	9822
508.330	13047
508.402	10300
508.475	9678
508.547	11288
508.620	12680
508.692	16858
508.765	9797
508.837	8275
508.909	8878
508.982	7919
509.054	9414
509.127	8027
509.199	7931
509.271	6992
509.344	7485
509.416	7578
509.488	7447
509.560	9579
509.633	8142
509.705	10269
509.777	10273
509.849	12834
509.922	8868
509.994	7440
510.066	9596
510.138	11136
510.210	21508
510.283	16533
510.355	13589
510.427	12422
510.499	11282
510.571	10437
510.643	11533
510.715	18020
510.787	10356
510.859	12867
510.931	13652
511.003	15710
511.076	13843
511.148	10495
511.219	11960
511.291	22589
511.363	17982
511.435	10211
511.507	9507
511.579	10772
511.651	10346
511.723	9113
511.795	8880
511.867	10312
511.939	14939
512.010	26779
512.082	14709
512.154	9437
512.226	9733
512.298	17525
512.369	20159
512.441	16675
512.513	14574
512.585	11253
512.656	13454
512.728	12898
512.800	10204
512.871	11853
512.943	10529
513.015	9678
513.086	10828
513.158	11053
513.230	11393
513.301	15237
513.373	14360
513.444	9447
513.516	9402
513.588	10220
513.659	10609
513.731	11427
513.802	11028
513.874	22405
513.945	22844
514.016	9887
514.088	10537
514.159	9623
514.231	14505
514.302	16969
514.374	13767
514.445	15854
514.516	30039
514.588	16057
514.659	15463
514.730	26295
514.802	14479
514.873	8532
514.944	11007
515.016	12631
515.087	12633
515.158	20119
515.229	20668
515.301	9680
515.372	11758
515.443	9121
515.514	10451
515.585	8306
515.656	9700
515.728	10040
515.799	9290
515.870	9943
515.941	10410
516.012	10800
516.083	14624
516.154	13847
516.225	14915
516.296	14173
516.367	11610
516.438	12248
516.509	14346
516.580	23451
516.651	64479
516.722	143539
516.793	39669
516.864	20270
516.935	19991
517.006	21474
517.077	29777
517.148	62967
517.219	170659
517.289	167110
517.360	117440
517.431	27606
517.502	13580
517.573	14029
517.643	14491
517.714	16504
517.785	15455
517.856	15096
517.926	16977
517.997	16836
518.068	16915
518.138	22032
518.209	36421
518.280	134556
518.350	288856
518.421	53732
518.492	16924
518.562	15368
518.633	14307
518.703	11187
518.774	15583
518.845	17554
518.915	15797
518.986	14602
519.056	18688
519.127	31672
519.197	59353
519.268	138659
519.338	47858
519.408	18898
519.479	19231
519.549	13606
519.620	11749
519.690	10414
519.760	10731
519.831	10720
519.901	9200
519.971	10638
520.042	11120
520.112	12859
520.182	12365
520.253	12836
520.323	10181
520.393	13812
520.463	17284
520.534	14380
520.604	22554
520.674	14068
520.744	16547
520.814	26228
520.885	24130
520.955	65904
521.025	149370
521.095	28557
521.165	12489
521.235	11560
521.305	8799
521.375	8572
521.445	10298
521.515	10864
521.585	14166
521.655	9940
521.725	11931
521.795	9937
521.865	7862
521.935	18892
522.005	11062
522.075	8786
522.145	10208
522.215	11517
522.285	17185
522.355	26409
522.424	45222
522.494	26352
522.564	14040
522.634	32670
522.704	58405
522.774	14421
522.843	9932
522.913	8982
522.983	11208
523.053	8992
523.122	9340
523.192	14707
523.262	37923
523.331	19934
523.401	8924
523.471	7666
523.540	7733
523.610	6069
523.680	7658
523.749	8942
523.819	11187
523.888	8810
523.958	6829
524.027	8186
524.097	8751
524.166	8273
524.236	6509
524.305	9678
524.375	6686
524.444	6734
524.514	9097
524.583	9137
524.653	10396
524.722	11856
524.791	6291
524.861	8773
524.930	6469
524.999	7612
525.069	11021
525.138	9614
525.207	10480
525.277	7478
525.346	7376
525.415	7417
525.484	7597
525.554	9148
525.623	8597
525.692	7483
525.761	6637
525.830	7186
525.900	6327
525.969	9234
526.038	8515
526.107	8210
526.176	14268
526.245	11286
526.314	13600
526.383	15062
526.452	10105
526.522	25058
526.591	32044
526.660	22640
526.729	11302
526.797	18784
526.867	53284
526.935	155682
527.004	75115
527.073	21599
527.142	7432
527.211	8029
527.280	9213
527.349	7828
527.418	4708
527.487	6142
527.555	5319
527.624	4834
527.693	4888
527.762	7866
527.831	4524
527.899	6293
527.968	6157
528.037	6051
528.106	8522
528.174	12842
528.243	12102
528.312	18963
528.380	14032
528.449	5913
528.518	6951
528.586	4108
528.655	5598
528.723	6033
528.792	5904
528.861	6515
528.929	4483
528.998	7056
529.066	4443
529.135	5123
529.203	4766
529.272	3726
529.340	6006
529.409	6888
529.477	5779
529.545	8146
529.614	9157
529.682	9970
529.751	8455
529.819	11966
529.887	6256
529.956	5110
530.024	6162
530.092	4591
530.161	7747
530.229	8241
530.297	4296
530.365	5182
530.434	5186
530.502	4061
530.570	4428
530.638	3105
530.707	5834
530.775	7238
530.843	4229
530.911	5903
530.979	4415
531.047	4989
531.115	6065
531.183	5792
531.252	4967
531.320	5950
531.388	3698
531.456	5238
531.524	2314
531.592	6536
531.660	6693
531.728	4902
531.796	4675
531.864	5576
531.932	4983
532.000	4780
532.067	4680
532.135	6170
532.203	6835
532.271	6307
532.339	16524
532.407	25842
532.475	10549
532.542	8593
532.610	9678
532.678	16744
532.746	72428
532.814	92552
532.881	14206
532.949	6566
533.017	6190
533.084	6243
533.152	5399
533.220	6879
533.287	4825
533.355	5420
533.423	4471
533.490	4512
533.558	5756
533.625	5956
533.693	5623
533.761	7482
533.828	7074
533.896	6786
533.963	14232
534.031	14368
534.098	17158
534.166	8220
534.233	5329
534.300	8031
534.368	6668
534.435	6107
534.503	5866
534.570	6602
534.637	5447
534.705	4782
534.772	5130
534.840	5288
534.907	9474
534.974	7968
535.041	6780
535.109	8010
535.176	5323
535.243	5237
535.310	4964
535.378	5074
535.445	5388
535.512	4891
535.579	6062
535.646	4419
535.714	5705
535.781	8042
535.848	6976
535.915	10051
535.982	8541
536.049	8467
536.116	8780
536.183	7123
536.250	7326
536.317	6916
536.384	7698
536.451	10059
536.518	8304
536.585	6547
536.652	10199
536.719	13016
536.786	6706
536.853	9230
536.920	13245
536.987	16582
537.053	19518
537.120	71234
537.187	27532
537.254	6551
537.321	6079
537.388	7657
537.454	5125
537.521	5094
537.588	4807
537.654	7695
537.721	8055
537.788	7723
537.855	5817
537.921	7280
537.988	5722
538.055	7026
538.121	5314
538.188	7539
538.254	9863
538.321	15318
538.388	8201
538.454	7133
538.521	6924
538.587	5848
538.654	5834
538.720	6076
538.787	6639
538.853	7842
538.920	9238
538.986	8104
539.053	6246
539.119	7041
539.185	5921
539.252	9487
539.318	9868
539.385	9754
539.451	8125
539.517	8922
539.583	11916
539.650	28514
539.716	38049
539.782	9691
539.849	5816
539.915	7859
539.981	6948
540.047	7592
540.114	7247
540.180	8731
540.246	5825
540.312	10695
540.378	16300
540.444	15526
540.510	27422
540.576	42852
540.643	8943
540.709	5834
540.775	6613
540.841	8538
540.907	11822
540.973	14509
541.039	12052
541.105	10062
541.171	6885
541.237	6744
541.303	8138
541.369	9853
541.435	10175
541.500	13427
541.566	5988
541.632	5692
541.698	5711
541.764	6553
541.830	5379
541.896	5450
541.961	6795
542.027	6581
542.093	5525
542.159	7035
542.224	7837
542.290	12118
542.356	15090
542.421	13581
542.487	9316
542.553	7561
542.618	8330
542.684	6973
542.750	7882
542.815	9849
542.881	19039
542.947	48816
543.012	18125
543.078	7068
543.143	7052
543.209	7420
543.274	6191
543.340	9874
543.405	22814
543.471	19513
543.536	7055
543.602	7371
543.667	5566
543.732	7510
543.798	6453
543.863	7681
543.928	6336
543.994	6276
544.059	5783
544.124	7236
544.190	5287
544.255	7354
544.320	6934
544.386	6981
544.451	9716
544.516	9604
544.581	11948
544.646	36934
544.712	29823
544.777	10099
544.842	9788
544.907	9685
544.972	7793
545.037	8802
545.102	9125
545.168	9204
545.233	10312
545.298	10966
545.363	10584
545.428	12564
545.493	23102
545.558	31259
545.623	11609
545.688	8780
545.753	8400
545.818	9035
545.883	9582
545.947	8733
546.012	10199
546.077	9653
546.142	9545
546.207	8226
546.272	11116
546.337	10853
546.401	8574
546.466	10229
546.531	8208
546.596	9776
546.661	9016
546.725	9120
546.790	8198
546.855	7703
546.919	6538
546.984	9716
547.049	9241
547.113	10441
547.178	7373
547.243	10277
547.307	10268
547.372	13120
547.436	11166
547.501	8448
547.565	8314
547.630	11200
547.695	10703
547.759	14539
547.823	9542
547.888	8542
547.952	8595
548.017	10493
548.081	11739
548.146	15515
548.210	10196
548.274	8922
548.339	7002
548.403	8853
548.468	6852
548.532	7464
548.596	8219
548.660	8159
548.725	9969
548.789	11414
548.853	11545
548.917	10029
548.982	15948
549.046	12479
549.110	8219
549.174	8350
549.238	6954
549.303	7468
549.367	8654
549.431	8094
549.495	7443
549.559	8153
549.623	8501
549.687	10488
549.751	13525
549.815	9694
549.879	9328
549.943	8121
550.007	9256
550.071	10260
550.135	11293
550.199	9168
550.263	9118
550.327	12377
550.391	13378
550.455	8659
550.519	9080
550.582	10269
550.646	12789
550.710	10930
550.774	9666
550.838	10919
550.901	8635
550.965	10572
551.029	10297
551.093	13026
551.156	18644
551.220	37030
551.284	23940
551.347	19807
551.411	50416
551.475	30061
551.538	9590
551.602	9397
551.666	8394
551.729	7897
551.793	8674
551.856	9804
551.920	9497
551.983	9382
552.047	8964
552.110	7751
552.174	8215
552.237	8299
552.301	8139
552.364	8641
552.428	8220
552.491	7876
552.554	8012
552.618	8190
552.681	9502
552.745	10142
552.808	12732
552.871	12562
552.934	10173
552.998	10126
553.061	9845
553.124	9676
553.187	9689
553.251	10899
553.314	10490
553.377	13017
553.440	23358
553.503	79089
553.567	65865
553.630	12196
553.693	9770
553.756	9279
553.819	8411
553.882	8362
553.945	8777
554.008	8003
554.071	7192
554.134	8583
554.197	7548
554.260	7835
554.323	9691
554.386	8545
554.449	7613
554.512	9158
554.575	7573
554.638	9031
554.701	8048
554.764	8627
554.827	8413
554.889	7574
554.952	7578
555.015	7771
555.078	6909
555.141	8491
555.203	7285
555.266	8689
555.329	7364
555.391	6927
555.454	7870
555.517	6771
555.580	7219
555.642	7874
555.705	6784
555.768	7216
555.830	7734
555.893	6812
555.955	7872
556.018	7549
556.080	6962
556.143	7535
556.206	6944
556.268	8589
556.330	7199
556.393	8183
556.455	9205
556.518	13772
556.580	9590
556.643	7065
556.705	7053
556.767	7659
556.830	7505
556.892	9128
556.955	10164
557.017	8453
557.079	7441
557.142	7370
557.204	8804
557.266	15763
557.328	9768
557.391	7898
557.453	6806
557.515	6848
557.577	8681
557.639	7342
557.701	6956
557.764	6810
557.826	6872
557.888	7998
557.950	6211
558.012	7631
558.074	7193
558.136	9306
558.198	10384
558.260	8642
558.322	6863
558.384	6841
558.446	7801
558.508	9113
558.570	11053
558.632	17099
558.694	15102
558.756	11391
558.818	21001
558.880	26909
558.942	10265
559.003	9573
559.065	7210
559.127	7770
559.189	7450
559.251	7037
559.312	6949
559.374	13402
559.436	20573
559.498	10306
559.559	6747
559.621	7066
559.683	8145
559.744	13514
559.806	20009
559.868	17453
559.929	10002
559.991	9257
560.052	10407
560.114	12017
560.176	10514
560.237	12094
560.299	11134
560.360	8157
560.422	8879
560.483	8602
560.545	8519
560.606	8298
560.667	7697
560.729	8073
560.790	8044
560.852	8384
560.913	8031
560.974	7696
561.036	8013
561.097	8410
561.158	7599
561.220	8989
561.281	8372
561.342	9139
561.403	10086
561.465	13294
561.526	24487
561.587	18950
561.648	8857
561.709	9430
561.771	8969
561.832	8675
561.893	8412
561.954	9044
562.015	9329
562.076	10015
562.137	7636
562.198	8064
562.259	8260
562.320	8875
562.381	10153
562.442	10906
562.503	9137
562.564	8365
562.625	7986
562.686	8271
562.747	9127
562.808	8897
562.869	9764
562.930	12393
562.991	10055
563.051	9226
563.112	9275
563.173	9347
563.234	8100
563.294	9316
563.355	8296
563.416	9804
563.477	9448
563.537	10396
563.598	9417
563.659	9564
563.720	8811
563.780	9721
563.841	8890
563.901	9849
563.962	8786
564.023	10077
564.083	9132
564.144	9210
564.204	8645
564.265	10303
564.325	12602
564.386	23483
564.446	13638
564.507	8903
564.567	8756
564.628	9150
564.688	8913
564.749	9241
564.809	11138
564.869	10951
564.930	8209
564.990	8989
565.050	7983
565.111	8331
565.171	7116
565.231	9189
565.292	8313
565.352	7696
565.412	9203
565.472	8459
565.532	9208
565.593	8564
565.653	8238
565.713	8633
565.773	8733
565.833	10098
565.893	10723
565.953	7723
566.013	8324
566.074	10488
566.134	14002
566.194	19629
566.254	15316
566.314	10298
566.374	9350
566.434	9579
566.494	8681
566.554	8615
566.614	9236
566.673	9345
566.733	9842
566.793	9643
566.853	9626
566.913	10212
566.973	10215
567.033	10418
567.092	8961
567.152	9957
567.212	9518
567.272	9695
567.331	10848
567.391	9166
567.451	11057
567.511	15912
567.570	12362
567.630	9173
567.690	8235
567.749	9158
567.809	9897
567.868	9836
567.928	10035
567.988	11879
568.047	11243
568.107	11718
568.166	13253
568.226	17139
568.285	19354
568.345	16237
568.404	13751
568.464	14813
568.523	11890
568.582	13815
568.642	14147
568.701	16997
568.761	21924
568.820	29379
568.879	27374
568.939	24715
568.998	16597
569.057	13943
569.116	11812
569.176	11414
569.235	9461
569.294	9713
569.353	8965
569.413	8924
569.472	8408
569.531	8565
569.590	7740
569.649	8789
569.708	7688
569.767	9432
569.827	8715
569.886	8229
569.945	7340
570.004	8766
570.063	7621
570.122	9691
570.181	8377
570.240	11194
570.299	9014
570.358	8608
570.417	7095
570.475	7920
570.534	7852
570.593	7756
570.652	7679
570.711	8074
570.770	7869
570.829	9521
570.887	8198
570.946	7840
571.005	6833
571.064	6861
571.122	8682
571.181	8586
571.240	7126
571.299	7478
571.357	8048
571.416	9190
571.475	10833
571.533	8714
571.592	7505
571.650	8134
571.709	7081
571.768	7327
571.826	7630
571.885	6876
571.943	7207
572.002	7895
572.060	6867
572.119	7033
572.177	6902
572.236	6644
572.294	5714
572.352	7158
572.411	6916
572.469	6688
572.528	6881
572.586	6447
572.644	7484
572.703	8007
572.761	7225
572.819	7495
572.877	6743
572.936	6910
572.994	5507
573.052	6673
573.110	6024
573.169	6546
573.227	5672
573.285	7178
573.343	6669
573.401	6381
573.459	6187
573.517	6402
573.576	6813
573.634	6817
573.692	6140
573.750	6957
573.808	6623
573.866	7758
573.924	9464
573.982	8359
574.040	6612
574.098	6910
574.155	6322
574.213	5918
574.271	5360
574.329	6197
574.387	5432
574.445	5726
574.503	5775
574.560	6255
574.618	5325
574.676	5510
574.734	5983
574.792	6192
574.849	5390
574.907	5917
574.965	5110
575.022	5457
575.080	5370
575.138	6039
575.195	5131
575.253	6551
575.311	5532
575.368	6209
575.426	5509
575.483	6825
575.541	5332
575.598	5760
575.656	5876
575.713	6015
575.771	6084
575.828	5924
575.886	5609
575.943	6478
576.001	5748
576.058	5958
576.115	6832
576.173	8467
576.230	7454
576.287	8574
576.345	7405
576.402	7096
576.459	7402
576.517	6930
576.574	7369
576.631	6961
576.688	6124
576.746	6246
576.803	7053
576.860	6174
576.917	6747
576.974	6724
577.031	5918
577.089	6517
577.146	6478
577.203	6459
577.260	6842
577.317	8210
577.374	7454
577.431	7426
577.488	6946
577.545	5233
577.602	6504
577.659	6349
577.716	7448
577.773	8412
577.830	6725
577.886	6112
577.943	6018
578.000	7018
578.057	7136
578.114	8561
578.171	8605
578.227	11490
578.284	9490
578.341	7765
578.398	6948
578.454	8298
578.511	8431
578.568	8741
578.625	5465
578.681	7125
578.738	5192
578.794	6374
578.851	6084
578.908	6074
578.964	6811
579.021	6763
579.077	6228
579.134	6519
579.190	6460
579.247	6722
579.303	5352
579.360	6348
579.416	5851
579.473	6057
579.529	5859
579.586	6501
579.642	6090
579.698	6587
579.755	7036
579.811	7232
579.867	7027
579.924	6365
579.980	7285
580.036	8644
580.093	11233
580.149	15261
580.205	14439
580.261	10966
580.317	9544
580.374	8277
580.430	8837
580.486	8455
580.542	6493
580.598	7569
580.619	6901
580.654	5747
580.692	6242
580.710	6500
580.765	6859
580.767	6877
580.823	6635
580.838	6403
580.879	5811
580.911	6169
580.935	6442
580.984	5301
580.991	5155
581.047	6578
581.057	6660
581.103	7044
581.130	7660
581.159	8303
581.203	8649
581.215	8757
581.270	7542
581.276	7494
581.326	7062
581.349	6741
581.382	6271
581.422	6694
581.438	6891
581.494	6949
581.494	6937
581.550	6125
581.567	6364
581.606	6925
581.640	6648
581.661	6469
581.713	6862
581.717	6900
581.773	6832
581.786	6924
581.829	7207
581.859	6552
581.885	6085
581.932	7481
581.940	7698
581.996	6301
582.004	6414
582.052	7118
582.077	6845
582.107	6546
582.150	6717
582.163	6788
582.219	6346
582.223	6395
582.274	6928
582.296	6811
582.330	6714
582.368	6767
582.386	6790
582.441	6243
582.441	6243
582.497	6009
582.514	6187
582.552	6671
582.587	7273
582.608	7547
582.659	5930
582.663	5823
582.719	7238
582.732	6978
582.774	6215
582.805	6699
582.830	6979
582.877	6168
582.885	6044
582.941	7146
582.950	7050
582.996	6653
583.023	7499
583.052	8486
583.095	8015
583.107	7863
583.162	10218
583.168	10164
583.218	9659
583.240	9169
583.273	8360
583.313	7560
583.328	7330
583.384	7210
583.385	7185
583.439	6036
583.458	6039
583.494	6372
583.531	6543
583.549	6563
583.603	6533
583.605	6531
583.660	6605
583.676	6601
583.715	6563
583.748	6382
583.770	6271
583.820	6082
583.825	6066
583.881	6466
583.893	6465
583.936	6653
583.965	6458
583.991	6074
584.038	6186
584.046	6299
584.101	6388
584.110	6501
584.156	6365
584.183	5982
584.211	5912
584.255	6181
584.266	6200
584.321	5681
584.328	5754
584.376	6355
584.400	6537
584.431	6771
584.472	6014
584.486	5770
584.541	6201
584.545	6227
584.596	6405
584.617	6299
584.651	6479
584.689	6787
584.706	6689
584.761	6736
584.762	6728
584.816	6354
584.834	6607
584.871	6752
584.906	6536
584.926	6592
584.978	6662
584.980	6662
585.035	7554
585.051	7559
585.090	7525
585.123	7814
585.145	7815
585.195	7187
585.200	7195
585.254	8085
585.267	8294
585.309	8319
585.340	8379
585.364	8739
585.412	8071
585.419	7922
585.473	7742
585.484	7770
585.528	8035
585.556	8203
585.583	8391
585.628	8460
585.637	8547
585.692	10762
585.700	10874
585.747	10962
585.772	10362
585.801	9342
585.845	7953
585.856	7743
585.910	8223
585.917	8102
585.965	7379
585.989	8362
586.019	9388
586.061	8466
586.074	8230
586.128	8753
586.133	8728
586.183	8389
586.205	8416
586.237	8396
586.277	8135
586.292	8086
586.346	8379
586.349	8402
586.401	9270
586.421	9668
586.455	9878
586.493	10642
586.509	11419
586.564	14947
586.565	15098
586.618	21224
586.637	19589
586.672	14391
586.709	11373
586.727	10288
586.781	10139
586.781	10143
586.835	10457
586.853	10647
586.889	10065
586.925	9476
586.944	9575
586.996	10658
586.998	10687
587.052	10603
587.068	10789
587.106	11026
587.140	10824
587.161	10645
587.212	11112
587.215	11160
587.269	11138
587.284	11449
587.323	12008
587.356	11733
587.377	11526
587.427	12089
587.431	12156
587.485	12376
587.499	12487
587.539	12890
587.571	13449
587.593	13571
587.643	13822
587.648	13911
587.702	14424
587.715	14642
587.755	15005
587.786	15349
587.810	15714
587.858	16403
587.864	16514
587.917	17973
587.930	18371
587.971	20219
588.001	21017
588.025	21062
588.073	21901
588.079	22127
588.133	24396
588.145	24934
588.187	27112
588.217	28411
588.241	29949
588.288	33756
588.295	34276
588.348	38952
588.360	40039
588.402	44778
588.431	48399
588.456	51673
588.503	58420
588.510	59590
588.564	70070
588.575	72858
588.617	85820
588.646	96660
588.671	109507
588.718	137566
588.725	144229
588.778	208720
588.789	224976
588.832	326402
588.861	405492
588.886	489571
588.932	628062
588.939	634048
588.993	630372
589.004	625526
589.047	501367
589.075	402653
589.100	322588
589.147	200290
589.154	191866
589.207	141988
589.218	133228
589.261	124863
589.290	122220
589.314	127207
589.361	143417
589.368	149823
589.421	213518
589.433	230177
589.475	347142
589.504	435055
589.528	499934
589.576	585260
589.582	572070
589.635	413805
589.647	377524
589.689	235212
589.718	149747
589.742	123014
589.790	78045
589.795	75914
589.849	58934
589.861	55535
589.902	49598
589.932	44008
589.955	40050
590.004	32992
590.009	32564
590.062	28799
590.075	27876
590.115	26288
590.146	25022
590.168	23906
590.218	21786
590.222	21729
590.275	20830
590.289	20610
590.328	20030
590.360	19334
590.381	18843
590.431	18236
590.435	18195
590.488	17060
590.503	16788
590.541	16820
590.574	16726
590.594	16355
590.645	15851
590.647	15862
590.700	15496
590.716	15488
590.753	14892
590.787	14280
590.806	14201
590.859	14001
590.859	14008
590.912	13987
590.930	14002
590.965	13783
591.001	13652
591.018	13619
591.071	13275
591.072	13264
591.124	13591
591.143	13717
591.177	13432
591.214	12952
591.230	13318
591.283	14881
591.285	14918
591.336	13678
591.356	13270
591.389	13697
591.427	14024
591.442	13479
591.495	11531
591.498	11386
591.547	12079
591.569	12420
591.600	11922
591.640	11077
591.653	11409
591.706	13029
591.711	13185
591.759	13094
591.782	13065
591.811	13634
591.853	14425
591.864	14158
591.917	12685
591.924	12471
591.969	13055
591.995	13381
592.022	12855
592.066	11984
592.075	12224
592.127	13723
592.137	14006
592.180	14259
592.208	14311
592.233	13633
592.279	12382
592.285	12316
592.338	11735
592.350	11604
592.390	11544
592.421	11499
592.443	11409
592.491	11195
592.495	11256
592.548	12123
592.562	12358
592.600	11680
592.633	11103
592.653	11183
592.704	11343
592.705	11392
592.775	10609
592.846	11380
592.916	10661
592.987	11507
593.058	10589
593.128	11123
593.199	10009
593.270	10794
593.341	9690
593.411	11011
593.482	9417
593.553	11156
593.623	10008
593.694	9861
593.764	9424
593.835	10330
593.906	9653
593.976	10804
594.047	9582
594.117	11772
594.188	10745
594.258	9585
594.329	9445
594.399	10070
594.470	9406
594.540	9054
594.611	8911
594.681	9528
594.751	8590
594.822	10675
594.892	9407
594.963	10988
595.033	9885
595.103	10170
595.174	10343
595.244	12100
595.314	13332
595.384	10288
595.455	9446
595.525	10298
595.595	9546
595.665	9879
595.736	8663
595.806	9639
595.876	9493
595.946	9549
596.016	9023
596.087	9881
596.157	9207
596.227	8720
596.297	9072
596.367	9414
596.437	9617
596.507	13150
596.577	13098
596.647	9405
596.717	8819
596.787	8041
596.857	9152
596.927	8933
596.997	8356
597.067	10252
597.137	10596
597.207	9561
597.277	8733
597.347	9453
597.417	8748
597.487	10254
597.557	9402
597.626	10040
597.696	8538
597.766	11653
597.836	12525
597.906	9987
597.975	8519
598.045	9158
598.115	8724
598.185	8772
598.254	8605
598.324	9089
598.394	8569
598.464	9496
598.533	9003
598.603	8618
598.672	8225
598.742	8245
598.812	8369
598.881	8311
598.951	8325
599.020	8577
599.090	7785
599.159	8160
599.229	8504
599.299	7421
599.368	7907
599.437	8079
599.507	7862
599.576	8725
599.646	8791
599.715	9827
599.785	8039
599.854	8721
599.924	8923
599.993	8769
600.062	7648
600.132	8191
600.201	6851
600.270	8202
600.340	8137
600.409	8308
600.478	7186
600.547	7932
600.617	8544
600.686	8267
600.755	7601
600.824	7588
600.894	8293
600.963	7989
601.032	6885
601.101	8256
601.170	7290
601.239	7319
601.308	7780
601.378	7406
601.447	7432
601.516	7460
601.585	8211
601.654	7594
601.723	7058
601.792	8010
601.861	7714
601.930	10215
601.999	7260
602.068	7001
602.137	7598
602.206	8103
602.275	6475
602.343	8330
602.412	6982
602.481	7256
602.550	7287
602.619	7675
602.688	6899
602.756	7742
602.825	8058
602.894	7584
602.963	6955
603.032	8232
603.100	7221
603.169	7846
603.238	7626
603.307	6887
603.375	6944
603.444	6371
603.513	7376
603.581	6645
603.650	5539
603.719	6827
603.787	5886
603.856	7200
603.924	6667
603.993	7515
604.061	6611
604.130	6317
604.198	6521
604.267	7199
604.335	6039
604.404	6705
604.472	7119
604.541	7472
604.609	6473
604.678	6305
604.746	6460
604.815	7504
604.883	6708
604.951	8025
605.020	5883
605.088	7465
605.156	5962
605.225	7123
605.293	7345
605.361	6859
605.429	6390
605.498	6157
605.566	6749
605.634	7532
605.702	6894
605.771	6898
605.839	6282
605.907	6460
605.975	6090
606.043	7547
606.111	6636
606.180	7832
606.248	7082
606.316	8735
606.384	5951
606.452	8667
606.520	7809
606.588	6905
606.656	5745
606.724	6586
606.792	5698
606.860	6027
606.928	5567
606.996	6084
607.064	4988
607.132	5628
607.200	6449
607.267	6385
607.335	4602
607.403	6566
607.471	5416
607.539	6033
607.607	5944
607.674	6200
607.742	5641
607.810	6321
607.878	5443
607.946	5737
608.013	5402
608.081	6058
608.149	6140
608.216	6695
608.284	6403
608.352	6260
608.419	5097
608.487	8084
608.555	6049
608.622	6381
608.690	5735
608.757	5865
608.825	5410
608.893	6217
608.960	5445
609.028	6949
609.095	8974
609.163	5748
609.230	4970
609.298	6941
609.365	4987
609.432	6740
609.500	6323
609.567	6945
609.635	5709
609.702	6529
609.769	6991
609.837	7374
609.904	6160
609.971	5011
610.039	7993
610.106	8940
610.173	9507
610.241	20428
610.308	28137
610.375	20362
610.442	7892
610.509	6569
610.577	6369
610.644	5503
610.711	5209
610.778	6655
610.845	5087
610.912	6860
610.980	6886
611.047	9158
611.114	6831
611.181	6666
611.248	4432
611.315	7047
611.382	5285
611.449	5448
611.516	6103
611.583	5664
611.650	4874
611.717	6505
611.784	4911
611.851	5899
611.918	5712
611.984	5750
612.051	7981
612.118	10777
612.185	17342
612.252	12686
612.319	6360
612.386	7583
612.452	5351
612.519	7433
612.586	7853
612.653	7826
612.719	7516
612.786	6554
612.853	5735
612.919	5644
612.986	6794
613.053	5075
613.120	4854
613.186	5410
613.253	6879
613.319	6069
613.386	5679
613.453	7057
613.519	6624
613.586	6827
613.652	8850
613.719	6741
613.785	6409
613.852	6115
613.918	5247
613.985	6695
614.051	7848
614.118	15267
614.184	13827
614.250	6887
614.317	6661
614.383	5980
614.449	4914
614.516	6040
614.582	5850
614.648	6840
614.715	4986
614.781	5101
614.847	6587
614.914	6890
614.980	5831
615.046	6652
615.112	5321
615.179	5641
615.245	5288
615.311	6137
615.377	7340
615.443	8540
615.509	5647
615.575	6694
615.642	5232
615.708	6837
615.774	5538
615.840	7157
615.906	8791
615.972	9675
616.038	12230
616.104	17896
616.170	23860
616.236	19425
616.302	11199
616.368	7544
616.434	6558
616.500	8251
616.565	7729
616.631	7166
616.697	5914
616.763	6976
616.829	7267
616.895	10006
616.961	8174
617.026	7632
617.092	5788
617.158	6974
617.224	6710
617.289	6473
617.355	5350
617.421	6409
617.487	6923
617.552	7377
617.618	6897
617.684	5599
617.749	8287
617.815	6776
617.880	5349
617.946	6340
618.012	6393
618.077	6718
618.143	6915
618.208	7137
618.274	7023
618.339	6998
618.405	5732
618.470	7939
618.536	7298
618.601	8102
618.667	7484
618.732	7477
618.798	6938
618.863	7651
618.928	6866
618.994	8091
619.059	8294
619.124	9360
619.190	8386
619.255	8003
619.320	6710
619.386	8205
619.451	5597
619.516	7803
619.581	7389
619.647	7232
619.712	6335
619.777	7369
619.842	6861
619.907	7456
619.972	7626
620.038	7620
620.103	6709
620.168	6119
620.233	8108
620.298	7229
620.363	6093
620.428	7527
620.493	5783
620.558	7866
620.623	7339
620.688	7439
620.753	5908
620.818	6527
620.883	6498
620.948	6743
621.013	6330
621.078	7889
621.143	5808
621.207	9374
621.272	8273
621.337	8247
621.402	9509
621.467	10753
621.532	9845
621.596	9377
621.661	8942
621.726	7898
621.791	8078
621.855	9345
621.920	8256
621.985	10477
622.049	10014
622.114	8738
622.179	8486
622.243	9682
622.308	8707
622.373	11237
622.437	9869
622.502	8695
622.566	8467
622.631	8412
622.695	9474
622.760	9319
622.824	8613
622.889	9602
622.953	9202
623.018	12192
623.082	9867
623.147	9695
623.211	8333
623.276	9063
623.340	7744
623.404	9225
623.469	8399
623.533	8904
623.597	8137
623.662	9224
623.726	8449
623.790	8283
623.854	7661
623.919	8698
623.983	8410
624.047	8753
624.111	7863
624.176	8840
624.240	7651
624.304	9792
624.368	7295
624.432	8479
624.496	7609
624.560	9417
624.625	7435
624.689	8924
624.753	7903
624.817	8512
624.881	8012
624.945	7400
625.009	8062
625.073	8277
625.137	7279
625.201	9248
625.265	9117
625.329	8999
625.393	7803
625.456	8198
625.520	8355
625.584	8646
625.648	9528
625.712	13315
625.776	24231
625.839	27258
625.903	12755
625.967	8424
626.031	14144
626.095	17455
626.158	7952
626.222	6587
626.286	7610
626.349	6029
626.413	5638
626.477	8759
626.540	6229
626.604	6762
626.668	7034
626.731	7118
626.795	7371
626.858	7613
626.922	5680
626.986	7271
627.049	4754
627.113	7508
627.176	6445
627.240	7428
627.303	6540
627.366	5935
627.430	5972
627.493	7406
627.557	6272
627.620	7537
627.684	6007
627.747	6993
627.810	3615
627.874	6639
627.937	5198
628.000	8398
628.064	6599
628.127	5351
628.190	6671
628.253	7631
628.317	5756
628.380	6680
628.443	5051
628.506	5030
628.569	6302
628.632	5152
628.696	6192
628.759	6024
628.822	5210
628.885	5598
628.948	5113
629.011	6209
629.074	4775
629.137	6439
629.200	4194
629.263	7692
629.326	4825
629.389	4993
629.452	5386
629.515	6233
629.578	4997
629.641	6666
629.704	5451
629.767	5729
629.830	5354
629.892	6122
629.955	4692
630.018	6705
630.081	4180
630.144	6486
630.207	5094
630.269	7326
630.332	5333
630.395	5971
630.458	5325
630.520	4064
630.583	6385
630.646	5683
630.708	4890
630.771	4947
630.834	5682
630.896	5512
630.959	4074
631.021	4360
631.084	4608
631.146	5398
631.209	5132
631.272	5685
631.334	4679
631.397	5355
631.459	3526
631.522	5134
631.584	4371
631.646	5050
631.709	4351
631.771	4929
631.834	5177
631.896	4897
631.958	3498
632.021	5218
632.083	3726
632.145	4978
632.208	4135
632.270	4658
632.332	2933
632.395	3912
632.457	4860
632.519	4332
632.581	5160
632.643	4137
632.706	4465
632.768	3761
632.830	5233
632.892	4497
632.954	3340
633.016	6328
633.078	3817
633.141	4486
633.203	3667
633.265	4696
633.327	3753
633.389	3975
633.451	4083
633.513	4882
633.575	4567
633.637	3802
633.698	3911
633.760	4495
633.822	3760
633.884	4519
633.946	4396
634.008	4073
634.070	4877
634.132	4463
634.193	3876
634.255	4148
634.317	2913
634.379	5129
634.441	3636
634.502	4616
634.564	3639
634.626	4245
634.687	4503
634.749	4794
634.811	4565
634.873	3127
634.934	3564
634.996	5023
635.057	3207
635.119	3212
635.181	3894
635.242	5040
635.304	1069
635.365	5789
635.427	2394
635.488	4223
635.550	2963
635.611	4863
635.673	2418
635.734	5207
635.796	3592
635.857	4879
635.918	2764
635.980	5171
636.041	3115
636.102	5047
636.164	3240
636.225	4540
636.286	2272
636.348	4802
636.409	3602
636.470	3942
636.531	3501
636.593	3625
636.654	3915
636.715	4123
636.776	2990
636.838	3538
636.899	3930
636.960	4159
637.021	2193
637.082	2730
637.143	3161
637.204	2905
637.265	2223
637.326	3469
637.387	3546
637.448	2525
637.509	3201
637.570	3009
637.631	3169
637.692	2126
637.753	1520
637.814	3664
637.875	2721
637.936	5101
637.997	3099
638.058	3262
638.119	2573
638.179	3215
638.240	2447
638.301	3787
638.362	2613
638.423	3158
638.483	4204
638.544	2920
638.605	2833
638.666	2604
638.726	3003
638.787	4464
638.848	1666
638.908	3185
638.969	2924
639.030	4079
639.090	2749
639.151	3125
639.211	3619
639.272	3905
639.332	4771
639.393	4027
639.453	1206
639.514	3098
639.574	3067
639.635	2332
639.695	2706
639.756	2005
639.816	3069
639.877	3103
639.937	3979
639.997	5264
640.058	1661
640.118	2147
640.178	3462
640.239	2388
640.299	2026
640.359	2393
640.420	2932
640.480	2911
640.540	1726
640.600	1896
640.661	2906
640.721	2230
640.781	4027
640.841	1049
640.901	3312
640.961	2860
641.021	3562
641.082	1930
641.142	2079
641.202	3883
641.262	542
641.322	2933
641.382	612
641.442	3286
641.502	1852
641.562	3755
641.622	1229
641.682	2677
641.742	1826
641.802	2875
641.861	2795
641.921	2226
641.981	2617
642.041	4068
642.101	2723
642.161	1985
642.221	1256
642.280	2039
642.340	2181
642.400	1648
642.460	2875
642.519	2229
642.579	1182
642.639	3882
642.698	165
642.758	5004
642.818	1101
642.877	2467
642.937	2425
642.997	2649
643.056	2721
643.116	1382
643.175	3130
643.235	2206
643.294	1942
643.354	2473
643.414	2047
643.473	3058
643.532	2164
643.592	1620
643.651	2490
643.711	4660
643.770	3806
643.830	6276
643.889	12870
643.948	4855
644.008	2684
644.067	2090
644.126	1067
644.186	1928
644.245	1963
644.304	902
644.363	3380
644.423	1455
644.482	1583
644.541	2997
644.600	-224
644.659	2117
644.719	815
644.778	1556
644.837	1309
644.896	3451
644.955	4230
645.014	3026
645.073	2058
645.132	2650
645.191	1956
645.250	1749
645.309	3010
645.368	1848
645.427	2802
645.486	972
645.545	2335
645.604	1083
645.663	1552
645.722	2006
645.781	1725
645.840	1565
645.898	1781
645.957	3298
646.016	472
646.075	3354
646.134	3240
646.192	7500
646.251	8468
646.310	2353
646.369	1707
646.427	1668
646.486	-98
646.545	2039
646.603	1648
646.662	1600
646.721	1719
646.779	1160
646.838	-195
646.896	1547
646.955	1116
647.014	2457
647.072	648
647.131	3133
647.189	1739
647.248	1575
647.306	2217
647.365	3235
647.423	132
647.481	2770
647.540	-54
647.598	1805
647.657	965
647.715	1842
647.773	657
647.832	2900
647.890	-64
647.948	1588
648.007	1970
648.065	1246
648.123	771
648.181	3598
648.240	3114
648.298	1360
648.356	1599
648.414	2473
648.472	2120
648.531	2413
648.589	1104
648.647	2300
648.705	777
648.763	2113
648.821	1497
648.879	1701
648.937	1845
648.995	1806
649.053	424
649.111	1869
649.169	1516
649.227	2579
649.285	1644
649.343	6114
649.401	4425
649.459	5142
649.516	4136
649.574	2147
649.632	6035
649.690	7239
649.748	3562
649.806	2656
649.863	4095
649.921	3866
649.979	580
650.037	2651
650.094	395
650.152	2276
650.210	802
650.268	2837
650.325	1839
650.383	1242
650.440	966
650.498	1959
650.556	1583
650.613	1398
650.671	1066
650.728	1704
650.786	1788
650.843	2094
650.901	-657
650.958	2119
651.016	1543
651.073	1231
651.131	778
651.188	1208
651.246	1428
651.303	672
651.360	1205
651.418	1302
651.475	1475
651.532	228
651.590	1243
651.647	1576
651.704	21
651.762	1616
651.819	1575
651.876	1108
651.933	947
651.990	2029
652.048	180
652.105	1572
652.162	1575
652.219	1557
652.276	1281
652.333	1988
652.390	221
652.448	1983
652.505	909
652.562	1262
652.619	803
652.676	2476
652.733	3237
652.790	1379
652.847	-187
652.904	1931
652.961	-65
653.017	1081
653.074	1831
653.131	1995
653.188	-239
653.245	1246
653.302	572
653.359	1345
653.415	1516
653.472	879
653.529	1517
653.586	663
653.642	666
653.699	2186
653.756	-191
653.813	1325
653.869	1042
653.926	379
653.983	-93
654.039	1678
654.096	-303
654.152	2130
654.209	-210
654.266	2100
654.322	368
654.379	1976
654.435	1414
654.492	1271
654.548	1161
654.605	2044
654.661	1800
654.717	921
654.774	1322
654.830	996
654.887	679
654.943	1087
655.000	1708
655.056	1353
655.112	1368
655.168	1262
655.225	1098
655.281	1718
655.337	1192
655.394	2301
655.450	1402
655.506	1887
655.562	938
655.618	2420
655.675	-596
655.731	1499
655.787	185
655.843	1702
655.899	-11
655.955	1970
656.011	1120
656.067	663
656.123	612
656.179	229
656.235	1605
656.291	734
656.347	1857
656.403	766
656.459	501
656.515	1190
656.571	418
656.627	1525
656.683	354
656.739	1559
656.795	1219
656.850	740
656.906	1471
656.962	2229
657.018	-145
657.074	1014
657.129	744
657.185	1011
657.241	336
657.297	626
657.352	656
657.408	979
657.464	1346
657.519	546
657.575	-1036
657.630	731
657.686	23
657.742	-355
657.797	1086
657.853	806
657.908	1416
657.964	-211
658.019	536
658.075	930
658.130	1118
658.186	226
658.241	869
658.297	439
658.352	-235
658.407	1026
658.463	-802
658.518	1038
658.573	633
658.629	-41
658.684	400
658.739	1776
658.795	151
658.850	707
658.905	-311
658.960	1257
659.016	-205
659.071	1117
659.126	609
659.181	1153
659.236	1736
659.291	2380
659.346	29
659.401	1880
659.457	1487
659.512	583
659.567	1613
659.622	1207
659.677	327
659.732	517
659.787	543
659.842	1481
659.897	652
659.952	217
660.007	-198
660.061	1499
660.116	-325
660.171	300
660.226	402
660.281	1884
660.336	-246
660.391	1286
660.445	83
660.500	855
660.555	-2
660.610	650
660.664	639
660.719	566
660.774	415
660.828	472
660.883	450
660.938	1294
660.992	-304
661.047	1698
661.101	-81
661.156	286
661.211	-703
661.265	507
661.320	-24
661.374	12
661.429	435
661.483	1331
661.538	230
661.592	708
661.647	-67
661.701	919
661.755	-292
661.810	755
661.864	106
661.919	-256
661.973	567
662.027	657
662.081	-492
662.136	403
662.190	374
662.244	1192
662.299	-37
662.353	1252
662.407	-431
662.461	962
662.515	100
662.569	57
662.624	640
662.678	-365
662.732	74
662.786	879
662.840	-40
662.894	965
662.948	164
663.002	870
663.056	263
663.110	-634
663.164	106
663.218	341
663.272	470
663.326	848
663.380	123
663.434	802
663.488	64
663.542	570
663.595	245
663.649	357
663.703	576
663.757	1358
663.811	-678
663.864	591
663.918	-111
663.972	165
664.026	-169
664.079	415
664.133	591
664.187	1020
664.240	-350
664.294	1354
664.348	174
664.401	1578
664.455	450
664.508	416
664.562	-386
664.615	280
664.669	-380
664.722	677
664.776	93
664.829	795
664.883	-164
664.936	473
664.990	-229
665.043	619
665.097	329
665.150	1583
665.203	370
665.257	54
665.310	192
665.363	1301
665.417	669
665.470	579
665.523	460
665.576	1032
665.630	64
665.683	1082
665.736	734
665.789	742
665.842	-868
665.895	997
665.949	727
666.002	345
666.055	385
666.108	962
666.161	-432
666.214	797
666.267	440
666.320	1080
666.373	1201
666.426	835
666.479	-469
666.532	753
666.585	-219
666.638	1207
666.691	65
666.744	507
666.796	-183
666.849	258
666.902	258
666.955	1012
667.008	218
667.060	249
667.113	-41
667.166	409
667.219	-376
667.271	89
667.324	-691
667.377	1308
667.430	-126
667.482	796
667.535	-52
667.587	935
667.640	-231
667.693	544
667.745	980
667.798	1966
667.850	100
667.903	534
667.955	296
668.008	-123
668.060	721
668.113	519
668.165	1654
668.218	947
668.270	1065
668.322	983
668.375	-461
668.427	824
668.479	-398
668.532	816
668.584	935
668.636	387
668.689	-368
668.741	317
668.793	417
668.845	238
668.898	397
668.950	485
669.002	-518
669.054	742
669.106	-512
669.158	567
669.211	589
669.263	599
669.315	159
669.367	732
669.419	320
669.471	801
669.523	262
669.575	2201
669.627	-55
669.679	627
669.731	-159
669.783	1013
669.835	1018
669.886	1412
669.938	62
669.990	1100
670.042	-408
670.094	1092
670.146	588
670.197	789
670.249	1033
670.301	1901
670.353	3129
670.404	5187
670.456	6794
670.508	11171
670.560	18623
670.611	32600
670.663	56710
670.715	129663
670.766	202704
670.818	74075
670.869	14080
670.921	6862
670.972	3605
671.024	3417
671.075	2237
671.127	2200
671.178	832
671.230	1846
671.281	290
671.333	887
671.384	235
671.436	1915
671.487	982
671.538	1090
671.590	795
671.641	1742
671.692	672
671.744	1788
671.795	-93
671.846	32
671.897	-172
671.949	1067
672.000	861
672.051	862
672.102	1004
672.153	-11
672.204	245
672.256	935
672.307	-289
672.358	659
672.409	426
672.460	777
672.511	-175
672.562	529
672.613	-669
672.664	-841
672.715	580
672.766	224
672.817	80
672.868	467
672.919	-327
672.970	866
673.021	14
673.071	-68
673.122	-497
673.173	1260
673.224	257
673.275	554
673.326	-85
673.376	781
673.427	-386
673.478	838
673.528	471
673.579	-170
673.630	-138
673.680	1161
673.731	-32
673.782	12
673.832	99
673.883	585
673.934	215
673.984	743
674.035	413
674.085	22
674.136	133
674.186	309
674.237	-657
674.287	1018
674.338	189
674.388	329
674.438	-659
674.489	520
674.539	-676
674.589	109
674.640	384
674.690	-108
674.740	-1010
674.791	172
674.841	-66
674.891	1188
674.942	-452
674.992	419
675.042	-781
675.092	-756
675.142	-126
675.193	-229
675.243	-352
675.293	386
675.343	-467
675.393	191
675.443	310
675.493	-134
675.543	-173
675.593	781
675.643	-733
675.693	624
675.743	132
675.793	-60
675.843	353
675.893	20
675.943	94
675.993	264
676.043	-920
676.093	697
676.142	19
676.192	572
676.242	-563
676.292	302
676.341	130
676.391	492
676.441	-1018
676.491	389
676.540	-1038
676.590	-705
676.640	-418
676.689	743
676.739	-499
676.789	433
676.838	-167
676.888	427
676.937	-961
676.987	628
677.037	-1060
677.086	-183
677.136	-162
677.185	-147
677.235	-599
677.284	252
677.333	-806
677.383	-685
677.432	-642
677.482	-119
677.531	-550
677.580	-357
677.630	-848
677.679	-35
677.728	-323
677.778	515
677.827	-728
677.876	155
677.925	-488
677.975	432
678.024	-950
678.073	-273
678.122	-559
678.171	378
678.220	-730
678.269	317
678.319	-296
678.368	-368
678.417	-123
678.466	1168
678.515	-820
678.564	157
678.613	-557
678.662	337
678.711	85
678.760	517
678.809	-748
678.857	-299
678.906	-225
678.955	-714
679.004	249
679.053	96
679.102	-409
679.151	555
679.199	-477
679.248	386
679.297	-471
679.346	-140
679.394	-416
679.443	-214
679.492	-776
679.540	50
679.589	-652
679.638	-492
679.686	-765
679.735	143
679.784	-1314
679.832	156
679.881	-609
679.929	416
679.978	-1184
680.026	870
680.075	-1354
680.123	-185
680.172	-963
680.220	168
680.268	-905
680.317	-573
680.365	-96
680.414	259
680.462	-446
680.510	-149
680.559	-584
680.607	-58
680.655	-944
680.703	-102
680.752	-417
680.800	93
680.848	-690
680.896	-379
680.945	-388
680.993	-76
681.041	-1036
681.089	339
681.137	-946
681.185	-13
681.233	-607
681.258	-256
681.281	57
681.329	-978
681.377	-92
681.380	-88
681.425	-401
681.473	166
681.502	-235
681.521	-556
681.569	274
681.617	-431
681.624	-319
681.665	257
681.713	-30
681.745	20
681.761	10
681.809	-393
681.857	1268
681.867	923
681.904	-363
681.952	1028
681.989	-150
682.000	-523
682.048	691
682.096	4
682.111	132
682.143	338
682.191	931
682.233	948
682.239	926
682.286	270
682.334	294
682.354	59
682.382	-289
682.430	837
682.476	994
682.477	979
682.525	397
682.572	-426
682.598	242
682.620	781
682.667	224
682.715	941
682.720	963
682.763	1010
682.810	1093
682.841	661
682.857	395
682.905	1242
682.952	377
682.963	512
683.000	966
683.047	612
683.085	1264
683.095	1406
683.142	896
683.190	1257
683.206	775
683.237	-51
683.284	1554
683.328	1414
683.332	1375
683.379	1216
683.426	944
683.449	1336
683.473	1736
683.521	750
683.568	2465
683.571	2400
683.615	1345
683.662	1643
683.693	1773
683.709	1846
683.757	1601
683.804	1440
683.814	1579
683.851	1921
683.898	1193
683.936	1818
683.945	1979
683.992	1663
684.039	2103
684.057	2004
684.086	1753
684.133	2187
684.179	1391
684.180	1355
684.227	2017
684.274	1223
684.300	1708
684.321	2134
684.368	1493
684.415	2815
684.422	2712
684.462	1898
684.509	2205
684.543	2327
684.556	2354
684.603	2475
684.649	1467
684.665	1814
684.696	2580
684.743	2248
684.786	3121
684.790	3177
684.837	1811
684.883	2685
684.908	2518
684.930	2407
684.977	3228
685.023	2464
685.029	2591
685.070	3307
685.117	3288
685.150	2937
685.164	2827
685.210	2856
685.257	3653
685.272	3627
685.303	3453
685.350	4003
685.393	2768
685.396	2666
685.443	3257
685.490	2851
685.514	3109
685.536	3385
685.583	3318
685.629	3675
685.636	3589
685.675	2793
685.722	3455
685.757	3434
685.768	3502
685.815	3355
685.861	3643
685.878	3771
685.908	3854
685.954	3505
686.000	4384
686.000	4396
686.047	3737
686.093	4560
686.121	4458
686.139	4259
686.185	4499
686.232	4034
686.242	4153
686.278	4574
686.324	3871
686.363	4234
686.370	4317
686.416	3696
686.463	4325
686.484	4103
686.509	3801
686.555	4066
686.601	4442
686.606	4494
686.647	4981
686.693	4255
686.727	4179
686.739	4119
686.785	3821
686.831	4547
686.848	4181
686.877	3644
686.923	4057
686.969	3604
686.969	3600
687.015	4423
687.061	4001
687.090	4192
687.107	4295
687.153	4359
687.199	4122
687.211	4065
687.245	3879
687.291	4173
687.332	4140
687.336	4167
687.382	4764
687.428	4879
687.453	5194
687.474	5231
687.520	4502
687.565	4696
687.574	4527
687.611	4015
687.657	4313
687.695	3957
687.702	3940
687.748	4639
687.794	4519
687.816	4709
687.839	4608
687.885	4964
687.931	4473
687.937	4376
687.976	4163
688.022	4486
688.058	4335
688.067	4266
688.113	4579
688.158	3895
688.179	3865
688.204	3977
688.249	4432
688.295	4845
688.300	4782
688.340	4354
688.386	5644
688.421	5077
688.431	4894
688.477	5291
688.522	5731
688.542	5526
688.567	5259
688.613	5391
688.658	5243
688.663	5164
688.703	4664
688.749	5561
688.784	5300
688.794	5200
688.839	5306
688.884	5377
688.905	5282
688.930	5285
688.975	4918
689.020	5663
689.026	5633
689.065	5492
689.110	5877
689.146	5566
689.155	5426
689.201	5446
689.246	5017
689.267	5083
689.291	5424
689.336	5290
689.381	5559
689.388	5606
689.426	5659
689.471	5819
689.509	5150
689.516	5039
689.561	5505
689.606	5320
689.630	5330
689.651	5384
689.696	5486
689.741	6122
689.750	6035
689.785	5598
689.830	5721
689.871	5228
689.875	5218
689.920	5677
689.965	5854
689.992	5924
690.010	5965
690.054	5956
690.099	6157
690.112	6171
690.144	6021
690.189	6054
690.233	5537
690.233	5546
690.278	6052
690.323	6261
690.354	6606
690.367	6718
690.412	6593
690.457	7018
690.474	6963
690.501	6704
690.546	7081
690.590	6253
690.595	6249
690.635	6903
690.680	7049
690.716	7591
690.724	7764
690.769	8419
690.813	9673
690.836	9740
690.857	10815
690.902	14036
690.946	16371
690.957	17222
690.991	23896
691.035	31916
691.077	40348
691.080	40376
691.124	37078
691.168	35072
691.198	33191
691.213	30583
691.257	23661
691.301	16000
691.318	13343
691.346	12599
691.390	10598
691.434	9160
691.439	8925
691.478	8263
691.522	8310
691.559	7484
691.567	7408
691.611	7684
691.655	7413
691.680	7395
691.699	7366
691.743	7264
691.787	7279
691.800	7060
691.831	6839
691.875	7535
691.919	7241
691.921	7245
691.964	7654
692.008	7633
692.041	7478
692.052	7478
692.096	7510
692.139	7848
692.162	7522
692.183	7200
692.227	8116
692.271	7421
692.282	7492
692.315	7780
692.359	7498
692.402	7914
692.403	7935
692.447	7972
692.490	7818
692.523	8067
692.534	8133
692.578	8057
692.622	7944
692.643	7996
692.666	8048
692.709	7635
692.753	7905
692.763	7768
692.797	7491
692.840	7648
692.884	7449
692.884	7468
692.928	8007
692.971	8235
693.004	8195
693.015	8130
693.059	8149
693.102	8256
693.124	7998
693.146	7920
693.189	8632
693.233	8387
693.245	8446
693.276	8951
693.320	9394
693.363	10376
693.365	10363
693.407	10703
693.450	11508
693.485	11870
693.493	12302
693.537	14561
693.580	16902
693.605	18344
693.624	21207
693.667	27462
693.710	34450
693.725	36740
693.753	48904
693.797	68270
693.840	87523
693.845	89592
693.883	84279
693.926	77104
693.966	71410
693.970	69904
694.013	52587
694.056	35858
694.086	23808
694.099	22639
694.142	19244
694.185	15491
694.206	13836
694.229	13498
694.272	12405
694.315	11824
694.326	11517
694.358	10973
694.401	10535
694.444	9963
694.446	9911
694.487	9682
694.530	9425
694.566	9062
694.573	9036
694.616	8757
694.659	8730
694.686	8577
694.702	8540
694.745	8306
694.787	8065
694.806	8058
694.830	8190
694.873	8013
694.916	8049
694.926	8007
694.959	7847
695.002	7872
695.044	7524
695.046	7504
695.087	8189
695.130	8497
695.166	8960
695.172	8984
695.215	8912
695.258	8755
695.286	8660
695.301	8645
695.343	8698
695.386	8444
695.406	8413
695.428	8446
695.471	8296
695.514	8324
695.526	8274
695.556	7982
695.599	7681
695.641	7084
695.646	7034
695.684	7340
695.726	7420
695.766	7613
695.769	7638
695.811	7570
695.854	7659
695.886	7627
695.896	7663
695.938	7760
695.981	7807
696.005	7884
696.023	7948
696.065	7874
696.108	8036
696.125	7943
696.150	7983
696.192	8278
696.235	8403
696.245	8467
696.277	8620
696.319	8560
696.361	8702
696.365	8670
696.404	8614
696.446	8818
696.485	8743
696.488	8768
696.530	8996
696.572	9077
696.604	9191
696.614	9085
696.656	8213
696.698	7718
696.724	7300
696.740	7436
696.783	7728
696.825	8050
696.844	8138
696.867	7978
696.909	7738
696.951	7497
696.964	7375
696.992	7409
697.034	7467
697.076	7517
697.083	7509
697.118	7818
697.160	8141
697.202	8484
697.203	8469
697.244	7899
697.286	7405
697.323	6751
697.327	6797
697.369	7244
697.411	7564
697.442	7822
697.453	7901
697.494	7983
697.536	8305
697.562	8394
697.578	8331
697.620	8157
697.661	7902
697.682	7797
697.703	7828
697.744	7742
697.786	7823
697.801	7762
697.828	7880
697.869	8150
697.911	8384
697.921	8432
697.952	8301
697.994	7903
698.035	7711
698.040	7651
698.077	7451
698.118	7214
698.160	7052
698.160	7029
698.201	7231
698.243	7364
698.279	7485
698.284	7480
698.325	7200
698.367	6939
698.399	6701
698.408	6755
698.449	6948
698.491	7083
698.518	7186
698.532	7337
698.573	7681
698.614	8097
698.638	8277
698.656	8226
698.697	8073
698.738	7926
698.757	7829
698.779	7959
698.820	8150
698.862	8376
698.877	8424
698.903	8646
698.944	8978
698.985	9302
698.996	9369
699.026	9222
699.067	8977
699.116	8663
699.235	8349
699.354	8338
699.474	8251
699.593	8836
699.713	8674
699.832	7935
699.951	8358
700.070	7840
700.190	7767
700.309	7715
700.428	8005
700.547	7617
700.667	8300
700.786	7679
700.905	7825
701.024	8128
701.143	7405
701.262	7275
701.381	7857
701.500	6900
701.619	6009
701.738	7052
701.857	7831
701.976	7213
702.095	7296
702.214	7674
702.333	7564
702.452	7145
702.571	6898
702.690	7653
702.809	6804
702.928	6568
703.047	7419
703.165	6769
703.284	6861
703.403	7239
703.522	7184
703.640	7675
703.759	6772
703.878	10045
703.997	6635
704.115	6750
704.234	5290
704.353	7496
704.471	5987
704.590	7153
704.708	6588
704.827	6118
704.946	6729
705.064	7196
705.183	6174
705.301	8140
705.420	13237
705.538	11907
705.656	9388
705.775	10058
705.893	18429
706.012	24733
706.130	10841
706.249	9379
706.367	9751
706.485	10038
706.604	9736
706.722	9977
706.840	10635
706.958	10772
707.077	10573
707.195	9198
707.313	8782
707.431	8670
707.549	8702
707.668	8803
707.786	9364
707.904	9072
708.022	8475
708.140	7346
708.258	8524
708.376	8348
708.494	8684
708.612	9474
708.730	14789
708.848	12923
708.966	11714
709.084	10850
709.202	10897
709.320	11921
709.438	12423
709.556	11661
709.674	12236
709.791	11878
709.909	11614
710.027	11276
710.145	11078
710.263	12668
710.380	11704
710.498	10715
710.616	10908
710.733	10065
710.851	10074
710.969	10644
711.086	11140
711.204	10083
711.322	9075
711.439	10110
711.557	10422
711.674	9642
711.792	9906
711.909	10518
712.027	11615
712.144	9899
712.262	9133
712.379	10648
712.497	15505
712.614	16327
712.732	13138
712.849	11661
712.966	12478
713.084	13126
713.201	12734
713.318	13172
713.436	12453
713.553	12151
713.670	12801
713.787	14026
713.905	13279
714.022	12489
714.139	12081
714.256	12358
714.373	11218
714.490	11503
714.608	11833
714.725	16506
714.842	15561
714.959	11500
715.076	11002
715.193	10699
715.310	10632
715.427	10295
715.544	10015
715.661	10599
715.778	10641
715.895	12001
716.011	11035
716.128	11130
716.245	10379
716.362	11028
716.479	10042
716.596	10397
716.713	10599
716.829	11330
716.946	11327
717.063	9961
717.180	9903
717.296	9685
717.413	9258
717.530	9568
717.646	8686
717.763	9799
717.880	8672
717.996	8906
718.113	8186
718.229	8712
718.346	9378
718.462	8819
718.579	9512
718.695	10556
718.812	10924
718.928	11542
719.045	8828
719.161	8015
719.277	7887
719.394	8053
719.510	8892
719.626	8497
719.743	9787
719.859	8937
719.975	8877
720.092	10064
720.208	11355
720.324	9058
720.440	8044
720.557	9137
720.673	9875
720.789	13123
720.905	26904
721.021	11842
721.137	8698
721.253	8523
721.369	8173
721.486	9617
721.602	10936
721.718	8284
721.834	7099
721.950	7832
722.066	7519
722.181	7139
722.297	6878
722.413	7410
722.529	8116
722.645	7126
722.761	6704
722.877	6660
722.993	7070
723.108	6561
723.224	6099
723.340	5924
723.456	7071
723.571	7416
723.687	6535
723.803	6982
723.918	6147
724.034	7262
724.150	5933
724.265	6666
724.381	10762
724.497	13477
724.612	5721
724.728	6529
724.843	5522
724.959	6518
725.074	10411
725.190	12281
725.305	6864
725.421	6665
725.536	5980
725.651	6110
725.767	6461
725.882	5513
725.997	5016
726.113	5562
726.228	5511
726.343	6044
726.459	5195
726.574	5376
726.689	4919
726.804	4612
726.920	5670
727.035	5745
727.150	4815
727.265	6000
727.380	5701
727.495	5750
727.610	5122
727.725	5952
727.841	6262
727.956	11367
728.071	10429
728.186	5209
728.301	5000
728.416	5104
728.531	4876
728.645	4812
728.760	5054
728.875	4637
728.990	4889
729.105	3886
729.220	4265
729.335	4386
729.449	4936
729.564	4831
729.679	5035
729.794	4153
729.908	4688
730.023	4896
730.138	3976
730.253	3762
730.367	5336
730.482	4692
730.596	3683
730.711	4802
730.826	4465
730.940	4642
731.055	3615
731.169	4473
731.284	3890
731.398	3814
731.513	4515
731.627	4619
731.742	4972
731.856	5754
731.970	3430
732.085	4251
732.199	4299
732.313	3834
732.428	4197
732.542	4528
732.656	5101
732.771	3707
732.885	3750
732.999	3665
733.113	4871
733.227	3983
733.342	4001
733.456	4332
733.570	4007
733.684	3861
733.798	3894
733.912	4526
734.026	2970
734.140	3488
734.254	3858
734.368	5096
734.482	7987
734.596	3166
734.710	3347
734.824	4329
734.938	2678
735.052	4054
735.166	4005
735.280	4117
735.393	3140
735.507	3293
735.621	4510
735.735	7670
735.849	3982
735.962	3802
736.076	3696
736.190	4135
736.303	4424
736.417	6014
736.531	3687
736.644	3427
736.758	2370
736.872	3211
736.985	3633
737.099	3311
737.212	3285
737.326	3779
737.439	2668
737.553	2654
737.666	3192
737.780	3118
737.893	2820
738.007	2907
738.120	2765
738.233	3053
738.347	2755
738.460	2571
738.573	3402
738.687	3214
738.800	3248
738.913	3857
739.026	2440
739.140	2506
739.253	3300
739.366	2923
739.479	2764
739.592	2894
739.705	2856
739.818	3425
739.932	3139
740.045	2218
740.158	2507
740.271	2961
740.384	3516
740.497	3266
740.610	3435
740.723	3424
740.836	2792
740.949	2155
741.062	2947
741.174	3626
741.287	2741
741.400	2192
741.513	3362
741.626	2901
741.739	2561
741.851	2822
741.964	2582
742.077	3139
742.189	2905
742.302	2940
742.415	2465
742.527	3423
742.640	1928
742.753	2387
742.865	2158
742.978	2272
743.090	2588
743.203	2859
743.316	3112
743.428	2251
743.541	2627
743.653	2939
743.766	2200
743.878	2520
743.990	3908
744.103	3571
744.215	2635
744.327	1899
744.440	2853
744.552	3351
744.664	2407
744.777	2471
744.889	2080
745.001	3173
745.113	2074
745.226	3131
745.338	3405
745.450	3179
745.562	2895
745.674	2736
745.786	2676
745.898	2390
746.010	2246
746.122	2532
746.234	2359
746.347	2718
746.459	2437
746.570	2944
746.682	3087
746.794	2692
746.906	2584
747.018	2261
747.130	2930
747.242	3213
747.354	2441
747.466	2827
747.577	2175
747.689	2850
747.801	2528
747.913	2674
748.024	2152
748.136	2152
748.248	2307
748.359	2478
748.471	2630
748.583	2627
748.694	1999
748.806	3831
748.918	3595
749.029	3428
749.141	3161
749.252	2976
749.364	2126
749.475	3191
749.587	1988
749.698	2856
749.809	2712
749.921	3020
750.032	3390
750.144	2122
750.255	2041
750.366	2714
750.478	3000
750.589	2477
750.700	2731
750.811	2919
750.923	2712
751.034	3673
751.145	4041
751.256	2452
751.367	2654
751.479	2714
751.590	2558
751.701	1986
751.812	1840
751.923	2793
752.034	2116
752.145	1533
752.256	2707
752.367	3157
752.478	2084
752.589	2431
752.700	1777
752.811	2573
752.922	2800
753.032	2093
753.143	3105
753.254	2560
753.365	3065
753.476	2393
753.586	2916
753.697	2669
753.808	2119
753.919	2192
754.029	1890
754.140	2629
754.251	2404
754.361	2540
754.472	2904
754.582	2086
754.693	2896
754.804	2378
754.914	2137
755.025	2317
755.135	3090
755.246	3114
755.356	1917
755.466	3619
755.577	2740
755.687	3015
755.798	3488
755.908	2865
756.018	2684
756.129	3133
756.239	3374
756.349	3299
756.460	1911
756.570	2327
756.680	3006
756.790	3269
756.900	3841
757.011	2839
757.121	3706
757.231	2735
757.341	3601
757.451	2742
757.561	4002
757.671	3242
757.781	2842
757.891	4206
758.001	3272
758.111	3235
758.221	3841
758.331	3404
758.441	4155
758.551	3380
758.661	3671
758.771	4138
758.880	4164
758.990	4494
759.100	4367
759.210	4001
759.320	4462
759.429	4048
759.539	4899
759.649	4447
759.758	4442
759.868	5715
759.978	3959
760.087	5334
760.197	5648
760.307	4385
760.416	4514
760.526	4706
760.635	5591
760.745	5785
760.854	6194
760.964	5848
761.073	6083
761.182	5610
761.292	5802
761.401	6840
761.511	5687
761.620	6532
761.729	6726
761.839	7692
761.948	7008
762.057	7192
762.166	7736
762.276	6819
762.385	8394
762.494	7275
762.603	8725
762.712	9159
762.822	8614
762.931	10087
763.040	9702
763.149	9930
763.258	10022
763.367	12060
763.476	12516
763.585	12453
763.694	13980
763.803	13186
763.912	15131
764.021	15215
764.130	15840
764.238	17396
764.347	17736
764.456	19903
764.565	22166
764.674	24010
764.783	25298
764.891	27808
765.000	32482
765.109	37250
765.217	41539
765.326	48415
765.435	58713
765.543	70369
765.652	87835
765.761	111823
765.869	149364
765.978	205330
766.086	291084
766.195	414201
766.303	533416
766.412	453590
766.520	424458
766.629	503376
766.737	386981
766.846	270308
766.954	190072
767.062	142849
767.171	108319
767.279	84073
767.387	68118
767.496	55925
767.604	48689
767.712	43490
767.820	37609
767.928	34863
768.037	33042
768.145	30663
768.253	29169
768.361	27392
768.469	28647
768.577	28684
768.685	31228
768.793	31467
768.901	34947
769.009	41841
769.117	50093
769.225	63905
769.333	86312
769.441	128035
769.549	201871
769.657	334882
769.765	479403
769.873	410627
769.981	436048
770.088	315479
770.196	193254
770.304	129789
770.412	92966
770.519	70371
770.627	55822
770.735	46863
770.842	38284
770.950	32568
771.058	29482
771.165	25953
771.273	22117
771.380	21338
771.488	19872
771.595	17779
771.703	15513
771.810	14947
771.918	14216
772.025	12473
772.133	11690
772.240	11347
772.348	11060
772.455	11309
772.562	9175
772.670	9394
772.777	9637
772.884	9058
772.991	7745
773.099	7688
773.206	7165
773.313	7171
773.420	6563
773.528	6076
773.635	6575
773.742	6611
773.849	6225
773.956	6071
774.063	5555
774.170	5514
774.277	6171
774.384	5455
774.491	5167
774.598	5302
774.705	5639
774.812	4788
774.919	5466
775.026	5377
775.133	5074
775.239	5006
775.346	4575
775.453	3976
775.560	3925
775.667	5437
775.773	3755
775.880	4488
775.987	3612
776.093	4093
776.200	2911
776.307	3825
776.413	4616
776.520	3440
776.627	4158
776.733	2803
776.840	2399
776.946	4274
777.053	2882
777.159	3264
777.266	2498
777.372	3707
777.478	3422
777.585	3361
777.691	3200
777.798	3511
777.904	3691
778.010	4041
778.117	2791
778.223	3220
778.329	3087
778.435	2717
778.542	2593
778.648	2624
778.754	1755
778.860	2942
778.966	2689
779.072	2344
779.178	3107
779.284	3183
779.391	2911
779.497	2380
779.603	5266
779.708	5434
779.815	15600
779.920	58440
780.026	108977
780.132	17374
780.238	4920
780.344	3862
780.450	2562
780.556	3132
780.661	2134
780.767	2689
780.873	1079
780.979	2968
781.085	1896
781.190	2992
781.296	1499
781.402	1584
781.507	951
781.613	1639
781.719	987
781.824	1360
781.930	2693
782.035	2160
782.141	2092
782.246	1795
782.352	1883
782.457	2187
782.563	1674
782.668	1930
782.773	1558
782.879	659
782.984	1932
783.090	2618
783.195	1981
783.300	1983
783.405	2097
783.511	1190
783.616	1775
783.721	1267
783.826	1423
783.932	2511
784.037	1981
784.142	1242
784.247	1436
784.352	1402
784.457	2262
784.562	1593
784.667	1199
784.772	1736
784.877	1133
784.982	2008
785.087	2063
785.192	2386
785.297	922
785.402	1627
785.507	1332
785.611	1114
785.716	1039
785.821	1414
785.926	1010
786.031	1781
786.135	1357
786.240	701
786.345	56
786.450	1264
786.554	1405
786.659	1396
786.763	740
786.868	828
786.973	1591
787.077	1075
787.182	1348
787.286	1242
787.391	1405
787.495	956
787.600	1402
787.704	329
787.809	978
787.913	1633
788.017	1350
788.122	1553
788.226	656
788.330	733
788.435	1083
788.539	682
788.643	913
788.747	944
788.852	330
788.956	99
789.060	1236
789.164	1038
789.268	603
789.372	864
789.476	340
789.580	868
789.684	-26
789.788	1327
789.892	438
789.996	1261
790.100	1068
790.204	1046
790.308	693
790.412	850
790.516	1379
790.620	650
790.724	1312
790.828	677
790.931	-50
791.035	2038
791.139	786
791.242	-267
791.346	1684
791.450	481
791.554	386
791.657	321
791.761	1242
791.864	1734
791.968	1660
792.072	724
792.175	1232
792.279	-134
792.382	609
792.486	807
792.589	318
792.693	1023
792.796	307
792.899	1074
793.003	1178
793.106	29
793.209	-320
793.313	1167
793.416	345
793.519	1458
793.623	1040
793.726	1126
793.829	417
793.932	756
794.035	-413
794.138	1565
794.242	385
794.345	1827
794.448	3820
794.551	6961
794.654	31093
794.757	63250
794.860	11398
794.963	2169
795.066	454
795.169	1609
795.272	409
795.375	1189
795.477	650
795.580	842
795.683	-170
795.786	697
795.889	385
795.991	1626
796.094	975
796.197	-967
796.300	2015
796.402	251
796.505	145
796.608	641
796.710	953
796.813	601
796.915	-84
797.018	1021
797.120	483
797.223	-989
797.326	884
797.428	744
797.530	296
797.633	996
797.735	1193
797.838	868
797.940	905
798.042	-508
798.145	657
798.247	847
798.349	-874
798.452	375
798.554	25
798.656	-711
798.758	734
798.860	-91
798.962	18
799.065	213
799.167	-363
799.269	893
799.371	164
799.473	786
799.575	-861
799.677	-22
799.779	1417
799.881	-449
799.983	1153
800.085	405
800.187	757
800.289	-918
800.390	-507
800.492	791
800.594	732
800.696	115
800.798	136
800.899	750
801.001	1
801.103	125
801.205	141
801.306	100
801.408	-372
801.509	-880
801.611	189
801.713	238
801.814	-258
801.916	9
802.017	309
802.119	-685
802.220	431
802.322	-1321
802.423	1680
802.525	-658
802.626	280
802.727	755
802.829	152
802.930	-1609
803.031	1325
803.133	191
803.234	56
803.335	474
803.436	-745
803.538	-362
803.639	-1365
803.740	652
803.841	7
803.942	-9
804.043	878
804.144	-1173
804.245	-251
804.346	-904
804.447	-926
804.548	-155
804.649	947
804.750	-400
804.851	-819
804.952	-792
805.053	566
805.154	-1370
805.255	844
805.355	-206
805.456	-879
805.557	-584
805.658	-762
805.758	231
805.859	-475
805.960	-78
806.061	-901
806.161	-975
806.262	-38
806.362	125
806.463	-772
806.564	227
806.664	-91
806.765	93
806.865	161
806.966	-207
807.066	144
807.166	370
807.267	336
807.367	-426
807.468	-402
807.568	-2529
807.668	393
807.769	657
807.869	-1270
807.969	-155
808.069	-463
808.170	177
808.270	-496
808.370	-563
808.470	-178
808.570	-1391
808.670	-617
808.770	384
808.870	-444
808.970	-8
809.070	280
809.170	-395
809.271	513
809.370	-926
809.470	-155
809.570	-973
809.670	-648
809.770	-222
809.870	549
809.970	-302
810.070	-485
810.169	-469
810.269	-1650
810.369	352
810.469	-573
810.568	-315
810.668	-599
810.768	-918
810.867	-138
810.967	-511
811.066	-881
811.166	-1294
811.265	880
811.365	-318
811.464	-1197
811.564	57
811.663	-538
811.763	-1663
811.862	-624
811.962	-142
812.061	-676
812.160	-911
812.260	-271
812.359	145
812.458	-818
812.557	1420
812.657	1520
812.756	680
812.855	329
812.954	-902
813.053	203
813.153	-1167
813.252	-747
813.351	285
813.450	-737
813.549	-622
813.648	-485
813.747	-1688
813.846	-152
813.945	-935
814.044	-755
814.143	-443
814.242	-155
814.341	-956
814.439	-335
814.538	76
814.637	-1301
814.736	-1230
814.835	-209
814.933	-779
815.032	-597
815.131	-517
815.229	-631
815.328	-225
815.427	-459
815.525	-141
815.624	-410
815.722	-1046
815.821	-220
815.919	-370
816.018	-712
816.116	-251
816.215	-1347
816.313	-36
816.412	-220
816.510	-262
816.609	-22
816.707	-650
816.805	-499
816.904	-672
817.002	-343
817.100	147
817.198	-277
817.296	-1213
817.395	-282
817.493	219
817.591	-306
817.689	1
817.787	873
817.885	3282
817.983	4903
818.081	11105
818.179	30890
818.277	77160
818.375	71095
818.473	17807
818.571	6587
818.669	2764
818.767	2336
818.865	3061
818.963	3849
819.061	5415
819.158	11175
819.256	26341
819.354	60663
819.452	136719
819.549	92909
819.647	23961
819.745	8501
819.842	4824
819.940	2810
820.038	1215
820.135	1584
820.233	1339
820.330	154
820.428	302
820.525	1000
820.623	490
820.720	-591
820.818	-214
820.915	-255
821.012	7
821.110	-519
821.207	36
821.304	-852
821.402	-177
821.499	-22
821.596	-589
821.693	-840
821.791	-387
821.888	-1006
821.985	-242
822.082	-581
822.179	-475
822.276	-240
822.373	8
822.470	-985
822.567	-455
822.664	-615
822.761	633
822.858	-1013
822.955	-581
823.052	-167
823.149	-1201
823.246	-385
823.343	-728
823.440	-175
823.536	-847
823.633	-1282
823.730	-632
823.827	-561
823.923	-916
824.020	449
824.117	-1385
824.213	-1308
824.310	314
824.407	-380
824.503	-1366
824.600	400
824.696	-648
824.793	-707
824.889	-537
824.986	44
825.082	-437
825.179	-210
825.275	-677
825.371	-1814
825.468	104
825.564	-942
825.660	-679
825.757	86
825.853	440
825.949	-870
826.045	-805
826.142	-1491
826.238	-185
826.334	-934
826.430	-1342
826.526	-385
826.622	-1259
826.718	-448
826.814	-799
826.910	-147
827.006	-860
827.102	-1054
827.198	133
827.294	-717
827.390	-624
827.486	-487
827.582	-1539
827.678	-1881
827.774	414
827.869	-1816
827.965	629
828.061	-1309
828.157	-720
828.252	-719
828.348	-2032
828.444	-153
828.539	-1576
828.635	-1280
828.731	-630
828.826	-2028
828.922	-239
829.017	-532
829.113	-425
829.208	-677
829.304	-1147
829.399	741
829.495	-865
829.590	-600
829.685	-1901
829.781	-327
829.876	-1320
829.971	-919
830.066	-863
830.162	-579
830.257	-1081
830.352	-424
830.447	128
830.543	-587
830.638	-2096
830.733	-160
830.828	-1488
830.923	230
831.018	-538
831.113	-596
831.208	-784
831.303	-1092
831.398	-980
831.493	-1464
831.588	-329
831.683	-1087
831.778	-917
831.873	-1026
831.967	-423
832.062	-1714
832.157	-1079
832.252	-535
832.346	-1435
832.441	-599
832.536	-264
832.631	514
832.725	-37
832.820	-908
832.914	-1298
833.009	-1118
833.104	-463
833.198	-236
833.293	-1095
833.387	-1160
833.482	-561
833.576	-1324
833.670	-366
833.765	-621
833.859	-1570
833.954	-1227
834.048	-745
834.142	-1303
834.237	-1186
834.331	-1550
834.425	-858
834.519	-1404
834.613	-236
834.708	-1171
834.802	125
834.896	-826
834.990	-699
835.084	-341
835.178	-1170
835.272	-1328
835.366	-1362
835.460	-985
835.554	-482
835.648	-1229
835.742	-897
835.836	-1066
835.930	-1985
836.024	-1017
836.117	-235
836.211	-981
836.305	-314
836.399	137
836.493	-1470
836.586	-462
836.680	-1449
836.774	-1579
836.867	170
836.961	-1400
837.055	-697
837.148	-1134
837.242	-899
837.335	-1401
837.429	-1376
837.522	-949
837.616	-351
837.709	195
837.803	-517
837.896	-496
837.989	-1471
838.083	-832
838.176	1122
838.269	-196
838.363	12
838.456	-354
838.549	-286
838.642	-1216
838.735	1031
838.829	-607
838.922	-815
839.015	-1473
839.108	-1767
839.201	-642
839.294	-828
839.387	-808
839.480	-1245
839.573	-666
839.666	-947
839.759	-337
839.852	-1681
839.945	-851
840.038	-1981
840.131	-681
840.223	-1225
840.316	-657
840.409	-1905
840.502	-1418
840.594	-55
840.687	-1932
840.780	-1460
840.873	-1397
840.965	-968
841.058	-780
841.150	575
841.243	-1289
841.336	-720
841.428	-203
841.521	-1610
841.613	-564
841.706	-384
841.798	-852
841.890	-622
841.983	-2374
842.075	53
842.167	-1078
842.260	-1445
842.352	444
842.444	-897
842.537	617
842.629	2181
842.721	-453
842.813	-203
842.905	-1732
842.997	-643
843.090	-1468
843.182	-183
843.274	661
843.366	3453
843.458	7054
843.550	4948
843.642	-758
843.734	-1366
843.826	-1876
843.918	293
844.009	-748
844.101	-1102
844.193	-524
844.285	-1070
844.377	-1135
844.469	-1198
844.560	-1814
844.652	-992
844.744	-926
844.835	-1201
844.927	-1135
845.019	-765
845.110	-1157
845.202	-562
845.293	-440
845.385	-1358
845.476	-1119
845.568	-1038
845.659	-843
845.751	-329
845.842	-1424
845.934	-1264
846.025	-1082
846.116	-911
846.208	-969
846.299	-1437
846.390	-1173
846.482	-1123
846.573	-240
846.664	-1162
846.755	-540
846.846	240
846.937	-1655
847.029	-1124
847.120	-1610
847.211	-1356
847.302	-919
847.393	-1466
847.484	-1119
847.575	-1347
847.666	-525
847.757	-509
847.847	-1086
847.938	-634
848.029	-1647
848.120	-1692
848.211	-981
848.302	-1622
848.392	-1278
848.483	-803
848.574	-865
848.664	-952
848.755	-175
848.846	-613
848.936	-1455
849.027	-1161
849.118	-1008
849.208	-1152
849.299	-1049
849.389	-1237
849.480	-767
849.570	-965
849.661	-1405
849.751	-81
849.841	-1399
849.932	-418
850.022	-824
850.112	-1071
850.203	-869
850.293	-630
850.383	-1322
850.474	-1675
850.564	-1145
850.654	-1191
850.744	-860
850.834	-823
850.924	-1029
851.014	-819
851.104	-1347
851.194	-1626
851.284	-874
851.374	-1310
851.464	-1081
851.554	-807
851.644	-1086
851.734	429
851.824	-820
851.914	130
852.004	1121
852.094	569
852.183	-645
852.273	-571
852.363	-1575
852.452	-1099
852.542	-1667
852.632	-1296
852.721	-903
852.811	-1421
852.901	-1368
852.990	-696
853.080	-1162
853.169	-1408
853.259	-833
853.348	-2314
853.438	-1745
853.527	-428
853.617	-1506
853.706	-609
853.795	-1723
853.885	293
853.974	-188
854.063	84
854.152	203
854.242	-577
854.331	-1370
854.420	-1221
854.509	-1576
854.598	-720
854.687	-1230
854.777	-1349
854.866	-1734
854.955	-864
855.044	-1485
855.133	-385
855.222	-1451
855.311	-1223
855.400	-1327
855.488	-1806
855.577	-1976
855.666	-875
855.755	-805
855.844	-1176
855.933	-1049
856.021	-380
856.110	-826
856.199	-2086
856.288	-1996
856.376	-1299
856.465	-1139
856.554	-1641
856.642	-1953
856.731	-734
856.819	-1900
856.908	-849
856.996	-876
857.085	-876
857.173	-441
857.262	-1961
857.350	-1212
857.438	-1364
857.527	-1165
857.615	-1283
857.703	-283
857.792	-1071
857.880	-1268
857.968	-1480
858.056	-1104
858.145	-1398
858.233	-1000
858.321	-670
858.409	-751
858.497	-1448
858.585	-1284
858.673	-800
858.761	-2093
858.849	-1255
858.937	-1464
859.025	-1371
859.113	-770
859.201	-1730
859.289	-686
859.377	-1016
859.465	-1030
859.552	-984
859.640	-1607
859.728	-2089
859.816	-1291
859.903	-880
859.991	-1649
860.079	-739
860.166	-1608
860.254	-1417
860.342	-747
860.429	-1411
860.517	-2318
860.604	-632
860.692	-1903
860.779	-922
860.867	-1880
860.954	-1243
861.042	-1721
861.129	-1703
861.216	-1411
861.304	-999
861.391	-1484
861.478	-1343
861.565	-975
861.653	-850
861.740	-1689
861.827	-842
861.914	-1266
862.001	-805
862.089	-934
862.176	-1201
862.263	-1280
862.350	-1778
862.437	-1897
862.524	-1460
862.611	-1256
862.698	-1053
862.785	-1168
862.871	-1665
862.958	-1435
863.045	-1058
863.132	-1114
863.219	-1529
863.306	-1459
863.392	-491
863.479	-1704
863.566	-1263
863.652	-1298
863.739	-1002
863.826	-1040
863.912	-1315
863.999	-2148
864.086	-1086
864.172	-1199
864.259	-2041
864.345	-1102
864.432	-987
864.518	-1426
864.604	-1469
864.691	-2170
864.777	-1704
864.863	-706
864.950	-1415
865.036	-1851
865.122	-775
865.209	-699
865.295	-1268
865.381	-2015
865.467	-1051
865.553	-1381
865.639	-1981
865.726	-2509
865.812	-1350
865.898	-1094
865.984	-1281
866.070	-488
866.156	-742
866.242	-1040
866.328	-567
866.414	-1793
866.499	-970
866.585	-1837
866.671	-1333
866.757	-1303
866.843	-1504
866.928	-1459
867.014	-1788
867.100	-1246
867.186	-1338
867.271	-1102
867.357	-315
867.442	-977
867.528	-977
867.614	-1462
867.699	-1364
867.785	-693
867.870	-901
867.956	-1352
868.041	-1115
868.127	-909
868.212	-938
868.297	-1265
868.383	-961
868.468	-1076
868.553	-745
868.639	-623
868.724	-186
868.809	174
868.894	-1194
868.979	-798
869.065	-616
869.150	-1508
869.235	-2004
869.320	-1391
869.405	-1754
869.490	-1521
869.575	-1308
869.660	-1590
869.745	-1128
869.830	-2020
869.915	-2093
870.000	-1466
870.085	-1665
870.169	-1894
870.254	-1175
870.339	-1584
870.424	-2485
870.509	-1432
870.593	-1385
870.678	-2007
870.763	-1542
870.847	-1416
870.932	-2407
871.016	-1324
871.101	-1443
871.186	-1351
871.270	-1545
871.355	-1415
871.439	-1380
871.523	-1474
871.608	-1186
871.692	-1560
871.777	-1482
871.861	-940
871.945	-1736
872.030	-1115
872.114	-1360
872.198	-1657
872.282	-1226
872.367	-963
872.451	-948
872.535	-1310
872.619	-1247
872.703	-1637
872.787	-1139
872.871	-1142
872.955	-2526
873.039	-1998
873.123	-1338
873.207	-470
873.291	-1526
873.375	-1827
873.459	-1432
873.543	-1994
873.627	-1891
873.711	-1856
873.794	-855
873.878	-1449
873.962	-1475
874.045	-789
874.129	-1846
874.137	-1856
874.213	-1956
874.245	-1620
874.296	-1070
874.352	-1622
874.380	-1900
874.460	-978
874.464	-941
874.547	-2223
874.568	-1898
874.631	-934
874.676	-1026
874.714	-1087
874.784	-278
874.798	-129
874.881	541
874.892	324
874.965	-1147
874.999	-1070
875.048	-974
875.107	-2024
875.131	-2455
875.215	-1470
875.215	-1470
875.298	-1220
875.323	-1201
875.381	-1199
875.430	-1277
875.465	-1305
875.538	-1178
875.548	-1173
875.631	-1339
875.646	-1426
875.714	-1742
875.753	-1266
875.798	-752
875.861	-1620
875.881	-1898
875.964	-1114
875.968	-1089
876.047	-666
876.076	-789
876.130	-926
876.183	-1045
876.213	-1132
876.291	-1156
876.296	-1163
876.379	-1402
876.398	-1318
876.462	-1022
876.506	-1082
876.545	-1111
876.613	-1386
876.628	-1446
876.711	-1234
876.721	-1164
876.794	-597
876.828	-873
876.877	-1298
876.935	-941
876.960	-781
877.043	-529
877.043	-531
877.125	-882
877.150	-878
877.208	-871
877.258	-1387
877.291	-1714
877.365	-1013
877.374	-933
877.456	-1111
877.472	-1030
877.539	-667
877.579	-742
877.622	-896
877.687	-1001
877.704	-994
877.787	-733
877.794	-752
877.869	-890
877.901	-776
877.952	-678
878.008	-892
878.034	-924
878.115	-495
878.117	-491
878.199	-951
878.222	-757
878.282	-93
878.329	-422
878.364	-644
878.437	-116
878.447	-80
878.529	-1665
878.544	-1550
878.611	-853
878.651	-1113
878.694	-1343
878.758	-935
878.776	-807
878.858	-1016
878.865	-1000
878.941	-988
878.972	-967
879.023	-913
879.078	-981
879.105	-949
879.185	-399
879.187	-388
879.269	-981
879.292	-911
879.351	-805
879.399	-1086
879.433	-1185
879.506	-610
879.516	-539
879.598	-689
879.613	-677
879.680	-870
879.720	-886
879.762	-640
879.827	-717
879.844	-831
879.926	-366
879.933	-438
880.007	-890
880.040	-751
880.089	-628
880.147	-801
880.171	-776
880.253	-331
880.254	-332
880.335	-229
880.360	-334
880.417	-352
880.467	-42
880.499	-65
880.574	10
880.580	52
880.662	-225
880.680	-190
880.744	-184
880.787	-309
880.825	-513
880.893	-424
880.907	-355
880.989	-750
881.000	-743
881.070	-675
881.106	-584
881.152	-478
881.213	-539
881.233	-609
881.315	-919
881.319	-911
881.396	-299
881.426	-193
881.478	-207
881.532	-450
881.559	-434
881.639	-302
881.641	-309
881.722	-149
881.745	-303
881.803	-603
881.852	-783
881.885	-699
881.958	-622
881.966	-630
882.047	-288
882.064	-364
882.129	-548
882.171	-188
882.210	130
882.277	58
882.291	26
882.372	318
882.383	297
882.454	-185
882.489	-598
882.535	-614
882.596	-388
882.616	-449
882.697	-549
882.702	-536
882.778	79
882.808	152
882.859	81
882.914	-87
882.940	-127
883.020	-141
883.021	-138
883.102	-295
883.127	-353
883.183	-186
883.233	53
883.264	-26
883.339	-688
883.345	-697
883.426	-364
883.445	-339
883.507	-53
883.551	323
883.587	525
883.657	205
883.668	103
883.749	-107
883.763	-228
883.830	-262
883.869	105
883.910	156
883.975	-171
883.991	-228
884.072	-556
884.081	-566
884.152	-89
884.187	-50
884.233	-214
884.292	119
884.314	225
884.394	-196
884.398	-215
884.475	54
884.504	232
884.555	97
884.610	-182
884.636	-199
884.716	-2
884.716	7
884.797	181
884.821	262
884.877	336
884.927	474
884.958	416
885.033	-85
885.038	-88
885.118	-68
885.139	-107
885.199	-170
885.244	-38
885.279	86
885.350	337
885.359	354
885.439	204
885.456	123
885.520	96
885.561	234
885.600	149
885.667	63
885.680	86
885.760	258
885.773	225
885.840	464
885.878	751
885.920	680
885.984	316
886.000	229
886.080	-324
886.089	-349
886.160	74
886.195	232
886.240	139
886.300	-146
886.320	-90
886.400	346
886.406	358
886.480	370
886.511	476
886.560	792
886.616	767
886.640	537
886.720	42
886.722	29
886.800	675
886.827	751
886.879	222
886.932	-286
886.959	-91
887.038	702
887.039	712
887.119	777
887.143	895
887.198	607
887.248	214
887.278	330
887.354	637
887.358	662
887.437	892
887.459	1001
887.517	661
887.564	344
887.596	437
887.669	645
887.676	634
887.755	297
887.774	241
887.835	525
887.880	751
887.914	677
887.985	415
887.994	465
888.073	837
888.090	895
888.153	335
888.195	28
888.232	466
888.300	1197
888.311	1205
888.391	1170
888.405	1166
888.470	1032
888.510	859
888.549	828
888.615	957
888.628	954
888.708	771
888.720	730
888.787	347
888.825	105
888.866	264
888.930	591
888.945	601
889.024	553
889.035	543
889.103	655
889.140	704
889.182	911
889.245	1199
889.261	1100
889.340	602
889.349	538
889.419	-70
889.454	-373
889.498	-21
889.559	470
889.577	618
889.656	1250
889.664	1308
889.735	975
889.768	807
889.814	812
889.873	813
889.978	504
890.083	1169
890.187	1216
890.292	755
890.397	743
890.501	668
890.606	787
890.710	1094
890.815	564
890.919	-36
891.024	1047
891.128	509
891.233	542
891.337	1429
891.442	97
891.546	884
891.650	4
891.755	902
891.859	2109
891.963	594
892.068	1844
892.172	848
892.276	982
892.380	1481
892.484	1054
892.589	598
892.693	1095
892.797	493
892.901	1433
893.005	564
893.109	903
893.213	1982
893.317	1232
893.421	652
893.525	333
893.629	1433
893.733	897
893.837	439
893.941	138
894.045	1618
894.148	1020
894.252	1371
894.356	1939
894.460	1506
894.564	841
894.667	478
894.771	1129
894.875	77
894.978	325
895.082	246
895.186	1214
895.289	898
895.393	1031
895.496	666
895.600	681
895.703	304
895.807	930
895.910	746
896.014	856
896.117	291
896.221	1046
896.324	-134
896.427	826
896.531	602
896.634	558
896.737	361
896.840	889
896.944	394
897.047	812
897.150	1449
897.253	728
897.356	-26
897.460	534
897.563	734
897.666	1324
897.769	-33
897.872	764
897.975	518
898.078	1227
898.181	260
898.284	913
898.387	644
898.490	1079
898.593	583
898.695	1160
898.798	507
898.901	491
899.004	1260
899.107	1692
899.209	767
899.312	504
899.415	389
899.518	509
899.620	695
899.723	368
899.826	1423
899.928	1101
900.031	114
900.133	579
900.236	-115
900.338	845
900.441	987
900.543	324
900.646	254
900.748	852
900.851	1235
900.953	903
901.055	983
901.158	455
901.260	355
901.362	1422
901.465	223
901.567	877
901.669	1156
901.771	747
901.873	508
901.976	530
902.078	-39
902.180	1195
902.282	147
902.384	547
902.486	1349
902.588	708
902.690	681
902.792	246
902.894	912
902.996	524
903.098	542
903.200	1170
903.302	268
903.404	1249
903.505	637
903.607	140
903.709	633
903.811	413
903.913	-5
904.014	349
904.116	714
904.218	459
904.319	79
904.421	1564
904.523	1552
904.624	859
904.726	523
904.827	-442
904.929	439
905.030	666
905.132	225
905.233	-146
905.335	687
905.436	551
905.537	533
905.639	936
905.740	1372
905.841	511
905.943	289
906.044	383
906.145	1916
906.247	169
906.348	256
906.449	1647
906.550	597
906.651	643
906.752	924
906.854	429
906.955	408
907.056	233
907.157	263
907.258	-524
907.359	432
907.460	674
907.561	282
907.662	155
907.762	956
907.863	34
907.964	584
908.065	949
908.166	-1230
908.267	802
908.367	640
908.468	875
908.569	-292
908.670	780
908.770	877
908.871	1156
908.971	632
909.072	711
909.173	1566
909.273	76
909.374	293
909.474	581
909.575	330
909.675	510
909.776	-15
909.876	1012
909.977	191
910.077	491
910.177	144
910.278	704
910.378	273
910.478	377
910.579	1116
910.679	146
910.779	-131
910.879	195
910.980	-737
911.080	503
911.180	367
911.280	993
911.380	919
911.480	1431
911.580	373
911.680	878
911.780	201
911.880	222
911.980	247
912.080	857
912.180	638
912.280	781
912.380	-381
912.480	686
912.580	227
912.679	-268
912.779	-81
912.879	612
912.979	953
913.078	78
913.178	400
913.278	217
913.377	-161
913.477	757
913.577	-371
913.676	1449
913.776	431
913.875	346
913.975	415
914.074	908
914.174	652
914.273	-679
914.373	-13
914.472	497
914.572	947
914.671	489
914.770	829
914.870	420
914.969	-16
915.068	0
915.167	192
915.267	252
915.366	-493
915.465	511
915.564	650
915.663	746
915.763	-501
915.862	651
915.961	291
916.060	160
916.159	-31
916.258	392
916.357	541
916.456	1457
916.555	-10
916.654	92
916.752	-129
916.851	1287
916.950	265
917.049	884
917.148	-368
917.247	426
917.345	189
917.444	517
917.543	296
917.642	926
917.740	-1
917.839	104
917.937	897
918.036	362
918.135	406
918.233	104
918.332	-291
918.430	1346
918.529	144
918.627	-87
918.726	-641
918.824	482
918.923	343
919.021	602
919.119	-204
919.218	702
919.316	-794
919.414	600
919.512	-206
919.611	32
919.709	107
919.807	600
919.905	725
920.003	73
920.102	58
920.200	744
920.298	-193
920.396	-206
920.494	-464
920.592	579
920.690	-35
920.788	177
920.886	758
920.984	-93
921.082	-929
921.180	738
921.277	-25
921.375	-58
921.473	311
921.571	441
921.669	423
921.766	193
921.864	344
921.962	107
922.060	24
922.157	65
922.255	-81
922.352	510
922.450	787
922.548	1025
922.645	-449
922.743	-207
922.840	396
922.938	-458
923.035	312
923.133	-395
923.230	-297
923.327	-67
923.425	-37
923.522	364
923.619	-284
923.717	-601
923.814	-108
923.911	-527
924.008	70
924.106	-59
924.203	-364
924.300	100
924.397	255
924.494	633
924.591	503
924.688	1023
924.786	20
924.883	-159
924.979	438
925.077	12
925.173	96
925.270	1066
925.367	-18
925.464	204
925.561	-237
925.658	568
925.755	498
925.852	507
925.948	-601
926.045	526
926.142	348
926.239	-430
926.335	104
926.432	399
926.529	-89
926.625	438
926.722	110
926.818	-733
926.915	76
927.011	-253
927.108	354
927.204	-227
927.301	276
927.397	391
927.494	193
927.590	423
927.687	1056
927.783	395
927.879	419
927.976	-59
928.072	388
928.168	183
928.264	42
928.361	-328
928.457	-167
928.553	-652
928.649	120
928.745	-117
928.841	566
928.937	-41
929.033	-311
929.129	362
929.225	24
929.321	-256
929.417	586
929.513	-70
929.609	483
929.705	-462
929.801	-114
929.897	365
929.993	-343
930.089	532
930.184	808
930.280	-277
930.376	-18
930.471	51
930.567	-371
930.663	845
930.758	-405
930.854	-517
930.950	595
931.045	-652
931.141	549
931.236	309
931.332	-876
931.427	-46
931.523	187
931.618	311
931.714	-242
931.809	-59
931.905	-181
932.000	-299
932.095	-128
932.191	753
932.286	-274
932.381	-371
932.476	35
932.572	484
932.667	113
932.762	490
932.857	441
932.952	361
933.047	-243
933.142	316
933.237	-403
933.332	-11
933.427	653
933.522	310
933.617	-355
933.712	274
933.807	-847
933.902	155
933.997	657
934.092	106
934.187	598
934.282	-317
934.376	334
934.471	246
934.566	-247
934.661	17
934.755	315
934.850	-102
934.945	228
935.039	205
935.134	722
935.228	-536
935.323	709
935.417	-747
935.512	446
935.606	-12
935.701	333
935.795	512
935.890	-24
935.984	-389
936.079	110
936.173	628
936.267	-244
936.362	-125
936.456	103
936.550	-111
936.644	-217
936.738	180
936.833	-70
936.927	330
937.021	496
937.115	359
937.209	-415
937.303	609
937.397	729
937.491	940
937.585	43
937.679	166
937.773	423
937.867	455
937.961	281
938.055	23
938.149	161
938.243	589
938.337	432
938.430	28
938.524	-406
938.618	648
938.712	519
938.805	-432
938.899	-814
938.993	278
939.086	569
939.180	132
939.274	14
939.367	-412
939.461	-237
939.554	-360
939.648	61
939.741	464
939.835	-496
939.928	253
940.022	124
940.115	1005
940.208	215
940.302	609
940.395	-50
940.488	-574
940.582	356
940.675	-347
940.768	1016
940.861	543
940.954	125
941.048	400
941.141	-354
941.234	83
941.327	-307
941.420	938
941.513	182
941.606	371
941.699	160
941.792	832
941.885	-185
941.978	823
942.071	289
942.164	286
942.257	437
942.349	874
942.442	104
942.535	-572
942.628	-172
942.721	764
942.813	-1053
942.906	1024
942.999	359
943.091	-65
943.184	352
943.277	-453
943.369	1118
943.462	495
943.554	430
943.647	-529
943.739	827
943.832	-461
943.924	-525
944.017	706
944.109	-68
944.201	-64
944.294	847
944.386	-20
944.478	183
944.571	470
944.663	203
944.755	409
944.847	754
944.940	151
945.032	-476
945.124	-265
945.216	1255
945.308	-391
945.400	220
945.492	948
945.584	210
945.676	526
945.768	55
945.860	752
945.952	-285
946.044	356
946.136	370
946.228	554
946.320	-272
946.412	235
946.503	114
946.595	1262
946.687	-712
946.779	-919
946.870	-223
946.962	-161
947.054	278
947.145	486
947.237	189
947.329	174
947.420	-150
947.512	-340
947.603	860
947.695	-103
947.786	-612
947.878	-245
947.969	354
948.061	276
948.152	41
948.243	650
948.335	-281
948.426	-472
948.517	585
948.609	77
948.700	-1028
948.791	184
948.882	-82
948.973	338
949.065	-246
949.156	-52
949.247	17
949.338	125
949.429	367
949.520	-614
949.611	17
949.702	316
949.793	259
949.884	182
949.975	-118
950.066	-175
950.157	-389
950.247	-183
950.338	64
950.429	-716
950.520	106
950.611	-19
950.701	-101
950.792	302
950.883	490
950.973	-91
951.064	721
951.155	341
951.245	302
951.336	942
951.427	-384
951.517	930
951.608	-15
951.698	-350
951.788	-646
951.879	38
951.969	711
952.060	733
952.150	-146
952.240	-164
952.331	-1468
952.421	914
952.511	-1214
952.602	452
952.692	-512
952.782	681
952.872	-72
952.962	63
953.052	958
953.143	-328
953.233	390
953.323	-260
953.413	-500
953.503	347
953.593	1040
953.683	845
953.773	129
953.863	-14
953.953	320
954.042	-498
954.132	-1007
954.222	922
954.312	-774
954.402	231
954.492	-89
954.581	1169
954.671	315
954.761	-88
954.850	833
954.940	-296
955.030	-586
955.119	-41
955.209	336
955.298	-111
955.388	-143
955.477	660
955.567	-705
955.656	228
955.746	-37
955.835	151
955.925	-798
956.014	2
956.103	-262
956.193	209
956.282	-369
956.371	-317
956.461	-536
956.550	-214
956.639	931
956.728	-704
956.817	457
956.906	-1048
956.995	319
957.085	-289
957.174	519
957.263	46
957.352	57
957.441	-45
957.530	35
957.619	486
957.708	202
957.796	299
957.885	-787
957.974	-492
958.063	354
958.152	56
958.241	112
958.329	64
958.418	-204
958.507	-534
958.596	823
958.684	-485
958.773	878
958.861	428
958.950	342
959.039	981
959.127	822
959.216	1972
959.304	333
959.393	573
959.481	794
959.570	976
959.658	30
959.746	207
959.835	-12
959.923	1333
960.011	76
960.100	772
960.188	357
960.276	159
960.365	-49
960.453	-159
960.541	-766
960.629	134
960.717	-623
960.805	-158
960.893	-18
960.981	100
961.069	409
961.158	-715
961.245	171
961.333	-190
961.421	-735
961.509	-42
961.597	370
961.685	-258
961.773	303
961.861	-554
961.949	334
962.036	-805
962.124	69
962.212	-200
962.299	-662
962.387	-297
962.475	214
962.562	-928
962.650	127
962.738	-567
962.825	-1277
962.913	-274
963.000	-782
963.088	-60
963.175	14
963.263	-656
963.350	-497
963.438	-202
963.525	-101
963.612	1236
963.700	2404
963.787	7919
963.874	4139
963.962	-233
964.049	110
964.136	-869
964.223	-794
964.310	3
964.398	-481
964.485	-895
964.572	-151
964.659	1056
964.746	604
964.833	168
964.920	-178
965.007	-530
965.094	-843
965.181	-1011
965.268	-182
965.355	-977
965.441	-10
965.528	-420
965.615	721
965.702	-177
965.789	-724
965.875	-1014
965.962	-374
966.049	97
966.136	630
966.222	-1508
966.309	-289
966.395	-1162
966.482	-287
966.569	-392
966.655	-304
966.742	-312
966.828	-433
966.915	-163
967.001	34
967.087	-748
967.174	-863
967.260	-159
967.347	76
967.433	1621
967.519	4981
967.605	1426
967.692	445
967.778	-554
967.864	-36
967.950	66
968.036	101
968.123	161
968.209	-617
968.295	-1853
968.381	718
968.467	0
968.553	-785
968.639	-60
968.725	-1284
968.811	238
968.897	135
968.983	-412
969.069	-939
969.154	234
969.240	-583
969.326	-849
969.412	-407
969.497	-315
969.583	-1593
969.669	846
969.755	-381
969.840	-1394
969.926	310
970.012	-418
970.097	114
970.183	-1001
970.268	-1002
970.354	-30
970.439	249
970.525	3265
970.610	309
970.696	232
970.781	-616
970.866	-1359
970.952	-610
971.037	-608
971.122	-372
971.208	-545
971.293	-124
971.378	-1687
971.463	-219
971.549	-694
971.634	-163
971.719	-422
971.804	-1
971.889	1020
971.974	-677
972.059	-1412
972.144	-149
972.229	-1055
972.314	-381
972.399	-458
972.484	-1168
972.569	-880
972.654	-694
972.739	1405
972.824	1021
972.908	47
972.993	-812
973.078	-188
973.163	-1089
973.247	368
973.332	-1759
973.417	403
973.501	-997
973.586	128
973.671	-642
973.755	-388
973.840	392
973.924	-66
974.009	-1556
974.093	-1091
974.178	340
974.262	598
974.346	852
974.431	-254
974.515	-1291
974.600	-460
974.684	48
974.768	-886
974.852	208
974.937	-1126
975.021	-245
975.105	-337
975.189	-324
975.273	-539
975.358	-978
975.442	-1376
975.526	-672
975.610	-1140
975.694	-1139
975.778	547
975.862	-167
975.946	-2470
976.030	1491
976.114	-891
976.198	-920
976.281	-1109
976.365	-86
976.449	-159
976.533	-219
976.617	-810
976.700	-601
976.784	345
976.868	-700
976.951	148
977.035	5
977.119	255
977.202	-1424
977.286	-561
977.369	-874
977.453	-133
977.536	-392
977.620	-1608
977.703	108
977.787	-1144
977.870	-259
977.953	-27
978.037	-1119
978.120	657
978.203	-924
978.287	506
978.370	169
978.453	-1405
978.536	-419
978.620	679
978.703	823
978.786	-126
978.869	-911
978.952	-988
979.035	503
979.118	-227
979.201	-1444
979.284	-538
979.367	-760
979.450	-27
979.533	-628
979.616	-719
979.699	-1286
979.782	-136
979.865	-512
979.948	-953
980.030	-1428
980.113	-430
980.196	-1315
980.279	98
980.361	-968
980.444	-1211
980.526	-765
980.609	-548
980.692	-1643
980.774	-396
980.857	-1228
980.939	-243
981.022	-291
981.104	-1150
981.187	-344
981.269	-234
981.352	-811
981.434	-588
981.516	-840
981.599	801
981.681	-916
981.763	-152
981.846	-1097
981.928	111
982.010	-1149
982.092	-1431
982.174	-53
982.256	-1181
982.339	-422
982.421	-313
982.503	-155
982.585	-1252
982.667	-751
982.749	-427
982.831	-470
982.913	-673
982.995	148
983.077	-1182
983.158	-260
983.240	-841
983.322	-635
983.404	-627
983.486	-1251
983.568	-645
983.649	-581
983.731	-488
983.813	-1584
983.894	-939
983.976	-829
984.058	-913
984.139	-292
984.221	-1579
984.302	5
984.384	-1657
984.465	-329
984.547	-211
984.628	-1349
984.710	119
984.791	-454
984.872	-817
984.954	-802
985.035	-382
985.116	-1172
985.198	-416
985.279	19
985.360	-735
985.441	-805
985.522	-938
985.604	-458
985.685	-1907
985.766	518
985.847	50
985.928	-1154
986.009	-1815
986.090	-619
986.171	104
986.252	-865
986.333	-1407
986.414	-1113
986.495	-393
986.576	-842
986.656	-287
986.737	-680
986.818	-685
986.899	-444
986.980	-775
987.060	-204
987.141	-620
987.222	-1274
987.302	-408
987.383	-504
987.464	-859
987.544	-1225
987.625	-897
987.705	-230
987.786	-972
987.866	-648
987.947	81
988.027	-985
988.108	-1349
988.188	-806
988.268	-207
988.349	-1282
988.429	-735
988.509	-992
988.589	-1756
988.670	-2542
988.750	98
988.830	-916
988.910	-465
988.990	-1216
989.070	-811
989.151	-709
989.231	-732
989.311	-494
989.391	-1298
989.471	-1482
989.551	-846
989.631	-1440
989.711	94
989.791	-1472
989.870	-1342
989.950	968
990.030	21
990.110	-378
990.190	-546
990.269	-824
990.349	-1451
990.429	-642
990.509	33
990.588	-447
990.668	-862
990.747	-1155
990.827	-1028
990.907	-955
990.986	-519
991.066	-768
991.145	-834
991.225	-359
991.304	-1037
991.383	-1059
991.463	-689
991.542	-1543
991.622	-995
991.701	-1215
991.780	-1418
991.859	-1081
991.939	-1185
992.018	-1422
992.097	-552
992.176	-883
992.256	-1282
992.335	-2283
992.414	-1037
992.493	-1209
992.572	-1062
992.651	-84
992.730	-1355
992.809	-1187
992.888	-1364
992.967	-849
993.046	-800
993.125	-1700
993.203	-1007
993.282	-1185
993.361	-1455
993.440	-331
993.519	-1478
993.597	-633
993.676	-1439
993.755	-1015
993.834	-760
993.912	-1781
993.991	-617
994.069	-1816
994.148	-671
994.226	-1014
994.305	-736
994.384	-1130
994.462	49
994.540	-1840
994.619	-815
994.697	-661
994.776	-2182
994.854	-505
994.932	-1687
995.011	-538
995.089	-1478
995.167	-1027
995.245	-834
995.324	-1567
995.402	-111
995.480	-1306
995.558	268
995.636	-1871
995.714	-1321
995.792	-551
995.870	-1167
995.948	-918
996.026	-1123
996.104	-2060
996.182	-486
996.260	-1303
996.338	-456
996.416	-2359
996.494	-1391
996.572	-189
996.649	-803
996.727	-1801
996.805	-606
996.883	-1985
996.960	-1159
997.038	-744
997.116	-893
997.193	-2021
997.271	-1284
997.348	-1339
997.426	-890
997.504	-1668
997.581	-1163
997.658	-640
997.736	-1751
997.813	-1548
997.891	-937
997.968	-1015
998.046	-1561
998.123	-550
998.200	-1375
998.277	-1868
998.355	-363
998.432	-2043
998.509	-1000
998.586	-1005
998.663	-831
998.741	-1831
998.818	-919
998.895	-1219
998.972	-1387
999.049	-609
999.126	-1710
999.203	-447
999.280	-1553
999.357	-1663
999.434	-1942
999.511	-1416
999.587	-474
999.664	-1057
999.741	-842
999.818	-1252
999.895	-1427
999.971	-1934
1000.048	-1766
1000.125	-681
1000.202	-2191
1000.278	-1795
1000.355	-1415
1000.431	-2338
1000.508	-2155
1000.584	-2265
1000.661	-1305
1000.738	-2173
1000.814	-308
1000.890	-709
1000.967	-1701
1001.043	-854
1001.120	-2202
1001.196	-1726
1001.272	-1182
1001.349	-1098
1001.425	-657
1001.501	-1145
1001.577	-1295
1001.654	-1327
1001.730	-1783
1001.806	-1627
1001.882	-2978
1001.958	-1368
1002.034	-1711
1002.110	-1412
1002.186	-1729
1002.262	-1355
1002.338	-2532
1002.414	-527
1002.490	-1728
1002.566	-1861
1002.642	-2117
1002.718	-591
1002.794	-1380
1002.870	-1366
1002.945	-1199
1003.021	-2303
1003.097	-1622
1003.173	-394
1003.248	-1366
1003.324	-1665
1003.400	-881
1003.475	-1793
1003.551	-1578
1003.626	-1434
1003.702	-1701
1003.777	-1581
1003.853	-1546
1003.928	-1365
1004.004	-825
1004.079	-1835
1004.155	-1892
1004.230	-1956
1004.305	-363
1004.381	-2152
1004.456	-1550
1004.531	-1230
1004.607	-1443
1004.682	-1242
1004.757	-1227
1004.832	-1392
1004.907	-1412
1004.982	-736
1005.057	-1180
1005.133	-1126
1005.208	-1974
1005.283	-1786
1005.358	-1357
1005.433	-1586
1005.508	-1015
1005.583	-1535
1005.657	-1801
1005.732	-1182
1005.807	-1430
1005.882	-1086
1005.957	-983
1006.032	-1629
1006.106	-1389
1006.181	-1776
1006.256	-1444
1006.331	-2299
1006.405	-1568
1006.480	-1330
1006.554	-1841
1006.629	-1428
1006.704	-1793
1006.778	-1281
1006.853	-707
1006.927	-1027
1007.002	-1400
1007.076	-1565
1007.150	-1538
1007.225	-1853
1007.299	-960
1007.373	-2178
1007.448	-1110
1007.522	-1292
1007.596	-1448
1007.671	-2598
1007.745	-568
1007.819	-2200
1007.893	-1178
1007.967	-1095
1008.041	-2281
1008.115	-1597
1008.190	-2303
1008.264	-947
1008.338	-2708
1008.412	-1847
1008.486	-1454
1008.560	-2459
1008.633	-1270
1008.707	-2037
1008.781	-900
1008.855	-2294
1008.929	-1478
1009.003	-2123
1009.076	-1100
1009.150	-1379
1009.224	-607
1009.298	-1001
1009.371	-2171
1009.445	-1391
1009.519	-1435
1009.592	-2224
1009.666	-1706
1009.739	-908
1009.813	-2111
1009.886	-965
1009.960	-1926
1010.033	-1013
1010.107	-900
1010.180	-2454
1010.253	-1974
1010.327	-1720
1010.400	-2130
1010.473	-1655
1010.547	-1012
1010.620	-1508
1010.693	-1737
1010.766	-1784
1010.840	-1599
1010.913	-1540
1010.986	-1735
1011.059	-2229
1011.132	-1075
1011.205	-1394
1011.278	-1004
1011.351	-1976
1011.424	-1800
1011.497	-1886
1011.570	-715
1011.643	-1805
1011.716	-2080
1011.789	-1525
1011.862	-982
1011.934	-1467
1012.007	-2275
1012.080	-1842
1012.153	-1617
1012.225	-1225
1012.298	-1965
1012.371	-1997
1012.443	-906
1012.516	-2768
1012.588	-1486
1012.661	-1011
1012.733	-1970
1012.806	-952
1012.879	-2216
1012.951	-1140
1013.023	-1547
1013.096	-1859
1013.168	-1940
1013.241	-1424
1013.313	-1635
1013.385	-2053
1013.458	-1564
1013.530	-1074
1013.602	-1443
1013.674	-1225
1013.746	-2229
1013.819	-1205
1013.891	-1276
1013.963	-1949
1014.035	-742
1014.107	-1478
1014.179	-1446
1014.251	-2394
1014.323	-1411
1014.395	-2013
1014.467	-1424
1014.539	-1847
1014.611	-1926
1014.683	-1928
1014.754	-1053
1014.826	-1694
1014.898	-1467
1014.970	-2800
1015.042	-553
1015.113	-2818
1015.185	-1749
1015.257	-2286
1015.328	-2014
1015.400	-2231
1015.471	-2196
1015.543	-3265
1015.615	-1780
1015.686	-2061
1015.757	-1076
1015.829	-2079
1015.901	-1010
1015.972	-1760
1016.043	-1653
1016.115	-949
1016.186	-1488
1016.257	-2135
1016.328	-697
1016.400	-1375
1016.471	-1476
1016.542	-1428
1016.613	-1404
1016.685	-1822
1016.756	-1150
1016.827	-1780
1016.898	-2603
1016.969	-1709
1017.040	-1969
1017.111	-1510
1017.182	-2392
1017.253	-1176
1017.324	-1554
1017.395	-1630
1017.466	-1760
1017.537	-969
1017.608	-1701
1017.678	-1782
1017.749	-869
1017.820	-1221
1017.891	-1909
1017.961	-1982
1018.032	-1006
1018.103	-1556
1018.173	-1370
1018.244	-1963
1018.315	-1587
1018.385	-1413
1018.456	-1408
1018.526	-1706
1018.597	-1380
1018.667	-2364
1018.738	-1012
1018.808	-2032
1018.878	-1589
1018.949	-1867
1019.019	-1169
1019.089	-890
1019.160	-1492
1019.230	-2427
1019.300	-1287
1019.371	-1769
1019.441	-1152
1019.511	-562
1019.581	-1838
1019.651	-1474
1019.721	-1601
1019.791	-2076
1019.861	-2008
1019.931	-1190
1020.001	-2276
1020.071	-1642
1020.141	-2234
1020.211	-1301
1020.281	-1587
1020.351	-2239
1020.421	-646
1020.491	-1452
1020.560	-2246
1020.630	-1534
1020.700	-1570
1020.770	-1931
1020.839	-1986
1020.909	-2028
1020.979	-1058
1021.048	-1840
1021.118	-1018
1021.187	-1425
1021.257	-1146
1021.326	-1915
1021.396	-2053
1021.465	-2114
1021.535	-1475
1021.604	-2033
1021.674	-645
1021.743	-1530
1021.812	-2564
1021.882	-2354
1021.951	-1464
1022.020	-1792
1022.089	-1612
1022.159	-1221
1022.228	-1675
1022.297	-1814
1022.366	-1217
1022.435	-1201
1022.504	-1818
1022.573	-1903
1022.642	-1283
1022.711	-1870
1022.781	-1319
1022.849	-1262
1022.918	-2235
1022.987	-1007
1023.056	-1429
1023.125	-1409
1023.194	-1946
1023.263	-1004
1023.331	-1950
1023.400	-1222
1023.469	-1971
1023.538	-1349
1023.606	-2533
1023.675	-2646
1023.744	-1798
1023.812	-1293
1023.881	-1901
1023.949	-2005
1024.018	-2297
1024.086	-1897
1024.155	-1233
1024.223	-2503
1024.292	-2109
1024.360	-1664
1024.429	-2112
1024.497	-2755
1024.565	-1866
1024.634	-2231
1024.702	-1718
1024.770	-1540
1024.838	-2302
1024.907	-1151
1024.975	-1612
1025.043	-1398
1025.111	-2294
1025.179	-2196
1025.247	-1274
1025.315	-2187
1025.383	-1738
1025.451	-2072
1025.519	-1341
1025.587	-2179
1025.655	-1883
1025.723	-1847
1025.791	-1393
1025.859	-1344
1025.927	-1542
1025.995	-2037
1026.062	-1657
1026.130	-1718
1026.198	-1700
1026.266	-1831
1026.333	-2076
1026.401	-1852
1026.469	-1705
1026.536	-1457
1026.604	-2284
1026.671	-2345
1026.739	-2229
1026.806	-2234
1026.874	-2369
1026.941	-2225
1027.009	-2181
1027.076	-2750
1027.144	-1388
1027.211	-2359
1027.278	-1715
1027.345	-2304
1027.413	-292
1027.480	-1649
1027.547	-1766
1027.614	-1973
1027.682	-1332
1027.749	-3003
1027.816	-1295
1027.883	-1609
1027.950	-1623
1028.017	-2586
1028.084	-1389
1028.151	-2089
1028.218	-2757
1028.285	-2539
1028.352	-2335
1028.419	-1935
1028.486	-2394
1028.553	-1798
1028.619	-2844
1028.686	-1531
1028.753	-1660
1028.820	-2451
1028.886	-1564
1028.953	-1405
1029.020	-2065
1029.086	-2338
1029.153	-2102
1029.220	-1978
1029.286	-1037
1029.353	-884
1029.419	-2379
1029.486	-2088
1029.552	-2053
1029.619	-2373
1029.685	-2720
1029.751	-1399
1029.818	-1443
1029.884	-2113
1029.951	-882
1030.017	-2172
1030.083	-1696
1030.149	-1806
1030.216	-2021
1030.282	-1944
1030.348	-1620
1030.414	-2010
1030.480	-2283
1030.546	-2111
1030.612	-1884
1030.678	-2122
1030.744	-2348
1030.810	-2121
1030.876	-1554
1030.942	-2340
1031.008	-2094
1031.074	-2707
1031.140	-2481
1031.206	-1837
1031.272	-2095
1031.337	-1404
1031.403	-1580
1031.469	-1650
1031.534	-1876
1031.600	-1559
1031.666	-2036
1031.731	-2695
1031.797	-2365
1031.863	-1240
1031.928	-1674
1031.994	-1968
1032.059	-977
1032.125	-2762
1032.190	-2614
1032.256	-2108
1032.321	-1575
1032.386	-2981
1032.452	-1394
1032.517	-1762
1032.582	-2134
1032.647	-1712
1032.713	-2121
1032.778	-1658
1032.843	-1586
1032.908	-1744
1032.974	-1915
1033.039	-1852
1033.104	-2367
1033.169	-2612
1033.234	-2545
1033.299	-1667
1033.364	-2524
1033.429	-2532
1033.494	-1836
1033.559	-2663
1033.624	-2341
1033.688	-1510
1033.753	-2534
1033.818	-1970
1033.883	-2737
1033.948	-2072
1034.013	-1796
1034.077	-2293
1034.142	-1522
1034.207	-1851
1034.271	-1283
1034.336	-1204
1034.400	-1358
1034.465	-2119
1034.530	-2212
1034.594	-1424
1034.658	-2480
1034.723	-2401
1034.787	-2121
1034.852	-2922
1034.916	-2116
1034.981	-1636
1035.045	-1706
1035.109	-2241
1035.173	-1532
1035.238	-1968
1035.302	-2128
1035.366	-2197
1035.430	-1679
1035.495	-2017
1035.559	-1075
1035.623	-2534
1035.687	-2089
1035.751	-2451
1035.815	-1672
1035.879	-2495
1035.943	-1473
1036.007	-2563
1036.071	-2118
1036.135	-2338
1036.198	-2258
1036.262	-2117
1036.326	-2088
1036.390	-1996
1036.454	-1971
1036.517	-1800
1036.581	-1549
1036.645	-2579
1036.709	-1720
1036.772	-2054
1036.836	-2162
1036.900	-2100
1036.963	-2467
1037.026	-1724
1037.090	-2299
1037.154	-2415
1037.217	-1671
1037.280	-1655
1037.344	-2749
1037.407	-2188
1037.471	-2248
1037.534	-1730
1037.597	-2338
1037.661	-2660
1037.724	-2309
1037.787	-1877
1037.850	-2417
1037.913	-2797
1037.977	-1868
1038.040	-1851
1038.103	-2187
1038.166	-2008
1038.229	-1816
1038.292	-2501
1038.355	-1728
1038.418	-2347
1038.481	-1164
1038.544	-2137
1038.607	-1468
1038.670	-1933
1038.732	-1513
1038.795	-2304
1038.858	-2690
1038.921	-1878
1038.984	-1981
1039.046	-1833
1039.109	-1956
1039.172	-2704
1039.234	-2136
1039.297	-1647
1039.360	-1884
1039.422	-1709
1039.485	-1871
1039.547	-2835
1039.610	-2012
1039.672	-2307
1039.734	-2295
1039.797	-1686
1039.859	-1000
1039.922	-2702
1039.984	-2166
1040.046	-2610
1040.109	-1477
1040.171	-2173
1040.233	-1596
1040.295	-1788
1040.358	-1682
1040.420	-2226
1040.482	-2021
1040.544	-1848
1040.606	-1636
1040.668	-1914
1040.730	-1307
1040.792	-1696
1040.854	-2277
1040.916	-2564
1040.978	-1980
1041.040	-1937
1041.102	-1679
1041.164	-2241
1041.225	-2102
1041.287	-2186
1041.349	-1853
1041.411	-1543
1041.472	-1960
1041.534	-1766
1041.596	-2119
1041.657	-2012
1041.719	-1666
1041.781	-2151
1041.842	-1856
1041.904	-2227
1041.965	-2093
1042.027	-2172
1042.088	-1796
1042.150	-2231
1042.211	-2214
1042.272	-1854
1042.334	-2955
1042.395	-1909
1042.456	-1776
1042.518	-1954
1042.579	-1834
1042.640	-2144
1042.701	-2065
1042.763	-1838
1042.824	-1615
1042.885	-2296
1042.946	-2241
1043.007	-2061
1043.068	-1561
1043.129	-2563
1043.190	-1747
1043.251	-2146
1043.312	-1995
1043.373	-2063
1043.434	-1804
1043.495	-1585
1043.556	-1579
1043.616	-2363
1043.677	-1467
1043.738	-2092
1043.799	-1789
1043.859	-2292
1043.920	-2390
1043.981	-2321
1044.041	-1046
1044.102	-2077
1044.162	-1408
1044.223	-2338
1044.284	-2796
1044.344	-1009
1044.405	-2106
1044.465	-1901
1044.525	-2553
1044.586	-1744
1044.646	-1839
1044.707	-1707
1044.767	-1021
1044.827	-1893
1044.887	-1921
1044.948	-1208
1045.008	-2517
1045.068	-2150
1045.128	-2415
1045.188	-1572
1045.249	-1675
1045.309	-2187
1045.369	-1437
1045.429	-1726
1045.489	-1718
1045.549	-1693
1045.609	-2584
1045.669	-2608
1045.729	-1819
1045.789	-1464
1045.848	-1727
1045.908	-1605
1045.968	-483
1046.028	-1377
1046.088	-1040
1046.147	-2009
1046.207	-1351
1046.267	-1862
1046.326	-1919
1046.386	-1768
1046.446	-1130
1046.505	-990
1046.565	-532
1046.624	-1135
1046.684	-1062
1046.743	-538
1046.803	-664
1046.862	-707
1046.922	0
