'Start Wavelength	183.907
'End Wavelength	1046.922
'Gate Delay	5.000
'Gate Width (ms)	1.050
'Laser Output Level	0.000
'X Position	0.000
'Y Position	0.000
'Z Position	0.000
'Grid Point Number	1.000
'Shot Number	100.000
183.907	-22.000
183.977	40.000
184.047	-374
184.116	267
184.186	285
184.256	423
184.325	-89
184.395	-721
184.465	1005
184.534	-221
184.604	-288
184.674	384
184.743	-46
184.813	593
184.883	-768
184.952	-191
185.022	313
185.092	338
185.161	338
185.231	796
185.301	313
185.370	814
185.440	-224
185.509	280
185.579	279
185.649	257
185.718	655
185.788	417
185.857	-8
185.927	-70
185.996	212
186.066	352
186.136	-357
186.205	453
186.275	-193
186.344	435
186.414	-414
186.483	-433
186.553	422
186.622	2188
186.692	297
186.761	635
186.831	185
186.900	332
186.970	900
187.039	1023
187.109	637
187.178	1653
187.248	405
187.317	1652
187.387	-337
187.456	979
187.526	1071
187.595	844
187.664	231
187.734	1283
187.803	967
187.873	474
187.942	923
188.012	626
188.081	769
188.150	960
188.220	1604
188.289	1241
188.358	811
188.428	1277
188.497	-59
188.567	1718
188.636	1113
188.705	595
188.775	818
188.844	157
188.913	1266
188.983	1126
189.052	529
189.121	55
189.191	288
189.260	2052
189.329	1221
189.399	1297
189.468	914
189.537	533
189.606	67
189.676	1105
189.745	942
189.814	1168
189.883	1015
189.953	1389
190.022	930
190.091	3779
190.161	5240
190.230	2386
190.299	1082
190.368	1990
190.437	455
190.507	1020
190.576	956
190.645	577
190.714	-292
190.783	767
190.853	1100
190.922	1205
190.991	-66
191.060	2094
191.129	124
191.198	1853
191.268	1473
191.337	803
191.406	1048
191.475	941
191.544	364
191.613	1354
191.682	1007
191.752	1088
191.821	635
191.890	1262
191.959	1237
192.028	566
192.097	738
192.166	1324
192.235	-364
192.304	1679
192.373	713
192.442	585
192.511	-445
192.580	740
192.650	265
192.719	1171
192.788	1653
192.857	709
192.926	413
192.995	1244
193.064	1007
193.133	3024
193.202	2778
193.271	2818
193.340	1999
193.409	2099
193.478	2081
193.547	3325
193.615	4782
193.684	5071
193.753	3214
193.822	2929
193.891	995
193.960	1921
194.029	1382
194.098	1643
194.167	-128
194.236	1368
194.305	23
194.374	1500
194.443	510
194.512	1731
194.580	894
194.649	2471
194.718	1890
194.787	1735
194.856	461
194.925	1805
194.994	1773
195.062	2900
195.131	2169
195.200	2458
195.269	2389
195.338	2419
195.407	1654
195.475	1621
195.544	1845
195.613	1672
195.682	1193
195.751	2630
195.819	2810
195.888	2720
195.957	2584
196.026	2798
196.094	2552
196.163	2865
196.232	2135
196.301	2499
196.369	1882
196.438	1713
196.507	2500
196.576	1225
196.644	1356
196.713	1131
196.782	1123
196.850	1992
196.919	1866
196.988	2036
197.056	826
197.125	1962
197.194	1812
197.262	1373
197.331	1636
197.400	2539
197.468	1808
197.537	1830
197.606	1550
197.674	2507
197.743	5705
197.812	2529
197.880	5079
197.949	3642
198.017	4149
198.086	3731
198.155	1983
198.223	2661
198.292	5450
198.360	3568
198.429	2079
198.497	1931
198.566	2634
198.635	5728
198.703	2584
198.772	3141
198.840	5942
198.909	6905
198.977	2947
199.046	2366
199.114	2159
199.183	1631
199.251	1683
199.320	2545
199.388	1494
199.457	1565
199.525	1778
199.594	1768
199.662	1355
199.731	2172
199.799	1631
199.867	2381
199.936	2088
200.004	2213
200.073	1084
200.141	1515
200.210	1657
200.278	1607
200.346	1458
200.415	3371
200.483	2530
200.552	2876
200.620	1412
200.688	1950
200.757	2077
200.825	2252
200.893	2323
200.962	2300
201.030	1855
201.098	1466
201.167	1890
201.235	2910
201.303	1725
201.372	3202
201.440	1752
201.508	3180
201.577	2607
201.645	2721
201.713	1264
201.781	2613
201.850	4203
201.918	2736
201.986	1739
202.055	3010
202.123	1975
202.191	1860
202.259	1833
202.327	1542
202.396	2077
202.464	2665
202.532	3067
202.600	8937
202.669	6462
202.737	3175
202.805	2953
202.873	2140
202.941	1984
203.009	2413
203.078	1795
203.146	2155
203.214	1636
203.282	1914
203.350	2440
203.418	2154
203.487	1632
203.555	1983
203.623	1891
203.691	2277
203.759	1745
203.827	1809
203.895	2299
203.963	2950
204.031	1913
204.099	2948
204.168	2441
204.236	2756
204.304	2800
204.372	2968
204.440	2445
204.508	2402
204.576	2349
204.644	2367
204.712	2379
204.780	2673
204.848	2567
204.916	1788
204.984	1406
205.052	2781
205.120	2101
205.188	2863
205.256	1698
205.324	2482
205.392	2480
205.460	3321
205.528	2776
205.596	2959
205.664	2069
205.732	3743
205.799	7426
205.867	12325
205.935	2977
206.003	3268
206.071	2737
206.139	2322
206.207	2479
206.275	2488
206.343	2210
206.411	3621
206.478	2737
206.546	2646
206.614	2233
206.682	2285
206.750	2737
206.818	3179
206.885	3773
206.953	2577
207.021	3234
207.089	3027
207.157	2544
207.225	2731
207.292	1601
207.360	3098
207.428	2238
207.496	2630
207.563	3208
207.631	3233
207.699	2143
207.767	3387
207.834	3450
207.902	3426
207.970	2391
208.038	3020
208.105	3018
208.173	2982
208.241	4491
208.309	4854
208.376	4070
208.444	6572
208.512	4441
208.579	3408
208.647	4039
208.715	4799
208.782	3212
208.850	2396
208.918	3159
208.985	3889
209.053	2938
209.120	3783
209.188	2753
209.256	3301
209.323	2587
209.391	5419
209.459	4702
209.526	3582
209.594	3048
209.661	3515
209.729	3653
209.796	3670
209.864	3178
209.932	2839
209.999	4505
210.067	4476
210.134	4141
210.202	3488
210.269	6248
210.337	5593
210.404	3836
210.472	4481
210.539	3288
210.607	4462
210.674	5774
210.742	4279
210.809	3324
210.877	4676
210.944	4579
211.012	4273
211.079	5877
211.146	3225
211.214	3605
211.281	6134
211.349	4877
211.416	4510
211.484	4753
211.551	3996
211.618	3768
211.686	4745
211.753	3644
211.821	4036
211.888	3792
211.955	4723
212.023	4003
212.090	4704
212.157	4705
212.225	4651
212.292	8110
212.359	14502
212.427	29974
212.494	16979
212.561	7353
212.629	5086
212.696	4920
212.763	5639
212.831	4754
212.898	5299
212.965	5209
213.032	4483
213.100	5280
213.167	5120
213.234	5948
213.301	4060
213.369	4305
213.436	4881
213.503	3975
213.570	4986
213.638	5194
213.705	4152
213.772	3378
213.839	5563
213.906	6343
213.973	5573
214.041	4541
214.108	5586
214.175	4959
214.242	5218
214.309	4420
214.376	5563
214.444	4950
214.511	5843
214.578	4739
214.645	5391
214.712	5727
214.779	6830
214.846	4657
214.913	6119
214.980	6507
215.048	6869
215.115	7341
215.182	7531
215.249	5738
215.316	5679
215.383	5641
215.450	4967
215.517	4580
215.584	4543
215.651	4488
215.718	4275
215.785	5228
215.852	6158
215.919	6674
215.986	6693
216.053	4466
216.120	4195
216.187	6390
216.254	5521
216.321	4910
216.388	6150
216.455	6329
216.522	6534
216.589	7202
216.656	11166
216.722	11521
216.789	7474
216.856	7824
216.923	7519
216.990	6853
217.057	7036
217.124	8449
217.191	8359
217.258	9069
217.324	11164
217.391	10335
217.458	7779
217.525	7418
217.592	6627
217.659	5891
217.725	7773
217.792	8555
217.859	9098
217.926	5638
217.993	5934
218.059	5292
218.126	5445
218.193	5051
218.260	4352
218.327	3770
218.393	5232
218.460	3819
218.527	4428
218.594	4596
218.660	9172
218.727	10081
218.794	5467
218.860	4666
218.927	4200
218.994	4184
219.061	4000
219.127	5616
219.194	8243
219.261	4578
219.327	4469
219.394	3645
219.461	2897
219.527	4136
219.594	6743
219.661	5581
219.727	3090
219.794	4687
219.860	3791
219.927	5349
219.994	7200
220.060	10768
220.127	9585
220.193	6705
220.260	6475
220.326	9092
220.393	12705
220.460	16041
220.526	11262
220.593	8420
220.659	9789
220.726	8798
220.792	18063
220.859	16882
220.925	20811
220.992	25489
221.058	24250
221.125	25586
221.191	19882
221.258	9044
221.324	7484
221.391	6699
221.457	5331
221.524	5573
221.590	7820
221.657	20167
221.723	16927
221.789	13921
221.856	13830
221.922	8628
221.989	6558
222.055	5081
222.121	4640
222.188	6510
222.254	5775
222.321	4355
222.387	4019
222.453	3308
222.520	4238
222.586	3605
222.652	4309
222.719	3546
222.785	4808
222.851	3621
222.918	4135
222.984	4677
223.050	4837
223.116	3940
223.183	5212
223.249	3375
223.315	3411
223.382	3809
223.448	3551
223.514	2093
223.580	3012
223.647	3118
223.713	2520
223.779	3243
223.845	3107
223.911	4081
223.978	3015
224.044	3864
224.110	3419
224.176	3702
224.242	3761
224.309	1886
224.375	3427
224.441	2647
224.507	3072
224.573	3295
224.639	3911
224.705	2648
224.772	4013
224.838	3281
224.904	5018
224.970	3748
225.036	3979
225.102	4079
225.168	4117
225.234	3779
225.300	3603
225.366	3165
225.432	3810
225.499	3903
225.565	4844
225.631	4299
225.697	4877
225.763	5525
225.829	6559
225.895	6410
225.961	10526
226.027	8078
226.093	7510
226.159	9856
226.225	14138
226.291	26220
226.357	40214
226.423	24207
226.489	15092
226.554	10497
226.620	9797
226.686	12718
226.752	19260
226.818	26890
226.884	50455
226.950	46466
227.016	20963
227.082	13571
227.148	10534
227.214	10889
227.279	10002
227.345	7839
227.411	7315
227.477	7337
227.543	12756
227.609	15360
227.674	10300
227.740	6942
227.806	6876
227.872	5561
227.938	6000
228.003	10423
228.069	6572
228.135	4202
228.201	5041
228.267	4431
228.332	6019
228.398	7472
228.464	5987
228.530	3672
228.595	4400
228.661	3006
228.727	8367
228.792	7597
228.858	4544
228.924	4585
228.990	7749
229.055	6215
229.121	8009
229.187	5308
229.252	5004
229.318	4007
229.384	5492
229.449	7085
229.515	2353
229.581	2650
229.646	5498
229.712	5901
229.777	11511
229.843	13369
229.909	9260
229.974	9617
230.040	9546
230.105	6123
230.171	8455
230.236	9035
230.302	13724
230.368	11494
230.433	7168
230.499	7123
230.564	9104
230.630	6131
230.695	4879
230.761	4760
230.826	3702
230.892	9125
230.957	5436
231.023	4132
231.088	5195
231.154	4494
231.219	6005
231.284	7849
231.350	9775
231.415	5208
231.481	5517
231.546	4169
231.612	4090
231.677	4021
231.742	3175
231.808	5599
231.873	4107
231.939	3239
232.004	8460
232.069	9501
232.135	5606
232.200	5130
232.265	3999
232.331	3556
232.396	3842
232.461	3370
232.527	4398
232.592	3778
232.657	4567
232.723	8294
232.788	7331
232.853	4547
232.918	3952
232.984	4090
233.049	3702
233.114	7332
233.179	8048
233.245	10773
233.310	15002
233.375	4666
233.440	5343
233.506	3862
233.571	3945
233.636	4104
233.701	4312
233.766	8376
233.832	13000
233.897	5463
233.962	6620
234.027	8042
234.092	7083
234.157	6112
234.222	6517
234.288	8470
234.353	26328
234.418	23873
234.483	14949
234.548	11322
234.613	8624
234.678	8499
234.743	10142
234.808	27620
234.873	19564
234.938	9864
235.004	7585
235.069	6459
235.134	6988
235.199	6921
235.264	5562
235.329	4313
235.394	6762
235.459	7888
235.524	7052
235.589	6304
235.654	4795
235.719	4605
235.784	6074
235.849	6834
235.913	15405
235.978	16202
236.043	19991
236.108	7808
236.173	8548
236.238	8810
236.303	6081
236.368	7018
236.433	10697
236.498	18459
236.563	13854
236.627	22010
236.692	64231
236.757	57395
236.822	25981
236.887	21156
236.952	16541
237.017	12356
237.081	15375
237.146	17309
237.211	32152
237.276	63013
237.341	99588
237.405	58466
237.470	26901
237.535	20105
237.600	13134
237.664	10441
237.729	8943
237.794	11356
237.859	20847
237.923	17698
237.988	10476
238.053	14227
238.118	16098
238.182	32791
238.247	33011
238.312	17415
238.376	13250
238.441	10017
238.506	10477
238.570	6078
238.635	7212
238.700	5790
238.764	6439
238.829	15064
238.893	21310
238.958	10545
239.023	11064
239.087	7246
239.152	8868
239.216	6216
239.281	5822
239.346	6167
239.410	6014
239.475	6946
239.539	31902
239.604	28439
239.668	9484
239.733	6665
239.797	9497
239.862	21308
239.926	29958
239.991	13636
240.055	8775
240.120	6565
240.184	6863
240.249	6112
240.313	5548
240.378	6030
240.442	19102
240.507	32752
240.571	11549
240.635	15480
240.700	21924
240.764	9587
240.829	7108
240.893	4442
240.957	6667
241.022	17087
241.086	34086
241.151	18695
241.215	7266
241.279	10456
241.344	18363
241.408	10087
241.472	7303
241.537	8921
241.601	8537
241.665	6473
241.730	6623
241.794	7945
241.858	7960
241.922	7166
241.987	7785
242.051	6134
242.115	5926
242.179	7158
242.244	6098
242.308	6596
242.372	7670
242.436	10013
242.501	7888
242.565	5796
242.629	5915
242.693	6872
242.757	6118
242.822	6921
242.886	7503
242.950	7424
243.014	7994
243.078	8926
243.142	10578
243.206	6924
243.271	8647
243.335	8933
243.399	12908
243.463	40082
243.527	106162
243.591	38263
243.655	17450
243.719	10992
243.783	11530
243.847	17475
243.911	22888
243.975	27818
244.040	21724
244.104	11984
244.168	9582
244.232	14706
244.296	21243
244.360	21020
244.424	13117
244.488	10055
244.552	9916
244.615	5984
244.679	7437
244.743	8995
244.807	10482
244.871	6233
244.935	8139
244.999	5093
245.063	7664
245.127	8460
245.191	15167
245.255	15697
245.319	11492
245.383	12238
245.446	9103
245.510	7162
245.574	9020
245.638	9008
245.702	7989
245.766	21148
245.829	14093
245.893	10080
245.957	7808
246.021	10119
246.085	9572
246.149	11919
246.212	27046
246.276	41456
246.340	20224
246.404	15303
246.467	13925
246.531	21541
246.595	14070
246.659	12621
246.722	12458
246.786	15665
246.850	15064
246.913	19548
246.977	10182
247.041	10365
247.104	12541
247.168	11416
247.232	25139
247.295	53241
247.359	28626
247.423	13288
247.486	24228
247.550	15785
247.614	12855
247.677	16620
247.741	12259
247.804	9101
247.868	12061
247.932	22991
247.995	51391
248.059	21690
248.122	12073
248.186	13661
248.249	25249
248.313	75474
248.376	85457
248.440	55993
248.503	24387
248.567	19096
248.630	26124
248.694	37358
248.757	43788
248.821	85353
248.884	55823
248.948	47837
249.011	67381
249.075	96200
249.138	87306
249.202	37566
249.265	24095
249.328	30064
249.392	22310
249.455	18141
249.519	14522
249.582	17618
249.645	28087
249.709	22277
249.772	17160
249.835	14562
249.899	17169
249.962	13909
250.025	14271
250.089	32431
250.152	46326
250.215	24439
250.279	17591
250.342	18521
250.405	17998
250.468	15491
250.532	21025
250.595	31385
250.658	94105
250.721	157186
250.785	64994
250.848	33358
250.911	21884
250.974	20450
251.038	26040
251.101	53439
251.164	30056
251.227	30643
251.290	28332
251.354	37835
251.417	127755
251.480	138366
251.543	97823
251.606	219996
251.669	186406
251.732	80933
251.795	76691
251.859	77586
251.922	151676
251.985	98871
252.048	40154
252.111	31437
252.174	29015
252.237	48927
252.300	101708
252.363	108162
252.426	189950
252.489	93657
252.552	52750
252.615	36931
252.678	36163
252.741	76189
252.804	98900
252.867	194876
252.930	131782
252.993	74753
253.056	43822
253.119	35870
253.182	28555
253.245	44052
253.308	36001
253.371	34632
253.434	33222
253.497	29705
253.559	49904
253.622	39863
253.685	47803
253.748	53315
253.811	26221
253.874	30381
253.937	30972
254.000	23015
254.062	35832
254.125	55359
254.188	49383
254.251	46535
254.314	23325
254.376	38961
254.439	47212
254.502	39760
254.565	38254
254.628	64910
254.690	43165
254.753	24707
254.816	21288
254.878	23506
254.941	37888
255.004	40999
255.067	19818
255.129	22519
255.192	13268
255.255	11734
255.317	16031
255.380	12040
255.443	9277
255.505	8767
255.568	9802
255.631	9891
255.693	10966
255.756	9200
255.819	9347
255.881	7507
255.944	8127
256.006	7506
256.069	8543
256.132	7735
256.194	12186
256.257	32025
256.319	24415
256.382	23197
256.444	13540
256.507	11243
256.569	9451
256.632	10614
256.694	18506
256.757	37022
256.819	104543
256.882	50210
256.944	21558
257.007	18210
257.069	21233
257.132	13640
257.194	12474
257.257	10473
257.319	12119
257.381	12445
257.444	29996
257.506	113070
257.569	141920
257.631	82386
257.693	43010
257.756	22417
257.818	21375
257.880	13674
257.943	13324
258.005	10720
258.067	11403
258.130	10485
258.192	14091
258.254	28830
258.317	18754
258.379	11989
258.441	28527
258.503	28620
258.566	35180
258.628	49614
258.690	15059
258.753	13809
258.815	26423
258.877	16447
258.939	10687
259.001	9242
259.064	10118
259.126	13355
259.188	18575
259.250	12802
259.312	16509
259.375	40119
259.437	28579
259.499	11855
259.561	11521
259.623	12355
259.685	12485
259.747	11660
259.809	33425
259.872	65110
259.934	87315
259.996	88719
260.058	27581
260.120	13129
260.182	11241
260.244	9540
260.306	8788
260.368	9389
260.430	9575
260.492	20726
260.554	41337
260.616	32676
260.678	47318
260.740	70770
260.802	20447
260.864	16224
260.926	13786
260.988	13776
261.050	12804
261.112	29163
261.174	70000
261.236	56093
261.298	19625
261.359	29830
261.421	46297
261.483	15526
261.545	12432
261.607	8659
261.669	10459
261.731	19612
261.793	48489
261.854	23626
261.916	15838
261.978	13047
262.040	15776
262.102	11537
262.164	18735
262.225	17182
262.287	10904
262.349	26703
262.411	22858
262.472	11299
262.534	20176
262.596	45557
262.658	16288
262.719	9772
262.781	14118
262.843	42995
262.904	21616
262.966	15632
263.028	18951
263.090	68750
263.151	183720
263.213	65635
263.275	37940
263.336	18092
263.398	13818
263.459	9085
263.521	11608
263.583	24908
263.644	20311
263.706	9108
263.767	6282
263.829	6637
263.891	6619
263.952	6471
264.014	6239
264.075	12856
264.137	34935
264.198	18287
264.260	7448
264.321	7532
264.383	20804
264.444	51458
264.506	18500
264.567	11900
264.629	18556
264.690	41812
264.752	17865
264.813	11691
264.875	9082
264.936	9596
264.998	8270
265.059	6316
265.120	8312
265.182	13416
265.243	52593
265.305	59869
265.366	16144
265.427	10373
265.489	10098
265.550	7414
265.611	10494
265.673	10373
265.734	8395
265.795	6816
265.857	6276
265.918	8780
265.979	17264
266.040	83182
266.102	80825
266.163	24529
266.224	21906
266.286	13223
266.347	9157
266.408	9560
266.469	10402
266.530	8652
266.592	7315
266.653	16259
266.714	29630
266.775	10808
266.836	8473
266.898	7604
266.959	14369
267.020	10543
267.081	8267
267.142	6512
267.203	7295
267.264	6273
267.326	8906
267.387	6922
267.448	5989
267.509	7157
267.570	7566
267.631	6196
267.692	6170
267.753	6382
267.814	7099
267.875	15151
267.936	35827
267.997	19267
268.058	18078
268.119	10709
268.180	10590
268.241	7886
268.302	8215
268.363	7446
268.424	7827
268.485	8299
268.546	6956
268.607	5170
268.668	5952
268.729	5301
268.790	7436
268.851	8667
268.912	22584
268.972	28013
269.033	15765
269.094	7366
269.155	6945
269.216	6127
269.277	7809
269.338	6594
269.398	6555
269.459	8910
269.520	13733
269.581	17914
269.642	21764
269.702	14724
269.763	10355
269.824	8966
269.885	11820
269.945	19203
270.006	9155
270.067	6585
270.128	6574
270.188	6279
270.249	7145
270.310	5781
270.370	6162
270.431	7492
270.492	6174
270.553	7408
270.613	17673
270.674	34731
270.734	17030
270.795	9507
270.856	13507
270.916	12385
270.977	8274
271.038	9885
271.098	11653
271.159	16804
271.219	19150
271.280	8274
271.340	7597
271.401	10243
271.462	25655
271.522	14588
271.583	9292
271.643	9823
271.704	10245
271.764	11401
271.825	25463
271.885	75974
271.946	106177
272.006	39119
272.066	46028
272.127	80116
272.187	27840
272.248	17437
272.308	17819
272.369	51614
272.429	33938
272.489	25772
272.550	29497
272.610	27713
272.671	23715
272.731	19439
272.791	35369
272.852	20013
272.912	17821
272.972	11116
273.033	10629
273.093	18665
273.153	18520
273.214	12365
273.274	13832
273.334	40400
273.394	82536
273.455	37231
273.515	33721
273.575	73109
273.635	33801
273.696	40236
273.756	78401
273.816	35793
273.876	21953
273.936	39791
273.997	75101
274.057	23116
274.117	18282
274.177	23742
274.237	92174
274.297	86773
274.358	62858
274.418	62820
274.478	52132
274.538	23070
274.598	19955
274.658	57074
274.718	78481
274.778	31967
274.838	19023
274.898	34431
274.958	106788
275.018	82951
275.078	54726
275.138	25886
275.198	14529
275.258	12078
275.318	15212
275.378	26967
275.438	29573
275.498	19799
275.558	44426
275.618	91935
275.678	58932
275.738	35450
275.798	31549
275.858	19016
275.918	11621
275.978	13466
276.038	13741
276.098	10468
276.157	21303
276.217	59634
276.277	29525
276.337	21824
276.397	13263
276.457	15564
276.517	12614
276.576	8950
276.636	8444
276.696	16352
276.756	36289
276.815	29495
276.875	14131
276.935	15568
276.995	15141
277.055	8994
277.114	10112
277.174	14416
277.234	45475
277.293	22821
277.353	14053
277.413	9759
277.472	11807
277.532	11775
277.592	13923
277.651	39127
277.711	79223
277.771	29567
277.830	85936
277.890	78067
277.950	49016
278.009	130596
278.069	55039
278.128	52383
278.188	81563
278.248	37301
278.307	83208
278.367	56279
278.426	19852
278.486	13815
278.545	11663
278.605	10571
278.664	10413
278.724	12018
278.783	28254
278.843	73190
278.902	26038
278.962	16524
279.021	19112
279.081	23522
279.140	25475
279.199	20736
279.259	20031
279.318	18838
279.378	25130
279.437	45875
279.496	139371
279.556	355204
279.615	308063
279.675	95618
279.734	55537
279.793	77023
279.853	109538
279.912	45807
279.971	26912
280.031	25189
280.090	40067
280.149	72673
280.208	66512
280.268	240120
280.327	269036
280.386	76730
280.445	52815
280.505	50276
280.564	26899
280.623	21613
280.682	27744
280.742	42516
280.801	16837
280.860	12854
280.919	11170
280.978	10905
281.037	11037
281.097	9932
281.156	10558
281.215	9518
281.274	12971
281.333	46427
281.392	39826
281.451	12181
281.510	10243
281.569	9773
281.628	8139
281.688	7954
281.747	9813
281.806	11058
281.865	8169
281.924	8566
281.983	8760
282.042	6719
282.101	6460
282.160	7146
282.219	7128
282.278	8316
282.337	29787
282.396	24012
282.454	10505
282.513	13067
282.572	44015
282.631	29281
282.690	11448
282.749	9326
282.808	12980
282.867	11237
282.926	12280
282.985	7927
283.043	7292
283.102	7589
283.161	10875
283.220	21039
283.279	50664
283.338	17592
283.396	12048
283.455	11526
283.514	12279
283.573	17618
283.631	13963
283.690	9804
283.749	10335
283.808	20512
283.866	26691
283.925	11042
283.984	10131
284.043	14981
284.101	16959
284.160	12129
284.219	16394
284.277	14619
284.336	21043
284.395	60267
284.453	53826
284.512	22913
284.570	27823
284.629	26079
284.688	23319
284.746	24900
284.805	29149
284.863	37112
284.922	47743
284.981	55813
285.039	79327
285.098	134805
285.156	264741
285.215	371183
285.273	360143
285.332	289886
285.390	171425
285.449	107544
285.507	75849
285.566	55698
285.624	42128
285.683	33283
285.741	27423
285.799	23970
285.858	20736
285.916	19871
285.975	15926
286.033	14205
286.091	12810
286.150	11315
286.208	11129
286.267	14280
286.325	13597
286.383	22190
286.442	19144
286.500	10196
286.558	8436
286.616	9099
286.675	13158
286.733	12459
286.791	11535
286.850	12861
286.908	16046
286.966	26960
287.024	12667
287.083	9458
287.141	8383
287.199	9808
287.257	14366
287.315	11041
287.374	12725
287.432	26467
287.490	20536
287.548	11948
287.606	11074
287.664	9881
287.723	14768
287.781	19661
287.839	12430
287.897	13993
287.955	15970
288.013	26279
288.071	56144
288.129	181485
288.187	447965
288.245	237371
288.303	81384
288.361	46422
288.419	36749
288.477	26029
288.535	19446
288.593	15182
288.651	12255
288.709	9741
288.767	9917
288.825	10291
288.883	7959
288.941	8305
288.999	7160
289.057	7453
289.115	7687
289.173	8101
289.231	8685
289.289	9987
289.346	8967
289.404	9969
289.462	16658
289.520	18443
289.578	10013
289.636	6241
289.694	6280
289.751	5873
289.809	5194
289.867	6391
289.925	8836
289.983	10917
290.040	7233
290.098	5812
290.156	9204
290.214	10642
290.271	7885
290.329	5830
290.387	6186
290.444	5895
290.502	4828
290.560	5286
290.617	6950
290.675	6866
290.733	6773
290.790	8154
290.848	6400
290.906	8269
290.963	8567
291.021	7396
291.078	6721
291.136	8911
291.194	23345
291.251	54551
291.309	17874
291.366	7774
291.424	8207
291.481	9617
291.539	8835
291.596	7388
291.654	5584
291.711	5966
291.769	7158
291.826	18094
291.884	12369
291.941	6648
291.999	6825
292.056	8580
292.114	10968
292.171	6914
292.228	8147
292.286	10382
292.343	18430
292.401	25176
292.458	16363
292.515	10134
292.573	11811
292.630	12109
292.687	12168
292.745	10137
292.802	12921
292.859	31915
292.917	53321
292.974	34397
293.031	13132
293.089	8988
293.146	8465
293.203	8168
293.260	7531
293.318	10253
293.375	15368
293.432	9765
293.489	6973
293.546	6980
293.604	12892
293.661	30919
293.718	79065
293.775	45322
293.832	21987
293.889	17724
293.947	20112
294.004	14204
294.061	14766
294.118	25525
294.175	51748
294.232	65848
294.289	29415
294.346	15713
294.403	13336
294.460	13356
294.517	10845
294.574	8696
294.631	9236
294.688	11412
294.745	27190
294.802	85514
294.859	102305
294.916	42750
294.973	25887
295.030	20086
295.087	17984
295.144	12601
295.201	10716
295.258	9777
295.315	13228
295.372	33129
295.429	64844
295.486	31824
295.542	19522
295.599	39445
295.656	73046
295.713	47841
295.770	61036
295.827	26808
295.883	14950
295.940	13659
295.997	23326
296.054	24340
296.111	12711
296.167	8682
296.224	7227
296.281	7403
296.338	7838
296.394	7830
296.451	11346
296.508	26973
296.564	55135
296.621	39659
296.678	67287
296.734	104412
296.791	41449
296.848	22627
296.904	23512
296.961	48191
297.018	69917
297.074	55896
297.131	22703
297.187	17089
297.244	24438
297.301	60460
297.357	116920
297.414	43700
297.470	19647
297.527	13294
297.583	11996
297.640	12445
297.696	10759
297.753	8529
297.809	7113
297.866	5919
297.922	7530
297.979	7161
298.035	9846
298.092	15266
298.148	37886
298.204	41990
298.261	21514
298.317	32638
298.374	83938
298.430	52598
298.486	25716
298.543	20623
298.599	16633
298.656	17638
298.712	29665
298.768	73226
298.824	57292
298.881	19996
298.937	12043
298.993	12833
299.050	15630
299.106	13650
299.162	10493
299.218	11864
299.275	10347
299.331	11920
299.387	21135
299.443	68742
299.500	79674
299.556	32634
299.612	16980
299.668	16208
299.724	18230
299.780	19037
299.837	14255
299.893	19806
299.949	60876
300.005	78679
300.061	62018
300.117	101545
300.173	54417
300.229	25389
300.285	29216
300.341	37385
300.397	21144
300.453	13500
300.510	11117
300.566	12343
300.622	15439
300.678	34249
300.734	69098
300.790	61221
300.845	75860
300.901	48362
300.957	66436
301.013	56511
301.069	23569
301.125	17396
301.181	19315
301.237	13684
301.293	10926
301.349	8631
301.405	8274
301.461	7699
301.516	10099
301.572	10958
301.628	22689
301.684	21784
301.740	27714
301.796	46229
301.851	31427
301.907	51674
301.963	57263
302.019	74648
302.074	187705
302.130	194338
302.186	90161
302.242	38445
302.297	26691
302.353	26464
302.409	45772
302.464	42649
302.520	34084
302.576	73718
302.631	90354
302.687	54045
302.743	24752
302.798	14692
302.854	12732
302.910	12615
302.965	16670
303.021	29386
303.076	29489
303.132	34950
303.187	42920
303.243	22821
303.299	12719
303.354	10199
303.410	9687
303.465	8994
303.521	8657
303.576	9551
303.632	13295
303.687	21682
303.743	60886
303.798	56538
303.853	24001
303.909	14625
303.964	14094
304.020	19782
304.075	31919
304.130	27389
304.186	49676
304.241	52776
304.297	42044
304.352	23782
304.358	22866
304.407	15435
304.449	14704
304.463	14471
304.518	14710
304.539	14392
304.573	13896
304.629	14410
304.630	14539
304.684	21019
304.720	37929
304.739	46329
304.794	74409
304.811	63921
304.850	38758
304.902	19612
304.905	18401
304.960	14160
304.992	13610
305.015	13229
305.071	13606
305.083	13121
305.126	11263
305.173	9073
305.181	8742
305.236	7661
305.264	8648
305.292	9681
305.347	11711
305.354	11919
305.402	13304
305.445	13400
305.457	13400
305.512	16602
305.535	17359
305.567	18347
305.622	19216
305.626	19688
305.678	32133
305.716	58342
305.733	67240
305.788	82602
305.807	71537
305.843	52729
305.897	63137
305.898	63210
305.953	65878
305.988	44763
306.008	33267
306.063	22755
306.078	20671
306.118	15939
306.168	11741
306.173	11402
306.228	10017
306.259	9520
306.283	9324
306.338	9116
306.349	9272
306.393	9839
306.440	11259
306.448	11513
306.503	13094
306.530	14430
306.558	19465
306.613	41655
306.620	44988
306.668	62780
306.711	73240
306.723	73393
306.778	59434
306.801	45738
306.833	30496
306.888	16288
306.892	15777
306.943	12069
306.982	11132
306.997	11009
307.052	10551
307.072	10880
307.107	12874
307.162	17887
307.163	17969
307.217	27990
307.253	34628
307.272	35711
307.327	37930
307.343	34841
307.381	28039
307.434	23995
307.436	24625
307.491	47891
307.524	70345
307.546	74922
307.600	69986
307.614	61770
307.655	37853
307.704	20617
307.710	20166
307.765	24873
307.795	31119
307.819	37936
307.874	64005
307.885	64693
307.929	49782
307.975	31231
307.984	30707
308.038	38305
308.065	46603
308.093	76587
308.148	153522
308.156	171111
308.202	259245
308.246	320204
308.257	314678
308.312	181964
308.336	132170
308.366	101418
308.421	68536
308.426	65257
308.475	42003
308.517	29536
308.530	27354
308.585	23869
308.607	22729
308.639	23410
308.694	27861
308.697	28203
308.748	52812
308.787	80552
308.803	79901
308.857	60829
308.877	50129
308.912	40497
308.967	34582
308.967	34561
309.021	45258
309.058	56314
309.076	70112
309.130	120785
309.148	140968
309.185	231837
309.238	381380
309.239	382419
309.293	417605
309.328	393426
309.348	346517
309.402	183045
309.418	141784
309.457	100717
309.508	64373
309.511	63500
309.566	60171
309.598	61031
309.620	71081
309.674	103143
309.688	112109
309.729	109082
309.778	92223
309.783	90072
309.837	62738
309.868	49415
309.892	56328
309.946	78883
309.959	86725
310.001	109802
310.049	129578
310.055	125427
310.109	74828
310.139	46041
310.163	36812
310.218	24162
310.229	22163
310.272	18591
310.319	15423
310.326	15137
310.381	14013
310.409	13565
310.435	13345
310.489	12891
310.499	12935
310.543	13789
310.589	14340
310.598	14214
310.652	14147
310.679	13675
310.706	11761
310.760	7898
310.769	7315
310.814	6897
310.859	6844
310.868	6913
310.923	7324
310.948	7620
310.977	9091
311.031	11989
311.038	12419
311.085	11384
311.128	9769
311.139	9685
311.193	9738
311.218	9667
311.247	8842
311.301	7312
311.308	7129
311.356	7512
311.398	8030
311.410	7867
311.464	7011
311.488	6609
311.518	6786
311.572	7194
311.578	7261
311.626	10816
311.668	14056
311.680	14278
311.734	14917
311.758	15223
311.788	15229
311.842	15275
311.847	15265
311.896	19177
311.937	22701
311.950	22275
312.004	20262
312.027	19296
312.058	15914
312.112	9942
312.117	9357
312.165	9010
312.207	8749
312.297	14807
312.386	11436
312.476	11482
312.566	24371
312.656	11262
312.745	7552
312.835	8967
312.925	10260
313.015	10745
313.104	11914
313.194	6591
313.284	8051
313.374	12201
313.463	9068
313.553	7359
313.643	6378
313.732	5270
313.822	6558
313.912	8783
314.001	10074
314.091	11465
314.180	15958
314.270	13903
314.360	17652
314.449	13296
314.539	7748
314.628	7467
314.718	10142
314.808	15323
314.897	7848
314.987	8376
315.076	10733
315.166	16818
315.255	16490
315.345	14178
315.434	16115
315.524	14199
315.613	16367
315.703	20149
315.792	29085
315.881	81382
315.971	31262
316.060	32202
316.150	52667
316.239	55500
316.328	19151
316.418	9011
316.507	8551
316.597	13380
316.686	13004
316.775	24250
316.865	58317
316.954	12463
317.043	7142
317.133	8747
317.222	7132
317.311	7544
317.400	7459
317.490	14018
317.579	15683
317.668	12367
317.757	19470
317.847	43572
317.936	146563
318.025	59778
318.114	34007
318.203	22427
318.293	28175
318.382	53015
318.471	38685
318.560	52516
318.649	98477
318.738	22612
318.828	17279
318.917	18016
319.006	24124
319.095	62497
319.184	123937
319.273	70409
319.362	37660
319.451	16079
319.540	13741
319.629	32651
319.718	52484
319.807	24534
319.896	43398
319.985	150593
320.074	55073
320.163	18161
320.252	36161
320.341	24197
320.430	19958
320.519	27834
320.608	16376
320.697	12836
320.786	12877
320.875	17948
320.964	23534
321.053	37711
321.142	52989
321.230	55236
321.319	40703
321.408	95735
321.497	38958
321.586	39766
321.675	52467
321.764	49168
321.852	31593
321.941	54954
322.030	36135
322.119	39956
322.207	100874
322.296	80637
322.385	37765
322.474	41680
322.562	116719
322.651	59425
322.740	46803
322.829	67401
322.917	77538
323.006	40621
323.095	32773
323.183	27143
323.272	41682
323.361	69177
323.449	210694
323.538	69510
323.626	153012
323.715	91249
323.804	38019
323.892	143598
323.981	74033
324.069	24966
324.158	78784
324.246	71499
324.335	22897
324.424	34857
324.512	13836
324.601	20145
324.689	41909
324.778	78713
324.866	59217
324.954	15739
325.043	15440
325.131	33960
325.220	60675
325.308	72211
325.397	50231
325.485	28489
325.574	8657
325.662	8822
325.750	11055
325.839	9589
325.927	7864
326.015	13822
326.104	26134
326.192	38449
326.280	9727
326.369	9930
326.457	14593
326.545	28889
326.634	11654
326.722	6498
326.810	8524
326.898	7975
326.987	9527
327.075	28874
327.163	33058
327.251	18276
327.340	27333
327.428	37949
327.516	9652
327.604	10124
327.692	10676
327.781	13977
327.869	27890
327.957	16576
328.045	13047
328.133	8622
328.221	13167
328.309	10677
328.397	8100
328.485	11809
328.574	18444
328.662	60532
328.750	37981
328.838	16310
328.926	8533
329.014	8019
329.102	13417
329.190	37008
329.278	22773
329.366	5960
329.454	5992
329.542	6454
329.630	6317
329.718	7044
329.806	10350
329.893	9695
329.981	10410
330.069	16263
330.157	55803
330.245	145543
330.333	73990
330.421	18013
330.509	21283
330.597	73447
330.684	46972
330.772	17945
330.860	24601
330.948	31277
331.036	12867
331.123	5134
331.211	6618
331.299	11082
331.387	26154
331.475	47118
331.562	15263
331.650	7389
331.738	10038
331.825	17259
331.913	7222
332.001	6692
332.089	12544
332.176	31598
332.264	77599
332.352	56143
332.439	16060
332.527	10492
332.614	10463
332.702	15201
332.790	11532
332.877	35042
332.965	71534
333.052	18164
333.140	18137
333.228	45484
333.315	12670
333.403	12697
333.490	44503
333.578	37486
333.665	48080
333.753	23129
333.840	9531
333.928	14799
334.015	45973
334.103	61433
334.190	168671
334.278	41322
334.365	18884
334.452	13458
334.540	10644
334.627	16200
334.715	25094
334.802	49374
334.889	256211
334.977	227763
335.064	28469
335.151	13547
335.239	13748
335.326	20579
335.413	76039
335.501	97069
335.588	16371
335.675	11541
335.762	15169
335.850	26430
335.937	21684
336.024	58873
336.111	246388
336.199	91086
336.286	18237
336.373	10172
336.460	7510
336.547	8009
336.635	11584
336.722	10293
336.809	9687
336.896	17116
336.983	52101
337.070	120641
337.157	159409
337.245	159937
337.332	109860
337.419	15018
337.506	9644
337.593	13163
337.680	40582
337.767	114678
337.854	35429
337.941	41595
338.028	59556
338.115	19805
338.202	22066
338.289	46947
338.376	168478
338.463	48751
338.550	69764
338.637	69226
338.724	33668
338.811	54433
338.898	11470
338.984	8799
339.071	11321
339.158	13715
339.245	35957
339.332	22216
339.419	36533
339.506	33932
339.593	6190
339.679	6995
339.766	6118
339.853	11636
339.940	25944
340.027	8911
340.113	8507
340.200	13700
340.287	9351
340.374	13538
340.460	22721
340.547	9867
340.634	19423
340.720	68562
340.807	37296
340.894	8336
340.980	8826
341.067	7956
341.154	10016
341.240	15066
341.327	33638
341.414	10850
341.500	9776
341.587	8481
341.674	8050
341.760	23027
341.847	26221
341.933	9056
342.020	3665
342.106	5063
342.193	9224
342.279	17834
342.366	13109
342.452	23643
342.539	13265
342.625	30786
342.712	72983
342.798	30222
342.885	11974
342.971	4839
343.058	4866
343.144	5287
343.230	5084
343.317	6533
343.403	6048
343.490	4866
343.576	4218
343.662	6816
343.749	8516
343.835	12173
343.921	22514
344.008	109589
344.094	229574
344.180	52576
344.267	24796
344.353	74158
344.439	82627
344.525	37544
344.612	12420
344.698	11218
344.784	8644
344.870	6045
344.957	6554
345.043	14350
345.129	10273
345.215	22278
345.301	11329
345.387	7293
345.474	4701
345.560	6343
345.646	9664
345.732	7832
345.818	8352
345.904	8106
345.990	10533
346.076	11917
346.162	24303
346.249	9955
346.335	6767
346.421	8307
346.507	30898
346.593	96702
346.679	22808
346.765	9650
346.851	7300
346.937	7771
347.023	7132
347.108	8809
347.194	7957
347.280	7041
347.366	9505
347.452	32731
347.538	117169
347.624	87676
347.710	76135
347.796	14165
347.882	8115
347.967	7156
348.053	11107
348.139	7619
348.225	6292
348.311	7457
348.397	5561
348.482	9098
348.568	10519
348.654	5439
348.740	7248
348.825	8588
348.911	15684
348.997	57278
349.083	105008
349.168	20072
349.254	7940
349.340	7357
349.425	5938
349.511	10834
349.597	13128
349.682	25235
349.768	73375
349.854	32470
349.939	8476
350.025	6339
350.110	4824
350.196	4791
350.282	4068
350.367	5599
350.453	17620
350.538	18475
350.624	11496
350.709	10034
350.795	5945
350.880	6605
350.966	8876
351.051	15847
351.137	12552
351.222	8202
351.308	25222
351.393	66483
351.479	16091
351.564	6558
351.649	6787
351.735	6501
351.820	4937
351.906	6259
351.991	11220
352.076	45458
352.162	62003
352.247	13634
352.332	9493
352.418	17672
352.503	23929
352.588	97535
352.673	77802
352.759	18526
352.844	9498
352.929	10891
353.014	14929
353.100	10289
353.185	18047
353.270	29152
353.355	27451
353.441	9551
353.526	11504
353.611	26337
353.696	28735
353.781	15987
353.866	7267
353.952	9154
354.037	25232
354.122	55451
354.207	49405
354.292	17418
354.377	8269
354.462	7547
354.547	10680
354.632	10554
354.717	16647
354.802	22336
354.887	9085
354.972	5434
355.057	4238
355.142	5066
355.227	9320
355.312	16069
355.397	38612
355.482	89997
355.567	41526
355.652	31114
355.737	31904
355.822	90220
355.907	67043
355.991	12347
356.076	5887
356.161	6237
356.246	5490
356.331	7985
356.416	22066
356.501	133122
356.585	128472
356.670	21339
356.755	13899
356.840	23316
356.924	102540
357.009	328056
357.094	118474
357.179	30638
357.263	19756
357.348	20608
357.433	19641
357.517	17301
357.602	13967
357.687	11645
357.771	13431
357.856	18972
357.941	19083
358.025	74515
358.110	290883
358.195	130331
358.279	23399
358.364	19207
358.448	67843
358.533	169862
358.617	121755
358.702	118827
358.787	43223
358.871	27636
358.956	20934
359.040	7849
359.125	5776
359.209	6395
359.294	10075
359.378	14634
359.462	19069
359.547	13137
359.631	9878
359.716	6736
359.800	7598
359.885	14131
359.969	8989
360.053	7867
360.138	9154
360.222	14415
360.306	26402
360.391	19730
360.475	23436
360.559	55013
360.644	68783
360.728	50478
360.812	78291
360.896	192941
360.981	88848
361.065	50428
361.149	13822
361.233	13569
361.318	11254
361.402	13535
361.486	11314
361.570	8342
361.654	13021
361.739	35298
361.823	134957
361.907	186768
361.991	33919
362.075	24139
362.159	52429
362.243	34989
362.327	29651
362.411	33656
362.495	20985
362.580	11459
362.664	7878
362.748	7911
362.832	9568
362.916	15974
363.000	53127
363.084	160826
363.168	222510
363.252	54974
363.336	22789
363.420	31227
363.503	109094
363.587	116399
363.671	23277
363.755	17928
363.839	24853
363.923	12123
364.007	27705
364.091	32371
364.175	45262
364.258	162200
364.342	104430
364.426	98421
364.510	54172
364.594	33815
364.677	42761
364.761	172789
364.845	113278
364.929	46565
365.013	37308
365.096	31820
365.180	37181
365.264	47684
365.347	159132
365.431	66467
365.515	20278
365.598	10583
365.682	10014
365.766	19717
365.849	24731
365.933	14319
366.017	19093
366.100	13038
366.184	6579
366.267	8784
366.351	7702
366.435	6370
366.518	5338
366.602	5524
366.685	6387
366.769	9649
366.852	18479
366.936	32215
367.019	17562
367.103	14791
367.186	27012
367.270	9135
367.353	5040
367.436	6928
367.520	6139
367.603	10106
367.687	16880
367.770	32000
367.853	17742
367.937	53112
368.020	79220
368.104	21604
368.187	24438
368.270	32494
368.353	28188
368.437	48089
368.520	120633
368.603	63990
368.687	67835
368.770	117091
368.853	29443
368.936	31917
369.020	30669
369.103	12320
369.186	7471
369.269	9543
369.352	21404
369.436	30109
369.519	19508
369.602	9202
369.685	11170
369.768	11339
369.851	9144
369.934	6369
370.018	10906
370.101	27307
370.184	20296
370.267	14218
370.350	26495
370.433	40353
370.516	92586
370.599	111813
370.682	41115
370.765	68067
370.848	80522
370.931	143440
371.014	53344
371.097	12497
371.180	9236
371.263	6117
371.346	3735
371.429	5913
371.511	7305
371.594	17380
371.677	27470
371.760	29298
371.843	24935
371.926	107362
372.009	223387
372.091	71577
372.174	57966
372.257	121478
372.340	46068
372.423	42957
372.505	48746
372.588	21352
372.671	48629
372.754	143412
372.836	66905
372.919	54962
373.002	101182
373.085	31848
373.167	25094
373.250	63654
373.332	126956
373.415	166462
373.498	323015
373.580	118968
373.663	167457
373.746	202621
373.828	49109
373.911	24341
373.993	27926
374.076	103054
374.159	93733
374.241	44498
374.324	124022
374.406	77509
374.489	97910
374.571	257397
374.654	103415
374.736	56532
374.819	163140
374.901	235318
374.983	228384
375.066	41279
375.148	19642
375.231	82365
375.313	145343
375.395	54809
375.478	13263
375.560	10627
375.643	16039
375.725	57695
375.807	215277
375.890	185828
375.972	103744
376.054	55665
376.136	96980
376.219	37671
376.301	65822
376.383	183144
376.465	67024
376.548	52585
376.630	59923
376.712	160254
376.794	67968
376.877	10230
376.959	6874
377.041	9498
377.123	23226
377.205	25784
377.287	5986
377.369	6329
377.452	7212
377.534	6255
377.616	7598
377.698	7122
377.780	5121
377.862	7807
377.944	7600
378.026	4700
378.108	5295
378.190	5981
378.272	5713
378.354	4068
378.436	4679
378.518	14105
378.600	49483
378.682	41118
378.764	86324
378.846	62487
378.928	21004
379.010	27371
379.091	14604
379.173	8432
379.255	6424
379.337	12504
379.419	44037
379.501	119283
379.583	45406
379.664	13906
379.746	34214
379.828	86026
379.910	113344
379.991	93064
380.073	16973
380.155	12570
380.237	8946
380.318	6639
380.400	8225
380.482	22056
380.564	33567
380.645	32001
380.727	28960
380.809	17078
380.890	12933
380.972	8909
381.053	8211
381.135	11625
381.217	31305
381.298	88984
381.380	42942
381.461	38862
381.543	163819
381.624	186771
381.706	35734
381.787	20707
381.869	22525
381.951	72385
382.032	249544
382.113	151347
382.195	38435
382.276	26523
382.358	56168
382.439	138445
382.521	155232
382.602	230350
382.684	111904
382.765	220424
382.846	250549
382.928	366427
383.009	194812
383.090	149584
383.172	525279
383.253	729944
383.334	250361
383.416	232040
383.497	117102
383.578	66697
383.659	131942
383.741	462052
383.822	1042851
383.903	517341
383.984	190858
384.066	284702
384.147	171783
384.228	38737
384.309	31551
384.390	24159
384.471	16937
384.553	18799
384.634	27571
384.715	27618
384.796	13852
384.877	19968
384.958	78392
385.039	92683
385.120	31101
385.201	16930
385.282	21800
385.363	23269
385.444	18504
385.525	35583
385.606	109270
385.687	86192
385.768	25498
385.849	32468
385.930	118018
386.011	184332
386.092	49337
386.173	15025
386.254	12732
386.335	13339
386.416	15374
386.496	53158
386.577	83921
386.658	31894
386.739	20670
386.820	20568
386.901	15609
386.981	14097
387.062	10657
387.143	20991
387.224	83534
387.304	72924
387.385	27073
387.466	18349
387.547	24001
387.627	15219
387.708	32288
387.789	143799
387.869	162619
387.950	41376
388.031	10170
388.111	10427
388.192	30829
388.273	45149
388.353	24722
388.434	14445
388.514	29154
388.595	122200
388.676	155525
388.756	78268
388.837	81133
388.917	48825
388.998	10611
389.078	10928
389.159	9854
389.239	8764
389.320	17823
389.400	15449
389.480	33053
389.561	83807
389.641	38100
389.722	16627
389.802	26701
389.883	37645
389.963	97421
390.043	65118
390.124	25313
390.204	34325
390.284	98851
390.365	62593
390.445	82510
390.525	208619
390.605	170181
390.686	49159
390.766	17475
390.846	9732
390.927	7459
391.007	9172
391.087	11245
391.167	11280
391.247	9611
391.328	21451
391.408	29369
391.488	17945
391.568	7512
391.648	13240
391.728	18588
391.808	18532
391.888	19754
391.969	46873
392.049	72813
392.129	32135
392.209	39607
392.289	91749
392.369	50390
392.449	47670
392.529	29704
392.609	24386
392.689	31464
392.769	91378
392.849	76149
392.929	59910
393.009	132837
393.089	97967
393.169	88057
393.248	286893
393.328	972393
393.408	971942
393.488	272339
393.568	81415
393.648	39662
393.728	25594
393.807	19433
393.887	17506
393.967	15368
394.047	18455
394.127	22639
394.206	37012
394.286	126899
394.366	502287
394.446	504418
394.525	121257
394.605	32885
394.685	29655
394.764	66687
394.844	111391
394.924	74209
395.003	24571
395.083	16472
395.163	15142
395.242	13852
395.322	14567
395.402	9906
395.481	16752
395.561	48302
395.640	124483
395.720	89032
395.799	129479
395.879	96435
395.958	55177
396.038	186920
396.117	658303
396.197	675832
396.276	211067
396.356	74548
396.435	57580
396.515	37988
396.594	45351
396.673	83708
396.753	307613
396.832	880525
396.912	636872
396.991	160723
397.070	44578
397.150	25672
397.229	18019
397.308	21693
397.388	33322
397.467	18270
397.546	10512
397.625	7814
397.705	14468
397.784	15231
397.863	8405
397.942	6299
398.022	9862
398.101	39641
398.180	111563
398.259	55369
398.338	15828
398.417	10510
398.497	8040
398.576	8946
398.655	7215
398.734	5258
398.813	7550
398.892	36206
398.971	120209
399.050	54533
399.129	7239
399.208	4697
399.287	5508
399.366	4280
399.445	5285
399.524	6029
399.603	5540
399.682	15037
399.761	42652
399.840	125596
399.919	88765
399.998	12227
400.077	4642
400.156	3939
400.235	8112
400.313	5692
400.392	9832
400.471	46348
400.550	73679
400.629	18963
400.708	9846
400.786	9613
400.865	28008
400.944	29480
401.023	13944
401.102	3319
401.180	3689
401.259	4843
401.338	7511
401.416	10112
401.495	9122
401.574	7826
401.652	6225
401.731	9897
401.810	8753
401.888	3692
401.967	2746
402.046	4860
402.124	9506
402.203	13004
402.281	7382
402.360	10957
402.438	35191
402.517	23632
402.596	8444
402.674	7642
402.753	4974
402.831	4677
402.910	7896
402.988	32465
403.066	101185
403.145	52439
403.223	32688
403.302	80871
403.380	58200
403.459	57527
403.537	23200
403.615	8381
403.694	2468
403.772	3159
403.850	3067
403.929	2842
404.007	3673
404.085	12531
404.164	14496
404.242	4746
404.320	6260
404.398	11765
404.477	43401
404.555	200279
404.633	160439
404.711	21959
404.789	6941
404.868	6115
404.946	4566
405.024	2402
405.102	3650
405.180	2339
405.258	2728
405.336	3797
405.415	4636
405.493	13629
405.571	12669
405.649	3426
405.727	4333
405.805	8034
405.883	7393
405.961	8675
406.039	10786
406.117	5333
406.195	10828
406.273	51969
406.351	179751
406.429	97540
406.507	18419
406.585	6688
406.663	7802
406.740	10481
406.818	9142
406.896	4445
406.974	5527
407.052	16941
407.130	107188
407.208	140907
407.285	26857
407.363	5598
407.441	5457
407.519	3657
407.596	7338
407.674	18234
407.752	48721
407.830	50398
407.907	22900
407.985	8165
408.063	4623
408.141	2978
408.218	10703
408.296	10047
408.373	7241
408.451	7318
408.529	7077
408.606	2885
408.684	2541
408.762	1403
408.839	1984
408.917	1254
408.994	2487
409.072	2996
409.149	2581
409.227	7302
409.304	7373
409.382	4715
409.459	5551
409.537	8930
409.614	9573
409.692	5218
409.769	5920
409.846	9358
409.924	13993
410.001	9664
410.079	6808
410.156	4401
410.233	5449
410.311	4986
410.388	3308
410.465	5898
410.543	5198
410.620	3813
410.697	5271
410.775	6730
410.852	2714
410.929	7541
411.006	9578
411.083	5756
411.161	14474
411.238	15937
411.315	8239
411.392	3909
411.469	7991
411.547	7849
411.624	3628
411.701	4198
411.778	6955
411.855	15766
411.932	7966
412.009	3826
412.086	4328
412.163	5191
412.240	6483
412.317	8707
412.394	8438
412.471	2788
412.548	2702
412.625	4002
412.702	6213
412.779	13420
412.856	8934
412.933	2709
413.010	4054
413.087	7959
413.164	45547
413.241	60076
413.318	14480
413.395	9293
413.471	15223
413.548	5460
413.625	4113
413.702	6539
413.779	4809
413.855	1403
413.932	1608
414.009	1563
414.086	1624
414.162	2847
414.239	8200
414.316	44658
414.393	94526
414.469	30048
414.546	4209
414.623	2164
414.699	3339
414.776	4243
414.853	3281
414.929	3690
415.006	3484
415.082	5384
415.159	4630
415.236	3516
415.312	4699
415.389	10878
415.465	14442
415.542	7192
415.618	4228
415.695	9244
415.771	6242
415.848	5425
415.924	5336
416.000	3712
416.077	3228
416.153	964
416.230	650
416.306	1104
416.383	2604
416.459	2514
416.535	1522
416.612	1645
416.688	1958
416.764	2837
416.841	2987
416.917	3016
416.993	2762
417.069	5242
417.146	6835
417.222	8513
417.298	5709
417.374	3206
417.451	4723
417.527	6087
417.603	7369
417.679	4634
417.755	3914
417.831	1598
417.908	2079
417.984	1050
418.060	2661
418.136	11472
418.212	16507
418.288	6007
418.364	3153
418.440	3907
418.516	8125
418.592	11586
418.668	21892
418.744	31013
418.820	21470
418.896	5445
418.972	1788
419.048	3695
419.124	13661
419.200	10204
419.276	2422
419.352	27
419.428	1700
419.504	3795
419.579	6080
419.655	4390
419.731	5140
419.807	20193
419.883	38076
419.959	24652
420.034	6954
420.110	14390
420.186	58493
420.262	42059
420.337	7948
420.413	5592
420.489	3349
420.565	1943
420.640	2734
420.716	2621
420.792	1585
420.867	2810
420.943	3482
421.019	8004
421.094	7037
421.170	2445
421.245	2516
421.321	2754
421.397	4250
421.472	9139
421.548	24639
421.623	16080
421.699	6598
421.774	6642
421.850	6370
421.925	12287
422.001	10653
422.076	7269
422.152	9399
422.227	16057
422.302	18213
422.378	24204
422.453	44969
422.529	109786
422.604	316918
422.679	486375
422.755	315866
422.830	111097
422.905	42325
422.981	22485
423.056	14562
423.131	11717
423.207	9212
423.282	10160
423.357	20940
423.432	14623
423.508	13933
423.583	32655
423.658	22450
423.733	7627
423.808	9287
423.883	10690
423.959	9229
424.034	6581
424.109	5027
424.184	3049
424.259	2925
424.334	2680
424.409	1667
424.484	2563
424.559	3933
424.634	4031
424.709	7516
424.784	8272
424.859	5364
424.934	9114
425.009	42246
425.084	67493
425.159	24092
425.234	4443
425.309	2052
425.384	3382
425.459	3595
425.534	2948
425.609	4333
425.683	2872
425.758	1830
425.833	3704
425.908	7115
425.983	28543
426.058	75019
426.132	29880
426.207	7206
426.282	10500
426.357	10238
426.431	3927
426.506	3240
426.581	3594
426.655	4543
426.730	2479
426.805	2849
426.879	3583
426.954	4534
427.029	12256
427.103	67627
427.178	153982
427.253	61560
427.327	8561
427.402	8497
427.476	15799
427.551	6566
427.625	4663
427.700	5050
427.774	3793
427.849	5436
427.923	2439
427.998	3003
428.072	4149
428.147	11943
428.221	46984
428.296	117609
428.370	53645
428.444	10704
428.519	13716
428.593	28224
428.667	23261
428.742	28827
428.816	26616
428.890	81075
428.965	107952
429.039	37554
429.113	31161
429.188	11800
429.262	3794
429.336	11088
429.410	33707
429.485	21834
429.559	22787
429.633	17661
429.707	5463
429.781	19147
429.855	97135
429.930	135227
430.004	84120
430.078	126825
430.152	104849
430.226	153462
430.300	138545
430.374	22580
430.448	10630
430.522	42583
430.596	117907
430.670	68963
430.744	147756
430.818	204213
430.892	41326
430.966	8478
431.040	3645
431.114	1685
431.188	2201
431.262	3547
431.336	3291
431.410	12867
431.484	36160
431.557	22115
431.631	3913
431.705	3955
431.779	23406
431.853	98875
431.927	63708
432.000	7910
432.074	3954
432.148	5703
432.222	5053
432.295	3024
432.369	3525
432.443	9207
432.516	62831
432.590	150967
432.664	53448
432.737	7032
432.811	2239
432.885	1419
432.958	2088
433.032	1607
433.106	433
433.179	1195
433.253	1838
433.326	1164
433.400	533
433.473	927
433.547	-7
433.620	2555
433.694	7295
433.767	8084
433.841	2879
433.914	1103
433.988	528
434.061	2061
434.134	2019
434.208	1023
434.281	57
434.355	708
434.428	862
434.501	1864
434.575	1730
434.648	2433
434.721	628
434.795	1248
434.868	163
434.941	546
435.014	336
435.088	1108
435.161	3187
435.234	7885
435.307	10180
435.381	4562
435.454	3352
435.527	3965
435.600	4920
435.673	3889
435.746	2478
435.819	2606
435.892	1632
435.966	1236
436.039	1667
436.112	2168
436.185	452
436.258	674
436.331	-846
436.404	469
436.477	-68
436.550	-359
436.623	934
436.696	616
436.769	2089
436.842	2454
436.915	1968
436.987	4948
437.060	1665
437.133	950
437.206	1152
437.279	2226
437.352	837
437.425	1537
437.498	2609
437.570	7967
437.643	7587
437.716	2243
437.789	2052
437.861	8168
437.934	23172
438.007	10372
438.080	1832
438.152	4010
438.225	10719
438.298	80323
438.370	202710
438.443	81285
438.516	22306
438.588	4966
438.661	1645
438.734	2077
438.806	3404
438.879	4492
438.951	6185
439.024	11994
439.096	3859
439.169	2367
439.241	1168
439.314	1533
439.386	5193
439.459	9822
439.531	15289
439.604	6331
439.676	1276
439.749	939
439.821	541
439.893	2122
439.966	1646
440.038	4209
440.110	5251
440.183	2587
440.255	1374
440.327	6162
440.400	35116
440.472	137176
440.544	86214
440.617	12301
440.689	9229
440.761	12873
440.833	19614
440.905	12155
440.978	2504
441.050	1065
441.122	2294
441.194	559
441.266	1228
441.338	1509
441.411	6646
441.483	45849
441.555	65943
441.627	15083
441.699	8701
441.771	8368
441.843	3457
441.915	1278
441.987	1795
442.059	1565
442.131	3670
442.203	6496
442.275	9391
442.347	7092
442.419	9585
442.491	47303
442.563	108825
442.635	51230
442.706	38233
442.778	28006
442.850	6525
442.922	2768
442.994	4255
443.066	8800
443.137	6388
443.209	4530
443.281	6746
443.353	17238
443.425	64648
443.496	209082
443.568	189811
443.640	68115
443.711	15094
443.783	6926
443.855	4720
443.926	2725
443.998	3715
444.070	5803
444.141	5075
444.213	9624
444.285	10452
444.356	10338
444.428	8435
444.499	3980
444.571	1107
444.642	2850
444.714	3640
444.785	8636
444.857	12366
444.928	26349
445.000	15512
445.071	19125
445.143	21389
445.214	12554
445.285	19618
445.357	56416
445.428	154917
445.500	324450
445.571	203607
445.642	99012
445.714	47652
445.785	45142
445.856	15963
445.928	12594
445.999	10323
446.070	7873
446.141	7793
446.213	10762
446.284	6398
446.355	6862
446.426	3920
446.497	4244
446.569	8130
446.640	14434
446.711	10000
446.782	3591
446.853	7537
446.924	8420
446.995	5005
447.066	4861
447.138	9831
447.209	5260
447.280	1128
447.351	470
447.422	1019
447.493	5069
447.564	5855
447.635	9107
447.706	3917
447.777	1578
447.847	837
447.918	1942
447.989	5150
448.060	8177
448.131	17764
448.202	16635
448.273	11804
448.344	4978
448.414	2605
448.485	2337
448.556	1990
448.627	1359
448.698	1135
448.768	1392
448.839	2469
448.910	8570
448.981	9099
449.051	3668
449.122	1717
449.193	639
449.263	1660
449.334	2110
449.405	3358
449.475	12126
449.546	8928
449.616	10665
449.687	8378
449.758	3376
449.828	1883
449.899	2173
449.969	1094
450.040	2246
450.110	4816
450.181	5657
450.251	1914
450.322	1913
450.392	2312
450.463	2794
450.533	1345
450.604	2226
450.674	2041
450.744	2043
450.815	1620
450.885	2424
450.955	1891
451.026	1629
451.096	1066
451.166	3518
451.237	11988
451.307	28907
451.377	12548
451.447	3198
451.518	2292
451.588	2374
451.658	2363
451.728	6544
451.799	30376
451.869	33740
451.939	8641
452.009	2233
452.079	1564
452.149	3257
452.219	8303
452.289	34499
452.360	25926
452.430	5222
452.500	4538
452.570	5762
452.640	8830
452.710	25014
452.780	37381
452.850	27376
452.920	24530
452.990	9989
453.060	5157
453.129	7891
453.199	10525
453.269	40343
453.339	83055
453.409	125814
453.479	126997
453.549	181264
453.619	191808
453.688	78465
453.758	13142
453.828	5190
453.898	2839
453.968	3308
454.037	2015
454.087	2851
454.107	3179
454.168	1146
454.177	825
454.247	1660
454.249	1677
454.316	1752
454.330	2495
454.386	5230
454.411	9740
454.456	16772
454.492	21649
454.525	26027
454.574	14250
454.595	9162
454.655	3925
454.665	3145
454.734	4398
454.736	4619
454.804	10871
454.817	15346
454.873	32363
454.898	34318
454.943	37282
454.979	26175
455.013	16485
455.060	9504
455.082	6877
455.141	7913
455.152	7790
455.221	22793
455.222	23118
455.291	39011
455.303	34833
455.360	16758
455.384	14173
455.430	10377
455.465	12313
455.499	13363
455.546	24737
455.569	29262
455.627	20570
455.638	19198
455.707	5107
455.708	5112
455.777	2993
455.789	3055
455.846	3184
455.869	2963
455.916	2589
455.950	3139
455.985	3562
456.031	3602
456.054	3613
456.112	2892
456.124	2785
456.193	2252
456.193	2225
456.262	3774
456.274	4200
456.332	5822
456.355	6374
456.401	6910
456.436	5541
456.470	4241
456.516	2482
456.540	1744
456.597	2194
456.609	2244
456.678	2191
456.678	2176
456.747	2135
456.759	2049
456.817	1557
456.840	1713
456.886	1982
456.920	1860
456.955	1879
457.001	2281
457.024	2739
457.082	4655
457.093	4947
457.162	8384
457.163	8423
457.232	10218
457.243	9668
457.301	6176
457.324	4520
457.370	2348
457.405	2517
457.439	2687
457.485	2643
457.508	2674
457.566	3957
457.577	4225
457.646	5210
457.647	5240
457.715	7988
457.727	8533
457.784	11757
457.808	14902
457.853	19163
457.889	21695
457.922	21371
457.969	15576
457.991	15978
458.050	19828
458.060	20337
458.129	31598
458.130	31902
458.198	31380
458.211	28715
458.267	17380
458.292	12699
458.336	8911
458.372	8109
458.405	9629
458.453	13895
458.474	17557
458.533	31418
458.543	32557
458.611	52060
458.614	52355
458.680	35543
458.694	28895
458.749	14455
458.775	10791
458.818	6980
458.855	6032
458.887	5221
458.936	4316
458.955	4108
459.016	3755
459.024	3726
459.093	5147
459.097	5155
459.162	4954
459.177	5254
459.230	6925
459.257	7447
459.299	7317
459.338	7451
459.368	7906
459.418	8930
459.437	8664
459.499	6592
459.505	6504
459.574	5207
459.579	5158
459.643	4773
459.659	4730
459.711	4567
459.740	4923
459.780	5881
459.820	6274
459.849	6359
459.900	7063
459.917	7171
459.981	7393
459.986	7335
460.054	6185
460.061	6069
460.123	6561
460.141	6853
460.191	8545
460.222	9703
460.260	10591
460.302	12508
460.328	12262
460.382	9837
460.397	9581
460.462	7845
460.465	7873
460.534	9822
460.543	10071
460.602	22807
460.623	27975
460.671	41676
460.703	55561
460.739	53829
460.783	45146
460.808	38300
460.864	11578
460.876	9432
460.944	6367
460.945	6324
461.013	6369
461.024	6286
461.081	6382
461.104	6753
461.150	6861
461.184	6511
461.218	6318
461.264	5888
461.286	5735
461.345	5288
461.355	5232
461.423	5800
461.425	5800
461.491	6298
461.505	6565
461.559	12733
461.585	15514
461.628	25327
461.665	35860
461.696	40511
461.745	52909
461.764	48062
461.825	17330
461.832	16561
461.901	8651
461.905	8577
461.969	7478
461.985	7232
462.037	6921
462.065	6714
462.105	7532
462.145	8376
462.173	12139
462.225	19968
462.241	22063
462.305	32850
462.310	32119
462.378	20420
462.385	18181
462.446	9854
462.465	8192
462.514	7152
462.545	7382
462.582	7388
462.625	7140
462.650	7071
462.705	6875
462.718	7004
462.785	7962
462.786	8029
462.854	11741
462.865	12519
462.922	15746
462.945	17186
462.990	13636
463.025	9286
463.058	8103
463.104	6707
463.126	6204
463.184	5908
463.194	6104
463.262	6770
463.264	6828
463.330	7659
463.344	7706
463.398	8355
463.424	8608
463.466	8376
463.504	8620
463.533	9078
463.583	9140
463.601	9388
463.663	10300
463.669	10513
463.737	13664
463.743	13946
463.805	23070
463.823	25657
463.873	37197
463.903	44810
463.940	47831
463.982	52739
464.008	43768
464.062	19331
464.076	17631
464.142	8017
464.144	7904
464.211	6873
464.221	6828
464.279	7731
464.301	8030
464.347	9271
464.381	10414
464.414	11327
464.461	12382
464.482	12747
464.540	14219
464.550	13852
464.617	10231
464.620	10095
464.685	10974
464.699	11250
464.753	13493
464.779	14614
464.820	15151
464.859	15569
464.888	15707
464.938	15734
464.956	15962
465.018	17160
465.023	16876
465.091	12467
465.098	11961
465.158	11548
465.177	11587
465.226	11701
465.257	11683
465.293	12553
465.336	13526
465.361	14449
465.416	16486
465.428	17906
465.495	25904
465.496	26047
465.563	42458
465.575	45414
465.631	56718
465.654	61886
465.698	40080
465.734	19959
465.765	16818
465.813	12096
465.833	11796
465.893	12388
465.900	12430
465.968	12578
465.972	12570
466.035	12447
466.052	12391
466.102	12570
466.131	12680
466.170	13261
466.210	13792
466.237	14071
466.290	14590
466.304	14831
466.369	15776
466.372	15852
466.439	17364
466.449	17563
466.506	19288
466.528	19916
466.573	27482
466.607	33078
466.641	47633
466.687	67869
466.708	75249
466.766	95945
466.775	89090
466.842	35945
466.845	33359
466.909	24035
466.925	21945
466.977	20112
467.004	19246
467.044	20230
467.083	21189
467.111	21782
467.163	22769
467.178	23323
467.242	25504
467.245	25445
467.312	23394
467.321	23089
467.379	22485
467.400	22203
467.446	24087
467.480	25380
467.559	22344
467.638	18618
467.717	18578
467.796	21447
467.875	23427
467.955	22104
468.034	33452
468.113	76359
468.192	112243
468.271	31591
468.350	18607
468.429	21635
468.508	21791
468.588	18395
468.667	17891
468.746	19425
468.825	18768
468.904	16049
468.983	18474
469.062	30523
469.141	36554
469.220	16912
469.299	15137
469.378	16988
469.456	19594
469.535	17857
469.614	17335
469.693	18422
469.772	24275
469.851	33432
469.930	24231
470.009	16979
470.088	17226
470.166	20256
470.245	30406
470.324	37864
470.403	25324
470.482	18610
470.560	15759
470.639	18420
470.718	20587
470.797	18053
470.875	20419
470.954	28672
471.033	30672
471.111	14826
471.190	13462
471.269	12318
471.347	13915
471.426	14250
471.505	16262
471.583	17305
471.662	15421
471.740	14076
471.819	15150
471.898	14431
471.976	13117
472.055	13432
472.133	16356
472.212	21550
472.290	22939
472.369	14702
472.447	13549
472.526	12094
472.604	13865
472.683	14409
472.761	16369
472.839	14385
472.918	14094
472.996	14176
473.075	16709
473.153	16548
473.231	14416
473.310	16228
473.388	16499
473.466	15148
473.545	17355
473.623	22674
473.701	22525
473.780	14328
473.858	13175
473.936	17251
474.014	13531
474.093	16492
474.171	25417
474.249	34199
474.327	24103
474.405	12890
474.484	12705
474.562	11822
474.640	13293
474.718	15061
474.796	14676
474.874	14402
474.952	11928
475.030	13123
475.108	14601
475.187	16136
475.265	17725
475.343	24159
475.421	26707
475.499	14607
475.577	13739
475.655	19168
475.733	40665
475.811	73329
475.889	64816
475.966	47266
476.044	14783
476.122	18641
476.200	23986
476.278	19525
476.356	13253
476.434	14672
476.512	17950
476.590	23141
476.667	19819
476.745	12665
476.823	13431
476.901	13436
476.979	14088
477.056	13606
477.134	13979
477.212	15048
477.290	14808
477.367	11897
477.445	11682
477.523	11960
477.601	12502
477.678	12721
477.756	16624
477.834	18241
477.911	11974
477.989	13434
478.066	12278
478.144	14622
478.222	17775
478.299	27224
478.377	26741
478.454	11909
478.532	10600
478.609	13283
478.687	13785
478.764	11205
478.842	13027
478.919	13622
478.997	13686
479.074	10544
479.152	14562
479.229	20034
479.307	13201
479.384	10573
479.461	10736
479.539	10893
479.616	14803
479.694	12564
479.771	13577
479.848	15322
479.926	19655
480.003	23142
480.080	12089
480.157	11734
480.235	10654
480.312	11354
480.389	13558
480.467	23915
480.544	30214
480.621	15025
480.698	14309
480.775	15313
480.853	16352
480.930	13170
481.007	12541
481.084	15495
481.161	17436
481.238	16446
481.315	11616
481.392	10932
481.470	11746
481.547	12405
481.624	12063
481.701	11819
481.778	12055
481.855	14713
481.932	23094
482.009	39223
482.086	29452
482.163	12921
482.240	19808
482.317	34621
482.393	28508
482.470	13237
482.547	13131
482.624	11745
482.701	13094
482.778	13479
482.855	9850
482.932	10585
483.009	10279
483.085	12178
483.162	16196
483.239	15155
483.316	11957
483.393	12119
483.469	11866
483.546	14182
483.623	15729
483.699	12698
483.776	12811
483.853	15757
483.930	21903
484.006	60897
484.083	104391
484.160	48861
484.236	56096
484.313	45355
484.389	33661
484.466	30360
484.543	28863
484.619	29775
484.696	32078
484.772	34308
484.849	36305
484.925	28306
485.002	26741
485.078	30125
485.155	30891
485.231	27147
485.308	25458
485.384	26494
485.461	33999
485.537	62032
485.614	76499
485.690	30616
485.766	25762
485.843	27958
485.919	38491
485.995	43540
486.072	24860
486.148	22862
486.224	23844
486.301	25006
486.377	30290
486.453	32311
486.530	28274
486.606	34564
486.682	38873
486.758	52322
486.835	63171
486.911	48844
486.987	78591
487.063	88065
487.139	103734
487.215	71776
487.292	35651
487.368	28259
487.444	31672
487.520	41427
487.596	36821
487.672	50238
487.748	120336
487.824	181433
487.900	71190
487.976	32546
488.052	32136
488.128	40619
488.204	33674
488.280	27930
488.356	32674
488.432	72256
488.508	115719
488.584	41651
488.660	25757
488.736	24752
488.812	26594
488.888	33461
488.964	43044
489.039	94863
489.115	152586
489.191	97182
489.267	27540
489.343	25828
489.418	20741
489.494	20346
489.570	18992
489.646	22250
489.722	21389
489.797	22755
489.873	35342
489.949	84200
490.024	77677
490.100	21692
490.176	20617
490.251	26425
490.327	34861
490.403	22701
490.478	18569
490.554	15970
490.629	16846
490.705	17253
490.781	19815
490.856	19276
490.932	22387
491.007	23080
491.083	22141
491.158	20200
491.234	27896
491.309	62549
491.385	69401
491.460	21781
491.536	22314
491.611	19863
491.686	22474
491.762	30128
491.837	62213
491.913	107570
491.988	148415
492.063	194784
492.139	60130
492.214	34491
492.289	16453
492.365	16188
492.440	20443
492.515	21422
492.590	20082
492.666	15863
492.741	24277
492.816	38023
492.891	20858
492.967	14848
493.042	13923
493.117	13707
493.192	13919
493.267	16188
493.342	24073
493.418	25452
493.493	15162
493.568	13024
493.643	13799
493.718	19485
493.793	32282
493.868	35486
493.943	22585
494.018	16194
494.093	13950
494.168	14565
494.243	13360
494.318	12788
494.393	13485
494.468	12779
494.543	12601
494.618	16607
494.693	15104
494.768	12783
494.842	15025
494.917	12451
494.992	13568
495.067	13297
495.142	11080
495.217	14377
495.292	14347
495.366	17505
495.441	22524
495.516	29199
495.591	37062
495.665	128664
495.740	324632
495.815	155194
495.890	25584
495.964	18576
496.039	21032
496.114	17837
496.188	19391
496.263	20178
496.338	17257
496.412	21008
496.487	25436
496.561	25309
496.636	28551
496.710	20928
496.785	23361
496.860	28183
496.934	20558
497.009	22095
497.083	21947
497.158	23518
497.232	27187
497.307	35126
497.381	28975
497.455	33734
497.530	45070
497.604	33910
497.679	34478
497.753	54757
497.827	76829
497.902	70916
497.976	74868
498.050	149269
498.125	564800
498.199	640780
498.273	118695
498.348	83002
498.422	65790
498.496	57660
498.570	52576
498.645	40204
498.719	38042
498.793	44950
498.867	62216
498.941	80987
499.016	221307
499.090	623817
499.164	263486
499.238	30257
499.312	24468
499.386	30657
499.460	29465
499.534	27292
499.609	32443
499.683	48930
499.757	46704
499.831	94574
499.905	400890
499.979	425950
500.053	66876
500.127	58899
500.201	42208
500.275	26506
500.349	25834
500.422	28902
500.496	43776
500.570	86669
500.644	225765
500.718	440025
500.792	118029
500.866	26844
500.940	32687
501.013	29891
501.087	25824
501.161	45936
501.235	61642
501.309	125529
501.382	373910
501.456	363441
501.530	77694
501.603	121690
501.677	55526
501.751	21173
501.825	25504
501.898	47240
501.972	146781
502.046	106896
502.119	26876
502.193	62039
502.266	162039
502.340	90053
502.413	65818
502.487	140983
502.561	85692
502.634	28550
502.708	19276
502.781	17159
502.855	15429
502.928	12549
503.002	13548
503.075	12559
503.149	17005
503.222	16808
503.295	17029
503.369	22829
503.442	31028
503.516	103588
503.589	284220
503.662	202240
503.736	59074
503.809	124614
503.882	112591
503.956	145061
504.029	149391
504.102	82840
504.175	104557
504.249	41644
504.322	25289
504.395	23097
504.468	15829
504.542	15061
504.615	12013
504.688	12348
504.761	10318
504.834	16228
504.907	18752
504.980	32216
505.053	17528
505.127	19765
505.200	25619
505.273	23522
505.346	16130
505.419	12252
505.492	11135
505.565	8819
505.638	8989
505.711	10183
505.784	10024
505.857	9815
505.930	11515
506.003	9570
506.076	13377
506.149	17646
506.221	22620
506.294	20949
506.367	52933
506.440	197683
506.513	124042
506.586	25862
506.659	15886
506.731	11785
506.804	15617
506.877	22680
506.950	16935
507.022	10951
507.095	13853
507.168	21541
507.241	13499
507.313	9560
507.386	11033
507.459	19314
507.531	12790
507.604	9482
507.677	9920
507.749	7991
507.822	13820
507.894	26510
507.967	30125
508.040	17183
508.112	14531
508.185	14237
508.257	13887
508.330	22231
508.402	14577
508.475	13552
508.547	15350
508.620	14506
508.692	25193
508.765	17034
508.837	9646
508.909	11385
508.982	10808
509.054	14035
509.127	11964
509.199	10687
509.271	9466
509.344	8981
509.416	9806
509.488	9306
509.560	12056
509.633	12247
509.705	14263
509.777	14244
509.849	20626
509.922	14548
509.994	9852
510.066	11059
510.138	11237
510.210	23199
510.283	20901
510.355	17208
510.427	16132
510.499	15032
510.571	14786
510.643	13803
510.715	24151
510.787	22417
510.859	16149
510.931	18597
511.003	24761
511.076	22140
511.148	13507
511.219	12589
511.291	23081
511.363	31454
511.435	13213
511.507	10647
511.579	12054
511.651	12471
511.723	11123
511.795	12077
511.867	12446
511.939	15997
512.010	35081
512.082	33023
512.154	14386
512.226	12975
512.298	19681
512.369	27861
512.441	22680
512.513	23660
512.585	17176
512.656	17861
512.728	18926
512.800	14942
512.871	14029
512.943	15375
513.015	12678
513.086	14322
513.158	15512
513.230	16076
513.301	25052
513.373	31243
513.444	18781
513.516	13170
513.588	13548
513.659	15847
513.731	19501
513.802	17416
513.874	36800
513.945	70693
514.016	26121
514.088	14713
514.159	14857
514.231	21521
514.302	27422
514.374	19110
514.445	18304
514.516	41867
514.588	33968
514.659	19835
514.730	38713
514.802	33166
514.873	25094
514.944	24289
515.016	20217
515.087	22164
515.158	28819
515.229	41660
515.301	26335
515.372	33158
515.443	21821
515.514	16822
515.585	14077
515.656	15231
515.728	14328
515.799	12628
515.870	14949
515.941	15939
516.012	15301
516.083	21177
516.154	23702
516.225	31503
516.296	31494
516.367	27000
516.438	31771
516.509	39714
516.580	54489
516.651	165536
516.722	628732
516.793	332895
516.864	62481
516.935	58031
517.006	62361
517.077	81737
517.148	174811
517.219	652276
517.289	1151260
517.360	346889
517.431	112372
517.502	30869
517.573	28523
517.643	25202
517.714	27271
517.785	29210
517.856	32119
517.926	40556
517.997	47590
518.068	60964
518.138	79815
518.209	110031
518.280	410278
518.350	1591196
518.421	750857
518.492	85359
518.562	43206
518.633	39432
518.703	35166
518.774	52541
518.845	116753
518.915	123720
518.986	49342
519.056	37875
519.127	60202
519.197	93818
519.268	222494
519.338	160881
519.408	36077
519.479	41225
519.549	31526
519.620	21185
519.690	15989
519.760	16107
519.831	16958
519.901	17933
519.971	13838
520.042	15683
520.112	19392
520.182	21787
520.253	24675
520.323	16819
520.393	15467
520.463	21662
520.534	16119
520.604	29164
520.674	21170
520.744	22018
520.814	33179
520.885	36567
520.955	63037
521.025	257159
521.095	122143
521.165	20310
521.235	17158
521.305	14211
521.375	13555
521.445	15874
521.515	21667
521.585	25879
521.655	24649
521.725	20517
521.795	18970
521.865	13009
521.935	23468
522.005	22573
522.075	13598
522.145	15237
522.215	17434
522.285	26279
522.355	34983
522.424	69649
522.494	62957
522.564	30824
522.634	50606
522.704	156275
522.774	71053
522.843	18544
522.913	15683
522.983	21080
523.053	16606
523.122	16150
523.192	22199
523.262	81130
523.331	92489
523.401	20572
523.471	12565
523.540	13355
523.610	9343
523.680	10927
523.749	11391
523.819	15993
523.888	16448
523.958	10915
524.027	11702
524.097	13587
524.166	12029
524.236	13198
524.305	15069
524.375	11308
524.444	11146
524.514	13415
524.583	11954
524.653	17151
524.722	19831
524.791	11880
524.861	12643
524.930	10591
524.999	12623
525.069	18810
525.138	15713
525.207	19310
525.277	13468
525.346	13800
525.415	12567
525.484	12900
525.554	16265
525.623	17465
525.692	14032
525.761	16636
525.830	17040
525.900	19597
525.969	28676
526.038	42578
526.107	73904
526.176	220641
526.245	201096
526.314	70638
526.383	119502
526.452	164776
526.522	260583
526.591	308613
526.660	108522
526.729	56543
526.797	52100
526.867	98765
526.935	433167
527.004	707378
527.073	409665
527.142	45852
527.211	21448
527.280	19355
527.349	21341
527.418	10889
527.487	12376
527.555	9930
527.624	9827
527.693	7905
527.762	10960
527.831	9292
527.899	10367
527.968	10550
528.037	10447
528.106	14337
528.174	27142
528.243	22524
528.312	30573
528.380	45075
528.449	15650
528.518	10854
528.586	7448
528.655	8597
528.723	8030
528.792	8430
528.861	9947
528.929	8687
528.998	9743
529.066	8183
529.135	8236
529.203	6779
529.272	7852
529.340	8537
529.409	10240
529.477	8224
529.545	12889
529.614	15776
529.682	14136
529.751	19595
529.819	18814
529.887	13839
529.956	8926
530.024	11149
530.092	8759
530.161	11473
530.229	19872
530.297	12884
530.365	9462
530.434	7897
530.502	7211
530.570	8084
530.638	7601
530.707	10932
530.775	11011
530.843	8629
530.911	8717
530.979	9246
531.047	8542
531.115	8868
531.183	8704
531.252	10046
531.320	9128
531.388	8645
531.456	8067
531.524	7305
531.592	8784
531.660	11369
531.728	9027
531.796	8489
531.864	9225
531.932	9711
532.000	10293
532.067	10170
532.135	11794
532.203	13773
532.271	13477
532.339	24244
532.407	69535
532.475	46235
532.542	20461
532.610	20593
532.678	26364
532.746	104370
532.814	306356
532.881	86405
532.949	17323
533.017	12863
533.084	9677
533.152	10120
533.220	9944
533.287	12035
533.355	10066
533.423	10400
533.490	8514
533.558	9083
533.625	10779
533.693	12644
533.761	11031
533.828	11892
533.896	10346
533.963	22190
534.031	29421
534.098	40098
534.166	20821
534.233	9337
534.300	11267
534.368	11501
534.435	10393
534.503	11929
534.570	11860
534.637	12521
534.705	14413
534.772	16042
534.840	23242
534.907	96778
534.974	144157
535.041	24439
535.109	17361
535.176	11678
535.243	10754
535.310	11081
535.378	10738
535.445	10287
535.512	9365
535.579	10334
535.646	9725
535.714	9908
535.781	12665
535.848	11800
535.915	11556
535.982	9880
536.049	9719
536.116	12080
536.183	11642
536.250	11302
536.317	11993
536.384	14783
536.451	22331
536.518	25123
536.585	16221
536.652	21015
536.719	30787
536.786	26592
536.853	18376
536.920	27647
536.987	45610
537.053	40404
537.120	143152
537.187	144073
537.254	17965
537.321	12855
537.388	13374
537.454	10789
537.521	10401
537.588	10070
537.654	12908
537.721	13141
537.788	13859
537.855	11127
537.921	11741
537.988	11824
538.055	13242
538.121	11826
538.188	13660
538.254	19755
538.321	45165
538.388	31676
538.454	15126
538.521	11888
538.587	11401
538.654	11731
538.720	10929
538.787	11613
538.853	11979
538.920	17624
538.986	17400
539.053	14558
539.119	14813
539.185	14498
539.252	17303
539.318	24809
539.385	19436
539.451	16769
539.517	16591
539.583	18403
539.650	40762
539.716	117263
539.782	38519
539.849	14706
539.915	14085
539.981	14867
540.047	19093
540.114	16425
540.180	17137
540.246	15532
540.312	21558
540.378	43497
540.444	46675
540.510	43055
540.576	129599
540.643	48774
540.709	13053
540.775	13612
540.841	12852
540.907	18488
540.973	25566
541.039	24491
541.105	28375
541.171	16184
541.237	14432
541.303	14438
541.369	17360
541.435	22656
541.500	40089
541.566	27726
541.632	13498
541.698	11965
541.764	12369
541.830	12200
541.896	11795
541.961	12425
542.027	13026
542.093	13997
542.159	14052
542.224	15975
542.290	22522
542.356	38579
542.421	49138
542.487	22913
542.553	14743
542.618	17304
542.684	15213
542.750	15829
542.815	18280
542.881	28450
542.947	108103
543.012	91740
543.078	16610
543.143	13124
543.209	13981
543.274	15304
543.340	16930
543.405	39238
543.471	70766
543.536	18256
543.602	13375
543.667	12151
543.732	12801
543.798	12195
543.863	13091
543.928	11335
543.994	10908
544.059	12848
544.124	12090
544.190	12088
544.255	12470
544.320	13495
544.386	14220
544.451	20170
544.516	25600
544.581	22731
544.646	64885
544.712	115908
544.777	27312
544.842	18197
544.907	20056
544.972	16214
545.037	15811
545.102	17917
545.168	17197
545.233	18406
545.298	19688
545.363	22004
545.428	24679
545.493	40879
545.558	92987
545.623	44346
545.688	18598
545.753	17111
545.818	15916
545.883	17580
545.947	17023
546.012	19825
546.077	19845
546.142	19580
546.207	18855
546.272	24358
546.337	27130
546.401	20692
546.466	18826
546.531	18215
546.596	20977
546.661	21421
546.725	19553
546.790	19267
546.855	19323
546.919	19071
546.984	22367
547.049	23661
547.113	28881
547.178	25732
547.243	29378
547.307	32936
547.372	38630
547.436	42095
547.501	33333
547.565	36653
547.630	40282
547.695	40339
547.759	41516
547.823	39275
547.888	31764
547.952	33005
548.017	34541
548.081	39745
548.146	48510
548.210	43632
548.274	36268
548.339	35528
548.403	32720
548.468	32124
548.532	30866
548.596	32249
548.660	32501
548.725	36223
548.789	43212
548.853	43907
548.917	37005
548.982	44641
549.046	46275
549.110	30074
549.174	30849
549.238	32691
549.303	33505
549.367	36383
549.431	34068
549.495	32503
549.559	32525
549.623	36827
549.687	42185
549.751	52638
549.815	48868
549.879	46868
549.943	43024
550.007	47231
550.071	47069
550.135	50111
550.199	44219
550.263	41922
550.327	42274
550.391	51175
550.455	46130
550.519	43683
550.582	47434
550.646	59696
550.710	63707
550.774	52506
550.838	52681
550.901	53002
550.965	57202
551.029	59373
551.093	65706
551.156	77473
551.220	119953
551.284	144285
551.347	85140
551.411	114549
551.475	129973
551.538	61401
551.602	51810
551.666	48427
551.729	43385
551.793	45814
551.856	43712
551.920	41177
551.983	42493
552.047	42606
552.110	43176
552.174	42758
552.237	43459
552.301	41817
552.364	39178
552.428	39400
552.491	40488
552.554	42333
552.618	41954
552.681	44571
552.745	47529
552.808	65994
552.871	88948
552.934	59101
552.998	45113
553.061	44306
553.124	41174
553.187	39570
553.251	39963
553.314	41850
553.377	39179
553.440	43780
553.503	47929
553.567	51491
553.630	42029
553.693	41419
553.756	41678
553.819	40065
553.882	38383
553.945	38801
554.008	39190
554.071	38315
554.134	40036
554.197	37218
554.260	36729
554.323	39858
554.386	39321
554.449	40162
554.512	39825
554.575	37371
554.638	39053
554.701	38134
554.764	36749
554.827	35723
554.889	34653
554.952	33086
555.015	32329
555.078	32992
555.141	33803
555.203	32740
555.266	32382
555.329	34659
555.391	31961
555.454	34122
555.517	33219
555.580	29688
555.642	28708
555.705	29220
555.768	29811
555.830	29173
555.893	27111
555.955	27734
556.018	28411
556.080	27117
556.143	28428
556.206	27448
556.268	29085
556.330	30195
556.393	27900
556.455	29013
556.518	38107
556.580	39403
556.643	26202
556.705	26410
556.767	25363
556.830	26180
556.892	28014
556.955	39131
557.017	32986
557.079	25349
557.142	25253
557.204	27341
557.266	49901
557.328	45431
557.391	22760
557.453	21224
557.515	22774
557.577	27271
557.639	28958
557.701	22763
557.764	22634
557.826	23704
557.888	26582
557.950	26771
558.012	28095
558.074	33853
558.136	69680
558.198	178324
558.260	75982
558.322	32308
558.384	32738
558.446	38295
558.508	44198
558.570	53987
558.632	80420
558.694	116708
558.756	114593
558.818	321413
558.880	883511
558.942	305705
559.003	192616
559.065	107703
559.127	45597
559.189	43880
559.251	47449
559.312	62037
559.374	150041
559.436	538419
559.498	299781
559.559	52167
559.621	43357
559.683	47620
559.744	75860
559.806	238111
559.868	396752
559.929	86197
559.991	46531
560.052	63604
560.114	169146
560.176	121835
560.237	96145
560.299	172584
560.360	48191
560.422	23716
560.483	21062
560.545	20116
560.606	19016
560.667	18606
560.729	17669
560.790	16964
560.852	17456
560.913	18008
560.974	17290
561.036	17753
561.097	17255
561.158	18410
561.220	19316
561.281	18629
561.342	19732
561.403	22636
561.465	27397
561.526	61876
561.587	90767
561.648	28778
561.709	18228
561.771	17795
561.832	17586
561.893	17489
561.954	17156
562.015	17062
562.076	17005
562.137	17238
562.198	18134
562.259	16581
562.320	17866
562.381	19287
562.442	28729
562.503	24040
562.564	17479
562.625	16906
562.686	17308
562.747	19310
562.808	17928
562.869	16524
562.930	20977
562.991	21559
563.051	19394
563.112	17798
563.173	17028
563.234	15477
563.294	16973
563.355	16782
563.416	18142
563.477	17112
563.537	17592
563.598	19160
563.659	18276
563.720	18863
563.780	18290
563.841	19624
563.901	18804
563.962	16923
564.023	18240
564.083	19215
564.144	19120
564.204	17644
564.265	17675
564.325	21281
564.386	41638
564.446	40223
564.507	18349
564.567	18059
564.628	16529
564.688	17780
564.749	17759
564.809	20907
564.869	23952
564.930	19220
564.990	17680
565.050	16079
565.111	18282
565.171	17088
565.231	16307
565.292	17043
565.352	15482
565.412	18449
565.472	18379
565.532	19464
565.593	18006
565.653	17187
565.713	17838
565.773	20208
565.833	23120
565.893	29329
565.953	20064
566.013	20123
566.074	19222
566.134	26706
566.194	39914
566.254	42993
566.314	29241
566.374	20653
566.434	21862
566.494	21400
566.554	19884
566.614	21501
566.673	22036
566.733	23414
566.793	24254
566.853	25478
566.913	25487
566.973	26412
567.033	27572
567.092	27846
567.152	26183
567.212	27719
567.272	27006
567.331	29689
567.391	28513
567.451	31270
567.511	39843
567.570	41469
567.630	29343
567.690	26327
567.749	27885
567.809	30473
567.868	34085
567.928	36969
567.988	44862
568.047	50012
568.107	59011
568.166	80094
568.226	128831
568.285	184552
568.345	154188
568.404	119651
568.464	99401
568.523	92023
568.582	94298
568.642	101298
568.701	127306
568.761	190514
568.820	303868
568.879	299878
568.939	218763
568.998	153890
569.057	113830
569.116	89246
569.176	71720
569.235	60014
569.294	50973
569.353	44711
569.413	41442
569.472	37886
569.531	34431
569.590	31101
569.649	29238
569.708	27598
569.767	27577
569.827	31625
569.886	27115
569.945	23673
570.004	23877
570.063	22838
570.122	23958
570.181	24642
570.240	25565
570.299	26552
570.358	27120
570.417	21511
570.475	18910
570.534	20770
570.593	21269
570.652	21873
570.711	22942
570.770	20461
570.829	22792
570.887	20925
570.946	23416
571.005	18719
571.064	18688
571.122	20719
571.181	22551
571.240	19234
571.299	17456
571.357	19017
571.416	19775
571.475	20793
571.533	22009
571.592	18140
571.650	19334
571.709	16028
571.768	17502
571.826	17968
571.885	15184
571.943	15159
572.002	15924
572.060	17728
572.119	15467
572.177	15613
572.236	14503
572.294	14373
572.352	16071
572.411	15667
572.469	14022
572.528	14726
572.586	15387
572.644	18060
572.703	24029
572.761	18115
572.819	15446
572.877	14671
572.936	13435
572.994	14615
573.052	14132
573.110	15156
573.169	15232
573.227	13963
573.285	13530
573.343	14506
573.401	14548
573.459	13229
573.517	13459
573.576	14544
573.634	14812
573.692	16120
573.750	14493
573.808	14117
573.866	16050
573.924	20140
573.982	19985
574.040	15258
574.098	13646
574.155	13972
574.213	13732
574.271	12835
574.329	14261
574.387	13475
574.445	12339
574.503	12639
574.560	12260
574.618	11432
574.676	11843
574.734	12361
574.792	12997
574.849	11998
574.907	12099
574.965	11795
575.022	12515
575.080	12477
575.138	13118
575.195	13001
575.253	13382
575.311	15632
575.368	12814
575.426	12133
575.483	13332
575.541	11785
575.598	12363
575.656	13491
575.713	13228
575.771	12240
575.828	13551
575.886	12327
575.943	13256
576.001	13921
576.058	14099
576.115	14449
576.173	17046
576.230	19628
576.287	21003
576.345	17766
576.402	14115
576.459	14022
576.517	14331
576.574	16368
576.631	16907
576.688	14985
576.746	13336
576.803	14035
576.860	12466
576.917	13099
576.974	13583
577.031	13641
577.089	14520
577.146	14415
577.203	13966
577.260	14308
577.317	15510
577.374	17977
577.431	17623
577.488	14859
577.545	12936
577.602	13408
577.659	13185
577.716	12359
577.773	12909
577.830	13107
577.886	13207
577.943	13074
578.000	13066
578.057	15228
578.114	14447
578.171	12953
578.227	12542
578.284	13763
578.341	14617
578.398	14682
578.454	15451
578.511	17732
578.568	18617
578.625	16077
578.681	13863
578.738	12717
578.794	13407
578.851	13943
578.908	13740
578.964	14757
579.021	15511
579.077	14244
579.134	13752
579.190	13455
579.247	13303
579.303	13415
579.360	12851
579.416	13583
579.473	13456
579.529	12342
579.586	12898
579.642	13640
579.698	13302
579.755	14565
579.811	14483
579.867	13594
579.924	12965
579.980	12954
580.036	14534
580.093	14448
580.149	13811
580.205	14186
580.261	13866
580.317	15422
580.374	16123
580.430	18746
580.486	18139
580.542	15695
580.598	15146
580.619	15459
580.654	16020
580.692	15402
580.710	15125
580.765	14877
580.767	14884
580.823	15103
580.838	14805
580.879	14086
580.911	14425
580.935	14686
580.984	13942
580.991	13859
581.047	15194
581.057	14934
581.103	13815
581.130	14638
581.159	15556
581.203	15033
581.215	14902
581.270	15553
581.276	15442
581.326	14473
581.349	14819
581.382	15408
581.422	15475
581.438	15510
581.494	15942
581.494	15929
581.550	15872
581.567	15932
581.606	16035
581.640	15744
581.661	15587
581.713	15798
581.717	15827
581.773	15293
581.786	15240
581.829	15167
581.859	15512
581.885	15767
581.932	15100
581.940	15002
581.996	16143
582.004	15991
582.052	15154
582.077	14926
582.107	14696
582.150	15383
582.163	15578
582.219	15382
582.223	15378
582.274	15602
582.296	15928
582.330	16312
582.368	16588
582.386	16749
582.441	16410
582.441	16414
582.497	15288
582.514	15593
582.552	16400
582.587	15760
582.608	15342
582.659	15800
582.663	15851
582.719	16094
582.732	16003
582.774	15537
582.805	15631
582.830	15825
582.877	16521
582.885	16623
582.941	15500
582.950	15632
582.996	16234
583.023	16716
583.052	17441
583.095	16788
583.107	16527
583.162	16668
583.168	16698
583.218	16990
583.240	16710
583.273	16418
583.313	16085
583.328	16000
583.384	17152
583.385	17141
583.439	16470
583.458	16607
583.494	16830
583.531	16730
583.549	16818
583.603	17068
583.605	17064
583.660	16564
583.676	16669
583.715	17135
583.748	17553
583.770	17841
583.820	18117
583.825	18103
583.881	17817
583.893	17634
583.936	17330
583.965	17726
583.991	17973
584.038	17881
584.046	17891
584.101	18775
584.110	18596
584.156	17447
584.183	17607
584.211	17848
584.255	17687
584.266	17697
584.321	18290
584.328	18351
584.376	18470
584.400	18465
584.431	18574
584.472	18784
584.486	18781
584.541	19326
584.545	19303
584.596	19078
584.617	19216
584.651	20022
584.689	21235
584.706	21335
584.761	20459
584.762	20462
584.816	21045
584.834	21247
584.871	21413
584.906	21111
584.926	21128
584.978	21726
584.980	21748
585.035	23116
585.051	23621
585.090	24742
585.123	24954
585.145	25129
585.195	26401
585.200	26561
585.254	28345
585.267	28967
585.309	30548
585.340	31531
585.364	32514
585.412	34819
585.419	35209
585.473	39338
585.484	40373
585.528	46437
585.556	52938
585.583	64426
585.628	93506
585.637	104048
585.692	200267
585.700	219114
585.747	293400
585.772	252312
585.801	166990
585.845	71599
585.856	58484
585.910	40879
585.917	39262
585.965	35564
585.989	34393
586.019	33265
586.061	32152
586.074	32051
586.128	32395
586.133	32529
586.183	34164
586.205	34441
586.237	34694
586.277	35373
586.292	35337
586.346	33928
586.349	33902
586.401	34550
586.421	35098
586.455	36217
586.493	38293
586.509	40711
586.564	49852
586.565	50283
586.618	72237
586.637	73833
586.672	64099
586.709	49723
586.727	45202
586.781	42701
586.781	42696
586.835	42047
586.853	41891
586.889	41474
586.925	41361
586.944	41587
586.996	42872
586.998	42908
587.052	44500
587.068	45069
587.106	46435
587.140	47204
587.161	47691
587.212	49211
587.215	49294
587.269	51970
587.284	52461
587.323	53962
587.356	55526
587.377	56447
587.427	59017
587.431	59182
587.485	61333
587.499	61886
587.539	64693
587.571	67103
587.593	68629
587.643	72987
587.648	73455
587.702	78574
587.715	79818
587.755	83279
587.786	86685
587.810	89641
587.858	95164
587.864	95956
587.917	105345
587.930	107557
587.971	115328
588.001	121420
588.025	126781
588.073	138010
588.079	139522
588.133	153624
588.145	157346
588.187	173016
588.217	184992
588.241	195855
588.288	218391
588.295	221994
588.348	256199
588.360	263990
588.402	297214
588.431	322417
588.456	347303
588.503	399147
588.510	407941
588.564	484728
588.575	502864
588.617	591854
588.646	660201
588.671	744181
588.718	919790
588.725	957201
588.778	1269227
588.789	1336491
588.832	1634065
588.861	1824618
588.886	1863269
588.932	1809570
588.939	1785084
588.993	1541928
589.004	1543079
589.047	1813718
589.075	1916356
589.100	1782663
589.147	1431318
589.154	1388433
589.207	1080829
589.218	1024977
589.261	933517
589.290	888993
589.314	908328
589.361	970027
589.368	996435
589.421	1245287
589.433	1303183
589.475	1571907
589.504	1740777
589.528	1738791
589.576	1616695
589.582	1609200
589.635	1665926
589.647	1655064
589.689	1360099
589.718	1117136
589.742	951488
589.790	652784
589.795	633707
589.849	480408
589.861	448309
589.902	385761
589.932	341185
589.955	311622
590.004	252817
590.009	249018
590.062	213811
590.075	205451
590.115	187130
590.146	174242
590.168	166990
590.218	151246
590.222	150229
590.275	138187
590.289	135117
590.328	126392
590.360	119397
590.381	115862
590.431	107898
590.435	107448
590.488	100172
590.503	98111
590.541	93829
590.574	90540
590.594	88644
590.645	83671
590.647	83507
590.700	79047
590.716	77742
590.753	74576
590.787	71779
590.806	70807
590.859	68060
590.859	68026
590.912	65936
590.930	65069
590.965	63728
591.001	62818
591.018	61783
591.071	58492
591.072	58456
591.124	58466
591.143	58496
591.177	57413
591.214	56357
591.230	56165
591.283	55298
591.285	55251
591.336	55737
591.356	55947
591.389	55083
591.427	53594
591.442	52702
591.495	49576
591.498	49330
591.547	47199
591.569	46320
591.600	46459
591.640	46373
591.653	46194
591.706	45578
591.711	45502
591.759	46814
591.782	47550
591.811	48288
591.853	49178
591.864	48622
591.917	45341
591.924	44884
591.969	43424
591.995	42592
592.022	42605
592.066	42668
592.075	43163
592.127	46012
592.137	46571
592.180	49607
592.208	51384
592.233	48013
592.279	41429
592.285	41322
592.338	40472
592.350	40268
592.390	39203
592.421	38377
592.443	38136
592.491	37612
592.495	37635
592.548	37910
592.562	37984
592.600	37366
592.633	36818
592.653	36689
592.704	36143
592.705	36351
592.775	36444
592.846	37592
592.916	38241
592.987	39612
593.058	37508
593.128	35249
593.199	35458
593.270	34049
593.341	33913
593.411	35340
593.482	35971
593.553	34204
593.623	31816
593.694	34319
593.764	35960
593.835	33542
593.906	32729
593.976	33205
594.047	34020
594.117	39701
594.188	39340
594.258	32841
594.329	31280
594.399	32787
594.470	31980
594.540	32773
594.611	31400
594.681	31919
594.751	32968
594.822	34686
594.892	36524
594.963	36175
595.033	34532
595.103	35502
595.174	38564
595.244	53763
595.314	61636
595.384	37835
595.455	35396
595.525	35950
595.595	35636
595.665	36381
595.736	36381
595.806	35748
595.876	36073
595.946	35430
596.016	34925
596.087	36248
596.157	36817
596.227	37010
596.297	37861
596.367	40009
596.437	43579
596.507	54112
596.577	63250
596.647	43375
596.717	41327
596.787	40940
596.857	41264
596.927	41488
596.997	40491
597.067	41067
597.137	42505
597.207	42654
597.277	43065
597.347	41957
597.417	40250
597.487	41762
597.557	43313
597.626	43322
597.696	45721
597.766	52272
597.836	61447
597.906	42929
597.975	39245
598.045	39166
598.115	40311
598.185	40783
598.254	45123
598.324	49361
598.394	50461
598.464	48472
598.533	46253
598.603	44412
598.672	44541
598.742	43742
598.812	43792
598.881	44487
598.951	43260
599.020	42642
599.090	43450
599.159	46111
599.229	43673
599.299	42360
599.368	42947
599.437	42571
599.507	41497
599.576	41778
599.646	39354
599.715	40623
599.785	39717
599.854	41659
599.924	43162
599.993	41578
600.062	39824
600.132	39500
600.201	41949
600.270	48618
600.340	47338
600.409	45559
600.478	44618
600.547	46077
600.617	44249
600.686	39470
600.755	37853
600.824	37949
600.894	35696
600.963	34673
601.032	33809
601.101	33390
601.170	32957
601.239	33649
601.308	34785
601.378	34878
601.447	31803
601.516	32284
601.585	33831
601.654	37719
601.723	34147
601.792	34433
601.861	35358
601.930	38999
601.999	39860
602.068	37152
602.137	40982
602.206	40117
602.275	38584
602.343	42815
602.412	43712
602.481	36309
602.550	35454
602.619	36643
602.688	38444
602.756	37481
602.825	37187
602.894	36670
602.963	37442
603.032	37968
603.100	37713
603.169	38687
603.238	37709
603.307	38415
603.375	37553
603.444	40037
603.513	39233
603.581	39049
603.650	40943
603.719	38728
603.787	38944
603.856	39784
603.924	41269
603.993	42676
604.061	42457
604.130	43032
604.198	45953
604.267	45336
604.335	44622
604.404	44677
604.472	46919
604.541	46606
604.609	45871
604.678	47050
604.746	46475
604.815	48845
604.883	48800
604.951	48971
605.020	48692
605.088	50455
605.156	49172
605.225	49860
605.293	50651
605.361	49978
605.429	50897
605.498	53103
605.566	54769
605.634	56260
605.702	56889
605.771	57134
605.839	57760
605.907	56161
605.975	54869
606.043	55275
606.111	52862
606.180	54724
606.248	53927
606.316	53133
606.384	55338
606.452	61907
606.520	65535
606.588	57160
606.656	53787
606.724	52047
606.792	50424
606.860	46205
606.928	42323
606.996	42401
607.064	40085
607.132	42430
607.200	43468
607.267	45472
607.335	44560
607.403	46863
607.471	44791
607.539	44322
607.607	45067
607.674	40600
607.742	42432
607.810	43586
607.878	42938
607.946	41643
608.013	41726
608.081	44017
608.149	44220
608.216	44329
608.284	46302
608.352	45101
608.419	47522
608.487	56296
608.555	46598
608.622	44732
608.690	47289
608.757	50162
608.825	52426
608.893	52780
608.960	55129
609.028	58607
609.095	59970
609.163	48752
609.230	44088
609.298	42044
609.365	40366
609.432	44066
609.500	46948
609.567	54012
609.635	60903
609.702	63122
609.769	62279
609.837	54676
609.904	48793
609.971	50167
610.039	62131
610.106	90389
610.173	189239
610.241	450857
610.308	357308
610.375	167336
610.442	68379
610.509	52890
610.577	49456
610.644	47162
610.711	46121
610.778	46855
610.845	48214
610.912	51311
610.980	51718
611.047	53063
611.114	52007
611.181	50129
611.248	48717
611.315	52998
611.382	52031
611.449	54337
611.516	54923
611.583	54343
611.650	57056
611.717	57333
611.784	59033
611.851	64330
611.918	75450
611.984	93523
612.051	148808
612.118	340710
612.185	872941
612.252	524844
612.319	110032
612.386	79371
612.452	69719
612.519	68950
612.586	76720
612.653	68938
612.719	65646
612.786	62180
612.853	57404
612.919	54567
612.986	56271
613.053	51687
613.120	49831
613.186	47853
613.253	49816
613.319	48011
613.386	49803
613.453	52303
613.519	55502
613.586	62683
613.652	77396
613.719	66407
613.785	60336
613.852	50955
613.918	48485
613.985	50523
614.051	52617
614.118	55364
614.184	52488
614.250	50169
614.317	50834
614.383	50096
614.449	50719
614.516	51048
614.582	52612
614.648	50529
614.715	49007
614.781	49981
614.847	50102
614.914	50622
614.980	49499
615.046	48857
615.112	49847
615.179	51120
615.245	56283
615.311	63920
615.377	89746
615.443	97786
615.509	67772
615.575	61240
615.642	58901
615.708	61723
615.774	66294
615.840	75247
615.906	95040
615.972	142239
616.038	267856
616.104	510777
616.170	1120113
616.236	917498
616.302	188553
616.368	119588
616.434	84270
616.500	74668
616.565	83131
616.631	103618
616.697	83706
616.763	85980
616.829	136088
616.895	249266
616.961	237826
617.026	99003
617.092	62213
617.158	56628
617.224	53448
617.289	50431
617.355	49369
617.421	47922
617.487	46505
617.552	45562
617.618	43366
617.684	42337
617.749	44322
617.815	42390
617.880	40170
617.946	40732
618.012	42175
618.077	42487
618.143	41212
618.208	41546
618.274	42906
618.339	44623
618.405	36916
618.470	38942
618.536	37885
618.601	41565
618.667	37261
618.732	36059
618.798	34955
618.863	34517
618.928	33974
618.994	37378
619.059	40290
619.124	52771
619.190	40694
619.255	34705
619.320	35045
619.386	33761
619.451	32711
619.516	32356
619.581	32324
619.647	33126
619.712	34289
619.777	32822
619.842	33326
619.907	33349
619.972	35290
620.038	34802
620.103	32155
620.168	31893
620.233	32160
620.298	32107
620.363	32631
620.428	34400
620.493	33193
620.558	34934
620.623	33798
620.688	34110
620.753	33636
620.818	34240
620.883	34866
620.948	34708
621.013	34061
621.078	34332
621.143	34187
621.207	38165
621.272	37490
621.337	38011
621.402	38962
621.467	46067
621.532	47450
621.596	39834
621.661	36718
621.726	33997
621.791	35364
621.855	37251
621.920	38222
621.985	39922
622.049	44130
622.114	43000
622.179	39068
622.243	39539
622.308	38510
622.373	42169
622.437	39883
622.502	37233
622.566	37607
622.631	36549
622.695	38708
622.760	38505
622.824	37307
622.889	39220
622.953	44153
623.018	59465
623.082	56457
623.147	40436
623.211	39912
623.276	39194
623.340	35415
623.404	34571
623.469	34153
623.533	35321
623.597	34210
623.662	34810
623.726	31704
623.790	31024
623.854	30718
623.919	33034
623.983	31550
624.047	33141
624.111	31867
624.176	34433
624.240	36156
624.304	40619
624.368	33104
624.432	32433
624.496	34611
624.560	39452
624.625	41683
624.689	35384
624.753	35663
624.817	33926
624.881	33129
624.945	31145
625.009	30625
625.073	31292
625.137	35907
625.201	43309
625.265	41732
625.329	33465
625.393	34824
625.456	33940
625.520	35653
625.584	38794
625.648	46045
625.712	66507
625.776	134921
625.839	146684
625.903	60534
625.967	37571
626.031	59464
626.095	86462
626.158	37857
626.222	26434
626.286	26513
626.349	24095
626.413	22989
626.477	27918
626.540	24754
626.604	23171
626.668	23478
626.731	23399
626.795	25081
626.858	24981
626.922	23156
626.986	23251
627.049	21055
627.113	22381
627.176	22133
627.240	21328
627.303	22431
627.366	22111
627.430	23544
627.493	22993
627.557	22748
627.620	23305
627.684	22481
627.747	22993
627.810	20673
627.874	20822
627.937	20275
628.000	22243
628.064	21080
628.127	18084
628.190	19596
628.253	19184
628.317	18673
628.380	17803
628.443	17908
628.506	18636
628.569	16808
628.632	17110
628.696	17028
628.759	16105
628.822	15726
628.885	15753
628.948	16409
629.011	16824
629.074	16790
629.137	14712
629.200	15394
629.263	18762
629.326	14008
629.389	15093
629.452	16060
629.515	16208
629.578	16259
629.641	18333
629.704	16539
629.767	16908
629.830	15484
629.892	15486
629.955	15377
630.018	17693
630.081	18802
630.144	24440
630.207	17662
630.269	19314
630.332	18896
630.395	15751
630.458	13305
630.520	12798
630.583	14872
630.646	13691
630.708	13816
630.771	13598
630.834	14200
630.896	13867
630.959	13894
631.021	13460
631.084	14403
631.146	16702
631.209	18823
631.272	14780
631.334	14689
631.397	13496
631.459	13756
631.522	16136
631.584	15447
631.646	17591
631.709	18742
631.771	22826
631.834	17861
631.896	16287
631.958	13815
632.021	15133
632.083	13484
632.145	14391
632.208	14501
632.270	14852
632.332	12572
632.395	12633
632.457	13842
632.519	12029
632.581	14519
632.643	12330
632.706	12893
632.768	11710
632.830	13350
632.892	13010
632.954	12321
633.016	13692
633.078	12132
633.141	13052
633.203	13046
633.265	12940
633.327	12731
633.389	12099
633.451	15461
633.513	18943
633.575	18016
633.637	18097
633.698	15041
633.760	13979
633.822	13708
633.884	14060
633.946	14192
634.008	13093
634.070	14510
634.132	15396
634.193	16854
634.255	18048
634.317	17831
634.379	19121
634.441	16162
634.502	15426
634.564	14334
634.626	14273
634.687	13673
634.749	12248
634.811	12815
634.873	11557
634.934	11341
634.996	13143
635.057	11016
635.119	11336
635.181	12849
635.242	13062
635.304	10515
635.365	14602
635.427	12700
635.488	12619
635.550	11953
635.611	12167
635.673	10717
635.734	14638
635.796	13542
635.857	16548
635.918	14757
635.980	17758
636.041	16727
636.102	19603
636.164	18958
636.225	19523
636.286	16017
636.348	15847
636.409	14003
636.470	12298
636.531	13178
636.593	14089
636.654	12885
636.715	11002
636.776	10328
636.838	8945
636.899	10663
636.960	10386
637.021	9644
637.082	10778
637.143	10073
637.204	9828
637.265	9389
637.326	9915
637.387	10245
637.448	9105
637.509	10878
637.570	9737
637.631	9426
637.692	8606
637.753	7656
637.814	9948
637.875	8851
637.936	10137
637.997	8619
638.058	9863
638.119	10403
638.179	8631
638.240	8819
638.301	10077
638.362	7919
638.423	8914
638.483	9691
638.544	8335
638.605	7801
638.666	7879
638.726	8609
638.787	9439
638.848	7995
638.908	8459
638.969	8865
639.030	8459
639.090	8233
639.151	9119
639.211	10319
639.272	14690
639.332	23451
639.393	12989
639.453	8772
639.514	9799
639.574	8666
639.635	7759
639.695	8984
639.756	8294
639.816	9330
639.877	12633
639.937	22625
639.997	29311
640.058	10430
640.118	7349
640.178	8912
640.239	7839
640.299	7014
640.359	7663
640.420	8386
640.480	9349
640.540	9646
640.600	9660
640.661	9132
640.721	9733
640.781	13742
640.841	9753
640.901	9257
640.961	9262
641.021	10305
641.082	11991
641.142	17293
641.202	12136
641.262	6235
641.322	8806
641.382	6411
641.442	8139
641.502	7033
641.562	7644
641.622	6771
641.682	7980
641.742	9579
641.802	8982
641.861	9883
641.921	9641
641.981	11151
642.041	10056
642.101	12100
642.161	7434
642.221	6630
642.280	6607
642.340	6536
642.400	6495
642.460	7863
642.519	7888
642.579	7582
642.639	8010
642.698	4521
642.758	8929
642.818	6901
642.877	7166
642.937	8034
642.997	9558
643.056	15027
643.116	8764
643.175	8509
643.235	7279
643.294	8589
643.354	9362
643.414	9685
643.473	13274
643.532	15004
643.592	22036
643.651	38984
643.711	69884
643.770	141306
643.830	347865
643.889	721175
643.948	159946
644.008	26897
644.067	15470
644.126	10927
644.186	11148
644.245	9279
644.304	7176
644.363	9925
644.423	6657
644.482	7893
644.541	8495
644.600	7005
644.659	10886
644.719	12746
644.778	20084
644.837	33842
644.896	71118
644.955	160238
645.014	50227
645.073	12052
645.132	9588
645.191	9207
645.250	7981
645.309	8866
645.368	8872
645.427	11961
645.486	18154
645.545	30109
645.604	9972
645.663	8013
645.722	8135
645.781	9295
645.840	10239
645.898	13292
645.957	21978
646.016	33107
646.075	64304
646.134	127984
646.192	347283
646.251	496820
646.310	67150
646.369	17842
646.427	14337
646.486	10324
646.545	9140
646.603	7456
646.662	7246
646.721	7298
646.779	6793
646.838	6983
646.896	10562
646.955	12761
647.014	19725
647.072	37339
647.131	100711
647.189	45571
647.248	7862
647.306	7310
647.365	7525
647.423	3622
647.481	7389
647.540	4132
647.598	5875
647.657	4979
647.715	5736
647.773	4420
647.832	5743
647.890	3401
647.948	5311
648.007	5552
648.065	4664
648.123	4915
648.181	6589
648.240	5632
648.298	4143
648.356	5407
648.414	4963
648.472	4916
648.531	6194
648.589	5265
648.647	4603
648.705	4294
648.763	5630
648.821	5663
648.879	5616
648.937	7216
648.995	8869
649.053	10967
649.111	17815
649.169	27437
649.227	48408
649.285	104121
649.343	293170
649.401	134766
649.459	38162
649.516	22122
649.574	9047
649.632	11420
649.690	11474
649.748	11495
649.806	13992
649.863	26384
649.921	69476
649.979	43736
650.037	8664
650.094	5058
650.152	6713
650.210	4700
650.268	5669
650.325	5351
650.383	5576
650.440	3372
650.498	4752
650.556	4300
650.613	4110
650.671	4374
650.728	5236
650.786	5414
650.843	5324
650.901	3334
650.958	4069
651.016	3642
651.073	4003
651.131	3464
651.188	3468
651.246	4642
651.303	3261
651.360	3986
651.418	2544
651.475	4380
651.532	3208
651.590	3500
651.647	3625
651.704	4885
651.762	3852
651.819	4500
651.876	3605
651.933	3480
651.990	4445
652.048	2602
652.105	3275
652.162	3886
652.219	2694
652.276	4958
652.333	4344
652.390	2853
652.448	2923
652.505	2445
652.562	2562
652.619	3682
652.676	4219
652.733	4291
652.790	3373
652.847	1372
652.904	3226
652.961	1343
653.017	3109
653.074	3423
653.131	3529
653.188	2038
653.245	3238
653.302	3337
653.359	3320
653.415	3829
653.472	2697
653.529	3903
653.586	2769
653.642	3037
653.699	3434
653.756	2695
653.813	3124
653.869	3735
653.926	3053
653.983	2427
654.039	3474
654.096	2771
654.152	3896
654.209	2922
654.266	3782
654.322	2947
654.379	4389
654.435	5207
654.492	5900
654.548	7690
654.605	12125
654.661	6293
654.717	3901
654.774	4271
654.830	3549
654.887	2862
654.943	3834
655.000	3594
655.056	3956
655.112	3941
655.168	3383
655.225	3623
655.281	5654
655.337	6372
655.394	11684
655.450	8610
655.506	7170
655.562	11247
655.618	9824
655.675	2879
655.731	4700
655.787	3279
655.843	4709
655.899	3105
655.955	4116
656.011	4088
656.067	3517
656.123	4591
656.179	4302
656.235	6143
656.291	3557
656.347	5433
656.403	3526
656.459	4481
656.515	5536
656.571	4685
656.627	3428
656.683	3574
656.739	4103
656.795	3561
656.850	4875
656.906	5251
656.962	4090
657.018	2731
657.074	3451
657.129	4407
657.185	4854
657.241	9089
657.297	4927
657.352	3343
657.408	3397
657.464	4500
657.519	3825
657.575	2581
657.630	2896
657.686	2842
657.742	1926
657.797	1987
657.853	2388
657.908	3730
657.964	2257
658.019	2931
658.075	3116
658.130	3934
658.186	2680
658.241	3900
658.297	2207
658.352	2883
658.407	4414
658.463	2976
658.518	3519
658.573	3757
658.629	2417
658.684	2881
658.739	2989
658.795	2506
658.850	2565
658.905	2551
658.960	2962
659.016	2093
659.071	3161
659.126	3190
659.181	4193
659.236	8853
659.291	8861
659.346	3387
659.401	3416
659.457	3020
659.512	1290
659.567	3017
659.622	2143
659.677	3437
659.732	1039
659.787	3321
659.842	3878
659.897	5078
659.952	3243
660.007	2579
660.061	2495
660.116	2448
660.171	2985
660.226	2666
660.281	3481
660.336	1644
660.391	3093
660.445	2034
660.500	2578
660.555	2300
660.610	2832
660.664	2575
660.719	2480
660.774	2289
660.828	3438
660.883	2385
660.938	3273
660.992	1484
661.047	2378
661.101	2065
661.156	2709
661.211	1805
661.265	2680
661.320	2467
661.374	3055
661.429	1691
661.483	2748
661.538	1845
661.592	3196
661.647	2655
661.701	3213
661.755	2943
661.810	2761
661.864	2389
661.919	2069
661.973	3179
662.027	2312
662.081	2129
662.136	3039
662.190	3088
662.244	3368
662.299	2536
662.353	2086
662.407	2069
662.461	2334
662.515	2708
662.569	2915
662.624	3409
662.678	2332
662.732	2980
662.786	2824
662.840	3161
662.894	2243
662.948	1439
663.002	2721
663.056	1532
663.110	1833
663.164	1668
663.218	2964
663.272	2180
663.326	3247
663.380	3572
663.434	3694
663.488	2341
663.542	2459
663.595	2527
663.649	2339
663.703	2762
663.757	2057
663.811	2483
663.864	3055
663.918	2635
663.972	2508
664.026	1701
664.079	2482
664.133	2801
664.187	2783
664.240	2437
664.294	2397
664.348	2713
664.401	2563
664.455	2423
664.508	2714
664.562	2628
664.615	2857
664.669	2328
664.722	2768
664.776	1967
664.829	3261
664.883	2329
664.936	2501
664.990	2330
665.043	3028
665.097	2694
665.150	4178
665.203	2040
665.257	2770
665.310	2759
665.363	2741
665.417	3141
665.470	3305
665.523	3426
665.576	3055
665.630	3008
665.683	2262
665.736	2199
665.789	2579
665.842	1968
665.895	2385
665.949	2508
666.002	2494
666.055	2923
666.108	4075
666.161	2491
666.214	4002
666.267	3309
666.320	5121
666.373	3108
666.426	3093
666.479	3051
666.532	3406
666.585	4973
666.638	5469
666.691	4183
666.744	5031
666.796	4425
666.849	3793
666.902	3862
666.955	3018
667.008	1330
667.060	2041
667.113	2249
667.166	2921
667.219	2090
667.271	2216
667.324	2559
667.377	2994
667.430	2548
667.482	3383
667.535	2804
667.587	2553
667.640	3880
667.693	5739
667.745	7800
667.798	9009
667.850	3819
667.903	2991
667.955	3262
668.008	3067
668.060	3607
668.113	2992
668.165	2983
668.218	3370
668.270	3431
668.322	3452
668.375	3283
668.427	4004
668.479	3126
668.532	3169
668.584	3480
668.636	3391
668.689	3018
668.741	2406
668.793	3447
668.845	2838
668.898	3675
668.950	3976
669.002	3266
669.054	2816
669.106	2503
669.158	3363
669.211	2772
669.263	2899
669.315	3202
669.367	3684
669.419	3253
669.471	5562
669.523	4409
669.575	7206
669.627	5222
669.679	4843
669.731	4132
669.783	4136
669.835	5679
669.886	4539
669.938	4512
669.990	3685
670.042	2735
670.094	4830
670.146	5162
670.197	6438
670.249	8209
670.301	9814
670.353	14246
670.404	19787
670.456	29507
670.508	45021
670.560	71914
670.611	120213
670.663	207159
670.715	472012
670.766	688894
670.818	252395
670.869	52208
670.921	25679
670.972	16746
671.024	12268
671.075	10514
671.127	8673
671.178	6982
671.230	6589
671.281	5913
671.333	6400
671.384	6021
671.436	7151
671.487	7224
671.538	8841
671.590	11029
671.641	15990
671.692	24181
671.744	44091
671.795	31852
671.846	11977
671.897	7559
671.949	5961
672.000	4488
672.051	5060
672.102	3999
672.153	3889
672.204	3255
672.256	4546
672.307	4336
672.358	3638
672.409	3756
672.460	3329
672.511	2996
672.562	3077
672.613	3324
672.664	3281
672.715	3334
672.766	3721
672.817	3162
672.868	2213
672.919	2852
672.970	3095
673.021	2288
673.071	3098
673.122	3301
673.173	2818
673.224	3192
673.275	2134
673.326	2837
673.376	2356
673.427	2159
673.478	2858
673.528	2826
673.579	3084
673.630	2958
673.680	3180
673.731	2607
673.782	1914
673.832	2967
673.883	2982
673.934	2107
673.984	2142
674.035	3539
674.085	3504
674.136	4227
674.186	3753
674.237	3972
674.287	7063
674.338	4316
674.388	2202
674.438	2433
674.489	2753
674.539	3207
674.589	2910
674.640	3254
674.690	2672
674.740	3274
674.791	3737
674.841	3801
674.891	3129
674.942	3197
674.992	2346
675.042	1819
675.092	2130
675.142	2345
675.193	2588
675.243	1815
675.293	2915
675.343	2256
675.393	1905
675.443	1991
675.493	2041
675.543	1558
675.593	3018
675.643	1781
675.693	2720
675.743	2811
675.793	1780
675.843	1636
675.893	3462
675.943	2755
675.993	2262
676.043	1288
676.093	2402
676.142	1746
676.192	2730
676.242	1737
676.292	2748
676.341	2441
676.391	1675
676.441	2288
676.491	2473
676.540	1636
676.590	2068
676.640	1683
676.689	1594
676.739	1168
676.789	1921
676.838	1563
676.888	2206
676.937	2366
676.987	1218
677.037	1999
677.086	1243
677.136	2134
677.185	1292
677.235	1338
677.284	1263
677.333	1865
677.383	1685
677.432	999
677.482	1565
677.531	1678
677.580	2673
677.630	1511
677.679	1431
677.728	1050
677.778	2213
677.827	1862
677.876	1259
677.925	1475
677.975	1917
678.024	2227
678.073	1464
678.122	2289
678.171	2704
678.220	1482
678.269	2372
678.319	2163
678.368	2102
678.417	1935
678.466	2064
678.515	1886
678.564	2623
678.613	1631
678.662	1617
678.711	1788
678.760	1718
678.809	2299
678.857	1463
678.906	1715
678.955	2038
679.004	1562
679.053	1554
679.102	2094
679.151	1410
679.199	1434
679.248	1614
679.297	2658
679.346	2300
679.394	1711
679.443	2341
679.492	2733
679.540	1898
679.589	2132
679.638	2541
679.686	1793
679.735	1232
679.784	1203
679.832	1940
679.881	1640
679.929	1002
679.978	757
680.026	408
680.075	2167
680.123	1326
680.172	932
680.220	1263
680.268	1372
680.317	1533
680.365	1698
680.414	1165
680.462	947
680.510	1136
680.559	541
680.607	1356
680.655	1711
680.703	961
680.752	613
680.800	1719
680.848	1444
680.896	714
680.945	1014
680.993	1458
681.041	1641
681.089	1687
681.137	1407
681.185	1086
681.233	608
681.258	962
681.281	1245
681.329	1505
681.377	1154
681.380	1225
681.425	1607
681.473	2148
681.502	2707
681.521	2995
681.569	2385
681.617	1789
681.624	1869
681.665	2019
681.713	2612
681.745	2739
681.761	2718
681.809	2741
681.857	2510
681.867	2510
681.904	2316
681.952	3028
681.989	2685
682.000	2509
682.048	2582
682.096	2599
682.111	3052
682.143	3875
682.191	2803
682.233	3578
682.239	3642
682.286	3099
682.334	3475
682.354	3487
682.382	3397
682.430	3671
682.476	3565
682.477	3518
682.525	4112
682.572	3944
682.598	3971
682.620	3948
682.667	3656
682.715	5040
682.720	5079
682.763	4947
682.810	4170
682.841	4194
682.857	4143
682.905	4648
682.952	4851
682.963	4934
683.000	4976
683.047	4713
683.085	5643
683.095	5868
683.142	5188
683.190	5308
683.206	4982
683.237	4273
683.284	5391
683.328	5418
683.332	5377
683.379	5083
683.426	4784
683.449	5052
683.473	5277
683.521	5275
683.568	6052
683.571	6084
683.615	6015
683.662	6340
683.693	6118
683.709	5959
683.757	6317
683.804	5699
683.814	5907
683.851	6478
683.898	6278
683.936	6660
683.945	6730
683.992	7508
684.039	7425
684.057	7610
684.086	7774
684.133	7688
684.179	8401
684.180	8388
684.227	7790
684.274	8115
684.300	8451
684.321	8665
684.368	8197
684.415	8521
684.422	8404
684.462	7428
684.509	7443
684.543	7760
684.556	7893
684.603	7870
684.649	8075
684.665	8190
684.696	8422
684.743	8607
684.786	8781
684.790	8775
684.837	9349
684.883	9793
684.908	9583
684.930	9272
684.977	10464
685.023	9625
685.029	9695
685.070	9696
685.117	9241
685.150	9495
685.164	9701
685.210	10086
685.257	10969
685.272	11032
685.303	10973
685.350	9955
685.393	10852
685.396	10921
685.443	11535
685.490	12376
685.514	12257
685.536	11930
685.583	12068
685.629	11408
685.636	11427
685.675	11344
685.722	11743
685.757	11565
685.768	11599
685.815	11916
685.861	11928
685.878	11992
685.908	11983
685.954	12686
686.000	12500
686.000	12496
686.047	13811
686.093	15833
686.121	15838
686.139	15093
686.185	14025
686.232	12886
686.242	12792
686.278	12911
686.324	12541
686.363	12032
686.370	11948
686.416	12021
686.463	11988
686.484	11936
686.509	11991
686.555	12079
686.601	11901
686.606	11979
686.647	12568
686.693	12393
686.727	12257
686.739	12220
686.785	12206
686.831	12619
686.848	12747
686.877	12864
686.923	12674
686.969	12187
686.969	12184
687.015	13338
687.061	12987
687.090	13496
687.107	13642
687.153	13164
687.199	12820
687.211	12830
687.245	13197
687.291	13642
687.332	14385
687.336	14434
687.382	14559
687.428	14148
687.453	14196
687.474	14018
687.520	14068
687.565	13878
687.574	13748
687.611	13805
687.657	14294
687.695	14162
687.702	14159
687.748	14768
687.794	15227
687.816	15390
687.839	15111
687.885	14154
687.931	13828
687.937	13754
687.976	14011
688.022	14682
688.058	14425
688.067	14325
688.113	14587
688.158	14363
688.179	14307
688.204	14374
688.249	14930
688.295	14994
688.300	15046
688.340	15512
688.386	15782
688.421	15797
688.431	15794
688.477	15347
688.522	16399
688.542	16281
688.567	16004
688.613	15481
688.658	15641
688.663	15602
688.703	15790
688.749	16076
688.784	16408
688.794	16427
688.839	16207
688.884	16204
688.905	15949
688.930	15718
688.975	15864
689.020	15879
689.026	15825
689.065	15620
689.110	15715
689.146	15763
689.155	15832
689.201	16193
689.246	16088
689.267	16105
689.291	16057
689.336	16469
689.381	16192
689.388	16166
689.426	16223
689.471	16553
689.509	16016
689.516	15897
689.561	16138
689.606	15610
689.630	15610
689.651	15878
689.696	16150
689.741	16278
689.750	16331
689.785	16481
689.830	16920
689.871	16610
689.875	16568
689.920	16686
689.965	16221
689.992	16042
690.010	16080
690.054	15918
690.099	16203
690.112	16269
690.144	16641
690.189	16278
690.233	16650
690.233	16674
690.278	16435
690.323	16539
690.354	16320
690.367	16406
690.412	16555
690.457	16939
690.474	17211
690.501	17332
690.546	16790
690.590	16644
690.595	16571
690.635	16564
690.680	16484
690.716	16494
690.724	16543
690.769	17096
690.813	17366
690.836	17366
690.857	17550
690.902	17850
690.946	18138
690.957	18374
690.991	19108
691.035	18978
691.077	19595
691.080	19688
691.124	19794
691.168	21094
691.198	21454
691.213	21357
691.257	21117
691.301	20858
691.318	20746
691.346	20332
691.390	19514
691.434	18644
691.439	18525
691.478	18534
691.522	18734
691.559	18712
691.567	18844
691.611	19538
691.655	19917
691.680	20284
691.699	20279
691.743	20026
691.787	20053
691.800	19775
691.831	19643
691.875	20297
691.919	20718
691.921	20691
691.964	20766
692.008	20925
692.041	20853
692.052	20943
692.096	21074
692.139	21572
692.162	21434
692.183	20989
692.227	20773
692.271	20043
692.282	19948
692.315	20519
692.359	20783
692.402	21333
692.403	21375
692.447	20869
692.490	20953
692.523	20899
692.534	21009
692.578	21058
692.622	21500
692.643	21353
692.666	20985
692.709	20661
692.753	20159
692.763	20057
692.797	20482
692.840	20941
692.884	20918
692.884	20959
692.928	20781
692.971	20914
693.004	20776
693.015	20875
693.059	21352
693.102	21440
693.124	21473
693.146	21507
693.189	21420
693.233	21573
693.245	21593
693.276	22115
693.320	22415
693.363	23085
693.365	23052
693.407	23179
693.450	23163
693.485	23346
693.493	23454
693.537	23489
693.580	23271
693.605	23470
693.624	23641
693.667	23490
693.710	23439
693.725	23428
693.753	24470
693.797	25786
693.840	27205
693.845	27306
693.883	26713
693.926	26094
693.966	25461
693.970	25411
694.013	23967
694.056	23170
694.086	22240
694.099	22452
694.142	23063
694.185	23888
694.206	24155
694.229	24339
694.272	24391
694.315	24833
694.326	24809
694.358	24917
694.401	25000
694.444	25272
694.446	25224
694.487	24905
694.530	24284
694.566	23894
694.573	23825
694.616	22789
694.659	22147
694.686	21566
694.702	21648
694.745	21858
694.787	21874
694.806	21834
694.830	21957
694.873	22191
694.916	22381
694.926	22393
694.959	22551
695.002	22583
695.044	22529
695.046	22477
695.087	22674
695.130	22768
695.166	23026
695.172	23117
695.215	22696
695.258	22971
695.286	22842
695.301	22835
695.343	22769
695.386	22699
695.406	22590
695.428	22658
695.471	22912
695.514	22803
695.526	22765
695.556	22940
695.599	23109
695.641	23160
695.646	23134
695.684	23359
695.726	23210
695.766	23312
695.769	23373
695.811	23176
695.854	23128
695.886	23012
695.896	23037
695.938	22697
695.981	22556
696.005	22395
696.023	22626
696.065	23098
696.108	23552
696.125	23654
696.150	23913
696.192	24326
696.235	24722
696.245	24736
696.277	24286
696.319	23627
696.361	23077
696.365	22957
696.404	23011
696.446	23184
696.485	23147
696.488	23222
696.530	23413
696.572	23722
696.604	23770
696.614	23793
696.656	23779
696.698	23611
696.724	23539
696.740	23485
696.783	23120
696.825	22882
696.844	22660
696.867	22855
696.909	23054
696.951	23235
696.964	23278
696.992	23319
697.034	23154
697.076	22938
697.083	22852
697.118	23327
697.160	23942
697.202	24399
697.203	24348
697.244	24218
697.286	23963
697.323	23672
697.327	23772
697.369	24129
697.411	24433
697.442	24634
697.453	24761
697.494	25010
697.536	25186
697.562	25270
697.578	25254
697.620	25058
697.661	24766
697.682	24590
697.703	24991
697.744	25599
697.786	26318
697.801	26475
697.828	26661
697.869	26805
697.911	26964
697.921	26948
697.952	26372
697.994	25468
698.035	24568
698.040	24388
698.077	24159
698.118	23867
698.160	23512
698.160	23444
698.201	23880
698.243	24249
698.279	24491
698.284	24573
698.325	24719
698.367	24870
698.399	24897
698.408	24916
698.449	24687
698.491	24490
698.518	24249
698.532	24336
698.573	24444
698.614	24538
698.638	24525
698.656	24849
698.697	25432
698.738	26027
698.757	26237
698.779	26492
698.820	26831
698.862	27168
698.877	27225
698.903	27444
698.944	27661
698.985	27881
698.996	27867
699.026	27534
699.067	26963
699.116	26211
699.235	25996
699.354	25156
699.474	26154
699.593	28194
699.713	26811
699.832	25594
699.951	26281
700.070	26199
700.190	24894
700.309	26085
700.428	26986
700.547	25252
700.667	25974
700.786	27852
700.905	24345
701.024	26088
701.143	24486
701.262	23772
701.381	22742
701.500	24391
701.619	25583
701.738	23341
701.857	21765
701.976	21429
702.095	22343
702.214	24585
702.333	25139
702.452	23861
702.571	22485
702.690	22639
702.809	22092
702.928	22237
703.047	22221
703.165	21951
703.284	20945
703.403	21843
703.522	24921
703.640	24061
703.759	27854
703.878	35948
703.997	22946
704.115	21504
704.234	20973
704.353	21632
704.471	20762
704.590	19567
704.708	19130
704.827	20167
704.946	21336
705.064	22943
705.183	20876
705.301	25093
705.420	32209
705.538	29359
705.656	25308
705.775	23876
705.893	26704
706.012	26673
706.130	25888
706.249	26315
706.367	26483
706.485	28170
706.604	25451
706.722	27781
706.840	32221
706.958	32491
707.077	26246
707.195	25523
707.313	24594
707.431	23472
707.549	22699
707.668	24122
707.786	23825
707.904	23728
708.022	22668
708.140	23518
708.258	22451
708.376	23780
708.494	22925
708.612	26596
708.730	33632
708.848	32476
708.966	29480
709.084	29349
709.202	27092
709.320	27749
709.438	27943
709.556	28603
709.674	27711
709.791	28039
709.909	26013
710.027	26793
710.145	25946
710.263	27307
710.380	27017
710.498	25696
710.616	26122
710.733	27136
710.851	27699
710.969	27459
711.086	27765
711.204	26214
711.322	26940
711.439	26742
711.557	25568
711.674	26184
711.792	25318
711.909	24144
712.027	25208
712.144	24076
712.262	25446
712.379	28235
712.497	37298
712.614	36691
712.732	30821
712.849	28939
712.966	32606
713.084	38747
713.201	32429
713.318	31502
713.436	29995
713.553	31258
713.670	31289
713.787	34990
713.905	34651
714.022	30146
714.139	29846
714.256	34557
714.373	41350
714.490	58619
714.608	133776
714.725	517925
714.842	459562
714.959	51730
715.076	33750
715.193	30724
715.310	27404
715.427	27410
715.544	26041
715.661	26053
715.778	26048
715.895	29861
716.011	28130
716.128	25752
716.245	26657
716.362	30936
716.479	30677
716.596	25364
716.713	26070
716.829	25527
716.946	24458
717.063	22614
717.180	23809
717.296	22682
717.413	23213
717.530	24033
717.646	24003
717.763	23825
717.880	21590
717.996	22903
718.113	23105
718.229	22152
718.346	21416
718.462	22719
718.579	27735
718.695	42459
718.812	34968
718.928	32183
719.045	24179
719.161	21650
719.277	20150
719.394	21297
719.510	22144
719.626	22039
719.743	27706
719.859	30949
719.975	46225
720.092	153177
720.208	299987
720.324	47057
720.440	25363
720.557	26993
720.673	37482
720.789	51381
720.905	97769
721.021	34621
721.137	20113
721.253	22802
721.369	21063
721.486	24579
721.602	32948
721.718	19929
721.834	17725
721.950	19531
722.066	18980
722.181	18584
722.297	19265
722.413	18356
722.529	18406
722.645	18654
722.761	17260
722.877	16995
722.993	16992
723.108	18943
723.224	17869
723.340	17629
723.456	16770
723.571	17470
723.687	16252
723.803	17334
723.918	17046
724.034	16651
724.150	17220
724.265	21035
724.381	39500
724.497	46234
724.612	16929
724.728	15512
724.843	15818
724.959	19159
725.074	38242
725.190	40088
725.305	18612
725.421	17308
725.536	14298
725.651	14664
725.767	15270
725.882	15244
725.997	14725
726.113	15930
726.228	13969
726.343	14555
726.459	14456
726.574	15622
726.689	14732
726.804	14966
726.920	13683
727.035	14717
727.150	13846
727.265	15397
727.380	15906
727.495	13517
727.610	12698
727.725	14543
727.841	13267
727.956	14889
728.071	16368
728.186	13465
728.301	11830
728.416	14663
728.531	12831
728.645	11769
728.760	14093
728.875	15025
728.990	14528
729.105	13646
729.220	13619
729.335	13953
729.449	13193
729.564	12294
729.679	12110
729.794	12827
729.908	14125
730.023	12938
730.138	10717
730.253	12824
730.367	11478
730.482	12102
730.596	12701
730.711	12617
730.826	13677
730.940	12808
731.055	12370
731.169	12868
731.284	10790
731.398	12493
731.513	14981
731.627	14150
731.742	16154
731.856	17424
731.970	13531
732.085	15616
732.199	19127
732.313	29947
732.428	63793
732.542	159737
732.656	81824
732.771	22774
732.885	16108
732.999	15218
733.113	14437
733.227	13920
733.342	11855
733.456	12068
733.570	11261
733.684	12684
733.798	11402
733.912	11652
734.026	11189
734.140	11163
734.254	13667
734.368	23278
734.482	25477
734.596	10961
734.710	10847
734.824	11273
734.938	10241
735.052	10539
735.166	13067
735.280	12806
735.393	10597
735.507	11199
735.621	16391
735.735	26871
735.849	12983
735.962	10694
736.076	11243
736.190	11774
736.303	16560
736.417	19812
736.531	10699
736.644	11190
736.758	9181
736.872	10130
736.985	9238
737.099	10447
737.212	8955
737.326	10287
737.439	9232
737.553	9557
737.666	9758
737.780	8870
737.893	8640
738.007	9979
738.120	9709
738.233	10241
738.347	9812
738.460	9982
738.573	9512
738.687	10892
738.800	9370
738.913	12842
739.026	10457
739.140	9411
739.253	7729
739.366	9198
739.479	9284
739.592	8967
739.705	9523
739.818	9178
739.932	8847
740.045	8813
740.158	9581
740.271	9445
740.384	9545
740.497	9508
740.610	8387
740.723	9282
740.836	9839
740.949	12016
741.062	12541
741.174	11313
741.287	8934
741.400	9141
741.513	9609
741.626	10680
741.739	8953
741.851	8744
741.964	9379
742.077	8651
742.189	8573
742.302	10083
742.415	9642
742.527	8645
742.640	8421
742.753	8583
742.865	8264
742.978	8720
743.090	8316
743.203	8568
743.316	7359
743.428	7674
743.541	7681
743.653	8149
743.766	7554
743.878	8327
743.990	10050
744.103	11909
744.215	7964
744.327	9320
744.440	9697
744.552	14975
744.664	8353
744.777	8335
744.889	6627
745.001	7833
745.113	7178
745.226	7620
745.338	7045
745.450	7632
745.562	6621
745.674	6709
745.786	7611
745.898	7985
746.010	6429
746.122	7401
746.234	6860
746.347	6859
746.459	7481
746.570	7770
746.682	7375
746.794	8589
746.906	6858
747.018	6782
747.130	7519
747.242	6275
747.354	6198
747.466	8163
747.577	6521
747.689	6948
747.801	7158
747.913	5925
748.024	5531
748.136	6521
748.248	6535
748.359	7415
748.471	6020
748.583	7083
748.694	5787
748.806	7729
748.918	9436
749.029	7775
749.141	7896
749.252	8709
749.364	9418
749.475	16882
749.587	11716
749.698	6864
749.809	6706
749.921	5749
750.032	6154
750.144	6307
750.255	5841
750.366	5491
750.478	6021
750.589	7242
750.700	6242
750.811	7465
750.923	8251
751.034	19457
751.145	17602
751.256	7706
751.367	5881
751.479	6737
751.590	6241
751.701	6800
751.812	6171
751.923	5813
752.034	6541
752.145	5971
752.256	5366
752.367	6410
752.478	5760
752.589	5782
752.700	5572
752.811	5452
752.922	6038
753.032	6580
753.143	8127
753.254	6249
753.365	6585
753.476	5754
753.586	5379
753.697	5890
753.808	5368
753.919	5518
754.029	4863
754.140	5912
754.251	5648
754.361	5407
754.472	5529
754.582	5459
754.693	5403
754.804	5064
754.914	4667
755.025	5109
755.135	5312
755.246	5889
755.356	4304
755.466	6353
755.577	4965
755.687	5826
755.798	5221
755.908	4906
756.018	5000
756.129	4602
756.239	5772
756.349	5606
756.460	4529
756.570	6567
756.680	4796
756.790	6093
756.900	6765
757.011	5674
757.121	4524
757.231	5472
757.341	5048
757.451	4809
757.561	3994
757.671	5945
757.781	3995
757.891	6116
758.001	5762
758.111	5797
758.221	6458
758.331	7036
758.441	6468
758.551	8682
758.661	7846
758.771	5645
758.880	6141
758.990	6242
759.100	5196
759.210	6563
759.320	5482
759.429	6819
759.539	5791
759.649	5572
759.758	6160
759.868	7152
759.978	6724
760.087	7348
760.197	6684
760.307	6569
760.416	6233
760.526	6253
760.635	6136
760.745	6407
760.854	6621
760.964	7377
761.073	7098
761.182	7528
761.292	7173
761.401	7155
761.511	5555
761.620	5933
761.729	5268
761.839	5980
761.948	5396
762.057	7343
762.166	5785
762.276	4704
762.385	6362
762.494	5483
762.603	5582
762.712	6458
762.822	5379
762.931	5784
763.040	5323
763.149	5021
763.258	5438
763.367	6456
763.476	5063
763.585	6384
763.694	5894
763.803	7018
763.912	6649
764.021	6087
764.130	5187
764.238	5582
764.347	5831
764.456	6686
764.565	6791
764.674	6073
764.783	5377
764.891	5787
765.000	6046
765.109	7423
765.217	6800
765.326	9217
765.435	10025
765.543	9051
765.652	9584
765.761	10990
765.869	13906
765.978	21805
766.086	36300
766.195	68638
766.303	182033
766.412	523034
766.520	429797
766.629	107838
766.737	40792
766.846	24156
766.954	17631
767.062	15169
767.171	12181
767.279	10687
767.387	8629
767.496	8481
767.604	8613
767.712	8236
767.820	7104
767.928	7990
768.037	6011
768.145	7560
768.253	7197
768.361	6966
768.469	7146
768.577	7433
768.685	6960
768.793	7373
768.901	6357
769.009	7474
769.117	7056
769.225	9218
769.333	10135
769.441	17762
769.549	28425
769.657	62725
769.765	210548
769.873	442765
769.981	143858
770.088	31786
770.196	17457
770.304	12658
770.412	11235
770.519	8899
770.627	7857
770.735	8188
770.842	7202
770.950	7549
771.058	7148
771.165	7182
771.273	6274
771.380	5669
771.488	6953
771.595	6390
771.703	6677
771.810	6763
771.918	5799
772.025	6481
772.133	5966
772.240	6259
772.348	7117
772.455	7195
772.562	5418
772.670	6865
772.777	6253
772.884	6845
772.991	5311
773.099	5976
773.206	4965
773.313	6557
773.420	6050
773.528	5347
773.635	5565
773.742	6522
773.849	5223
773.956	5613
774.063	5538
774.170	5661
774.277	5833
774.384	5699
774.491	5803
774.598	6879
774.705	6280
774.812	7732
774.919	7071
775.026	6641
775.133	5754
775.239	5274
775.346	5860
775.453	5250
775.560	5914
775.667	6695
775.773	5172
775.880	6209
775.987	5078
776.093	6519
776.200	5470
776.307	5887
776.413	5562
776.520	5597
776.627	6066
776.733	6088
776.840	3678
776.946	7241
777.053	6905
777.159	8402
777.266	5550
777.372	9054
777.478	6754
777.585	6534
777.691	5255
777.798	5715
777.904	6026
778.010	8722
778.117	7248
778.223	6054
778.329	5391
778.435	5982
778.542	5867
778.648	6292
778.754	3651
778.860	5212
778.966	4877
779.072	5807
779.178	4795
779.284	6098
779.391	4633
779.497	4019
779.603	6847
779.708	4314
779.815	5870
779.920	10105
780.026	13931
780.132	5578
780.238	4270
780.344	5292
780.450	5909
780.556	5037
780.661	4181
780.767	4711
780.873	4757
780.979	5312
781.085	4727
781.190	4874
781.296	4229
781.402	3855
781.507	3595
781.613	4068
781.719	3632
781.824	4251
781.930	4043
782.035	5106
782.141	4663
782.246	3877
782.352	4607
782.457	4657
782.563	3775
782.668	4886
782.773	4545
782.879	4408
782.984	4371
783.090	6033
783.195	7900
783.300	6882
783.405	5174
783.511	4746
783.616	4939
783.721	4961
783.826	4457
783.932	4964
784.037	4971
784.142	5081
784.247	4609
784.352	4677
784.457	4350
784.562	4975
784.667	4433
784.772	5001
784.877	2234
784.982	5120
785.087	3746
785.192	6032
785.297	4005
785.402	4739
785.507	3804
785.611	4784
785.716	4581
785.821	5203
785.926	3299
786.031	3882
786.135	4023
786.240	4350
786.345	2748
786.450	4397
786.554	3595
786.659	3813
786.763	2855
786.868	5061
786.973	4046
787.077	4342
787.182	3223
787.286	4418
787.391	3545
787.495	3515
787.600	4371
787.704	3132
787.809	3920
787.913	3444
788.017	3692
788.122	3548
788.226	3645
788.330	3998
788.435	3910
788.539	4214
788.643	2280
788.747	3383
788.852	3593
788.956	3502
789.060	3224
789.164	3541
789.268	3043
789.372	3890
789.476	2770
789.580	3405
789.684	2201
789.788	4351
789.892	3085
789.996	4728
790.100	3099
790.204	3702
790.308	3956
790.412	3729
790.516	4129
790.620	3709
790.724	4208
790.828	3208
790.931	3074
791.035	5400
791.139	4017
791.242	2951
791.346	4265
791.450	3469
791.554	2831
791.657	2741
791.761	4231
791.864	4301
791.968	3351
792.072	3710
792.175	3152
792.279	3636
792.382	4086
792.486	4260
792.589	2920
792.693	5155
792.796	2183
792.899	4678
793.003	4209
793.106	1734
793.209	3343
793.313	3989
793.416	2763
793.519	4338
793.623	6635
793.726	8099
793.829	4112
793.932	4595
794.035	2884
794.138	4891
794.242	4324
794.345	5140
794.448	5249
794.551	7192
794.654	8276
794.757	9607
794.860	6164
794.963	4716
795.066	2515
795.169	3965
795.272	1808
795.375	3628
795.477	2425
795.580	3367
795.683	2405
795.786	3506
795.889	1256
795.991	3969
796.094	4698
796.197	2963
796.300	3753
796.402	2710
796.505	2425
796.608	2901
796.710	3672
796.813	3251
796.915	2288
797.018	3565
797.120	2880
797.223	1893
797.326	2998
797.428	2808
797.530	2972
797.633	2910
797.735	4534
797.838	7160
797.940	5781
798.042	2750
798.145	1965
798.247	3613
798.349	2030
798.452	3856
798.554	2984
798.656	2701
798.758	4202
798.860	3269
798.962	2424
799.065	2599
799.167	989
799.269	4050
799.371	4091
799.473	4578
799.575	4289
799.677	5751
799.779	5793
799.881	5697
799.983	4482
800.085	2993
800.187	3001
800.289	2423
800.390	2025
800.492	2611
800.594	3440
800.696	2436
800.798	2473
800.899	2118
801.001	2988
801.103	2150
801.205	1817
801.306	2616
801.408	2372
801.509	2797
801.611	1904
801.713	3656
801.814	1669
801.916	3021
802.017	1681
802.119	2143
802.220	2013
802.322	1631
802.423	5782
802.525	2960
802.626	2534
802.727	3615
802.829	3203
802.930	1306
803.031	3948
803.133	2507
803.234	2108
803.335	2986
803.436	1053
803.538	2931
803.639	1096
803.740	2647
803.841	1772
803.942	3027
804.043	2480
804.144	2548
804.245	2311
804.346	2915
804.447	2602
804.548	4743
804.649	4861
804.750	3554
804.851	1837
804.952	2052
805.053	2059
805.154	1353
805.255	2313
805.355	1821
805.456	2420
805.557	2431
805.658	1502
805.758	2764
805.859	1554
805.960	1663
806.061	1737
806.161	2788
806.262	2109
806.362	2477
806.463	2208
806.564	3222
806.664	2362
806.765	4687
806.865	2894
806.966	2929
807.066	1680
807.166	2826
807.267	3061
807.367	1919
807.468	2553
807.568	1013
807.668	2375
807.769	2673
807.869	1553
807.969	2183
808.069	2209
808.170	2852
808.270	1891
808.370	3493
808.470	3370
808.570	2775
808.670	1958
808.770	2784
808.870	1635
808.970	3094
809.070	1684
809.170	1688
809.271	2219
809.370	2581
809.470	2728
809.570	2210
809.670	853
809.770	1553
809.870	3012
809.970	1559
810.070	1352
810.169	2541
810.269	410
810.369	3700
810.469	1256
810.568	2335
810.668	1642
810.768	1549
810.867	1677
810.967	2329
811.066	1154
811.166	1947
811.265	2280
811.365	2290
811.464	2105
811.564	2982
811.663	2776
811.763	1052
811.862	2304
811.962	2184
812.061	2070
812.160	2375
812.260	2637
812.359	4242
812.458	6399
812.557	16245
812.657	22413
812.756	9504
812.855	3212
812.954	2246
813.053	3458
813.153	2866
813.252	2391
813.351	3425
813.450	3017
813.549	2343
813.648	3076
813.747	2475
813.846	2980
813.945	2856
814.044	1962
814.143	3549
814.242	3024
814.341	1990
814.439	3813
814.538	4205
814.637	2842
814.736	3023
814.835	3321
814.933	3588
815.032	4065
815.131	4902
815.229	4714
815.328	5613
815.427	4155
815.525	4762
815.624	5041
815.722	4523
815.821	4775
815.919	4483
816.018	5003
816.116	7429
816.215	4797
816.313	6610
816.412	7326
816.510	7223
816.609	7996
816.707	8980
816.805	8268
816.904	8853
817.002	9520
817.100	11469
817.198	12936
817.296	13540
817.395	15534
817.493	20471
817.591	23011
817.689	30211
817.787	40178
817.885	62061
817.983	101105
818.081	188193
818.179	378470
818.277	704227
818.375	614228
818.473	306032
818.571	156887
818.669	104093
818.767	84408
818.865	81925
818.963	92497
819.061	122496
819.158	187692
819.256	328920
819.354	604677
819.452	879041
819.549	667753
819.647	377636
819.745	211275
819.842	130894
819.940	89807
820.038	65629
820.135	49544
820.233	42208
820.330	32217
820.428	26183
820.525	23907
820.623	20275
820.720	16780
820.818	16718
820.915	14504
821.012	13567
821.110	10616
821.207	12173
821.304	9387
821.402	9516
821.499	9317
821.596	9168
821.693	8597
821.791	9248
821.888	8552
821.985	13150
822.082	10655
822.179	7589
822.276	5348
822.373	5828
822.470	5012
822.567	4620
822.664	4517
822.761	6031
822.858	3601
822.955	4550
823.052	3767
823.149	4034
823.246	3842
823.343	3012
823.440	4174
823.536	4211
823.633	2736
823.730	3290
823.827	3541
823.923	3746
824.020	4228
824.117	3676
824.213	2367
824.310	4194
824.407	2020
824.503	3382
824.600	3263
824.696	3261
824.793	3589
824.889	2888
824.986	2781
825.082	2554
825.179	3392
825.275	2342
825.371	1586
825.468	3026
825.564	1606
825.660	2574
825.757	2186
825.853	3371
825.949	1700
826.045	2931
826.142	1320
826.238	2342
826.334	1901
826.430	1515
826.526	3208
826.622	1740
826.718	1657
826.814	2208
826.910	2581
827.006	2094
827.102	1234
827.198	2670
827.294	1696
827.390	1602
827.486	2724
827.582	1171
827.678	904
827.774	2611
827.869	1294
827.965	2980
828.061	446
828.157	1486
828.252	1807
828.348	1837
828.444	2370
828.539	1072
828.635	1840
828.731	3060
828.826	176
828.922	2003
829.017	1383
829.113	2552
829.208	850
829.304	890
829.399	2866
829.495	1723
829.590	1750
829.685	1576
829.781	2346
829.876	1166
829.971	785
830.066	1123
830.162	1401
830.257	1047
830.352	445
830.447	2386
830.543	1660
830.638	1876
830.733	2399
830.828	1015
830.923	2358
831.018	1922
831.113	1881
831.208	1915
831.303	1143
831.398	1388
831.493	1240
831.588	1528
831.683	988
831.778	1703
831.873	1695
831.967	2437
832.062	501
832.157	1324
832.252	2235
832.346	1477
832.441	3308
832.536	2986
832.631	8421
832.725	7488
832.820	1449
832.914	1766
833.009	560
833.104	3528
833.198	3196
833.293	940
833.387	1895
833.482	2124
833.576	1601
833.670	2504
833.765	1028
833.859	1608
833.954	1583
834.048	1916
834.142	1208
834.237	1732
834.331	1658
834.425	1367
834.519	398
834.613	2564
834.708	1592
834.802	2003
834.896	-153
834.990	680
835.084	1170
835.178	866
835.272	1558
835.366	1275
835.460	539
835.554	1791
835.648	801
835.742	1074
835.836	720
835.930	576
836.024	1249
836.117	2301
836.211	2002
836.305	2998
836.399	4048
836.493	488
836.586	1564
836.680	977
836.774	371
836.867	1726
836.961	81
837.055	741
837.148	601
837.242	1368
837.335	1544
837.429	1556
837.522	1569
837.616	2784
837.709	5178
837.803	3326
837.896	1627
837.989	1884
838.083	3703
838.176	6690
838.269	4892
838.363	1790
838.456	807
838.549	3591
838.642	4886
838.735	9698
838.829	4273
838.922	1183
839.015	1620
839.108	471
839.201	1143
839.294	1738
839.387	1811
839.480	1864
839.573	2637
839.666	3975
839.759	714
839.852	880
839.945	645
840.038	1515
840.131	803
840.223	170
840.316	1534
840.409	708
840.502	-89
840.594	1688
840.687	22
840.780	1588
840.873	774
840.965	1406
841.058	2540
841.150	6159
841.243	3326
841.336	1843
841.428	630
841.521	1366
841.613	621
841.706	2329
841.798	-34
841.890	1176
841.983	234
842.075	1978
842.167	663
842.260	2550
842.352	2679
842.444	3864
842.537	7277
842.629	10127
842.721	2246
842.813	1320
842.905	648
842.997	1689
843.090	1232
843.182	3708
843.274	7508
843.366	17036
843.458	29087
843.550	17891
843.642	2486
843.734	2018
843.826	2238
843.918	2856
844.009	1527
844.101	1279
844.193	1069
844.285	709
844.377	991
844.469	2698
844.560	1063
844.652	1009
844.744	636
844.835	1272
844.927	1531
845.019	1198
845.110	1476
845.202	1807
845.293	621
845.385	1459
845.476	467
845.568	1746
845.659	1042
845.751	1112
845.842	417
845.934	1061
846.025	303
846.116	950
846.208	25
846.299	1081
846.390	130
846.482	1356
846.573	2068
846.664	2669
846.755	4050
846.846	4382
846.937	-728
847.029	703
847.120	-418
847.211	1475
847.302	1075
847.393	-476
847.484	1350
847.575	780
847.666	259
847.757	572
847.847	739
847.938	1806
848.029	-369
848.120	570
848.211	820
848.302	957
848.392	846
848.483	1084
848.574	67
848.664	1002
848.755	288
848.846	1093
848.936	-85
849.027	1968
849.118	914
849.208	1372
849.299	1186
849.389	3161
849.480	6255
849.570	11314
849.661	21037
849.751	31793
849.841	10339
849.932	2532
850.022	287
850.112	1782
850.203	-102
850.293	1459
850.383	76
850.474	259
850.564	568
850.654	731
850.744	380
850.834	975
850.924	315
851.014	1435
851.104	-17
851.194	790
851.284	1808
851.374	2586
851.464	1143
851.554	1387
851.644	710
851.734	2855
851.824	1491
851.914	416
852.004	432
852.094	332
852.183	648
852.273	1101
852.363	-120
852.452	1274
852.542	333
852.632	756
852.721	449
852.811	450
852.901	-298
852.990	1118
853.080	764
853.169	1684
853.259	957
853.348	1604
853.438	1783
853.527	3420
853.617	4950
853.706	9847
853.795	16068
853.885	37347
853.974	67829
854.063	127250
854.152	180588
854.242	65206
854.331	11994
854.420	5677
854.509	4398
854.598	3467
854.687	3295
854.777	3082
854.866	1608
854.955	1550
855.044	1446
855.133	1365
855.222	241
855.311	1399
855.400	1133
855.488	1834
855.577	964
855.666	1749
855.755	878
855.844	1406
855.933	156
856.021	1141
856.110	731
856.199	446
856.288	-38
856.376	478
856.465	-442
856.554	414
856.642	-42
856.731	839
856.819	611
856.908	1118
856.996	-114
857.085	34
857.173	247
857.262	908
857.350	782
857.438	610
857.527	753
857.615	175
857.703	800
857.792	905
857.880	449
857.968	222
858.056	179
858.145	1535
858.233	501
858.321	256
858.409	362
858.497	879
858.585	-256
858.673	1680
858.761	207
858.849	573
858.937	-35
859.025	540
859.113	213
859.201	101
859.289	1044
859.377	382
859.465	311
859.552	868
859.640	240
859.728	699
859.816	-454
859.903	789
859.991	-1036
860.079	823
860.166	-301
860.254	904
860.342	461
860.429	-267
860.517	528
860.604	731
860.692	758
860.779	160
860.867	329
860.954	486
861.042	964
861.129	1435
861.216	546
861.304	1426
861.391	462
861.478	603
861.565	204
861.653	1311
861.740	-604
861.827	438
861.914	651
862.001	982
862.089	390
862.176	603
862.263	-536
862.350	659
862.437	-28
862.524	651
862.611	599
862.698	337
862.785	898
862.871	1141
862.958	-436
863.045	1485
863.132	632
863.219	89
863.306	-317
863.392	1618
863.479	186
863.566	390
863.652	41
863.739	517
863.826	1004
863.912	355
863.999	82
864.086	317
864.172	280
864.259	496
864.345	553
864.432	106
864.518	684
864.604	834
864.691	603
864.777	2061
864.863	897
864.950	1558
865.036	715
865.122	2126
865.209	1904
865.295	2437
865.381	2365
865.467	3280
865.553	2655
865.639	4376
865.726	8802
865.812	18499
865.898	33501
865.984	49786
866.070	93223
866.156	90393
866.242	23148
866.328	6473
866.414	3694
866.499	2802
866.585	1911
866.671	1736
866.757	2537
866.843	1654
866.928	706
867.014	1870
867.100	1696
867.186	1443
867.271	1487
867.357	3765
867.442	2582
867.528	1790
867.614	1112
867.699	2013
867.785	1407
867.870	1747
867.956	2246
868.041	2379
868.127	1376
868.212	2145
868.297	1253
868.383	2155
868.468	2726
868.553	4855
868.639	5377
868.724	11164
868.809	9216
868.894	2404
868.979	448
869.065	1644
869.150	647
869.235	786
869.320	249
869.405	664
869.490	103
869.575	260
869.660	129
869.745	1540
869.830	517
869.915	959
870.000	1107
870.085	754
870.169	1454
870.254	1046
870.339	-623
870.424	847
870.509	-180
870.593	557
870.678	623
870.763	-12
870.847	1460
870.932	-31
871.016	557
871.101	1241
871.186	-461
871.270	842
871.355	331
871.439	812
871.523	685
871.608	1040
871.692	957
871.777	869
871.861	757
871.945	310
872.030	799
872.114	292
872.198	325
872.282	506
872.367	-276
872.451	1013
872.535	4
872.619	561
872.703	-117
872.787	265
872.871	545
872.955	620
873.039	572
873.123	1110
873.207	750
873.291	526
873.375	315
873.459	124
873.543	-307
873.627	547
873.711	101
873.794	492
873.878	122
873.962	90
874.045	209
874.129	-108
874.137	-88
874.213	107
874.245	77
874.296	31
874.352	48
874.380	53
874.460	565
874.464	585
874.547	-427
874.568	-86
874.631	940
874.676	414
874.714	-53
874.784	1283
874.798	1553
874.881	1229
874.892	1144
874.965	607
874.999	268
875.048	-247
875.107	504
875.131	820
875.215	-412
875.215	-411
875.298	366
875.323	237
875.381	-40
875.430	648
875.465	1160
875.538	753
875.548	675
875.631	214
875.646	227
875.714	458
875.753	473
875.798	395
875.861	13
875.881	-68
875.964	745
875.968	736
876.047	536
876.076	843
876.130	1420
876.183	606
876.213	130
876.291	1519
876.296	1612
876.379	352
876.398	317
876.462	174
876.506	63
876.545	-2
876.613	260
876.628	331
876.711	536
876.721	615
876.794	1095
876.828	956
876.877	807
876.935	1109
876.960	1268
877.043	802
877.043	804
877.125	1131
877.150	1135
877.208	1264
877.258	1223
877.291	1109
877.365	1409
877.374	1465
877.456	1511
877.472	1396
877.539	880
877.579	1186
877.622	1389
877.687	1146
877.704	1146
877.787	1455
877.794	1424
877.869	899
877.901	997
877.952	1218
878.008	749
878.034	544
878.115	1149
878.117	1160
878.199	-60
878.222	130
878.282	714
878.329	848
878.364	895
878.437	1383
878.447	1444
878.529	325
878.544	352
878.611	624
878.651	456
878.694	199
878.758	733
878.776	922
878.858	808
878.865	830
878.941	920
878.972	555
879.023	47
879.078	395
879.105	645
879.185	1253
879.187	1263
879.269	1185
879.292	1218
879.351	962
879.399	789
879.433	756
879.506	483
879.516	487
879.598	914
879.613	945
879.680	908
879.720	1047
879.762	1245
879.827	708
879.844	541
879.926	229
879.933	274
880.007	665
880.040	757
880.089	1183
880.147	1756
880.171	1908
880.253	3872
880.254	3885
880.335	5891
880.360	6397
880.417	8878
880.467	12903
880.499	15416
880.574	18674
880.580	18456
880.662	6446
880.680	5012
880.744	2364
880.787	1469
880.825	1063
880.893	849
880.907	829
880.989	547
881.000	594
881.070	962
881.106	743
881.152	532
881.213	847
881.233	808
881.315	-91
881.319	-64
881.396	1188
881.426	988
881.478	345
881.532	460
881.559	547
881.639	-43
881.641	-55
881.722	485
881.745	441
881.803	457
881.852	504
881.885	644
881.958	1092
881.966	1060
882.047	1293
882.064	1140
882.129	1314
882.171	1947
882.210	2533
882.277	3140
882.291	3137
882.372	1540
882.383	1433
882.454	492
882.489	247
882.535	346
882.596	75
882.616	19
882.697	776
882.702	766
882.778	567
882.808	876
882.859	1432
882.914	1159
882.940	872
883.020	559
883.021	565
883.102	737
883.127	956
883.183	1395
883.233	1120
883.264	818
883.339	1184
883.345	1186
883.426	262
883.445	182
883.507	591
883.551	612
883.587	597
883.657	1003
883.668	1076
883.749	1465
883.763	1464
883.830	1113
883.869	998
883.910	822
883.975	468
883.991	422
884.072	372
884.081	357
884.152	1010
884.187	1254
884.233	1057
884.292	1011
884.314	1074
884.394	742
884.398	758
884.475	1049
884.504	974
884.555	943
884.610	797
884.636	600
884.716	559
884.716	567
884.797	1216
884.821	1287
884.877	1270
884.927	1307
884.958	1130
885.033	365
885.038	373
885.118	1229
885.139	1237
885.199	345
885.244	91
885.279	338
885.350	241
885.359	241
885.439	774
885.456	751
885.520	449
885.561	642
885.600	924
885.667	751
885.680	715
885.760	1057
885.773	1088
885.840	1023
885.878	919
885.920	909
885.984	665
886.000	637
886.080	949
886.089	953
886.160	860
886.195	898
886.240	922
886.300	809
886.320	841
886.400	1080
886.406	1096
886.480	1221
886.511	1269
886.560	1675
886.616	1876
886.640	1644
886.720	1001
886.722	981
886.800	596
886.827	525
886.879	650
886.932	575
886.959	791
887.038	1577
887.039	1585
887.119	1733
887.143	1780
887.198	1538
887.248	1245
887.278	1257
887.354	1204
887.358	1197
887.437	957
887.459	950
887.517	1173
887.564	1200
887.596	1008
887.669	633
887.676	652
887.755	875
887.774	964
887.835	1266
887.880	1272
887.914	1169
887.985	1188
887.994	1199
888.073	1045
888.090	1058
888.153	921
888.195	718
888.232	779
888.300	1016
888.311	1083
888.391	1437
888.405	1521
888.470	1566
888.510	1488
888.549	1315
888.615	1144
888.628	1072
888.708	512
888.720	436
888.787	656
888.825	739
888.866	876
888.930	1196
888.945	1218
889.024	1178
889.035	1185
889.103	787
889.140	541
889.182	779
889.245	1160
889.261	1274
889.340	1746
889.349	1804
889.419	1714
889.454	1633
889.498	1532
889.559	1413
889.577	1336
889.656	966
889.664	930
889.735	1449
889.768	1690
889.814	1873
889.873	2106
889.978	996
890.083	1173
890.187	773
890.292	1588
890.397	759
890.501	871
890.606	1065
890.710	2489
890.815	1300
890.919	280
891.024	1222
891.128	1357
891.233	753
891.337	1131
891.442	1262
891.546	1016
891.650	1229
891.755	404
891.859	2204
891.963	1351
892.068	1467
892.172	1490
892.276	650
892.380	758
892.484	1342
892.589	1387
892.693	1395
892.797	1375
892.901	998
893.005	1181
893.109	1780
893.213	1396
893.317	856
893.421	736
893.525	224
893.629	1176
893.733	1430
893.837	1232
893.941	213
894.045	1747
894.148	1279
894.252	1403
894.356	1466
894.460	1421
894.564	728
894.667	1202
894.771	1475
894.875	908
894.978	1250
895.082	1126
895.186	1090
895.289	1785
895.393	1082
895.496	1013
895.600	594
895.703	991
895.807	1213
895.910	1335
896.014	1459
896.117	831
896.221	1608
896.324	1056
896.427	678
896.531	655
896.634	1320
896.737	1303
896.840	1024
896.944	1685
897.047	397
897.150	1271
897.253	637
897.356	1688
897.460	427
897.563	512
897.666	729
897.769	1356
897.872	1030
897.975	686
898.078	1035
898.181	300
898.284	299
898.387	1489
898.490	1520
898.593	1112
898.695	742
898.798	1190
898.901	1113
899.004	1370
899.107	980
899.209	1028
899.312	675
899.415	1826
899.518	1293
899.620	482
899.723	967
899.826	1972
899.928	1994
900.031	2396
900.133	835
900.236	1160
900.338	714
900.441	9
900.543	1182
900.646	531
900.748	1987
900.851	1286
900.953	1082
901.055	683
901.158	276
901.260	375
901.362	1027
901.465	402
901.567	1058
901.669	1683
901.771	886
901.873	256
901.976	922
902.078	624
902.180	969
902.282	532
902.384	1094
902.486	1409
902.588	1245
902.690	1307
902.792	995
902.894	586
902.996	1239
903.098	549
903.200	492
903.302	1481
903.404	1223
903.505	712
903.607	391
903.709	713
903.811	698
903.913	485
904.014	491
904.116	773
904.218	570
904.319	799
904.421	1050
904.523	633
904.624	1131
904.726	645
904.827	628
904.929	356
905.030	511
905.132	1136
905.233	1147
905.335	341
905.436	519
905.537	793
905.639	523
905.740	407
905.841	173
905.943	353
906.044	939
906.145	309
906.247	755
906.348	534
906.449	822
906.550	443
906.651	488
906.752	114
906.854	935
906.955	1196
907.056	186
907.157	386
907.258	755
907.359	1167
907.460	662
907.561	929
907.662	-30
907.762	441
907.863	25
907.964	73
908.065	1059
908.166	475
908.267	835
908.367	569
908.468	555
908.569	692
908.670	1184
908.770	2025
908.871	951
908.971	1343
909.072	-99
909.173	493
909.273	533
909.374	1022
909.474	274
909.575	448
909.675	947
909.776	627
909.876	-20
909.977	232
910.077	1243
910.177	882
910.278	473
910.378	683
910.478	555
910.579	-347
910.679	615
910.779	724
910.879	190
910.980	497
911.080	774
911.180	1312
911.280	963
911.380	599
911.480	237
911.580	1024
911.680	474
911.780	350
911.880	808
911.980	386
912.080	13
912.180	1250
912.280	599
912.380	629
912.480	206
912.580	1193
912.679	396
912.779	985
912.879	-219
912.979	372
913.078	328
913.178	779
913.278	-259
913.377	705
913.477	373
913.577	220
913.676	766
913.776	760
913.875	-126
913.975	722
914.074	-169
914.174	237
914.273	178
914.373	1021
914.472	212
914.572	279
914.671	293
914.770	205
914.870	1368
914.969	-70
915.068	681
915.167	947
915.267	252
915.366	1525
915.465	-222
915.564	410
915.663	1453
915.763	2
915.862	352
915.961	200
916.060	275
916.159	-343
916.258	510
916.357	330
916.456	377
916.555	723
916.654	2
916.752	1030
916.851	131
916.950	874
917.049	130
917.148	-250
917.247	655
917.345	240
917.444	377
917.543	147
917.642	1016
917.740	453
917.839	675
917.937	333
918.036	1453
918.135	-68
918.233	-142
918.332	262
918.430	173
918.529	158
918.627	129
918.726	412
918.824	-419
918.923	858
919.021	903
919.119	509
919.218	-443
919.316	-228
919.414	176
919.512	1305
919.611	398
919.709	-209
919.807	819
919.905	785
920.003	737
920.102	458
920.200	173
920.298	302
920.396	-334
920.494	184
920.592	-522
920.690	25
920.788	812
920.886	350
920.984	742
921.082	-294
921.180	1176
921.277	405
921.375	1064
921.473	300
921.571	478
921.669	401
921.766	743
921.864	866
921.962	819
922.060	490
922.157	985
922.255	1612
922.352	287
922.450	946
922.548	1045
922.645	1438
922.743	1395
922.840	1838
922.938	1279
923.035	2507
923.133	1060
923.230	1691
923.327	2397
923.425	1866
923.522	2149
923.619	1937
923.717	1356
923.814	2262
923.911	1032
924.008	1663
924.106	481
924.203	1572
924.300	1812
924.397	1922
924.494	1290
924.591	2290
924.688	1810
924.786	1822
924.883	1164
924.979	1528
925.077	2730
925.173	1955
925.270	1739
925.367	1333
925.464	1629
925.561	2023
925.658	1485
925.755	2369
925.852	1739
925.948	1228
926.045	2180
926.142	2374
926.239	1628
926.335	1079
926.432	1540
926.529	2112
926.625	1485
926.722	1067
926.818	847
926.915	659
927.011	1357
927.108	1983
927.204	1687
927.301	766
927.397	1714
927.494	1008
927.590	1059
927.687	1741
927.783	1565
927.879	749
927.976	1177
928.072	1728
928.168	1914
928.264	1564
928.361	437
928.457	1332
928.553	441
928.649	1509
928.745	1367
928.841	448
928.937	1576
929.033	1385
929.129	1259
929.225	171
929.321	1091
929.417	1408
929.513	1720
929.609	1508
929.705	686
929.801	1372
929.897	848
929.993	1149
930.089	915
930.184	852
930.280	1302
930.376	1780
930.471	934
930.567	421
930.663	1430
930.758	1421
930.854	506
930.950	1280
931.045	1224
931.141	1167
931.236	1900
931.332	1314
931.427	507
931.523	1016
931.618	1012
931.714	628
931.809	871
931.905	1061
932.000	419
932.095	1020
932.191	712
932.286	869
932.381	564
932.476	696
932.572	1915
932.667	848
932.762	969
932.857	488
932.952	668
933.047	1001
933.142	-56
933.237	1354
933.332	435
933.427	603
933.522	625
933.617	101
933.712	1019
933.807	854
933.902	1572
933.997	866
934.092	858
934.187	1014
934.282	648
934.376	663
934.471	373
934.566	523
934.661	725
934.755	911
934.850	838
934.945	918
935.039	753
935.134	759
935.228	595
935.323	741
935.417	207
935.512	908
935.606	606
935.701	1463
935.795	575
935.890	156
935.984	706
936.079	974
936.173	873
936.267	215
936.362	697
936.456	736
936.550	1502
936.644	1100
936.738	241
936.833	643
936.927	880
937.021	346
937.115	47
937.209	330
937.303	1926
937.397	803
937.491	779
937.585	860
937.679	-30
937.773	493
937.867	-464
937.961	-195
938.055	1016
938.149	994
938.243	472
938.337	-364
938.430	-94
938.524	1020
938.618	400
938.712	898
938.805	570
938.899	426
938.993	673
939.086	944
939.180	1111
939.274	1239
939.367	379
939.461	409
939.554	374
939.648	-41
939.741	1060
939.835	1021
939.928	1547
940.022	540
940.115	264
940.208	1105
940.302	642
940.395	927
940.488	169
940.582	805
940.675	-267
940.768	421
940.861	1371
940.954	1203
941.048	-28
941.141	355
941.234	684
941.327	1059
941.420	1754
941.513	1429
941.606	624
941.699	1007
941.792	1338
941.885	170
941.978	841
942.071	145
942.164	-630
942.257	183
942.349	-69
942.442	266
942.535	227
942.628	242
942.721	487
942.813	-1019
942.906	987
942.999	1067
943.091	250
943.184	27
943.277	-450
943.369	440
943.462	124
943.554	-60
943.647	658
943.739	726
943.832	90
943.924	-13
944.017	81
944.109	398
944.201	733
944.294	235
944.386	809
944.478	253
944.571	-341
944.663	-310
944.755	640
944.847	1045
944.940	320
945.032	-321
945.124	-598
945.216	205
945.308	226
945.400	289
945.492	-158
945.584	277
945.676	599
945.768	1449
945.860	183
945.952	294
946.044	556
946.136	889
946.228	237
946.320	105
946.412	42
946.503	277
946.595	957
946.687	192
946.779	-216
946.870	-135
946.962	-407
947.054	-168
947.145	408
947.237	682
947.329	-424
947.420	-104
947.512	258
947.603	8
947.695	-31
947.786	-724
947.878	-101
947.969	234
948.061	-366
948.152	-591
948.243	-246
948.335	-336
948.426	-1412
948.517	313
948.609	191
948.700	-571
948.791	182
948.882	-11
948.973	-136
949.065	-649
949.156	130
949.247	-1238
949.338	207
949.429	203
949.520	-21
949.611	-659
949.702	490
949.793	-233
949.884	-174
949.975	-360
950.066	-287
950.157	-243
950.247	-343
950.338	-139
950.429	-178
950.520	168
950.611	100
950.701	214
950.792	256
950.883	473
950.973	4
951.064	466
951.155	-978
951.245	425
951.336	215
951.427	-862
951.517	626
951.608	369
951.698	470
951.788	377
951.879	-414
951.969	-761
952.060	-615
952.150	-832
952.240	926
952.331	-1895
952.421	994
952.511	-912
952.602	-522
952.692	-471
952.782	-229
952.872	-740
952.962	-233
953.052	105
953.143	-110
953.233	258
953.323	-370
953.413	-311
953.503	-202
953.593	-541
953.683	-1633
953.773	-938
953.863	600
953.953	-256
954.042	-109
954.132	-511
954.222	66
954.312	-1039
954.402	-703
954.492	441
954.581	1512
954.671	120
954.761	-374
954.850	1047
954.940	-1099
955.030	-17
955.119	-857
955.209	-392
955.298	-1432
955.388	96
955.477	71
955.567	-1000
955.656	-107
955.746	-279
955.835	-238
955.925	-268
956.014	-92
956.103	-4
956.193	157
956.282	-605
956.371	-519
956.461	-262
956.550	-834
956.639	-592
956.728	-1048
956.817	44
956.906	-944
956.995	-240
957.085	-19
957.174	236
957.263	-810
957.352	-884
957.441	-246
957.530	-753
957.619	-1166
957.708	-767
957.796	-801
957.885	-740
957.974	-846
958.063	-489
958.152	-850
958.241	-1178
958.329	-412
958.418	-88
958.507	-1360
958.596	74
958.684	-689
958.773	-391
958.861	-791
958.950	-321
959.039	-1262
959.127	-211
959.216	361
959.304	-908
959.393	-1129
959.481	-294
959.570	357
959.658	-864
959.746	-249
959.835	1513
959.923	860
960.011	255
960.100	385
960.188	269
960.276	-812
960.365	-799
960.453	-949
960.541	-1137
960.629	-504
960.717	-548
960.805	-1286
960.893	-399
960.981	-1276
961.069	169
961.158	-883
961.245	151
961.333	-19
961.421	-42
961.509	-328
961.597	-478
961.685	-1124
961.773	-1015
961.861	-693
961.949	193
962.036	-1039
962.124	200
962.212	-164
962.299	-1055
962.387	-1601
962.475	-100
962.562	-1500
962.650	496
962.738	-1192
962.825	-1042
962.913	-491
963.000	-1094
963.088	-253
963.175	-490
963.263	-509
963.350	-656
963.438	-146
963.525	-140
963.612	917
963.700	4362
963.787	10606
963.874	3436
963.962	-115
964.049	-204
964.136	-562
964.223	-951
964.310	-1144
964.398	-51
964.485	-1238
964.572	42
964.659	301
964.746	1189
964.833	-48
964.920	-135
965.007	-976
965.094	-384
965.181	-456
965.268	-198
965.355	-787
965.441	-716
965.528	-1470
965.615	669
965.702	-639
965.789	-444
965.875	-868
965.962	-379
966.049	-511
966.136	-489
966.222	-1079
966.309	6
966.395	-904
966.482	-829
966.569	-1255
966.655	-606
966.742	-861
966.828	-669
966.915	-948
967.001	-269
967.087	-1230
967.174	-883
967.260	196
967.347	925
967.433	3353
967.519	6213
967.605	1000
967.692	-735
967.778	-328
967.864	-423
967.950	-508
968.036	-1262
968.123	-1513
968.209	-490
968.295	-1810
968.381	483
968.467	108
968.553	-1041
968.639	577
968.725	-1363
968.811	765
968.897	-263
968.983	-1082
969.069	-938
969.154	508
969.240	-160
969.326	-995
969.412	-1382
969.497	-1224
969.583	-701
969.669	328
969.755	-718
969.840	-630
969.926	-165
970.012	137
970.097	-49
970.183	-365
970.268	-139
970.354	201
970.439	1766
970.525	4539
970.610	-260
970.696	425
970.781	-405
970.866	-1956
970.952	-640
971.037	-1732
971.122	-383
971.208	-476
971.293	-667
971.378	-1975
971.463	-1665
971.549	-573
971.634	-207
971.719	586
971.804	-180
971.889	694
971.974	-938
972.059	-795
972.144	-737
972.229	-825
972.314	-1342
972.399	239
972.484	-78
972.569	178
972.654	-1139
972.739	1385
972.824	1158
972.908	-896
972.993	-504
973.078	-563
973.163	-102
973.247	-1069
973.332	-2092
973.417	765
973.501	-1537
973.586	-894
973.671	-322
973.755	-1400
973.840	-299
973.924	454
974.009	-138
974.093	-754
974.178	-326
974.262	651
974.346	-76
974.431	-1287
974.515	19
974.600	-872
974.684	-951
974.768	46
974.852	-826
974.937	-1346
975.021	-621
975.105	-830
975.189	-816
975.273	162
975.358	-1101
975.442	-1517
975.526	-306
975.610	-1402
975.694	-2138
975.778	-387
975.862	-477
975.946	-2734
976.030	1083
976.114	-1510
976.198	-1189
976.281	-428
976.365	-115
976.449	-1525
976.533	-227
976.617	-1000
976.700	-871
976.784	-774
976.868	-718
976.951	-209
977.035	-67
977.119	-262
977.202	-808
977.286	-558
977.369	-707
977.453	-96
977.536	-1308
977.620	-618
977.703	-294
977.787	-1413
977.870	-185
977.953	-68
978.037	-1710
978.120	-232
978.203	-150
978.287	977
978.370	46
978.453	-1308
978.536	-1355
978.620	276
978.703	-95
978.786	-677
978.869	-978
978.952	-1845
979.035	982
979.118	-622
979.201	-1808
979.284	-1053
979.367	-1629
979.450	-418
979.533	-1033
979.616	-1512
979.699	-510
979.782	195
979.865	-38
979.948	-610
980.030	-573
980.113	-438
980.196	-1445
980.279	-495
980.361	-867
980.444	-1031
980.526	-530
980.609	-673
980.692	-887
980.774	-153
980.857	-1548
980.939	-1073
981.022	-1270
981.104	-1694
981.187	-862
981.269	-707
981.352	-9
981.434	-1792
981.516	-1423
981.599	-333
981.681	-997
981.763	-765
981.846	-971
981.928	-843
982.010	-658
982.092	-1573
982.174	360
982.256	-1239
982.339	-1358
982.421	-1337
982.503	-807
982.585	-2246
982.667	-1226
982.749	-261
982.831	-582
982.913	-1833
982.995	-408
983.077	-1400
983.158	-144
983.240	-1981
983.322	-417
983.404	-369
983.486	-1516
983.568	137
983.649	-1169
983.731	-803
983.813	-1336
983.894	-1465
983.976	-1778
984.058	-1520
984.139	-502
984.221	-1874
984.302	3
984.384	-1235
984.465	-920
984.547	-1159
984.628	-1799
984.710	-276
984.791	82
984.872	-1203
984.954	-1082
985.035	-330
985.116	-806
985.198	-550
985.279	-60
985.360	-1469
985.441	-759
985.522	-366
985.604	-1060
985.685	-3897
985.766	166
985.847	25
985.928	-2014
986.009	-939
986.090	-346
986.171	100
986.252	-1071
986.333	-387
986.414	-735
986.495	-627
986.576	-798
986.656	-1049
986.737	-605
986.818	-1001
986.899	-1244
986.980	-1251
987.060	51
987.141	-1470
987.222	-878
987.302	-1149
987.383	-1206
987.464	-1749
987.544	-639
987.625	-1496
987.705	-54
987.786	-1158
987.866	-1732
987.947	-769
988.027	-1143
988.108	-594
988.188	-424
988.268	-411
988.349	-454
988.429	-1113
988.509	-935
988.589	-1152
988.670	-2070
988.750	499
988.830	-781
988.910	-1281
988.990	-650
989.070	-801
989.151	-805
989.231	-1242
989.311	-819
989.391	-253
989.471	-1066
989.551	-916
989.631	-755
989.711	-588
989.791	-966
989.870	-1861
989.950	228
990.030	-965
990.110	-629
990.190	-2094
990.269	-1575
990.349	-1345
990.429	-790
990.509	-1753
990.588	-1126
990.668	-1388
990.747	-664
990.827	-1187
990.907	-425
990.986	-2081
991.066	-989
991.145	-1349
991.225	-687
991.304	-1544
991.383	-1285
991.463	-1995
991.542	-1307
991.622	-1477
991.701	-1873
991.780	-1590
991.859	-1151
991.939	-1185
992.018	-1281
992.097	-625
992.176	-1037
992.256	-1463
992.335	-2620
992.414	-1303
992.493	-1622
992.572	-1274
992.651	-290
992.730	-1512
992.809	-779
992.888	-1725
992.967	-1439
993.046	-644
993.125	-1589
993.203	-1437
993.282	-1394
993.361	-1211
993.440	-1005
993.519	-2924
993.597	-1227
993.676	-1379
993.755	-500
993.834	-799
993.912	-1551
993.991	255
994.069	-2344
994.148	-675
994.226	-2084
994.305	-1533
994.384	-1502
994.462	231
994.540	-1998
994.619	-1988
994.697	-408
994.776	-1668
994.854	-553
994.932	-1743
995.011	-1813
995.089	-1569
995.167	-935
995.245	-1675
995.324	-1073
995.402	-863
995.480	-1473
995.558	-597
995.636	-2441
995.714	-1402
995.792	-1034
995.870	-1989
995.948	-564
996.026	-1240
996.104	-2342
996.182	-990
996.260	-520
996.338	-731
996.416	-1300
996.494	-1149
996.572	-166
996.649	-2216
996.727	-2154
996.805	-1299
996.883	-1371
996.960	-415
997.038	-1133
997.116	-853
997.193	-2073
997.271	-445
997.348	-1261
997.426	-1152
997.504	-1592
997.581	-317
997.658	-447
997.736	-1771
997.813	-2444
997.891	-649
997.968	-1465
998.046	-1190
998.123	-1227
998.200	-1514
998.277	-1756
998.355	-1483
998.432	-1986
998.509	-1810
998.586	-1112
998.663	-1424
998.741	-1517
998.818	-2003
998.895	-1257
998.972	-1143
999.049	-1169
999.126	-1630
999.203	-1194
999.280	-1577
999.357	-2182
999.434	-1542
999.511	-904
999.587	-431
999.664	-1167
999.741	-1009
999.818	-1137
999.895	-1126
999.971	-1891
1000.048	-1965
1000.125	-277
1000.202	-2019
1000.278	-1976
1000.355	-1137
1000.431	-1292
1000.508	-1444
1000.584	-1336
1000.661	-1273
1000.738	-2057
1000.814	-922
1000.890	-2140
1000.967	-2545
1001.043	-1291
1001.120	-2629
1001.196	-1198
1001.272	-3062
1001.349	-1256
1001.425	-1462
1001.501	-1929
1001.577	-2124
1001.654	-1603
1001.730	-1505
1001.806	-1120
1001.882	-2229
1001.958	-1374
1002.034	-1097
1002.110	-860
1002.186	-2669
1002.262	-2064
1002.338	-2500
1002.414	-1368
1002.490	-645
1002.566	-2348
1002.642	-1301
1002.718	-216
1002.794	-1870
1002.870	-2718
1002.945	-1990
1003.021	-1854
1003.097	-2069
1003.173	-162
1003.248	-1981
1003.324	-1354
1003.400	-1059
1003.475	-2211
1003.551	-859
1003.626	-1800
1003.702	-1406
1003.777	-1260
1003.853	-1620
1003.928	-2086
1004.004	-989
1004.079	-1264
1004.155	-1576
1004.230	-1723
1004.305	-1198
1004.381	-2006
1004.456	-2339
1004.531	-1306
1004.607	-1421
1004.682	-1727
1004.757	-1136
1004.832	-1811
1004.907	-2080
1004.982	-1444
1005.057	-1688
1005.133	-1937
1005.208	-1694
1005.283	-2668
1005.358	-752
1005.433	-2336
1005.508	-1391
1005.583	-2039
1005.657	-1372
1005.732	-1675
1005.807	-2021
1005.882	-1361
1005.957	-1589
1006.032	-1651
1006.106	-1465
1006.181	-2189
1006.256	-1690
1006.331	-1131
1006.405	-2063
1006.480	-1095
1006.554	-1314
1006.629	-1119
1006.704	-1872
1006.778	-1044
1006.853	-1549
1006.927	-1571
1007.002	-2086
1007.076	-1685
1007.150	-1600
1007.225	-2400
1007.299	-1225
1007.373	-1997
1007.448	-1359
1007.522	-740
1007.596	-1653
1007.671	-1983
1007.745	-1271
1007.819	-2645
1007.893	-1930
1007.967	-837
1008.041	-2165
1008.115	-1018
1008.190	-1938
1008.264	-1873
1008.338	-2420
1008.412	-859
1008.486	-929
1008.560	-1498
1008.633	-1815
1008.707	-1469
1008.781	-1452
1008.855	-2483
1008.929	-2079
1009.003	-1828
1009.076	-1804
1009.150	-850
1009.224	-1701
1009.298	-1991
1009.371	-2362
1009.445	-1125
1009.519	-1030
1009.592	-1823
1009.666	-2557
1009.739	-1855
1009.813	-2836
1009.886	-1313
1009.960	-2839
1010.033	-1052
1010.107	-1825
1010.180	-2021
1010.253	-1321
1010.327	-2081
1010.400	-1969
1010.473	-1995
1010.547	-677
1010.620	-1539
1010.693	-1300
1010.766	-2010
1010.840	-1742
1010.913	-1502
1010.986	-2379
1011.059	-1535
1011.132	-2732
1011.205	-982
1011.278	-2097
1011.351	-2376
1011.424	-1050
1011.497	-2017
1011.570	-1501
1011.643	-1481
1011.716	-2165
1011.789	-2147
1011.862	-1852
1011.934	-1717
1012.007	-2131
1012.080	-1651
1012.153	-1841
1012.225	-1485
1012.298	-2032
1012.371	-2190
1012.443	-1138
1012.516	-2237
1012.588	-834
1012.661	-2174
1012.733	-1867
1012.806	-1392
1012.879	-1895
1012.951	-1759
1013.023	-2097
1013.096	-1083
1013.168	-1438
1013.241	-1694
1013.313	-1929
1013.385	-1599
1013.458	-1946
1013.530	-1425
1013.602	-2667
1013.674	-1364
1013.746	-2485
1013.819	-1993
1013.891	-1154
1013.963	-2366
1014.035	-1830
1014.107	-1284
1014.179	-1757
1014.251	-2471
1014.323	-1001
1014.395	-1951
1014.467	-1982
1014.539	-1111
1014.611	-2566
1014.683	-1447
1014.754	-2150
1014.826	-2102
1014.898	-2019
1014.970	-2198
1015.042	-1729
1015.113	-1647
1015.185	-2467
1015.257	-2737
1015.328	-2053
1015.400	-2247
1015.471	-1471
1015.543	-2076
1015.615	-1392
1015.686	-1837
1015.757	-1872
1015.829	-2152
1015.901	-1976
1015.972	-1387
1016.043	-1998
1016.115	-1693
1016.186	-1268
1016.257	-2664
1016.328	-2180
1016.400	-1397
1016.471	-2411
1016.542	-2123
1016.613	-1986
1016.685	-2271
1016.756	-1448
1016.827	-2187
1016.898	-2097
1016.969	-1257
1017.040	-1661
1017.111	-2252
1017.182	-2784
1017.253	-1611
1017.324	-2505
1017.395	-1623
1017.466	-2030
1017.537	-2234
1017.608	-2475
1017.678	-1916
1017.749	-2248
1017.820	-2275
1017.891	-2414
1017.961	-2016
1018.032	-2188
1018.103	-1740
1018.173	-2996
1018.244	-2409
1018.315	-2294
1018.385	-1676
1018.456	-2029
1018.526	-2480
1018.597	-1849
1018.667	-1142
1018.738	-2350
1018.808	-1753
1018.878	-2202
1018.949	-1698
1019.019	-1420
1019.089	-2598
1019.160	-1527
1019.230	-2443
1019.300	-1573
1019.371	-2437
1019.441	-1719
1019.511	-2009
1019.581	-2430
1019.651	-2499
1019.721	-2011
1019.791	-2182
1019.861	-1503
1019.931	-2209
1020.001	-1867
1020.071	-1541
1020.141	-2856
1020.211	-2304
1020.281	-2791
1020.351	-2345
1020.421	-3085
1020.491	-1573
1020.560	-2074
1020.630	-1605
1020.700	-2802
1020.770	-2046
1020.839	-1882
1020.909	-1489
1020.979	-2413
1021.048	-2009
1021.118	-2172
1021.187	-1691
1021.257	-2843
1021.326	-2143
1021.396	-2829
1021.465	-1729
1021.535	-2316
1021.604	-2567
1021.674	-1784
1021.743	-2186
1021.812	-2061
1021.882	-2204
1021.951	-2282
1022.020	-2183
1022.089	-1766
1022.159	-2749
1022.228	-2564
1022.297	-2365
1022.366	-2098
1022.435	-2288
1022.504	-2094
1022.573	-1696
1022.642	-1880
1022.711	-1699
1022.781	-1749
1022.849	-2532
1022.918	-2283
1022.987	-2143
1023.056	-1590
1023.125	-1723
1023.194	-1506
1023.263	-1775
1023.331	-1331
1023.400	-2891
1023.469	-2411
1023.538	-1819
1023.606	-2285
1023.675	-1638
1023.744	-1536
1023.812	-2890
1023.881	-2024
1023.949	-2259
1024.018	-2574
1024.086	-2533
1024.155	-1653
1024.223	-2834
1024.292	-1888
1024.360	-1413
1024.429	-2431
1024.497	-2289
1024.565	-2167
1024.634	-2689
1024.702	-1738
1024.770	-2556
1024.838	-2785
1024.907	-2210
1024.975	-2933
1025.043	-1319
1025.111	-2457
1025.179	-2042
1025.247	-2598
1025.315	-2244
1025.383	-2657
1025.451	-2030
1025.519	-2419
1025.587	-2414
1025.655	-1671
1025.723	-1871
1025.791	-2944
1025.859	-2599
1025.927	-1664
1025.995	-2236
1026.062	-1937
1026.130	-2451
1026.198	-1982
1026.266	-2438
1026.333	-1623
1026.401	-2195
1026.469	-2888
1026.536	-1583
1026.604	-2340
1026.671	-2554
1026.739	-2428
1026.806	-2338
1026.874	-2488
1026.941	-1917
1027.009	-2422
1027.076	-2704
1027.144	-1294
1027.211	-2573
1027.278	-2689
1027.345	-2699
1027.413	-2198
1027.480	-2095
1027.547	-1961
1027.614	-1806
1027.682	-1695
1027.749	-1508
1027.816	-2509
1027.883	-1774
1027.950	-2087
1028.017	-2317
1028.084	-1352
1028.151	-2749
1028.218	-2426
1028.285	-2841
1028.352	-2205
1028.419	-1784
1028.486	-2843
1028.553	-1595
1028.619	-2476
1028.686	-2016
1028.753	-2310
1028.820	-2480
1028.886	-2192
1028.953	-1871
1029.020	-2447
1029.086	-2497
1029.153	-2687
1029.220	-1716
1029.286	-1920
1029.353	-2448
1029.419	-2486
1029.486	-2457
1029.552	-2555
1029.619	-2509
1029.685	-1752
1029.751	-2714
1029.818	-1599
1029.884	-2589
1029.951	-797
1030.017	-2953
1030.083	-2485
1030.149	-2772
1030.216	-2704
1030.282	-1657
1030.348	-2015
1030.414	-2392
1030.480	-1588
1030.546	-2176
1030.612	-2783
1030.678	-2184
1030.744	-2422
1030.810	-2898
1030.876	-2047
1030.942	-2818
1031.008	-2912
1031.074	-2576
1031.140	-2458
1031.206	-3010
1031.272	-2785
1031.337	-2160
1031.403	-2544
1031.469	-2139
1031.534	-2189
1031.600	-2588
1031.666	-2386
1031.731	-2707
1031.797	-2280
1031.863	-1845
1031.928	-2616
1031.994	-1792
1032.059	-2674
1032.125	-2015
1032.190	-2253
1032.256	-2548
1032.321	-3090
1032.386	-2631
1032.452	-1791
1032.517	-1598
1032.582	-2185
1032.647	-1921
1032.713	-2296
1032.778	-2189
1032.843	-2123
1032.908	-2047
1032.974	-2434
1033.039	-2417
1033.104	-2026
1033.169	-2917
1033.234	-1985
1033.299	-2030
1033.364	-1446
1033.429	-2233
1033.494	-1648
1033.559	-2852
1033.624	-2826
1033.688	-1991
1033.753	-3218
1033.818	-2449
1033.883	-1462
1033.948	-2271
1034.013	-2593
1034.077	-1695
1034.142	-1793
1034.207	-2395
1034.271	-1451
1034.336	-1594
1034.400	-1920
1034.465	-659
1034.530	-2078
1034.594	-2044
1034.658	-2435
1034.723	-2561
1034.787	-2326
1034.852	-2811
1034.916	-1995
1034.981	-2465
1035.045	-2130
1035.109	-2868
1035.173	-2835
1035.238	-3048
1035.302	-1256
1035.366	-3004
1035.430	-2173
1035.495	-2246
1035.559	-2363
1035.623	-1851
1035.687	-2995
1035.751	-2232
1035.815	-2470
1035.879	-2921
1035.943	-3587
1036.007	-2401
1036.071	-2243
1036.135	-1630
1036.198	-1717
1036.262	-1877
1036.326	-2079
1036.390	-2078
1036.454	-2320
1036.517	-1792
1036.581	-1307
1036.645	-1169
1036.709	-1339
1036.772	-1644
1036.836	-1870
1036.900	-2315
1036.963	-1740
1037.026	-2397
1037.090	-2248
1037.154	-1970
1037.217	-2674
1037.280	-2373
1037.344	-2078
1037.407	-3246
1037.471	-1375
1037.534	-2358
1037.597	-2377
1037.661	-2131
1037.724	-2574
1037.787	-2382
1037.850	-3024
1037.913	-2046
1037.977	-1870
1038.040	-2422
1038.103	-2440
1038.166	-2090
1038.229	-1112
1038.292	-2251
1038.355	-2513
1038.418	-2456
1038.481	-2322
1038.544	-1527
1038.607	-2020
1038.670	-2876
1038.732	-2467
1038.795	-2275
1038.858	-2467
1038.921	-2471
1038.984	-1830
1039.046	-2615
1039.109	-2047
1039.172	-2668
1039.234	-2284
1039.297	-1803
1039.360	-2275
1039.422	-1849
1039.485	-2041
1039.547	-2503
1039.610	-3427
1039.672	-2934
1039.734	-2210
1039.797	-2715
1039.859	-2456
1039.922	-3419
1039.984	-2341
1040.046	-1635
1040.109	-2169
1040.171	-2598
1040.233	-2008
1040.295	-2495
1040.358	-2360
1040.420	-1715
1040.482	-2301
1040.544	-2885
1040.606	-2490
1040.668	-2259
1040.730	-2128
1040.792	-2408
1040.854	-2839
1040.916	-2461
1040.978	-2097
1041.040	-1522
1041.102	-1784
1041.164	-2609
1041.225	-1799
1041.287	-3004
1041.349	-2269
1041.411	-2578
1041.472	-2441
1041.534	-2436
1041.596	-2278
1041.657	-1803
1041.719	-1859
1041.781	-2478
1041.842	-3413
1041.904	-3182
1041.965	-2244
1042.027	-2013
1042.088	-2448
1042.150	-2115
1042.211	-3061
1042.272	-2550
1042.334	-2396
1042.395	-2036
1042.456	-2436
1042.518	-2045
1042.579	-2232
1042.640	-2663
1042.701	-1849
1042.763	-2804
1042.824	-2872
1042.885	-3006
1042.946	-2371
1043.007	-1893
1043.068	-2416
1043.129	-2873
1043.190	-2241
1043.251	-1932
1043.312	-2767
1043.373	-2729
1043.434	-2449
1043.495	-2568
1043.556	-1953
1043.616	-1879
1043.677	-2770
1043.738	-1776
1043.799	-2471
1043.859	-1356
1043.920	-2411
1043.981	-1822
1044.041	-2227
1044.102	-2249
1044.162	-1582
1044.223	-2972
1044.284	-2586
1044.344	-2076
1044.405	-2955
1044.465	-2183
1044.525	-3065
1044.586	-2693
1044.646	-2491
1044.707	-979
1044.767	-2858
1044.827	-2286
1044.887	-2159
1044.948	-1455
1045.008	-2705
1045.068	-1820
1045.128	-1933
1045.188	-2451
1045.249	-2406
1045.309	-1696
1045.369	-2350
1045.429	-3043
1045.489	-2073
1045.549	-2426
1045.609	-3104
1045.669	-1891
1045.729	-2296
1045.789	-2260
1045.848	-1428
1045.908	-2187
1045.968	-2043
1046.028	-1661
1046.088	-2326
1046.147	-1412
1046.207	-1987
1046.267	-1608
1046.326	-1640
1046.386	-2140
1046.446	-2665
1046.505	-1383
1046.565	-1675
1046.624	-892
1046.684	-1090
1046.743	-828
1046.803	-606
1046.862	-543
1046.922	0
