'Start Wavelength	183.907
'End Wavelength	1046.922
'Gate Delay	5.000
'Gate Width (ms)	1.050
'Laser Output Level	0.000
'X Position	0.000
'Y Position	0.000
'Z Position	0.000
'Grid Point Number	1.000
'Shot Number	100.000
183.907	740.000
183.977	15.000
184.047	67
184.116	130
184.186	827
184.256	-474
184.325	547
184.395	-1044
184.465	429
184.534	-166
184.604	-783
184.674	29
184.743	431
184.813	842
184.883	259
184.952	-250
185.022	790
185.092	-630
185.161	385
185.231	-712
185.301	-450
185.370	128
185.440	-48
185.509	-487
185.579	-11
185.649	-358
185.718	323
185.788	349
185.857	-434
185.927	-151
185.996	24
186.066	69
186.136	-188
186.205	-680
186.275	352
186.344	-27
186.414	-219
186.483	-67
186.553	635
186.622	687
186.692	-416
186.761	22
186.831	-49
186.900	115
186.970	-431
187.039	-99
187.109	812
187.178	592
187.248	-1
187.317	586
187.387	-543
187.456	56
187.526	456
187.595	-245
187.664	-230
187.734	80
187.803	244
187.873	795
187.942	-428
188.012	103
188.081	-121
188.150	-448
188.220	500
188.289	607
188.358	157
188.428	547
188.497	-430
188.567	286
188.636	92
188.705	381
188.775	307
188.844	-222
188.913	806
188.983	327
189.052	-617
189.121	-378
189.191	-225
189.260	474
189.329	412
189.399	-721
189.468	-101
189.537	-185
189.606	-105
189.676	194
189.745	336
189.814	298
189.883	16
189.953	-509
190.022	302
190.091	1901
190.161	2938
190.230	637
190.299	-124
190.368	258
190.437	-18
190.507	348
190.576	94
190.645	-372
190.714	-261
190.783	-99
190.853	-191
190.922	728
190.991	202
191.060	611
191.129	-1087
191.198	-203
191.268	284
191.337	-235
191.406	501
191.475	119
191.544	9
191.613	831
191.682	136
191.752	473
191.821	-66
191.890	204
191.959	742
192.028	-912
192.097	565
192.166	264
192.235	-208
192.304	-245
192.373	-254
192.442	417
192.511	148
192.580	276
192.650	136
192.719	313
192.788	502
192.857	324
192.926	-229
192.995	69
193.064	-109
193.133	964
193.202	842
193.271	1656
193.340	236
193.409	594
193.478	1302
193.547	764
193.615	1314
193.684	1528
193.753	1095
193.822	776
193.891	-59
193.960	281
194.029	366
194.098	690
194.167	-46
194.236	507
194.305	-41
194.374	-236
194.443	901
194.512	421
194.580	594
194.649	531
194.718	808
194.787	639
194.856	25
194.925	888
194.994	23
195.062	568
195.131	813
195.200	1096
195.269	796
195.338	456
195.407	192
195.475	230
195.544	591
195.613	1295
195.682	510
195.751	767
195.819	1310
195.888	1278
195.957	1605
196.026	506
196.094	1373
196.163	734
196.232	632
196.301	583
196.369	303
196.438	404
196.507	985
196.576	987
196.644	558
196.713	719
196.782	-513
196.850	487
196.919	679
196.988	566
197.056	670
197.125	-1
197.194	829
197.262	88
197.331	978
197.400	236
197.468	65
197.537	320
197.606	792
197.674	1301
197.743	2949
197.812	804
197.880	3054
197.949	2208
198.017	2979
198.086	2162
198.155	1667
198.223	1686
198.292	3393
198.360	1463
198.429	1043
198.497	1221
198.566	1904
198.635	3760
198.703	2076
198.772	1690
198.840	3194
198.909	3445
198.977	752
199.046	660
199.114	1009
199.183	572
199.251	644
199.320	432
199.388	584
199.457	-1
199.525	1074
199.594	1206
199.662	-106
199.731	171
199.799	914
199.867	894
199.936	624
200.004	954
200.073	1234
200.141	841
200.210	-38
200.278	432
200.346	599
200.415	1351
200.483	577
200.552	472
200.620	475
200.688	640
200.757	495
200.825	193
200.893	193
200.962	313
201.030	107
201.098	6
201.167	1004
201.235	817
201.303	527
201.372	1090
201.440	314
201.508	1908
201.577	1381
201.645	863
201.713	761
201.781	762
201.850	933
201.918	687
201.986	682
202.055	979
202.123	387
202.191	137
202.259	752
202.327	1072
202.396	548
202.464	680
202.532	1189
202.600	4979
202.669	2312
202.737	488
202.805	186
202.873	76
202.941	548
203.009	881
203.078	292
203.146	83
203.214	588
203.282	-41
203.350	835
203.418	-222
203.487	1053
203.555	216
203.623	1557
203.691	917
203.759	356
203.827	249
203.895	1084
203.963	120
204.031	182
204.099	183
204.168	387
204.236	427
204.304	76
204.372	426
204.440	225
204.508	773
204.576	685
204.644	633
204.712	-138
204.780	431
204.848	1301
204.916	824
204.984	607
205.052	1203
205.120	106
205.188	170
205.256	515
205.324	146
205.392	-42
205.460	1032
205.528	656
205.596	345
205.664	844
205.732	265
205.799	3074
205.867	7227
205.935	839
206.003	1001
206.071	944
206.139	1216
206.207	956
206.275	610
206.343	201
206.411	104
206.478	157
206.546	-62
206.614	891
206.682	547
206.750	521
206.818	852
206.885	1175
206.953	-463
207.021	1071
207.089	823
207.157	361
207.225	859
207.292	100
207.360	533
207.428	793
207.496	257
207.563	482
207.631	921
207.699	524
207.767	1148
207.834	388
207.902	826
207.970	398
208.038	649
208.105	768
208.173	1012
208.241	1126
208.309	1633
208.376	953
208.444	2984
208.512	1710
208.579	-58
208.647	821
208.715	2020
208.782	608
208.850	1562
208.918	637
208.985	763
209.053	812
209.120	1178
209.188	666
209.256	828
209.323	272
209.391	1520
209.459	1439
209.526	1185
209.594	741
209.661	704
209.729	1246
209.796	783
209.864	1402
209.932	158
209.999	2230
210.067	1597
210.134	1950
210.202	910
210.269	2445
210.337	2161
210.404	1290
210.472	1353
210.539	727
210.607	721
210.674	1614
210.742	544
210.809	1123
210.877	1604
210.944	1818
211.012	435
211.079	2946
211.146	1327
211.214	1624
211.281	1454
211.349	2179
211.416	1360
211.484	2520
211.551	1439
211.618	925
211.686	1950
211.753	775
211.821	1657
211.888	1775
211.955	1172
212.023	1385
212.090	1661
212.157	1842
212.225	2165
212.292	3931
212.359	7412
212.427	20193
212.494	8792
212.561	3039
212.629	1645
212.696	1534
212.763	1736
212.831	1577
212.898	1378
212.965	871
213.032	1196
213.100	2000
213.167	1552
213.234	2069
213.301	1792
213.369	1448
213.436	1395
213.503	819
213.570	1694
213.638	1513
213.705	1588
213.772	595
213.839	2712
213.906	3597
213.973	2013
214.041	1478
214.108	1892
214.175	1055
214.242	1965
214.309	1183
214.376	1620
214.444	1368
214.511	1705
214.578	1401
214.645	2021
214.712	1460
214.779	2030
214.846	955
214.913	1998
214.980	1964
215.048	2248
215.115	2629
215.182	3033
215.249	2096
215.316	2177
215.383	1820
215.450	1260
215.517	1713
215.584	1873
215.651	763
215.718	1069
215.785	1814
215.852	2171
215.919	2968
215.986	2118
216.053	1196
216.120	1625
216.187	1970
216.254	2097
216.321	1123
216.388	2640
216.455	1299
216.522	2003
216.589	2674
216.656	4831
216.722	4929
216.789	3200
216.856	3486
216.923	2252
216.990	2177
217.057	2615
217.124	2606
217.191	2168
217.258	3048
217.324	4614
217.391	5022
217.458	3606
217.525	1596
217.592	2117
217.659	837
217.725	2583
217.792	3579
217.859	4294
217.926	1351
217.993	1648
218.059	1647
218.126	1006
218.193	623
218.260	1068
218.327	1246
218.393	183
218.460	558
218.527	489
218.594	1385
218.660	3581
218.727	4616
218.794	1580
218.860	1861
218.927	1550
218.994	1605
219.061	1373
219.127	2334
219.194	3231
219.261	1625
219.327	901
219.394	1887
219.461	199
219.527	1042
219.594	2747
219.661	2008
219.727	205
219.794	1771
219.860	210
219.927	1363
219.994	2121
220.060	5135
220.127	3867
220.193	2288
220.260	1829
220.326	2715
220.393	4782
220.460	6658
220.526	4248
220.593	2493
220.659	3594
220.726	3321
220.792	8811
220.859	7345
220.925	8300
220.992	13060
221.058	12976
221.125	13778
221.191	10853
221.258	3443
221.324	2686
221.391	2225
221.457	1070
221.524	1658
221.590	2636
221.657	11756
221.723	8730
221.789	7633
221.856	7506
221.922	3128
221.989	2581
222.055	1616
222.121	1194
222.188	3424
222.254	2578
222.321	688
222.387	-249
222.453	816
222.520	1371
222.586	-139
222.652	1053
222.719	132
222.785	860
222.851	385
222.918	731
222.984	133
223.050	913
223.116	-75
223.183	1858
223.249	142
223.315	246
223.382	477
223.448	1216
223.514	159
223.580	672
223.647	-348
223.713	156
223.779	519
223.845	1099
223.911	1633
223.978	505
224.044	663
224.110	565
224.176	248
224.242	863
224.309	427
224.375	695
224.441	402
224.507	-282
224.573	751
224.639	777
224.705	-198
224.772	667
224.838	-130
224.904	1342
224.970	974
225.036	933
225.102	711
225.168	935
225.234	1076
225.300	547
225.366	970
225.432	370
225.499	809
225.565	162
225.631	928
225.697	932
225.763	1921
225.829	1159
225.895	2614
225.961	3609
226.027	2819
226.093	2319
226.159	3133
226.225	4320
226.291	10204
226.357	19378
226.423	9066
226.489	4619
226.554	3410
226.620	2655
226.686	4070
226.752	5382
226.818	7916
226.884	26894
226.950	25337
227.016	9046
227.082	4427
227.148	3499
227.214	3620
227.279	2611
227.345	1115
227.411	1958
227.477	1451
227.543	3113
227.609	4981
227.674	2427
227.740	1372
227.806	2213
227.872	281
227.938	1885
228.003	2923
228.069	1877
228.135	542
228.201	1594
228.267	618
228.332	2212
228.398	1918
228.464	2314
228.530	1296
228.595	1024
228.661	595
228.727	2934
228.792	2709
228.858	730
228.924	-45
228.990	3278
229.055	912
229.121	2256
229.187	876
229.252	1948
229.318	743
229.384	689
229.449	2031
229.515	-354
229.581	-302
229.646	2477
229.712	2226
229.777	4992
229.843	5649
229.909	3218
229.974	3433
230.040	3262
230.105	1716
230.171	2250
230.236	2986
230.302	5075
230.368	4634
230.433	1047
230.499	2249
230.564	2283
230.630	1189
230.695	1978
230.761	1568
230.826	-421
230.892	2996
230.957	993
231.023	1034
231.088	674
231.154	407
231.219	964
231.284	1041
231.350	2534
231.415	194
231.481	1713
231.546	733
231.612	1271
231.677	543
231.742	35
231.808	1979
231.873	189
231.939	-545
232.004	2917
232.069	4045
232.135	829
232.200	558
232.265	2196
232.331	659
232.396	517
232.461	588
232.527	274
232.592	293
232.657	1316
232.723	3100
232.788	2075
232.853	1491
232.918	758
232.984	590
233.049	539
233.114	2375
233.179	2640
233.245	4399
233.310	6182
233.375	649
233.440	1370
233.506	691
233.571	1174
233.636	940
233.701	851
233.766	2897
233.832	5399
233.897	2065
233.962	895
234.027	2837
234.092	1680
234.157	1111
234.222	970
234.288	2490
234.353	11076
234.418	10378
234.483	5998
234.548	2746
234.613	1982
234.678	2847
234.743	2053
234.808	11040
234.873	6995
234.938	4116
235.004	1735
235.069	1885
235.134	1296
235.199	1312
235.264	1423
235.329	319
235.394	2142
235.459	2835
235.524	2251
235.589	2459
235.654	959
235.719	323
235.784	2071
235.849	1821
235.913	6398
235.978	6371
236.043	7632
236.108	2600
236.173	2071
236.238	3119
236.303	1024
236.368	1932
236.433	3497
236.498	6453
236.563	3418
236.627	6948
236.692	33414
236.757	28354
236.822	9228
236.887	6933
236.952	5308
237.017	3016
237.081	4980
237.146	4499
237.211	11974
237.276	31793
237.341	64295
237.405	26695
237.470	9417
237.535	6455
237.600	4858
237.664	3642
237.729	2482
237.794	2760
237.859	7472
237.923	5438
237.988	3646
238.053	4686
238.118	5075
238.182	14159
238.247	15720
238.312	6336
238.376	4552
238.441	1511
238.506	3111
238.570	692
238.635	1960
238.700	1250
238.764	1340
238.829	5696
238.893	8056
238.958	3549
239.023	4343
239.087	1680
239.152	2507
239.216	193
239.281	630
239.346	1301
239.410	1516
239.475	1995
239.539	14595
239.604	13150
239.668	2906
239.733	1760
239.797	2659
239.862	5056
239.926	11349
239.991	4617
240.055	1713
240.120	1600
240.184	2020
240.249	793
240.313	1202
240.378	1702
240.442	7685
240.507	16017
240.571	4400
240.635	5399
240.700	7980
240.764	2369
240.829	2093
240.893	-10
240.957	2578
241.022	8141
241.086	16375
241.151	6462
241.215	2381
241.279	2905
241.344	6221
241.408	3237
241.472	1907
241.537	3084
241.601	1731
241.665	933
241.730	1022
241.794	2595
241.858	1126
241.922	1208
241.987	2410
242.051	1417
242.115	113
242.179	1536
242.244	812
242.308	1863
242.372	1903
242.436	2561
242.501	2805
242.565	1399
242.629	1794
242.693	1719
242.757	787
242.822	1163
242.886	1246
242.950	3040
243.014	732
243.078	1843
243.142	2242
243.206	1329
243.271	2171
243.335	1923
243.399	4965
243.463	18786
243.527	61165
243.591	19635
243.655	6555
243.719	3453
243.783	3991
243.847	6464
243.911	9134
243.975	9285
244.040	5701
244.104	4037
244.168	2360
244.232	3956
244.296	6701
244.360	8368
244.424	3811
244.488	3410
244.552	2968
244.615	910
244.679	1768
244.743	2834
244.807	2542
244.871	1910
244.935	2164
244.999	-157
245.063	833
245.127	2921
245.191	4606
245.255	5748
245.319	4123
245.383	2611
245.446	3141
245.510	1482
245.574	1815
245.638	2338
245.702	1514
245.766	9071
245.829	5389
245.893	2580
245.957	1134
246.021	3170
246.085	2138
246.149	3585
246.212	10870
246.276	19249
246.340	7398
246.404	4850
246.467	4391
246.531	7820
246.595	5113
246.659	4458
246.722	2686
246.786	5904
246.850	5523
246.913	7172
246.977	2286
247.041	3606
247.104	3256
247.168	3513
247.232	10055
247.295	25935
247.359	12849
247.423	4212
247.486	9196
247.550	6056
247.614	3654
247.677	5506
247.741	3009
247.804	2415
247.868	3848
247.932	8701
247.995	24341
248.059	7954
248.122	2838
248.186	5170
248.249	7983
248.313	37429
248.376	41754
248.440	26588
248.503	8188
248.567	7492
248.630	9459
248.694	13138
248.757	16740
248.821	43178
248.884	23089
248.948	18848
249.011	30532
249.075	49499
249.138	43735
249.202	14100
249.265	7936
249.328	10875
249.392	7048
249.455	5883
249.519	3831
249.582	5842
249.645	9797
249.709	7974
249.772	3418
249.835	5180
249.899	5053
249.962	4183
250.025	3927
250.089	13499
250.152	21226
250.215	7928
250.279	6005
250.342	6443
250.405	5126
250.468	5093
250.532	7425
250.595	12379
250.658	50635
250.721	98527
250.785	30624
250.848	15694
250.911	8550
250.974	8045
251.038	11036
251.101	26154
251.164	11644
251.227	11048
251.290	10277
251.354	16142
251.417	74691
251.480	80383
251.543	47735
251.606	147424
251.669	115094
251.732	37572
251.795	35722
251.859	37625
251.922	90150
251.985	54142
252.048	17628
252.111	12291
252.174	10643
252.237	20130
252.300	50687
252.363	50844
252.426	122296
252.489	50477
252.552	21159
252.615	13741
252.678	14483
252.741	36859
252.804	49979
252.867	122695
252.930	68791
252.993	34016
253.056	18617
253.119	12888
253.182	10292
253.245	18714
253.308	14152
253.371	12023
253.434	10071
253.497	9766
253.559	22111
253.622	14891
253.685	16440
253.748	18010
253.811	8150
253.874	10291
253.937	9967
254.000	7384
254.062	13364
254.125	25353
254.188	17688
254.251	17413
254.314	7936
254.376	13574
254.439	16544
254.502	13066
254.565	14952
254.628	28766
254.690	15822
254.753	8242
254.816	6531
254.878	6513
254.941	15262
255.004	18683
255.067	7190
255.129	6640
255.192	3591
255.255	2224
255.317	4695
255.380	3335
255.443	1241
255.505	1619
255.568	1782
255.631	1436
255.693	3397
255.756	2009
255.819	2573
255.881	1611
255.944	2480
256.006	1023
256.069	2226
256.132	1781
256.194	3899
256.257	11506
256.319	8540
256.382	7795
256.444	4011
256.507	2225
256.569	2262
256.632	2581
256.694	5191
256.757	14827
256.819	50911
256.882	18667
256.944	7099
257.007	5926
257.069	6170
257.132	3500
257.194	3853
257.257	2309
257.319	2317
257.381	3353
257.444	10251
257.506	59162
257.569	68622
257.631	40089
257.693	19709
257.756	8119
257.818	6741
257.880	3622
257.943	2919
258.005	1925
258.067	1564
258.130	2314
258.192	3330
258.254	9543
258.317	4504
258.379	3488
258.441	12893
258.503	14100
258.566	14895
258.628	22880
258.690	4809
258.753	4225
258.815	9242
258.877	3688
258.939	2535
259.001	2569
259.064	1739
259.126	2800
259.188	5732
259.250	3824
259.312	5232
259.375	20291
259.437	12642
259.499	4328
259.561	3323
259.623	3464
259.685	2258
259.747	3183
259.809	12958
259.872	29413
259.934	41483
259.996	36142
260.058	8055
260.120	3511
260.182	3042
260.244	2726
260.306	1650
260.368	2122
260.430	1187
260.492	3054
260.554	14249
260.616	16046
260.678	21022
260.740	32778
260.802	7454
260.864	5019
260.926	3438
260.988	3115
261.050	2284
261.112	5127
261.174	23216
261.236	24772
261.298	6120
261.359	12207
261.421	19186
261.483	4273
261.545	4236
261.607	1490
261.669	2705
261.731	6513
261.793	19897
261.854	7633
261.916	4339
261.978	2322
262.040	2594
262.102	3896
262.164	6218
262.225	5590
262.287	3448
262.349	8068
262.411	8491
262.472	4040
262.534	6437
262.596	18953
262.658	5961
262.719	986
262.781	4774
262.843	16840
262.904	7767
262.966	3347
263.028	5882
263.090	31458
263.151	94847
263.213	28137
263.275	11254
263.336	5756
263.398	4407
263.459	2538
263.521	2108
263.583	8895
263.644	5688
263.706	1923
263.767	1351
263.829	953
263.891	-103
263.952	493
264.014	-201
264.075	1044
264.137	2613
264.198	2886
264.260	201
264.321	850
264.383	4060
264.444	9168
264.506	1564
264.567	1322
264.629	2604
264.690	1374
264.752	2232
264.813	1573
264.875	-208
264.936	1171
264.998	610
265.059	666
265.120	792
265.182	3058
265.243	20546
265.305	21747
265.366	5000
265.427	2204
265.489	2102
265.550	-410
265.611	1227
265.673	1158
265.734	588
265.795	1364
265.857	700
265.918	1237
265.979	4928
266.040	37667
266.102	32696
266.163	7666
266.224	5270
266.286	3136
266.347	1763
266.408	2045
266.469	2029
266.530	1403
266.592	642
266.653	4094
266.714	9656
266.775	2849
266.836	1293
266.898	709
266.959	1807
267.020	1211
267.081	2066
267.142	482
267.203	608
267.264	72
267.326	2426
267.387	752
267.448	379
267.509	1517
267.570	547
267.631	447
267.692	219
267.753	692
267.814	913
267.875	3919
267.936	13133
267.997	3630
268.058	3239
268.119	1994
268.180	2041
268.241	744
268.302	1114
268.363	-67
268.424	1645
268.485	1558
268.546	587
268.607	549
268.668	-586
268.729	315
268.790	681
268.851	1262
268.912	5671
268.972	8205
269.033	3180
269.094	816
269.155	1072
269.216	575
269.277	1641
269.338	584
269.398	786
269.459	1820
269.520	3043
269.581	4880
269.642	5230
269.702	2861
269.763	2359
269.824	565
269.885	2446
269.945	4389
270.006	1414
270.067	1053
270.128	642
270.188	1019
270.249	1530
270.310	-539
270.370	1204
270.431	1440
270.492	1225
270.553	1412
270.613	5719
270.674	12731
270.734	5031
270.795	2026
270.856	3773
270.916	3001
270.977	1060
271.038	2419
271.098	2353
271.159	5090
271.219	5365
271.280	1669
271.340	1619
271.401	1876
271.462	8267
271.522	4640
271.583	1881
271.643	662
271.704	1747
271.764	2385
271.825	7796
271.885	32257
271.946	50185
272.006	14471
272.066	18549
272.127	40182
272.187	10464
272.248	5099
272.308	5324
272.369	26565
272.429	14986
272.489	8493
272.550	8024
272.610	8335
272.671	6563
272.731	5094
272.791	10208
272.852	5458
272.912	4493
272.972	2584
273.033	1973
273.093	4283
273.153	4294
273.214	2061
273.274	3566
273.334	14302
273.394	38084
273.455	13696
273.515	11969
273.575	30657
273.635	12530
273.696	15058
273.756	38275
273.816	14182
273.876	7773
273.936	15848
273.997	30910
274.057	7267
274.117	4561
274.177	8390
274.237	40317
274.297	40693
274.358	24633
274.418	29503
274.478	21296
274.538	6763
274.598	6551
274.658	23795
274.718	32635
274.778	12065
274.838	5551
274.898	12396
274.958	45660
275.018	40706
275.078	26606
275.138	9305
275.198	4161
275.258	2772
275.318	4362
275.378	8435
275.438	8871
275.498	6641
275.558	17934
275.618	44047
275.678	28305
275.738	12435
275.798	9145
275.858	3423
275.918	2460
275.978	3086
276.038	2932
276.098	2641
276.157	6058
276.217	22000
276.277	9719
276.337	6056
276.397	2852
276.457	4066
276.517	3007
276.576	1361
276.636	1239
276.696	3877
276.756	11515
276.815	9980
276.875	2949
276.935	4097
276.995	3634
277.055	2010
277.114	1162
277.174	4169
277.234	17593
277.293	7438
277.353	3669
277.413	2706
277.472	2466
277.532	2689
277.592	3538
277.651	15055
277.711	34616
277.771	10948
277.830	36059
277.890	33600
277.950	21403
278.009	72451
278.069	27220
278.128	20970
278.188	33846
278.248	12785
278.307	34534
278.367	23450
278.426	5953
278.486	3492
278.545	2389
278.605	2107
278.664	2378
278.724	2888
278.783	12830
278.843	41827
278.902	11932
278.962	5646
279.021	5357
279.081	6921
279.140	6904
279.199	5451
279.259	5251
279.318	5815
279.378	8294
279.437	17150
279.496	70599
279.556	178832
279.615	152208
279.675	38577
279.734	21630
279.793	29461
279.853	59375
279.912	22799
279.971	10258
280.031	9518
280.090	19651
280.149	43770
280.208	25888
280.268	110407
280.327	131232
280.386	29554
280.445	20622
280.505	20239
280.564	8596
280.623	7052
280.682	9547
280.742	17374
280.801	5864
280.860	3013
280.919	2402
280.978	2429
281.037	1078
281.097	1996
281.156	2178
281.215	2776
281.274	4345
281.333	22664
281.392	20468
281.451	3849
281.510	2180
281.569	2343
281.628	1466
281.688	1129
281.747	2061
281.806	2122
281.865	1800
281.924	753
281.983	1062
282.042	587
282.101	1306
282.160	1531
282.219	1118
282.278	2190
282.337	10173
282.396	7967
282.454	2481
282.513	2457
282.572	16781
282.631	9921
282.690	2316
282.749	1251
282.808	2522
282.867	1878
282.926	2981
282.985	826
283.043	790
283.102	333
283.161	2195
283.220	7873
283.279	22526
283.338	6330
283.396	2415
283.455	2136
283.514	2695
283.573	4353
283.631	3586
283.690	1990
283.749	1441
283.808	5809
283.866	8854
283.925	2197
283.984	1825
284.043	2839
284.101	4037
284.160	911
284.219	2922
284.277	3301
284.336	5324
284.395	23903
284.453	23697
284.512	6520
284.570	7935
284.629	7178
284.688	5222
284.746	6095
284.805	7007
284.863	10001
284.922	11804
284.981	12298
285.039	19012
285.098	36970
285.156	97976
285.215	272291
285.273	274452
285.332	121774
285.390	57204
285.449	34345
285.507	22463
285.566	15599
285.624	12001
285.683	9160
285.741	6364
285.799	5623
285.858	4356
285.916	4570
285.975	2816
286.033	1651
286.091	2717
286.150	1808
286.208	1687
286.267	1872
286.325	2637
286.383	5431
286.442	5262
286.500	2252
286.558	1852
286.616	1871
286.675	3275
286.733	2540
286.791	2115
286.850	2876
286.908	3690
286.966	8442
287.024	2871
287.083	1065
287.141	212
287.199	1437
287.257	3615
287.315	2292
287.374	2299
287.432	8973
287.490	6352
287.548	2950
287.606	1739
287.664	1865
287.723	3338
287.781	4092
287.839	2787
287.897	2496
287.955	4985
288.013	9269
288.071	24282
288.129	98664
288.187	305832
288.245	139670
288.303	39667
288.361	22850
288.419	14934
288.477	9619
288.535	7494
288.593	4695
288.651	2848
288.709	1735
288.767	2484
288.825	1100
288.883	644
288.941	652
288.999	642
289.057	1270
289.115	260
289.173	309
289.231	1079
289.289	1549
289.346	-108
289.404	1396
289.462	3387
289.520	4569
289.578	1595
289.636	449
289.694	80
289.751	35
289.809	178
289.867	-72
289.925	1305
289.983	1764
290.040	177
290.098	-403
290.156	793
290.214	1437
290.271	-120
290.329	-841
290.387	-724
290.444	46
290.502	-981
290.560	60
290.617	-945
290.675	-258
290.733	260
290.790	484
290.848	-335
290.906	-311
290.963	445
291.021	-235
291.078	271
291.136	529
291.194	5014
291.251	15903
291.309	3847
291.366	293
291.424	653
291.481	945
291.539	1
291.596	829
291.654	-197
291.711	-603
291.769	488
291.826	3967
291.884	2345
291.941	772
291.999	526
292.056	1120
292.114	975
292.171	478
292.228	187
292.286	1051
292.343	3528
292.401	5179
292.458	2279
292.515	1087
292.573	3060
292.630	2266
292.687	1976
292.745	479
292.802	828
292.859	4897
292.917	19838
292.974	13079
293.031	2875
293.089	1317
293.146	732
293.203	489
293.260	319
293.318	2492
293.375	1189
293.432	151
293.489	-679
293.546	473
293.604	3106
293.661	12607
293.718	42662
293.775	19764
293.832	7659
293.889	5256
293.947	8255
294.004	4898
294.061	4224
294.118	8022
294.175	14745
294.232	9298
294.289	3392
294.346	1908
294.403	1187
294.460	1687
294.517	1438
294.574	1127
294.631	326
294.688	1797
294.745	7757
294.802	38181
294.859	30583
294.916	12927
294.973	10109
295.030	6071
295.087	5234
295.144	2423
295.201	2601
295.258	2050
295.315	4402
295.372	14910
295.429	35659
295.486	13807
295.542	4370
295.599	5604
295.656	9409
295.713	11562
295.770	28092
295.827	10815
295.883	3177
295.940	2650
295.997	6228
296.054	6514
296.111	2422
296.167	1511
296.224	808
296.281	-53
296.338	857
296.394	125
296.451	2482
296.508	9693
296.564	24315
296.621	14626
296.678	31547
296.734	52914
296.791	17822
296.848	7104
296.904	7400
296.961	16551
297.018	34142
297.074	27253
297.131	8675
297.187	5775
297.244	10743
297.301	35906
297.357	75452
297.414	26380
297.470	8252
297.527	4338
297.583	3418
297.640	2774
297.696	2003
297.753	395
297.809	452
297.866	-101
297.922	808
297.979	558
298.035	1146
298.092	4374
298.148	18300
298.204	20724
298.261	9178
298.317	12796
298.374	44366
298.430	27796
298.486	11210
298.543	6318
298.599	5499
298.656	4564
298.712	10660
298.768	30881
298.824	25930
298.881	6677
298.937	2987
298.993	2176
299.050	3790
299.106	2671
299.162	1659
299.218	3023
299.275	2025
299.331	2613
299.387	9212
299.443	36539
299.500	42748
299.556	13711
299.612	5280
299.668	4079
299.724	3352
299.780	3797
299.837	3501
299.893	7141
299.949	27186
300.005	37433
300.061	27214
300.117	51534
300.173	26746
300.229	10483
300.285	9451
300.341	12097
300.397	6533
300.453	2754
300.510	1656
300.566	1691
300.622	2863
300.678	8311
300.734	21919
300.790	27554
300.845	41355
300.901	23122
300.957	26229
301.013	24342
301.069	8846
301.125	5314
301.181	5437
301.237	3211
301.293	2039
301.349	1133
301.405	171
301.461	1324
301.516	979
301.572	1834
301.628	5714
301.684	6968
301.740	9143
301.796	18585
301.851	12843
301.907	19326
301.963	24870
302.019	38724
302.074	115954
302.130	119658
302.186	52007
302.242	18726
302.297	12312
302.353	10636
302.409	20777
302.464	20076
302.520	15425
302.576	36349
302.631	48380
302.687	24870
302.743	10010
302.798	4838
302.854	3562
302.910	2912
302.965	2977
303.021	8654
303.076	9243
303.132	10138
303.187	14029
303.243	6690
303.299	2526
303.354	1359
303.410	1119
303.465	825
303.521	768
303.576	1806
303.632	3517
303.687	9983
303.743	34335
303.798	33889
303.853	12008
303.909	4918
303.964	3381
304.020	4605
304.075	11158
304.130	8625
304.186	16079
304.241	18501
304.297	14047
304.352	6188
304.358	5833
304.407	2956
304.449	3598
304.463	3814
304.518	3349
304.539	3254
304.573	3105
304.629	3730
304.630	3810
304.684	7805
304.720	18119
304.739	23257
304.794	44007
304.811	37392
304.850	21288
304.902	8094
304.905	7267
304.960	4403
304.992	3677
305.015	3120
305.071	2187
305.083	2099
305.126	1830
305.173	838
305.181	685
305.236	777
305.264	885
305.292	995
305.347	2281
305.354	2208
305.402	1703
305.445	2223
305.457	2410
305.512	4040
305.535	4401
305.567	4733
305.622	5622
305.626	5777
305.678	11341
305.716	27282
305.733	32806
305.788	44478
305.807	38108
305.843	27531
305.897	35496
305.898	35551
305.953	38975
305.988	24852
306.008	17294
306.063	7560
306.078	6566
306.118	4682
306.168	3051
306.173	2921
306.228	2188
306.259	2251
306.283	2293
306.338	1358
306.349	1353
306.393	1469
306.440	1943
306.448	2003
306.503	1248
306.530	1992
306.558	3359
306.613	6189
306.620	7040
306.668	16614
306.711	29948
306.723	31318
306.778	28949
306.801	21507
306.833	12949
306.888	5534
306.892	5166
306.943	2684
306.982	2442
306.997	2327
307.052	1945
307.072	1691
307.107	1604
307.162	1723
307.163	1734
307.217	2920
307.253	3378
307.272	3561
307.327	3734
307.343	3623
307.381	3458
307.434	4417
307.436	4670
307.491	10569
307.524	16676
307.546	19031
307.600	26675
307.614	24752
307.655	14763
307.704	5729
307.710	5275
307.765	4387
307.795	4936
307.819	5575
307.874	7863
307.885	7816
307.929	7123
307.975	6757
307.984	7159
308.038	11936
308.065	16388
308.093	31887
308.148	70564
308.156	80626
308.202	132178
308.246	168740
308.257	166841
308.312	84028
308.336	56804
308.366	40761
308.421	28031
308.426	26686
308.475	15940
308.517	9668
308.530	8746
308.585	7286
308.607	6745
308.639	6079
308.694	5391
308.697	5425
308.748	7532
308.787	9536
308.803	9581
308.857	8796
308.877	7921
308.912	7724
308.967	9289
308.967	9317
309.021	15296
309.058	20286
309.076	26857
309.130	52247
309.148	62313
309.185	119394
309.238	217964
309.239	218588
309.293	252744
309.328	225065
309.348	190291
309.402	81360
309.418	56491
309.457	37401
309.508	22893
309.511	22596
309.566	22606
309.598	23461
309.620	30436
309.674	51346
309.688	56985
309.729	52490
309.778	40394
309.783	39349
309.837	26317
309.868	19889
309.892	24401
309.946	38164
309.959	42311
310.001	56110
310.049	69448
310.055	66933
310.109	37382
310.139	20483
310.163	15439
310.218	7273
310.229	6007
310.272	4724
310.319	3854
310.326	3713
310.381	2539
310.409	2077
310.435	2057
310.489	1910
310.499	1934
310.543	1955
310.589	1873
310.598	1853
310.652	1837
310.679	1724
310.706	1638
310.760	1647
310.769	1644
310.814	1514
310.859	1331
310.868	1399
310.923	1659
310.948	1881
310.977	2199
311.031	2821
311.038	2893
311.085	2701
311.128	2327
311.139	2380
311.193	2797
311.218	2895
311.247	2452
311.301	1748
311.308	1644
311.356	1839
311.398	2039
311.410	2061
311.464	2118
311.488	2113
311.518	1983
311.572	1792
311.578	1764
311.626	3897
311.668	5831
311.680	5563
311.734	4079
311.758	3421
311.788	3092
311.842	2501
311.847	2433
311.896	3389
311.937	4208
311.950	4185
312.004	4014
312.027	3929
312.058	3628
312.112	3061
312.117	2997
312.165	2790
312.207	2600
312.297	1669
312.386	2354
312.476	2529
312.566	10007
312.656	4980
312.745	1907
312.835	1767
312.925	3129
313.015	2023
313.104	1718
313.194	2511
313.284	2455
313.374	3825
313.463	4171
313.553	1838
313.643	1968
313.732	1562
313.822	1266
313.912	1842
314.001	2981
314.091	2287
314.180	2617
314.270	4921
314.360	4952
314.449	3864
314.539	2094
314.628	1415
314.718	2140
314.808	2947
314.897	2107
314.987	1975
315.076	3667
315.166	4873
315.255	3228
315.345	4270
315.434	2520
315.524	2608
315.613	4835
315.703	6610
315.792	8170
315.881	13681
315.971	6191
316.060	9552
316.150	7333
316.239	5129
316.328	2327
316.418	2190
316.507	2465
316.597	4548
316.686	3918
316.775	2904
316.865	4788
316.954	1806
317.043	2592
317.133	3091
317.222	2871
317.311	1644
317.400	2149
317.490	5283
317.579	6115
317.668	2979
317.757	5966
317.847	10525
317.936	26593
318.025	18923
318.114	8108
318.203	5385
318.293	4627
318.382	6016
318.471	7810
318.560	6832
318.649	9464
318.738	3120
318.828	4742
318.917	5381
319.006	4118
319.095	7842
319.184	18951
319.273	21011
319.362	17576
319.451	5125
319.540	4909
319.629	14737
319.718	25109
319.807	6255
319.896	10168
319.985	25172
320.074	15777
320.163	2965
320.252	3280
320.341	3777
320.430	3655
320.519	9712
320.608	4842
320.697	3361
320.786	3682
320.875	7086
320.964	10098
321.053	16875
321.142	25558
321.230	26356
321.319	15586
321.408	39295
321.497	14002
321.586	15458
321.675	9902
321.764	10947
321.852	7635
321.941	23264
322.030	15706
322.119	12740
322.207	43938
322.296	12761
322.385	7708
322.474	13767
322.562	55345
322.651	24211
322.740	19248
322.829	26463
322.917	11249
323.006	11218
323.095	13192
323.183	5417
323.272	8211
323.361	13218
323.449	22024
323.538	8835
323.626	17917
323.715	11364
323.804	4195
323.892	15551
323.981	15829
324.069	4362
324.158	5648
324.246	6290
324.335	7478
324.424	16342
324.512	4244
324.601	5102
324.689	6519
324.778	8261
324.866	10368
324.954	3341
325.043	4559
325.131	4943
325.220	6451
325.308	7509
325.397	7567
325.485	5751
325.574	3701
325.662	3393
325.750	3530
325.839	3751
325.927	2425
326.015	3306
326.104	2685
326.192	3344
326.280	2082
326.369	2305
326.457	6462
326.545	12481
326.634	4957
326.722	1478
326.810	2762
326.898	1665
326.987	3454
327.075	9598
327.163	7746
327.251	1777
327.340	2642
327.428	2341
327.516	1996
327.604	1927
327.692	2231
327.781	1489
327.869	2978
327.957	2595
328.045	4132
328.133	2024
328.221	1634
328.309	2333
328.397	3718
328.485	4044
328.574	7940
328.662	29703
328.750	10815
328.838	2947
328.926	2672
329.014	1589
329.102	4161
329.190	7778
329.278	6518
329.366	1766
329.454	1305
329.542	1060
329.630	1540
329.718	1966
329.806	4209
329.893	1895
329.981	1719
330.069	3745
330.157	15849
330.245	44062
330.333	20712
330.421	4123
330.509	8679
330.597	36654
330.684	21037
330.772	3772
330.860	2487
330.948	2413
331.036	2574
331.123	631
331.211	863
331.299	2176
331.387	2909
331.475	6911
331.562	2954
331.650	1646
331.738	1707
331.825	2274
331.913	1815
332.001	1303
332.089	2070
332.176	2206
332.264	5507
332.352	4963
332.439	3211
332.527	2323
332.614	1268
332.702	1908
332.790	3007
332.877	4697
332.965	8532
333.052	3571
333.140	5610
333.228	15511
333.315	3406
333.403	1945
333.490	3776
333.578	7064
333.665	23252
333.753	8399
333.840	2147
333.928	2731
334.015	5188
334.103	5388
334.190	15482
334.278	4408
334.365	2639
334.452	2917
334.540	2021
334.627	1222
334.715	2576
334.802	3952
334.889	17144
334.977	16277
335.064	4141
335.151	2346
335.239	1849
335.326	2050
335.413	9529
335.501	10505
335.588	3687
335.675	1526
335.762	1583
335.850	2192
335.937	2929
336.024	4386
336.111	18919
336.199	9215
336.286	2769
336.373	1432
336.460	823
336.547	1280
336.635	2517
336.722	3202
336.809	2016
336.896	3620
336.983	9685
337.070	16621
337.157	17848
337.245	10826
337.332	7019
337.419	1339
337.506	1701
337.593	1250
337.680	2992
337.767	8016
337.854	5641
337.941	4686
338.028	6961
338.115	933
338.202	2729
338.289	4612
338.376	13432
338.463	4832
338.550	5509
338.637	5442
338.724	2874
338.811	3684
338.898	1571
338.984	614
339.071	1620
339.158	2946
339.245	14104
339.332	7416
339.419	4459
339.506	3600
339.593	745
339.679	2230
339.766	2803
339.853	3525
339.940	11931
340.027	3079
340.113	4079
340.200	4976
340.287	3823
340.374	4670
340.460	10547
340.547	3043
340.634	8618
340.720	36116
340.807	20015
340.894	3199
340.980	3330
341.067	2164
341.154	4320
341.240	5723
341.327	16401
341.414	3915
341.500	1699
341.587	3266
341.674	3193
341.760	10813
341.847	13269
341.933	3727
342.020	758
342.106	1350
342.193	3924
342.279	8390
342.366	4819
342.452	11037
342.539	6086
342.625	14864
342.712	41100
342.798	15398
342.885	6248
342.971	-78
343.058	1553
343.144	1850
343.230	2473
343.317	1838
343.403	1406
343.490	1152
343.576	1634
343.662	2695
343.749	3245
343.835	4941
343.921	12569
344.008	74052
344.094	168097
344.180	34895
344.267	14037
344.353	44386
344.439	41074
344.525	15616
344.612	5329
344.698	4693
344.784	2998
344.870	1583
344.957	3079
345.043	6217
345.129	4279
345.215	9792
345.301	4098
345.387	1724
345.474	1462
345.560	620
345.646	369
345.732	1638
345.818	1890
345.904	2344
345.990	3124
346.076	2145
346.162	2409
346.249	2486
346.335	2015
346.421	4018
346.507	19339
346.593	68724
346.679	14640
346.765	3037
346.851	2452
346.937	2152
347.023	3326
347.108	2992
347.194	3575
347.280	1288
347.366	5126
347.452	18103
347.538	81945
347.624	56317
347.710	40932
347.796	4550
347.882	2700
347.967	1578
348.053	1791
348.139	1059
348.225	2340
348.311	1952
348.397	2141
348.482	3272
348.568	4166
348.654	1379
348.740	1968
348.825	2009
348.911	7967
348.997	36829
349.083	71123
349.168	8879
349.254	2610
349.340	1789
349.425	1441
349.511	3696
349.597	4699
349.682	11708
349.768	47101
349.854	19727
349.939	3391
350.025	1740
350.110	1264
350.196	640
350.282	1206
350.367	1095
350.453	2396
350.538	1937
350.624	3220
350.709	3226
350.795	1268
350.880	2118
350.966	2266
351.051	2315
351.137	1839
351.222	3523
351.308	13120
351.393	38907
351.479	7680
351.564	1348
351.649	2131
351.735	637
351.820	1795
351.906	1600
351.991	3459
352.076	22768
352.162	38206
352.247	6422
352.332	4570
352.418	7176
352.503	9083
352.588	55397
352.673	44257
352.759	9635
352.844	4456
352.929	4454
353.014	6097
353.100	5562
353.185	14849
353.270	16517
353.355	13457
353.441	3665
353.526	2754
353.611	11538
353.696	14141
353.781	7840
353.866	3256
353.952	3942
354.037	11314
354.122	27232
354.207	25408
354.292	7337
354.377	2533
354.462	2854
354.547	4087
354.632	4431
354.717	7667
354.802	17028
354.887	5660
354.972	1953
355.057	1921
355.142	1575
355.227	4095
355.312	7023
355.397	18659
355.482	46318
355.567	19752
355.652	14579
355.737	16750
355.822	55516
355.907	42512
355.991	5913
356.076	2788
356.161	2154
356.246	2157
356.331	3257
356.416	11772
356.501	87973
356.585	88139
356.670	10636
356.755	8547
356.840	12227
356.924	66033
357.009	219350
357.094	75636
357.179	14447
357.263	8468
357.348	7932
357.433	7209
357.517	8213
357.602	6466
357.687	4389
357.771	7459
357.856	8068
357.941	9214
358.025	43475
358.110	195470
358.195	85374
358.279	12980
358.364	9111
358.448	35902
358.533	100973
358.617	70290
358.702	70867
358.787	23693
358.871	12374
358.956	10033
359.040	2075
359.125	1916
359.209	2629
359.294	3084
359.378	3340
359.462	8470
359.547	5529
359.631	2342
359.716	1403
359.800	1705
359.885	3399
359.969	3236
360.053	3549
360.138	2375
360.222	6504
360.306	12368
360.391	8352
360.475	10201
360.559	26004
360.644	36704
360.728	26679
360.812	48126
360.896	133093
360.981	46116
361.065	20655
361.149	5767
361.233	4641
361.318	3897
361.402	4728
361.486	4732
361.570	2276
361.654	5966
361.739	18432
361.823	84301
361.907	128867
361.991	19852
362.075	11153
362.159	26331
362.243	16694
362.327	9871
362.411	11025
362.495	6052
362.580	2803
362.664	1466
362.748	620
362.832	3023
362.916	3714
363.000	17866
363.084	81644
363.168	143764
363.252	29968
363.336	9145
363.420	10250
363.503	16608
363.587	14513
363.671	6325
363.755	4992
363.839	10328
363.923	2989
364.007	11492
364.091	10903
364.175	5038
364.258	19857
364.342	16334
364.426	24821
364.510	12083
364.594	10337
364.677	20018
364.761	115107
364.845	77292
364.929	22554
365.013	17950
365.096	14649
365.180	16605
365.264	7421
365.347	19194
365.431	7551
365.515	3775
365.598	2937
365.682	4339
365.766	1227
365.849	2818
365.933	3690
366.017	4423
366.100	1066
366.184	649
366.267	2578
366.351	2160
366.435	828
366.518	1227
366.602	2103
366.685	2649
366.769	3211
366.852	3749
366.936	10156
367.019	8103
367.103	766
367.186	2131
367.270	801
367.353	686
367.436	3420
367.520	1832
367.603	4367
367.687	6637
367.770	15126
367.853	8988
367.937	32035
368.020	55309
368.104	10872
368.187	11082
368.270	14826
368.353	12907
368.437	10046
368.520	9665
368.603	14311
368.687	36840
368.770	72250
368.853	15452
368.936	11508
369.020	7625
369.103	2939
369.186	2068
369.269	1122
369.352	9569
369.436	13100
369.519	6487
369.602	1013
369.685	4485
369.768	3251
369.851	3445
369.934	1925
370.018	3169
370.101	11752
370.184	8547
370.267	3395
370.350	7267
370.433	13925
370.516	55974
370.599	65552
370.682	14989
370.765	35633
370.848	45053
370.931	88564
371.014	28616
371.097	4706
371.180	4102
371.263	2201
371.346	-29
371.429	2505
371.511	2137
371.594	6041
371.677	9124
371.760	6499
371.843	11350
371.926	66704
372.009	151340
372.091	42643
372.174	29941
372.257	82939
372.340	28211
372.423	12552
372.505	9956
372.588	5834
372.671	24969
372.754	89586
372.836	40125
372.919	9174
373.002	12568
373.085	8188
373.167	12415
373.250	35044
373.332	82524
373.415	105415
373.498	217115
373.580	70441
373.663	91945
373.746	125051
373.828	26049
373.911	9680
373.993	7721
374.076	11858
374.159	9458
374.241	17044
374.324	74147
374.406	45856
374.489	63469
374.571	185173
374.654	69843
374.736	33578
374.819	111396
374.901	155566
374.983	156103
375.066	23565
375.148	5844
375.231	9521
375.313	17135
375.395	9700
375.478	2956
375.560	3775
375.643	6334
375.725	28658
375.807	139880
375.890	82692
375.972	15552
376.054	11734
376.136	9073
376.219	5971
376.301	38519
376.383	124685
376.465	41877
376.548	26904
376.630	31595
376.712	104654
376.794	44721
376.877	4420
376.959	2638
377.041	3201
377.123	2252
377.205	1995
377.287	1285
377.369	2281
377.452	2826
377.534	2673
377.616	2439
377.698	1547
377.780	1382
377.862	2779
377.944	3693
378.026	116
378.108	2023
378.190	1293
378.272	2432
378.354	1188
378.436	980
378.518	2242
378.600	10065
378.682	15506
378.764	51800
378.846	37055
378.928	7640
379.010	12266
379.091	7270
379.173	3338
379.255	1647
379.337	4919
379.419	23338
379.501	73204
379.583	25239
379.664	5651
379.746	14750
379.828	47371
379.910	66518
379.991	58035
380.073	7810
380.155	4744
380.237	3897
380.318	2047
380.400	1947
380.482	9129
380.564	15390
380.645	18217
380.727	16974
380.809	6931
380.890	5025
380.972	4037
381.053	3505
381.135	4798
381.217	14752
381.298	51568
381.380	21682
381.461	17732
381.543	102186
381.624	122375
381.706	19819
381.787	6884
381.869	9315
381.951	41997
382.032	168730
382.113	97760
382.195	15739
382.276	11959
382.358	33975
382.439	94801
382.521	101647
382.602	158924
382.684	64144
382.765	124660
382.846	125384
382.928	197020
383.009	100161
383.090	61708
383.172	264554
383.253	410895
383.334	131432
383.416	145722
383.497	69801
383.578	26475
383.659	49770
383.741	215325
383.822	598610
383.903	288954
383.984	100312
384.066	173314
384.147	101641
384.228	18209
384.309	13822
384.390	9698
384.471	6449
384.553	6934
384.634	9156
384.715	10937
384.796	4785
384.877	6963
384.958	44852
385.039	53835
385.120	16670
385.201	6571
385.282	6766
385.363	5174
385.444	5380
385.525	12155
385.606	67213
385.687	57919
385.768	9297
385.849	10393
385.930	73813
386.011	125854
386.092	28114
386.173	5070
386.254	3232
386.335	3819
386.416	4158
386.496	25951
386.577	46365
386.658	11400
386.739	6047
386.820	3301
386.901	2217
386.981	3694
387.062	1841
387.143	8999
387.224	47253
387.304	39838
387.385	10785
387.466	2120
387.547	4134
387.627	2903
387.708	15166
387.789	85140
387.869	107545
387.950	25084
388.031	2958
388.111	-640
388.192	3308
388.273	4298
388.353	3074
388.434	4419
388.514	15158
388.595	83361
388.676	104401
388.756	46248
388.837	44300
388.917	24609
388.998	1983
389.078	3432
389.159	3634
389.239	1746
389.320	7636
389.400	4071
389.480	14604
389.561	49683
389.641	23294
389.722	6519
389.802	11680
389.883	18602
389.963	62484
390.043	30179
390.124	4040
390.204	12018
390.284	52786
390.365	29128
390.445	19874
390.525	77211
390.605	77525
390.686	23969
390.766	7927
390.846	4249
390.927	1661
391.007	1674
391.087	3098
391.167	2058
391.247	860
391.328	2238
391.408	3237
391.488	2446
391.568	491
391.648	3903
391.728	8423
391.808	7276
391.888	8670
391.969	25309
392.049	43697
392.129	11909
392.209	17770
392.289	58462
392.369	25381
392.449	5298
392.529	5518
392.609	8271
392.689	12664
392.769	54728
392.849	43591
392.929	19616
393.009	63774
393.089	46873
393.169	23055
393.248	85797
393.328	406775
393.408	399851
393.488	75871
393.568	18918
393.648	9705
393.728	5535
393.807	4263
393.887	4116
393.967	3671
394.047	4930
394.127	7050
394.206	11721
394.286	58072
394.366	284489
394.446	266450
394.525	42645
394.605	9344
394.685	6271
394.764	10620
394.844	12629
394.924	10121
395.003	5920
395.083	5212
395.163	4791
395.242	4162
395.322	4572
395.402	1960
395.481	4127
395.561	7959
395.640	20936
395.720	18536
395.799	13674
395.879	11424
395.958	14367
396.038	78652
396.117	363388
396.197	351581
396.276	64698
396.356	15419
396.435	9096
396.515	7749
396.594	12086
396.673	25278
396.753	108163
396.832	377775
396.912	264621
396.991	59412
397.070	13443
397.150	6443
397.229	4760
397.308	4591
397.388	6905
397.467	3773
397.546	2800
397.625	786
397.705	5226
397.784	5594
397.863	1731
397.942	1296
398.022	-57
398.101	3095
398.180	9434
398.259	4767
398.338	2232
398.417	2802
398.497	897
398.576	2247
398.655	1262
398.734	1185
398.813	1415
398.892	3898
398.971	9825
399.050	3382
399.129	-749
399.208	975
399.287	774
399.366	-339
399.445	520
399.524	866
399.603	-308
399.682	4352
399.761	10770
399.840	15002
399.919	8149
399.998	862
400.077	44
400.156	-158
400.235	2739
400.313	127
400.392	1551
400.471	24086
400.550	39423
400.629	8584
400.708	2231
400.786	1199
400.865	1038
400.944	2388
401.023	4365
401.102	344
401.180	292
401.259	58
401.338	-96
401.416	3280
401.495	1913
401.574	1030
401.652	744
401.731	3270
401.810	3045
401.888	1621
401.967	-494
402.046	1265
402.124	2206
402.203	2799
402.281	1781
402.360	1481
402.438	2902
402.517	866
402.596	249
402.674	927
402.753	121
402.831	1220
402.910	2959
402.988	22161
403.066	87221
403.145	47142
403.223	24300
403.302	74984
403.380	52329
403.459	55271
403.537	17670
403.615	4847
403.694	-99
403.772	1716
403.850	548
403.929	855
404.007	-41
404.085	9425
404.164	11740
404.242	2977
404.320	2683
404.398	7179
404.477	23340
404.555	128127
404.633	105665
404.711	13476
404.789	3738
404.868	3797
404.946	2062
405.024	743
405.102	-396
405.180	139
405.258	-309
405.336	854
405.415	167
405.493	3954
405.571	6500
405.649	1236
405.727	-332
405.805	2795
405.883	2734
405.961	2550
406.039	723
406.117	487
406.195	3736
406.273	26862
406.351	110679
406.429	58486
406.507	4332
406.585	306
406.663	2819
406.740	3537
406.818	2738
406.896	327
406.974	2493
407.052	7252
407.130	62487
407.208	87123
407.285	15017
407.363	1799
407.441	1617
407.519	1657
407.596	2979
407.674	12822
407.752	42941
407.830	27817
407.907	6371
407.985	3029
408.063	1493
408.141	132
408.218	965
408.296	4391
408.373	4178
408.451	2947
408.529	1659
408.606	508
408.684	-573
408.762	544
408.839	-197
408.917	-78
408.994	-614
409.072	-852
409.149	-909
409.227	696
409.304	43
409.382	407
409.459	229
409.537	1354
409.614	1684
409.692	466
409.769	529
409.846	1873
409.924	2115
410.001	-96
410.079	447
410.156	1490
410.233	823
410.311	1092
410.388	85
410.465	417
410.543	-304
410.620	949
410.697	1387
410.775	2849
410.852	-782
410.929	1582
411.006	2342
411.083	-304
411.161	110
411.238	1481
411.315	-284
411.392	563
411.469	498
411.547	51
411.624	-1980
411.701	-603
411.778	1523
411.855	6197
411.932	1874
412.009	519
412.086	242
412.163	968
412.240	1111
412.317	602
412.394	-345
412.471	147
412.548	-156
412.625	75
412.702	-126
412.779	2426
412.856	1205
412.933	-597
413.010	-7
413.087	2115
413.164	19982
413.241	30257
413.318	5998
413.395	3001
413.471	4719
413.548	1635
413.625	888
413.702	628
413.779	312
413.855	-96
413.932	-867
414.009	-1038
414.086	100
414.162	338
414.239	2185
414.316	19734
414.393	51160
414.469	15796
414.546	293
414.623	645
414.699	626
414.776	946
414.853	220
414.929	648
415.006	-508
415.082	183
415.159	-525
415.236	1277
415.312	1688
415.389	4587
415.465	5026
415.542	2334
415.618	1256
415.695	3652
415.771	1943
415.848	1675
415.924	804
416.000	-110
416.077	-499
416.153	-1153
416.230	-1844
416.306	-723
416.383	-1087
416.459	11
416.535	-1192
416.612	-1344
416.688	-387
416.764	757
416.841	-668
416.917	-803
416.993	488
417.069	996
417.146	904
417.222	2030
417.298	1074
417.374	346
417.451	-154
417.527	1945
417.603	2721
417.679	1811
417.755	433
417.831	-411
417.908	-1077
417.984	-1310
418.060	-1429
418.136	5165
418.212	7136
418.288	1827
418.364	307
418.440	879
418.516	1501
418.592	1696
418.668	6720
418.744	14556
418.820	9426
418.896	1022
418.972	-895
419.048	1034
419.124	5969
419.200	3291
419.276	-60
419.352	-721
419.428	-529
419.504	1416
419.579	1789
419.655	923
419.731	811
419.807	9388
419.883	16859
419.959	11354
420.034	2259
420.110	5653
420.186	30931
420.262	23303
420.337	2172
420.413	1711
420.489	585
420.565	450
420.640	-180
420.716	558
420.792	-772
420.867	1464
420.943	-1081
421.019	2244
421.094	803
421.170	628
421.245	-999
421.321	618
421.397	64
421.472	7055
421.548	21601
421.623	11365
421.699	1950
421.774	2450
421.850	508
421.925	4098
422.001	1784
422.076	1284
422.152	1569
422.227	4004
422.302	3496
422.378	5213
422.453	9521
422.529	31514
422.604	134302
422.679	266588
422.755	121046
422.830	25241
422.905	6988
422.981	2619
423.056	1891
423.131	1710
423.207	464
423.282	2229
423.357	7690
423.432	4205
423.508	5536
423.583	15538
423.658	9035
423.733	1460
423.808	1506
423.883	3268
423.959	2123
424.034	1234
424.109	478
424.184	-794
424.259	-1150
424.334	143
424.409	-85
424.484	217
424.559	337
424.634	-283
424.709	1329
424.784	3264
424.859	822
424.934	2968
425.009	20847
425.084	36343
425.159	10824
425.234	1530
425.309	-1207
425.384	36
425.459	-959
425.534	-143
425.609	-1038
425.683	-292
425.758	1
425.833	657
425.908	1413
425.983	11895
426.058	36958
426.132	13005
426.207	193
426.282	1056
426.357	-1357
426.431	-237
426.506	-928
426.581	-299
426.655	-146
426.730	-567
426.805	-65
426.879	243
426.954	361
427.029	4160
427.103	35226
427.178	92318
427.253	35863
427.327	2121
427.402	901
427.476	599
427.551	-1242
427.625	244
427.700	-174
427.774	-1074
427.849	-263
427.923	-1070
427.998	-419
428.072	202
428.147	1911
428.221	14104
428.296	30790
428.370	11757
428.444	435
428.519	5
428.593	175
428.667	1177
428.742	714
428.816	2975
428.890	13718
428.965	21765
429.039	3510
429.113	1370
429.188	-360
429.262	23
429.336	3274
429.410	15616
429.485	6820
429.559	1982
429.633	148
429.707	-55
429.781	2534
429.855	16111
429.930	29301
430.004	10956
430.078	6614
430.152	13479
430.226	51083
430.300	45574
430.374	3876
430.448	1026
430.522	2352
430.596	8055
430.670	11258
430.744	62906
430.818	99108
430.892	19689
430.966	1323
431.040	416
431.114	-1506
431.188	-516
431.262	-543
431.336	-1175
431.410	1157
431.484	4715
431.557	4067
431.631	150
431.705	176
431.779	4602
431.853	25412
431.927	13458
432.000	850
432.074	-255
432.148	-857
432.222	-691
432.295	-787
432.369	360
432.443	1976
432.516	31707
432.590	90290
432.664	29084
432.737	1700
432.811	-33
432.885	-1278
432.958	75
433.032	-1554
433.106	-804
433.179	-745
433.253	-325
433.326	-1486
433.400	-901
433.473	-781
433.547	-1806
433.620	-541
433.694	2493
433.767	2278
433.841	-245
433.914	-1055
433.988	-1611
434.061	-2104
434.134	-1350
434.208	-1243
434.281	-1430
434.355	-1156
434.428	-661
434.501	-671
434.575	-1133
434.648	-788
434.721	-400
434.795	-1403
434.868	-1491
434.941	-1817
435.014	-592
435.088	-1513
435.161	474
435.234	3059
435.307	2494
435.381	-385
435.454	-160
435.527	121
435.600	-75
435.673	-552
435.746	-1225
435.819	-717
435.892	-402
435.966	-1429
436.039	-858
436.112	-950
436.185	-987
436.258	-934
436.331	-1155
436.404	-1255
436.477	-1267
436.550	-1660
436.623	-619
436.696	-627
436.769	79
436.842	-680
436.915	-261
436.987	-504
437.060	-619
437.133	-918
437.206	-1684
437.279	-659
437.352	-476
437.425	-949
437.498	-104
437.570	2631
437.643	1987
437.716	-673
437.789	-808
437.861	-711
437.934	253
438.007	-117
438.080	-593
438.152	376
438.225	4654
438.298	45351
438.370	129513
438.443	44120
438.516	4392
438.588	-514
438.661	-583
438.734	-694
438.806	-416
438.879	-139
438.951	-932
439.024	-388
439.096	-519
439.169	-1184
439.241	-450
439.314	-1442
439.386	-497
439.459	-937
439.531	-972
439.604	-890
439.676	-588
439.749	-1304
439.821	-1107
439.893	-797
439.966	-1231
440.038	-567
440.110	-267
440.183	-200
440.255	-501
440.327	837
440.400	15864
440.472	77539
440.544	49234
440.617	4089
440.689	1136
440.761	781
440.833	1280
440.905	386
440.978	-841
441.050	-1604
441.122	-812
441.194	-2162
441.266	-501
441.338	-551
441.411	1751
441.483	22278
441.555	34369
441.627	4263
441.699	-206
441.771	-980
441.843	-1392
441.915	-1955
441.987	-984
442.059	-793
442.131	-717
442.203	-818
442.275	345
442.347	-138
442.419	99
442.491	7787
442.563	20022
442.635	6031
442.706	3676
442.778	3866
442.850	-867
442.922	-1474
442.994	-841
443.066	-264
443.137	-572
443.209	-1313
443.281	38
443.353	1714
443.425	12565
443.496	45838
443.568	36854
443.640	10364
443.711	988
443.783	-169
443.855	-904
443.926	-1100
443.998	-965
444.070	-1327
444.141	-208
444.213	903
444.285	2467
444.356	1157
444.428	-456
444.499	-1093
444.571	-1385
444.642	-722
444.714	584
444.785	2511
444.857	396
444.928	-219
445.000	-472
445.071	255
445.143	1978
445.214	1000
445.285	1780
445.357	5864
445.428	35006
445.500	76503
445.571	36550
445.642	14722
445.714	3878
445.785	2325
445.856	2240
445.928	3326
445.999	1605
446.070	-1035
446.141	2488
446.213	4197
446.284	81
446.355	-409
446.426	-430
446.497	-416
446.569	203
446.640	1650
446.711	3061
446.782	-801
446.853	-859
446.924	365
446.995	692
447.066	-1188
447.138	-716
447.209	-1221
447.280	-1641
447.351	-1486
447.422	-1266
447.493	-1475
447.564	124
447.635	1806
447.706	-696
447.777	-751
447.847	-1000
447.918	-1422
447.989	-937
448.060	-740
448.131	-564
448.202	731
448.273	1589
448.344	-233
448.414	-595
448.485	-995
448.556	-809
448.627	-716
448.698	-771
448.768	-2216
448.839	-919
448.910	-1091
448.981	129
449.051	163
449.122	-762
449.193	-809
449.263	-651
449.334	-1580
449.405	14
449.475	3993
449.546	1430
449.616	-725
449.687	-70
449.758	-1407
449.828	-1259
449.899	-792
449.969	-664
450.040	-885
450.110	-494
450.181	-1244
450.251	-816
450.322	-776
450.392	-951
450.463	-2485
450.533	-877
450.604	-819
450.674	-2139
450.744	-1505
450.815	-1228
450.885	-1011
450.955	-1121
451.026	-2223
451.096	-1460
451.166	-1254
451.237	-973
451.307	264
451.377	-1018
451.447	-2331
451.518	-453
451.588	-1623
451.658	-1174
451.728	-975
451.799	-111
451.869	-93
451.939	-1379
452.009	-878
452.079	-1671
452.149	-1147
452.219	-1390
452.289	597
452.360	445
452.430	-1945
452.500	-264
452.570	158
452.640	291
452.710	1606
452.780	1898
452.850	5951
452.920	8452
452.990	1431
453.060	-633
453.129	210
453.199	633
453.269	1365
453.339	3159
453.409	4978
453.479	5832
453.549	7814
453.619	7460
453.688	2635
453.758	-564
453.828	-1223
453.898	-602
453.968	-1676
454.037	-995
454.087	-1033
454.107	-1058
454.168	-988
454.177	-991
454.247	-940
454.249	-946
454.316	-1375
454.330	-1402
454.386	-1590
454.411	-1104
454.456	-371
454.492	-363
454.525	-376
454.574	-177
454.595	-97
454.655	-1774
454.665	-2052
454.734	-1047
454.736	-1003
454.804	-115
454.817	34
454.873	480
454.898	424
454.943	190
454.979	-140
455.013	-420
455.060	-639
455.082	-668
455.141	-133
455.152	-28
455.221	552
455.222	629
455.291	5056
455.303	6262
455.360	10257
455.384	14729
455.430	19719
455.465	12966
455.499	7341
455.546	3436
455.569	1788
455.627	799
455.638	652
455.707	-177
455.708	-170
455.777	-614
455.789	-587
455.846	-652
455.869	-887
455.916	-1234
455.950	-763
455.985	-409
456.031	-868
456.054	-1126
456.112	-805
456.124	-687
456.193	-343
456.193	-355
456.262	-587
456.274	-556
456.332	-386
456.355	-340
456.401	-308
456.436	-454
456.470	-610
456.516	-913
456.540	-1081
456.597	-1047
456.609	-1042
456.678	-419
456.678	-428
456.747	-544
456.759	-629
456.817	-598
456.840	-558
456.886	-866
456.920	-871
456.955	-709
457.001	-849
457.024	-1047
457.082	-666
457.093	-556
457.162	-425
457.163	-415
457.232	-701
457.243	-558
457.301	36
457.324	12
457.370	-151
457.405	-529
457.439	-811
457.485	-638
457.508	-629
457.566	-600
457.577	-503
457.646	106
457.647	114
457.715	209
457.727	410
457.784	1860
457.808	2590
457.853	3179
457.889	3840
457.922	3702
457.969	1829
457.991	1757
458.050	2592
458.060	2822
458.129	6833
458.130	6918
458.198	5829
458.211	5108
458.267	2062
458.292	853
458.336	94
458.372	403
458.405	1224
458.453	2045
458.474	2799
458.533	6297
458.543	6616
458.611	10853
458.614	10890
458.680	4503
458.694	3163
458.749	1305
458.775	669
458.818	43
458.855	297
458.887	523
458.936	46
458.955	-183
459.016	-25
459.024	93
459.093	481
459.097	528
459.162	715
459.177	693
459.230	1090
459.257	1669
459.299	1727
459.338	1034
459.368	919
459.418	1158
459.437	978
459.499	391
459.505	428
459.574	848
459.579	894
459.643	810
459.659	634
459.711	281
459.740	627
459.780	1087
459.820	1060
459.849	893
459.900	395
459.917	334
459.981	650
459.986	663
460.054	658
460.061	666
460.123	1004
460.141	1189
460.191	2078
460.222	2506
460.260	2782
460.302	3178
460.328	2772
460.382	2114
460.397	2226
460.462	1556
460.465	1631
460.534	4504
460.543	4896
460.602	19895
460.623	25668
460.671	41868
460.703	56055
460.739	51236
460.783	39566
460.808	30999
460.864	4477
460.876	2885
460.944	1609
460.945	1593
461.013	1137
461.024	1148
461.081	1779
461.104	2052
461.150	1666
461.184	1491
461.218	1397
461.264	988
461.286	1007
461.345	1048
461.355	1041
461.423	1223
461.425	1214
461.491	498
461.505	473
461.559	1134
461.585	1465
461.628	2621
461.665	3721
461.696	4146
461.745	4838
461.764	4106
461.825	1325
461.832	1376
461.901	1304
461.905	1357
461.969	919
461.985	821
462.037	1484
462.065	1603
462.105	1043
462.145	672
462.173	1011
462.225	1737
462.241	2034
462.305	3493
462.310	3420
462.378	1661
462.385	1481
462.446	1371
462.465	1278
462.514	1144
462.545	1268
462.582	1575
462.625	1814
462.650	1634
462.705	1257
462.718	1218
462.785	738
462.786	739
462.854	1301
462.865	1303
462.922	2087
462.945	2527
462.990	1918
463.025	1174
463.058	867
463.104	833
463.126	892
463.184	632
463.194	723
463.262	1691
463.264	1718
463.330	1534
463.344	1556
463.398	2132
463.424	2120
463.466	1439
463.504	1275
463.533	1718
463.583	1981
463.601	1863
463.663	1777
463.669	1878
463.737	2704
463.743	2827
463.805	3092
463.823	3014
463.873	4322
463.903	5238
463.940	5155
463.982	5139
464.008	4393
464.062	2442
464.076	2287
464.142	1640
464.144	1655
464.211	2075
464.221	2157
464.279	1432
464.301	1155
464.347	1758
464.381	2215
464.414	2245
464.461	2077
464.482	2078
464.540	2216
464.550	2194
464.617	2162
464.620	2149
464.685	3643
464.699	4019
464.753	4306
464.779	4456
464.820	4742
464.859	4808
464.888	4110
464.938	3034
464.956	3323
465.018	4167
465.023	4063
465.091	2703
465.098	2563
465.158	3083
465.177	3203
465.226	3082
465.257	3094
465.293	3733
465.336	4384
465.361	4757
465.416	5658
465.428	5833
465.495	6733
465.496	6744
465.563	6440
465.575	6384
465.631	7772
465.654	8338
465.698	5976
465.734	4000
465.765	3678
465.813	3200
465.833	3191
465.893	3086
465.900	3110
465.968	3373
465.972	3376
466.035	3485
466.052	3541
466.102	3987
466.131	4177
466.170	3850
466.210	3413
466.237	3702
466.290	4395
466.304	4379
466.369	4211
466.372	4246
466.439	4952
466.449	5056
466.506	5274
466.528	5319
466.573	6161
466.607	6769
466.641	9094
466.687	12335
466.708	13791
466.766	17762
466.775	16823
466.842	9458
466.845	9091
466.909	7269
466.925	6815
466.977	6216
467.004	5895
467.044	6148
467.083	6384
467.111	6919
467.163	7891
467.178	7938
467.242	8059
467.245	8028
467.312	7084
467.321	6946
467.379	7067
467.400	7093
467.446	6364
467.480	5813
467.559	6582
467.638	5467
467.717	5831
467.796	7058
467.875	8850
467.955	5722
468.034	6944
468.113	10879
468.192	15229
468.271	6308
468.350	5129
468.429	6283
468.508	6971
468.588	4101
468.667	4987
468.746	3363
468.825	4806
468.904	4087
468.983	5208
469.062	5945
469.141	9009
469.220	3752
469.299	4536
469.378	4811
469.456	6944
469.535	5674
469.614	6333
469.693	4823
469.772	6250
469.851	6791
469.930	6435
470.009	7310
470.088	6454
470.166	9208
470.245	16157
470.324	18972
470.403	9778
470.482	6354
470.560	5713
470.639	6744
470.718	8085
470.797	5515
470.875	7148
470.954	7516
471.033	7523
471.111	4192
471.190	3802
471.269	3308
471.347	3798
471.426	3811
471.505	5382
471.583	4992
471.662	5000
471.740	3836
471.819	4873
471.898	4751
471.976	4227
472.055	4238
472.133	5124
472.212	6639
472.290	4537
472.369	4374
472.447	4017
472.526	3794
472.604	5700
472.683	5885
472.761	6548
472.839	5254
472.918	5280
472.996	4555
473.075	4924
473.153	4133
473.231	3628
473.310	4480
473.388	6317
473.466	5102
473.545	6643
473.623	9853
473.701	10065
473.780	4903
473.858	3083
473.936	6492
474.014	4617
474.093	5038
474.171	6464
474.249	6631
474.327	5178
474.405	3428
474.484	4476
474.562	4942
474.640	3945
474.718	4271
474.796	5466
474.874	4643
474.952	4077
475.030	3680
475.108	4650
475.187	5600
475.265	8237
475.343	15508
475.421	18641
475.499	4414
475.577	3866
475.655	4869
475.733	7646
475.811	9477
475.889	8646
475.966	6860
476.044	4940
476.122	9984
476.200	15961
476.278	9680
476.356	3743
476.434	4929
476.512	8236
476.590	13584
476.667	10936
476.745	2328
476.823	4541
476.901	3639
476.979	3533
477.056	3574
477.134	3015
477.212	3909
477.290	4494
477.367	2916
477.445	3398
477.523	1955
477.601	3117
477.678	2628
477.756	3801
477.834	3940
477.911	3203
477.989	3960
478.066	3699
478.144	4512
478.222	9248
478.299	21365
478.377	19093
478.454	3832
478.532	3571
478.609	3385
478.687	4817
478.764	3047
478.842	3436
478.919	4502
478.997	4322
479.074	2655
479.152	3797
479.229	3633
479.307	2257
479.384	2094
479.461	3536
479.539	2819
479.616	2957
479.694	1829
479.771	3249
479.848	3221
479.926	2742
480.003	4774
480.080	3273
480.157	2788
480.235	3270
480.312	2664
480.389	2603
480.467	4052
480.544	5125
480.621	3279
480.698	3967
480.775	3871
480.853	3363
480.930	2489
481.007	4004
481.084	3733
481.161	5115
481.238	4466
481.315	2517
481.392	2161
481.470	2410
481.547	1060
481.624	2505
481.701	2385
481.778	2238
481.855	2424
481.932	3704
482.009	5227
482.086	5319
482.163	3702
482.240	10775
482.317	27736
482.393	19353
482.470	3236
482.547	3346
482.624	1358
482.701	2825
482.778	2390
482.855	1636
482.932	1806
483.009	2718
483.085	3170
483.162	4058
483.239	4153
483.316	2352
483.393	2913
483.469	2856
483.546	3195
483.623	3043
483.699	3245
483.776	2009
483.853	2792
483.930	4728
484.006	8671
484.083	14415
484.160	11877
484.236	21712
484.313	16267
484.389	11661
484.466	10596
484.543	8596
484.619	9859
484.696	11464
484.772	9004
484.849	10590
484.925	8405
485.002	8710
485.078	9273
485.155	8961
485.231	6891
485.308	7848
485.384	8239
485.461	9330
485.537	11105
485.614	14161
485.690	7852
485.766	8757
485.843	10217
485.919	17873
485.995	18710
486.072	8700
486.148	7508
486.224	8021
486.301	8082
486.377	8772
486.453	7692
486.530	8539
486.606	11603
486.682	13112
486.758	12613
486.835	14322
486.911	11525
486.987	18863
487.063	33946
487.139	53291
487.215	35671
487.292	13528
487.368	9306
487.444	9206
487.520	11546
487.596	11603
487.672	15539
487.748	36691
487.824	54915
487.900	17285
487.976	8184
488.052	8838
488.128	9991
488.204	8305
488.280	8183
488.356	9038
488.432	11494
488.508	17023
488.584	10403
488.660	8652
488.736	9674
488.812	10524
488.888	14420
488.964	20086
489.039	50653
489.115	84785
489.191	45632
489.267	9377
489.343	6761
489.418	6383
489.494	5530
489.570	4690
489.646	7093
489.722	5755
489.797	5918
489.873	8401
489.949	12979
490.024	11817
490.100	5725
490.176	6662
490.251	10605
490.327	15156
490.403	7919
490.478	6001
490.554	5072
490.629	4744
490.705	4699
490.781	6149
490.856	5666
490.932	7564
491.007	8934
491.083	6503
491.158	5759
491.234	5925
491.309	9006
491.385	10861
491.460	6144
491.536	7202
491.611	6560
491.686	8345
491.762	12394
491.837	32153
491.913	51972
491.988	77501
492.063	102975
492.139	17496
492.214	6836
492.289	6123
492.365	4810
492.440	7031
492.515	6232
492.590	5773
492.666	4901
492.741	6431
492.816	6971
492.891	5313
492.967	5175
493.042	5548
493.117	6165
493.192	6846
493.267	14547
493.342	61917
493.418	92606
493.493	13415
493.568	3349
493.643	4561
493.718	5236
493.793	8318
493.868	14155
493.943	8786
494.018	5272
494.093	3975
494.168	3959
494.243	4165
494.318	4180
494.393	4229
494.468	3944
494.543	4830
494.618	5554
494.693	4223
494.768	3212
494.842	4373
494.917	3911
494.992	5200
495.067	3004
495.142	3970
495.217	5372
495.292	4617
495.366	6133
495.441	8345
495.516	11518
495.591	16924
495.665	71488
495.740	188072
495.815	70329
495.890	6749
495.964	3119
496.039	6542
496.114	4809
496.188	7068
496.263	6963
496.338	3855
496.412	3404
496.487	6507
496.561	8242
496.636	9368
496.710	4747
496.785	6067
496.860	6210
496.934	3919
497.009	5225
497.083	4877
497.158	4087
497.232	5951
497.307	6777
497.381	5878
497.455	5887
497.530	7129
497.604	6153
497.679	6663
497.753	10076
497.827	15631
497.902	14703
497.976	15724
498.050	22996
498.125	83456
498.199	92701
498.273	32462
498.348	26688
498.422	18631
498.496	15672
498.570	15286
498.645	7646
498.719	5541
498.793	7466
498.867	10488
498.941	11486
499.016	27699
499.090	82942
499.164	32598
499.238	5721
499.312	5062
499.386	8019
499.460	7064
499.534	5324
499.609	6480
499.683	6517
499.757	7017
499.831	11447
499.905	50260
499.979	49548
500.053	9188
500.127	12850
500.201	14242
500.275	7481
500.349	6455
500.422	5578
500.496	12252
500.570	30501
500.644	40567
500.718	54254
500.792	15556
500.866	4734
500.940	5066
501.013	4807
501.087	5391
501.161	13926
501.235	14119
501.309	15607
501.382	41667
501.456	42815
501.530	12781
501.603	11519
501.677	5885
501.751	2636
501.825	6166
501.898	5469
501.972	16543
502.046	10962
502.119	4389
502.193	9100
502.266	18615
502.340	9262
502.413	7683
502.487	14405
502.561	8288
502.634	4819
502.708	5077
502.781	3796
502.855	4130
502.928	1832
503.002	2299
503.075	1468
503.149	2432
503.222	2528
503.295	2530
503.369	3163
503.442	3663
503.516	10552
503.589	29085
503.662	18008
503.736	6624
503.809	13951
503.882	11767
503.956	17273
504.029	20391
504.102	23750
504.175	31412
504.249	8424
504.322	4014
504.395	4206
504.468	3121
504.542	1797
504.615	2063
504.688	3282
504.761	1420
504.834	5413
504.907	6844
504.980	13543
505.053	5127
505.127	6748
505.200	9126
505.273	2915
505.346	2114
505.419	324
505.492	3027
505.565	1171
505.638	2448
505.711	1451
505.784	1037
505.857	1213
505.930	3520
506.003	832
506.076	3387
506.149	1243
506.221	2071
506.294	3779
506.367	6113
506.440	23750
506.513	15856
506.586	4555
506.659	1892
506.731	2544
506.804	4331
506.877	7106
506.950	3858
507.022	3024
507.095	1674
507.168	3391
507.241	4422
507.313	2496
507.386	2818
507.459	8643
507.531	3573
507.604	1501
507.677	3406
507.749	1009
507.822	4603
507.894	10228
507.967	12658
508.040	5847
508.112	5059
508.185	3588
508.257	3732
508.330	8472
508.402	2762
508.475	2382
508.547	3890
508.620	2091
508.692	3602
508.765	3725
508.837	2930
508.909	2746
508.982	3359
509.054	4877
509.127	3833
509.199	2591
509.271	2107
509.344	1420
509.416	1918
509.488	1472
509.560	3763
509.633	3568
509.705	4831
509.777	3834
509.849	8885
509.922	3743
509.994	2424
510.066	2838
510.138	1242
510.210	8227
510.283	6262
510.355	5441
510.427	4505
510.499	3556
510.571	4640
510.643	3143
510.715	10541
510.787	7070
510.859	5666
510.931	5615
511.003	9831
511.076	8849
511.148	2163
511.219	3104
511.291	4463
511.363	4789
511.435	3723
511.507	2112
511.579	3890
511.651	2813
511.723	2687
511.795	1113
511.867	4132
511.939	3223
512.010	5148
512.082	5600
512.154	2925
512.226	3468
512.298	7083
512.369	10050
512.441	8623
512.513	9766
512.585	4867
512.656	6195
512.728	7182
512.800	3757
512.871	4706
512.943	4378
513.015	3111
513.086	3887
513.158	5811
513.230	4330
513.301	10111
513.373	14985
513.444	5979
513.516	3968
513.588	3499
513.659	5732
513.731	9272
513.802	5846
513.874	18073
513.945	35013
514.016	9411
514.088	4669
514.159	4269
514.231	8348
514.302	10322
514.374	5644
514.445	3367
514.516	8520
514.588	4924
514.659	3799
514.730	5609
514.802	8497
514.873	6336
514.944	8350
515.016	5775
515.087	6229
515.158	6912
515.229	8019
515.301	5802
515.372	9359
515.443	5251
515.514	3987
515.585	3501
515.656	4144
515.728	5296
515.799	3513
515.870	4905
515.941	4905
516.012	3355
516.083	7642
516.154	7600
516.225	15522
516.296	15217
516.367	10931
516.438	13611
516.509	18367
516.580	25602
516.651	81291
516.722	337342
516.793	148508
516.864	25843
516.935	23083
517.006	29634
517.077	37411
517.148	86804
517.219	367347
517.289	598339
517.360	86370
517.431	21365
517.502	7701
517.573	8570
517.643	7503
517.714	9837
517.785	10487
517.856	12185
517.926	17153
517.997	22435
518.068	29768
518.138	42853
518.209	57366
518.280	228827
518.350	976942
518.421	359102
518.492	32751
518.562	13804
518.633	10626
518.703	7435
518.774	13733
518.845	28034
518.915	31784
518.986	10950
519.056	9944
519.127	22666
519.197	30608
519.268	39886
519.338	19273
519.408	7792
519.479	14636
519.549	10918
519.620	6831
519.690	4458
519.760	4029
519.831	4497
519.901	4487
519.971	3402
520.042	2186
520.112	3310
520.182	7270
520.253	8750
520.323	2311
520.393	2740
520.463	5793
520.534	1245
520.604	6376
520.674	4726
520.744	3330
520.814	5574
520.885	8967
520.955	7838
521.025	27082
521.095	11609
521.165	3625
521.235	3040
521.305	1215
521.375	4128
521.445	4079
521.515	8017
521.585	9809
521.655	6691
521.725	6956
521.795	5858
521.865	-169
521.935	5768
522.005	1981
522.075	2046
522.145	3570
522.215	2599
522.285	4547
522.355	5096
522.424	9159
522.494	9118
522.564	7714
522.634	22148
522.704	81347
522.774	30508
522.843	5838
522.913	4821
522.983	7273
523.053	4562
523.122	5227
523.192	8410
523.262	41979
523.331	40923
523.401	5414
523.471	2986
523.540	3005
523.610	2001
523.680	1946
523.749	2436
523.819	1793
523.888	2170
523.958	856
524.027	2251
524.097	2204
524.166	2079
524.236	3575
524.305	4778
524.375	1564
524.444	1120
524.514	3419
524.583	1350
524.653	794
524.722	3773
524.791	987
524.861	3776
524.930	1066
524.999	2213
525.069	5094
525.138	3323
525.207	1924
525.277	2563
525.346	2438
525.415	2930
525.484	2350
525.554	2214
525.623	3454
525.692	3887
525.761	2014
525.830	3316
525.900	3099
525.969	5761
526.038	9741
526.107	15158
526.176	52830
526.245	44996
526.314	18913
526.383	30370
526.452	36925
526.522	67418
526.591	77908
526.660	41111
526.729	19617
526.797	20167
526.867	42357
526.935	229882
527.004	257835
527.073	119398
527.142	10872
527.211	5159
527.280	6590
527.349	6354
527.418	1358
527.487	3799
527.555	1209
527.624	1699
527.693	23
527.762	2753
527.831	599
527.899	2220
527.968	1735
528.037	1597
528.106	4312
528.174	10988
528.243	5469
528.312	8417
528.380	14220
528.449	2477
528.518	2466
528.586	-77
528.655	2640
528.723	1226
528.792	972
528.861	186
528.929	-643
528.998	2103
529.066	1147
529.135	1055
529.203	406
529.272	226
529.340	1352
529.409	3119
529.477	36
529.545	-364
529.614	2608
529.682	673
529.751	1248
529.819	3899
529.887	1324
529.956	836
530.024	387
530.092	959
530.161	2431
530.229	6948
530.297	2503
530.365	1648
530.434	427
530.502	-169
530.570	-87
530.638	-688
530.707	1423
530.775	3661
530.843	603
530.911	1613
530.979	1100
531.047	676
531.115	1099
531.183	515
531.252	880
531.320	825
531.388	-5
531.456	890
531.524	-1126
531.592	2469
531.660	2531
531.728	371
531.796	-598
531.864	1363
531.932	893
532.000	1484
532.067	1623
532.135	3237
532.203	3496
532.271	2632
532.339	8481
532.407	32972
532.475	18913
532.542	7291
532.610	8332
532.678	9965
532.746	56462
532.814	168462
532.881	35862
532.949	5528
533.017	2705
533.084	1514
533.152	1799
533.220	2235
533.287	1577
533.355	1502
533.423	546
533.490	-244
533.558	754
533.625	1520
533.693	474
533.761	1673
533.828	2384
533.896	1024
533.963	8579
534.031	11090
534.098	18042
534.166	5606
534.233	1027
534.300	2176
534.368	1625
534.435	1578
534.503	1437
534.570	1312
534.637	687
534.705	2118
534.772	2427
534.840	3587
534.907	22811
534.974	33013
535.041	3440
535.109	2206
535.176	1402
535.243	1939
535.310	1894
535.378	326
535.445	1014
535.512	1500
535.579	1354
535.646	103
535.714	1655
535.781	2514
535.848	2851
535.915	2531
535.982	997
536.049	1677
536.116	2671
536.183	1531
536.250	1673
536.317	1882
536.384	3257
536.451	8134
536.518	8869
536.585	3311
536.652	5981
536.719	12735
536.786	8544
536.853	5676
536.920	8325
536.987	18898
537.053	16636
537.120	74921
537.187	68779
537.254	4646
537.321	2336
537.388	3774
537.454	781
537.521	1194
537.588	1014
537.654	3544
537.721	2258
537.788	4405
537.855	1548
537.921	2133
537.988	1743
538.055	3354
538.121	1725
538.188	2870
538.254	6251
538.321	21315
538.388	11140
538.454	2738
538.521	1876
538.587	2024
538.654	1531
538.720	1314
538.787	1801
538.853	2315
538.920	2945
538.986	2920
539.053	2622
539.119	3513
539.185	2610
539.252	4605
539.318	9002
539.385	6673
539.451	3636
539.517	5242
539.583	5476
539.650	15033
539.716	51887
539.782	13744
539.849	3450
539.915	3005
539.981	3973
540.047	6718
540.114	4089
540.180	5606
540.246	3681
540.312	6890
540.378	17641
540.444	20399
540.510	17451
540.576	62994
540.643	17164
540.709	2901
540.775	2585
540.841	2281
540.907	3365
540.973	5236
541.039	6891
541.105	11267
541.171	3357
541.237	1732
541.303	3733
541.369	5480
541.435	7117
541.500	17722
541.566	9236
541.632	2395
541.698	1893
541.764	2623
541.830	1391
541.896	1150
541.961	2223
542.027	3081
542.093	2491
542.159	3468
542.224	1965
542.290	7307
542.356	14062
542.421	23175
542.487	7598
542.553	3014
542.618	3117
542.684	3407
542.750	2814
542.815	5365
542.881	8585
542.947	51759
543.012	38538
543.078	3896
543.143	2823
543.209	3707
543.274	3266
543.340	4637
543.405	16978
543.471	30130
543.536	4695
543.602	2383
543.667	888
543.732	3000
543.798	320
543.863	2560
543.928	793
543.994	1764
544.059	2344
544.124	2019
544.190	1954
544.255	2036
544.320	2774
544.386	2883
544.451	6991
544.516	8103
544.581	7288
544.646	28589
544.712	51376
544.777	7386
544.842	2449
544.907	2186
544.972	2314
545.037	2733
545.102	3192
545.168	3243
545.233	3483
545.298	4420
545.363	3251
545.428	5826
545.493	14924
545.558	41764
545.623	13064
545.688	3048
545.753	2955
545.818	2813
545.883	2877
545.947	1659
546.012	2319
546.077	1928
546.142	3477
546.207	3414
546.272	8136
546.337	7376
546.401	3896
546.466	3014
546.531	1984
546.596	2915
546.661	4248
546.725	3610
546.790	2960
546.855	3579
546.919	2096
546.984	3259
547.049	2946
547.113	4920
547.178	3739
547.243	4807
547.307	5605
547.372	6034
547.436	6094
547.501	5915
547.565	5494
547.630	9297
547.695	8144
547.759	5723
547.823	6580
547.888	5770
547.952	5540
548.017	7413
548.081	8874
548.146	8726
548.210	6191
548.274	6307
548.339	6016
548.403	6787
548.468	4705
548.532	5604
548.596	4896
548.660	6397
548.725	6183
548.789	8509
548.853	7751
548.917	6144
548.982	6464
549.046	6885
549.110	4235
549.174	5167
549.238	4935
549.303	5464
549.367	7979
549.431	5345
549.495	5346
549.559	6446
549.623	6044
549.687	8319
549.751	12586
549.815	9902
549.879	8922
549.943	7754
550.007	8825
550.071	8936
550.135	10801
550.199	8481
550.263	6638
550.327	8279
550.391	7489
550.455	7876
550.519	7323
550.582	9277
550.646	13982
550.710	13721
550.774	8636
550.838	9468
550.901	8906
550.965	10083
551.029	9853
551.093	11801
551.156	12186
551.220	17684
551.284	23649
551.347	16394
551.411	15165
551.475	15908
551.538	10699
551.602	8680
551.666	8446
551.729	7870
551.793	8324
551.856	7558
551.920	7616
551.983	8104
552.047	6898
552.110	7186
552.174	7373
552.237	7838
552.301	7163
552.364	6985
552.428	6537
552.491	7121
552.554	9093
552.618	8419
552.681	8518
552.745	10452
552.808	20481
552.871	29061
552.934	12945
552.998	7607
553.061	8110
553.124	7163
553.187	7682
553.251	8192
553.314	8132
553.377	8288
553.440	11508
553.503	29960
553.567	49707
553.630	11958
553.693	7939
553.756	7680
553.819	5839
553.882	5722
553.945	6704
554.008	6592
554.071	5943
554.134	6695
554.197	5274
554.260	6323
554.323	7561
554.386	6438
554.449	6111
554.512	7018
554.575	5789
554.638	6808
554.701	5947
554.764	6810
554.827	5308
554.889	5256
554.952	5079
555.015	5160
555.078	3819
555.141	5187
555.203	4987
555.266	5021
555.329	5396
555.391	4751
555.454	4833
555.517	5383
555.580	3948
555.642	4408
555.705	4090
555.768	5390
555.830	4582
555.893	3793
555.955	4005
556.018	3745
556.080	3381
556.143	4451
556.206	3636
556.268	3563
556.330	4875
556.393	5552
556.455	3779
556.518	4688
556.580	5907
556.643	3714
556.705	4047
556.767	3632
556.830	4066
556.892	5707
556.955	11775
557.017	7777
557.079	4117
557.142	4400
557.204	5412
557.266	17023
557.328	12611
557.391	2961
557.453	2486
557.515	3632
557.577	5255
557.639	6386
557.701	3612
557.764	2928
557.826	2492
557.888	4423
557.950	3681
558.012	4883
558.074	5237
558.136	13233
558.198	37626
558.260	15160
558.322	5125
558.384	6265
558.446	7582
558.508	9145
558.570	12791
558.632	24144
558.694	36849
558.756	28987
558.818	81587
558.880	239575
558.942	71212
559.003	41952
559.065	21830
559.127	7689
559.189	8080
559.251	9201
559.312	11821
559.374	31737
559.436	130274
559.498	67978
559.559	10021
559.621	8355
559.683	9520
559.744	14083
559.806	51644
559.868	90428
559.929	15830
559.991	8218
560.052	9950
560.114	35416
560.176	24289
560.237	20286
560.299	36971
560.360	8323
560.422	2019
560.483	2737
560.545	2112
560.606	2499
560.667	2430
560.729	823
560.790	1947
560.852	1917
560.913	1546
560.974	2677
561.036	2100
561.097	2438
561.158	2713
561.220	3350
561.281	2253
561.342	3470
561.403	4416
561.465	7002
561.526	24365
561.587	34218
561.648	4531
561.709	2746
561.771	2177
561.832	2132
561.893	1725
561.954	2798
562.015	1233
562.076	2791
562.137	1790
562.198	2205
562.259	1589
562.320	2476
562.381	3345
562.442	6432
562.503	4168
562.564	2182
562.625	1457
562.686	963
562.747	2004
562.808	1363
562.869	671
562.930	2742
562.991	2219
563.051	1741
563.112	1901
563.173	2549
563.234	1155
563.294	1451
563.355	2309
563.416	2566
563.477	2184
563.537	2180
563.598	1902
563.659	2314
563.720	1992
563.780	2917
563.841	2358
563.901	3111
563.962	1861
564.023	1769
564.083	1700
564.144	2948
564.204	1856
564.265	1278
564.325	1528
564.386	3612
564.446	3721
564.507	1754
564.567	1134
564.628	2100
564.688	1422
564.749	1283
564.809	2043
564.869	2151
564.930	1062
564.990	2704
565.050	1570
565.111	2071
565.171	1224
565.231	2219
565.292	2544
565.352	923
565.412	2081
565.472	3035
565.532	2735
565.593	2492
565.653	838
565.713	2628
565.773	3157
565.833	3822
565.893	6986
565.953	3011
566.013	1646
566.074	1919
566.134	2921
566.194	4197
566.254	5035
566.314	2515
566.374	2145
566.434	2535
566.494	1524
566.554	1851
566.614	2299
566.673	2217
566.733	2396
566.793	1887
566.853	1064
566.913	2955
566.973	2997
567.033	3133
567.092	2243
567.152	2790
567.212	3360
567.272	2118
567.331	2768
567.391	2697
567.451	2686
567.511	4367
567.570	3868
567.630	3750
567.690	3472
567.749	2728
567.809	3743
567.868	4820
567.928	4874
567.988	5427
568.047	6701
568.107	10010
568.166	13131
568.226	26933
568.285	40314
568.345	28583
568.404	18058
568.464	14889
568.523	12677
568.582	13245
568.642	15962
568.701	21961
568.761	36994
568.820	71457
568.879	61895
568.939	34562
568.998	20387
569.057	13524
569.116	10189
569.176	7304
569.235	5234
569.294	5262
569.353	4049
569.413	3522
569.472	2900
569.531	3198
569.590	1550
569.649	1710
569.708	1789
569.767	2955
569.827	2624
569.886	2283
569.945	1979
570.004	2904
570.063	2725
570.122	2831
570.181	2998
570.240	2718
570.299	1802
570.358	2565
570.417	1133
570.475	1647
570.534	2474
570.593	3299
570.652	1421
570.711	2368
570.770	1780
570.829	2971
570.887	2968
570.946	4728
571.005	1955
571.064	2373
571.122	2672
571.181	2968
571.240	1812
571.299	2074
571.357	2080
571.416	1472
571.475	1142
571.533	2273
571.592	1789
571.650	2237
571.709	1295
571.768	1653
571.826	1707
571.885	1540
571.943	922
572.002	1114
572.060	1495
572.119	946
572.177	1004
572.236	904
572.294	1234
572.352	1663
572.411	582
572.469	1385
572.528	1053
572.586	1482
572.644	974
572.703	1884
572.761	878
572.819	1423
572.877	579
572.936	913
572.994	1268
573.052	1162
573.110	902
573.169	1925
573.227	1469
573.285	1707
573.343	1667
573.401	1168
573.459	1314
573.517	471
573.576	1090
573.634	1783
573.692	818
573.750	975
573.808	932
573.866	1342
573.924	1145
573.982	843
574.040	428
574.098	1531
574.155	965
574.213	1035
574.271	737
574.329	1511
574.387	189
574.445	1329
574.503	577
574.560	779
574.618	1330
574.676	949
574.734	339
574.792	1494
574.849	416
574.907	965
574.965	169
575.022	1285
575.080	879
575.138	1164
575.195	674
575.253	1421
575.311	2166
575.368	2440
575.426	666
575.483	1643
575.541	884
575.598	470
575.656	586
575.713	206
575.771	292
575.828	888
575.886	591
575.943	1896
576.001	1184
576.058	882
576.115	607
576.173	1604
576.230	1821
576.287	3891
576.345	2268
576.402	1277
576.459	993
576.517	878
576.574	1330
576.631	1594
576.688	755
576.746	1109
576.803	232
576.860	1276
576.917	901
576.974	694
577.031	958
577.089	2012
577.146	329
577.203	1462
577.260	2602
577.317	1369
577.374	51
577.431	1440
577.488	789
577.545	1396
577.602	1032
577.659	1148
577.716	1000
577.773	1248
577.830	655
577.886	1959
577.943	847
578.000	205
578.057	1200
578.114	1527
578.171	894
578.227	206
578.284	184
578.341	1555
578.398	337
578.454	1526
578.511	1040
578.568	1848
578.625	409
578.681	534
578.738	1112
578.794	1213
578.851	466
578.908	1065
578.964	750
579.021	1588
579.077	1155
579.134	1489
579.190	885
579.247	1168
579.303	587
579.360	832
579.416	1247
579.473	1546
579.529	261
579.586	899
579.642	551
579.698	474
579.755	871
579.811	1637
579.867	1393
579.924	1330
579.980	1066
580.036	1640
580.093	1172
580.149	1331
580.205	1103
580.261	1390
580.317	1198
580.374	1103
580.430	2043
580.486	1681
580.542	382
580.598	1305
580.619	1008
580.654	492
580.692	799
580.710	954
580.765	570
580.767	554
580.823	824
580.838	750
580.879	535
580.911	1414
580.935	2070
580.984	114
580.991	-152
581.047	1817
581.057	1692
581.103	1082
581.130	1157
581.159	1267
581.203	1434
581.215	1468
581.270	1239
581.276	1164
581.326	467
581.349	762
581.382	1165
581.422	1354
581.438	1456
581.494	987
581.494	989
581.550	907
581.567	1248
581.606	2019
581.640	1352
581.661	950
581.713	2192
581.717	2290
581.773	588
581.786	659
581.829	865
581.859	1469
581.885	1995
581.932	1264
581.940	1127
581.996	1534
582.004	1583
582.052	1863
582.077	1685
582.107	1439
582.150	1952
582.163	2122
582.219	943
582.223	1023
582.274	1981
582.296	1700
582.330	1273
582.368	2051
582.386	2417
582.441	966
582.441	963
582.497	1977
582.514	1850
582.552	1686
582.587	2004
582.608	2161
582.659	1511
582.663	1452
582.719	2459
582.732	2200
582.774	1547
582.805	1745
582.830	1872
582.877	1458
582.885	1385
582.941	2324
582.950	2230
582.996	1652
583.023	1725
583.052	2002
583.095	2205
583.107	2177
583.162	1691
583.168	1745
583.218	2432
583.240	2222
583.273	1851
583.313	1846
583.328	1872
583.384	1680
583.385	1710
583.439	2221
583.458	1914
583.494	1655
583.531	1487
583.549	1370
583.603	2060
583.605	2074
583.660	2118
583.676	2187
583.715	2495
583.748	2108
583.770	1921
583.820	2450
583.825	2461
583.881	1727
583.893	1744
583.936	2135
583.965	2105
583.991	1925
584.038	1941
584.046	1990
584.101	2437
584.110	2402
584.156	2194
584.183	1987
584.211	1708
584.255	1778
584.266	1801
584.321	2346
584.328	2341
584.376	2648
584.400	2830
584.431	2698
584.472	2315
584.486	2282
584.541	2487
584.545	2518
584.596	2865
584.617	2487
584.651	2298
584.689	3202
584.706	3309
584.761	2929
584.762	2921
584.816	2862
584.834	3053
584.871	3279
584.906	3058
584.926	2988
584.978	3029
584.980	3028
585.035	3617
585.051	3495
585.090	3464
585.123	3952
585.145	4079
585.195	4161
585.200	4237
585.254	5212
585.267	5459
585.309	6045
585.340	6648
585.364	6941
585.412	6449
585.419	6368
585.473	6693
585.484	6632
585.528	7193
585.556	8622
585.583	11344
585.628	16610
585.637	18467
585.692	38164
585.700	41921
585.747	55584
585.772	45232
585.801	27236
585.845	10956
585.856	9012
585.910	6668
585.917	6420
585.965	5911
585.989	6203
586.019	6440
586.061	5416
586.074	5229
586.128	6401
586.133	6371
586.183	6013
586.205	6181
586.237	6076
586.277	5678
586.292	5631
586.346	5434
586.349	5427
586.401	5861
586.421	6039
586.455	5934
586.493	5629
586.509	5754
586.564	6624
586.565	6626
586.618	6478
586.637	6656
586.672	7395
586.709	7185
586.727	6923
586.781	7357
586.781	7367
586.835	6392
586.853	6567
586.889	6672
586.925	6161
586.944	6168
586.996	7278
586.998	7312
587.052	7331
587.068	7329
587.106	7448
587.140	7499
587.161	7551
587.212	7799
587.215	7832
587.269	8439
587.284	8639
587.323	8808
587.356	8470
587.377	8683
587.427	10370
587.431	10446
587.485	9895
587.499	9908
587.539	10288
587.571	10512
587.593	10758
587.643	11472
587.648	11565
587.702	12071
587.715	12305
587.755	12939
587.786	13012
587.810	13412
587.858	15230
587.864	15448
587.917	16734
587.930	17054
587.971	18794
588.001	20218
588.025	21274
588.073	23311
588.079	23735
588.133	27218
588.145	28202
588.187	31638
588.217	33727
588.241	36312
588.288	42179
588.295	43131
588.348	51376
588.360	53316
588.402	61688
588.431	67258
588.456	72399
588.503	84219
588.510	86412
588.564	105524
588.575	109733
588.617	128874
588.646	143168
588.671	161624
588.718	202313
588.725	214133
588.778	316977
588.789	342513
588.832	552349
588.861	716019
588.886	929792
588.932	1370524
588.939	1392609
588.993	1429551
589.004	1415594
589.047	1038616
589.075	755980
589.100	577230
589.147	307295
589.154	293068
589.207	214628
589.218	200878
589.261	187851
589.290	182602
589.314	191661
589.361	216448
589.368	229242
589.421	346891
589.433	376602
589.475	640575
589.504	850019
589.528	1015414
589.576	1305678
589.582	1273428
589.635	835418
589.647	733092
589.689	411041
589.718	218858
589.742	173507
589.790	102124
589.795	98700
589.849	72018
589.861	66396
589.902	55180
589.932	47148
589.955	43525
590.004	36717
590.009	36302
590.062	31803
590.075	30694
590.115	28178
590.146	26377
590.168	25470
590.218	23514
590.222	23421
590.275	21568
590.289	21055
590.328	20269
590.360	19587
590.381	19271
590.431	18546
590.435	18485
590.488	16645
590.503	16168
590.541	16322
590.574	16354
590.594	15936
590.645	14942
590.647	14977
590.700	14708
590.716	14717
590.753	13955
590.787	13081
590.806	13192
590.859	13548
590.859	13566
590.912	12582
590.930	12272
590.965	12683
591.001	13039
591.018	12919
591.071	12508
591.072	12471
591.124	12040
591.143	11882
591.177	12156
591.214	12319
591.230	12442
591.283	12928
591.285	12904
591.336	13909
591.356	14393
591.389	14767
591.427	14800
591.442	14279
591.495	12337
591.498	12152
591.547	11137
591.569	10724
591.600	10902
591.640	10912
591.653	11057
591.706	11633
591.711	11654
591.759	10747
591.782	10263
591.811	10629
591.853	11027
591.864	11119
591.917	11545
591.924	11549
591.969	11144
591.995	10910
592.022	11057
592.066	11145
592.075	11218
592.127	11525
592.137	11530
592.180	10563
592.208	9921
592.233	10020
592.279	10089
592.285	10191
592.338	10842
592.350	10964
592.390	10574
592.421	10211
592.443	10354
592.491	10600
592.495	10638
592.548	10761
592.562	10762
592.600	10338
592.633	9934
592.653	10052
592.704	10241
592.705	10298
592.775	10202
592.846	10913
592.916	11372
592.987	13403
593.058	11231
593.128	10220
593.199	9341
593.270	10628
593.341	9893
593.411	10430
593.482	10040
593.553	10744
593.623	9860
593.694	10178
593.764	9203
593.835	10282
593.906	9467
593.976	9723
594.047	8875
594.117	10569
594.188	9251
594.258	10277
594.329	10322
594.399	9564
594.470	10350
594.540	10827
594.611	9226
594.681	10320
594.751	9688
594.822	11331
594.892	10719
594.963	11593
595.033	9150
595.103	10477
595.174	10300
595.244	11622
595.314	12081
595.384	10580
595.455	10559
595.525	10716
595.595	10223
595.665	11718
595.736	10306
595.806	10840
595.876	10847
595.946	11201
596.016	9963
596.087	11375
596.157	10374
596.227	10750
596.297	10613
596.367	11161
596.437	13001
596.507	12849
596.577	12325
596.647	11930
596.717	12285
596.787	12956
596.857	12518
596.927	12872
596.997	12797
597.067	12885
597.137	13719
597.207	13807
597.277	12708
597.347	13189
597.417	13035
597.487	13963
597.557	14217
597.626	14220
597.696	13733
597.766	13649
597.836	12608
597.906	11433
597.975	11785
598.045	12092
598.115	12118
598.185	13251
598.254	14316
598.324	16359
598.394	16658
598.464	17309
598.533	13725
598.603	14139
598.672	14187
598.742	13684
598.812	12991
598.881	14084
598.951	13104
599.020	13773
599.090	13724
599.159	13939
599.229	13192
599.299	13602
599.368	13132
599.437	13972
599.507	12128
599.576	12872
599.646	12109
599.715	13220
599.785	11762
599.854	11235
599.924	11491
599.993	10975
600.062	11094
600.132	11197
600.201	12170
600.270	16085
600.340	15370
600.409	13707
600.478	13228
600.547	13740
600.617	12890
600.686	11911
600.755	12415
600.824	13852
600.894	10717
600.963	9696
601.032	9292
601.101	10568
601.170	9303
601.239	11370
601.308	13812
601.378	13296
601.447	10457
601.516	11131
601.585	13705
601.654	18350
601.723	11391
601.792	10193
601.861	11125
601.930	15131
601.999	15887
602.068	13582
602.137	20243
602.206	17535
602.275	13415
602.343	17662
602.412	15796
602.481	11185
602.550	10262
602.619	10965
602.688	11275
602.756	10390
602.825	11820
602.894	11739
602.963	10137
603.032	11295
603.100	10631
603.169	11201
603.238	10682
603.307	11456
603.375	11335
603.444	11686
603.513	11094
603.581	11655
603.650	12214
603.719	11464
603.787	10649
603.856	11785
603.924	11533
603.993	12564
604.061	12410
604.130	13763
604.198	13622
604.267	13258
604.335	12405
604.404	13766
604.472	14041
604.541	14475
604.609	13150
604.678	14816
604.746	13973
604.815	13953
604.883	14590
604.951	15642
605.020	14290
605.088	14850
605.156	15416
605.225	15098
605.293	14676
605.361	16087
605.429	15675
605.498	17841
605.566	18651
605.634	18098
605.702	17682
605.771	17464
605.839	17828
605.907	17182
605.975	16837
606.043	16860
606.111	16424
606.180	17179
606.248	16400
606.316	18093
606.384	15726
606.452	20687
606.520	26761
606.588	19520
606.656	15536
606.724	15852
606.792	15588
606.860	13617
606.928	12047
606.996	12581
607.064	12348
607.132	12177
607.200	13369
607.267	13809
607.335	14366
607.403	15146
607.471	13913
607.539	14056
607.607	13456
607.674	12452
607.742	13186
607.810	14045
607.878	14461
607.946	12965
608.013	12308
608.081	13030
608.149	12703
608.216	13097
608.284	14132
608.352	13955
608.419	13015
608.487	14607
608.555	12473
608.622	14128
608.690	14192
608.757	15883
608.825	14655
608.893	16291
608.960	15028
609.028	14556
609.095	15330
609.163	13579
609.230	13296
609.298	13131
609.365	11805
609.432	13691
609.500	14595
609.567	16969
609.635	18842
609.702	19711
609.769	18190
609.837	15326
609.904	11788
609.971	12905
610.039	15834
610.106	22407
610.173	40693
610.241	90986
610.308	44887
610.375	18741
610.442	12915
610.509	13359
610.577	13297
610.644	13279
610.711	14718
610.778	14101
610.845	13738
610.912	16363
610.980	16418
611.047	17750
611.114	16019
611.181	14404
611.248	13793
611.315	17614
611.382	15803
611.449	16881
611.516	17700
611.583	16697
611.650	16520
611.717	17602
611.784	17346
611.851	19566
611.918	20897
611.984	24780
612.051	38748
612.118	84792
612.185	219221
612.252	110376
612.319	26151
612.386	22695
612.452	19433
612.519	19486
612.586	18792
612.653	19326
612.719	19825
612.786	19427
612.853	17711
612.919	16778
612.986	17566
613.053	17508
613.120	14111
613.186	14790
613.253	17411
613.319	14886
613.386	16099
613.453	15706
613.519	18784
613.586	27591
613.652	37725
613.719	30012
613.785	23863
613.852	16412
613.918	14679
613.985	16563
614.051	19755
614.118	28893
614.184	24889
614.250	16087
614.317	15751
614.383	15725
614.449	14729
614.516	15655
614.582	16047
614.648	15600
614.715	15219
614.781	15507
614.847	16243
614.914	15369
614.980	13550
615.046	15056
615.112	14941
615.179	14660
615.245	15568
615.311	17157
615.377	22073
615.443	21812
615.509	16465
615.575	17486
615.642	16610
615.708	18082
615.774	18334
615.840	20304
615.906	22950
615.972	34170
616.038	60772
616.104	123385
616.170	300276
616.236	205912
616.302	37733
616.368	26668
616.434	18491
616.500	20613
616.565	20996
616.631	24850
616.697	19246
616.763	21234
616.829	33301
616.895	57632
616.961	49392
617.026	22065
617.092	15540
617.158	16351
617.224	15066
617.289	14884
617.355	13736
617.421	12464
617.487	13854
617.552	12735
617.618	12196
617.684	11808
617.749	13440
617.815	11940
617.880	11865
617.946	12224
618.012	11960
618.077	13175
618.143	11857
618.208	13624
618.274	13429
618.339	13772
618.405	9718
618.470	11994
618.536	11162
618.601	11259
618.667	9745
618.732	10254
618.798	9557
618.863	10072
618.928	9998
618.994	12187
619.059	14978
619.124	25306
619.190	13997
619.255	9968
619.320	9363
619.386	9072
619.451	8734
619.516	9758
619.581	8809
619.647	8936
619.712	8436
619.777	9275
619.842	9074
619.907	10267
619.972	10728
620.038	10305
620.103	8787
620.168	8342
620.233	9378
620.298	8623
620.363	8592
620.428	9734
620.493	9014
620.558	9304
620.623	9708
620.688	9608
620.753	8895
620.818	9807
620.883	9730
620.948	9675
621.013	9099
621.078	10130
621.143	7938
621.207	11882
621.272	10166
621.337	10965
621.402	9949
621.467	10691
621.532	9314
621.596	9056
621.661	8705
621.726	9776
621.791	8876
621.855	11924
621.920	12135
621.985	8708
622.049	10200
622.114	9206
622.179	9567
622.243	10747
622.308	9080
622.373	12328
622.437	10360
622.502	9616
622.566	9253
622.631	8847
622.695	11058
622.760	10371
622.824	10769
622.889	12475
622.953	15091
623.018	29117
623.082	24088
623.147	11958
623.211	11940
623.276	11811
623.340	8785
623.404	10118
623.469	9434
623.533	9679
623.597	8317
623.662	9915
623.726	8136
623.790	9125
623.854	7365
623.919	9080
623.983	8711
624.047	8631
624.111	8894
624.176	8718
624.240	8360
624.304	10763
624.368	8398
624.432	9780
624.496	10091
624.560	14131
624.625	15111
624.689	10307
624.753	9367
624.817	10250
624.881	8775
624.945	8730
625.009	8399
625.073	10305
625.137	10439
625.201	18554
625.265	16526
625.329	10266
625.393	10992
625.456	9776
625.520	9216
625.584	10609
625.648	9837
625.712	11649
625.776	13562
625.839	14048
625.903	8370
625.967	7367
626.031	10297
626.095	11268
626.158	8018
626.222	6621
626.286	7154
626.349	6145
626.413	5705
626.477	9366
626.540	5891
626.604	5783
626.668	7163
626.731	6761
626.795	5832
626.858	6040
626.922	5750
626.986	7507
627.049	4413
627.113	7335
627.176	6323
627.240	6177
627.303	5463
627.366	5529
627.430	6425
627.493	5924
627.557	4943
627.620	7268
627.684	5662
627.747	6163
627.810	2974
627.874	5788
627.937	4178
628.000	7494
628.064	5803
628.127	3852
628.190	5435
628.253	5203
628.317	4823
628.380	3949
628.443	3969
628.506	4859
628.569	4828
628.632	4422
628.696	4256
628.759	3312
628.822	3704
628.885	3695
628.948	3984
629.011	4789
629.074	4204
629.137	3934
629.200	2722
629.263	4786
629.326	2751
629.389	4326
629.452	4015
629.515	3774
629.578	2733
629.641	4280
629.704	3729
629.767	5066
629.830	4170
629.892	4134
629.955	3475
630.018	6475
630.081	6967
630.144	11212
630.207	5700
630.269	6107
630.332	3216
630.395	3285
630.458	4531
630.520	3108
630.583	4289
630.646	3240
630.708	2379
630.771	3544
630.834	2863
630.896	2869
630.959	3519
631.021	2895
631.084	3001
631.146	3927
631.209	3760
631.272	3189
631.334	3537
631.397	3749
631.459	3979
631.522	5479
631.584	3335
631.646	5204
631.709	4920
631.771	8437
631.834	4644
631.896	4718
631.958	3262
632.021	4481
632.083	2095
632.145	4461
632.208	2799
632.270	5036
632.332	2723
632.395	2820
632.457	3646
632.519	2246
632.581	4755
632.643	2466
632.706	2728
632.768	2213
632.830	3744
632.892	2396
632.954	2218
633.016	3423
633.078	2733
633.141	3402
633.203	2346
633.265	2996
633.327	2953
633.389	3021
633.451	5461
633.513	7333
633.575	5182
633.637	7095
633.698	4488
633.760	4409
633.822	3046
633.884	3621
633.946	4635
634.008	2660
634.070	2694
634.132	3180
634.193	3184
634.255	4584
634.317	3593
634.379	5993
634.441	2679
634.502	2616
634.564	2417
634.626	3159
634.687	2157
634.749	3105
634.811	3625
634.873	1994
634.934	2979
634.996	3430
635.057	909
635.119	1983
635.181	2175
635.242	3161
635.304	624
635.365	4978
635.427	2673
635.488	3559
635.550	2404
635.611	3498
635.673	-269
635.734	4053
635.796	3115
635.857	4785
635.918	2196
635.980	4686
636.041	2345
636.102	4028
636.164	3294
636.225	5063
636.286	1572
636.348	4261
636.409	2709
636.470	2030
636.531	2305
636.593	1916
636.654	2421
636.715	2749
636.776	1598
636.838	1825
636.899	2742
636.960	2225
637.021	1824
637.082	1255
637.143	1973
637.204	1824
637.265	1461
637.326	2145
637.387	1450
637.448	912
637.509	2638
637.570	2242
637.631	2974
637.692	1069
637.753	440
637.814	2176
637.875	2314
637.936	3069
637.997	1303
638.058	2116
638.119	2028
638.179	1904
638.240	1537
638.301	2033
638.362	1003
638.423	1139
638.483	2978
638.544	316
638.605	2062
638.666	1110
638.726	1984
638.787	1815
638.848	975
638.908	1354
638.969	1914
639.030	2389
639.090	1618
639.151	1800
639.211	3949
639.272	6205
639.332	14013
639.393	5100
639.453	1211
639.514	2147
639.574	1035
639.635	1957
639.695	2193
639.756	1160
639.816	3735
639.877	4765
639.937	14067
639.997	18198
640.058	2004
640.118	1177
640.178	2883
640.239	1994
640.299	1039
640.359	1474
640.420	486
640.480	1712
640.540	1278
640.600	1127
640.661	2669
640.721	1693
640.781	7270
640.841	2158
640.901	2877
640.961	1756
641.021	2910
641.082	4073
641.142	8628
641.202	5084
641.262	927
641.322	2281
641.382	-297
641.442	2192
641.502	483
641.562	1784
641.622	420
641.682	2221
641.742	1998
641.802	2841
641.861	1702
641.921	2505
641.981	4461
642.041	4021
642.101	6403
642.161	1905
642.221	512
642.280	1234
642.340	562
642.400	334
642.460	2202
642.519	1242
642.579	1460
642.639	1659
642.698	-1331
642.758	3523
642.818	1796
642.877	943
642.937	1766
642.997	4360
643.056	8320
643.116	1791
643.175	3201
643.235	607
643.294	1690
643.354	1857
643.414	1618
643.473	3198
643.532	1813
643.592	5055
643.651	8751
643.711	17678
643.770	36730
643.830	95794
643.889	194182
643.948	32903
644.008	4523
644.067	2187
644.126	1519
644.186	2528
644.245	1687
644.304	-796
644.363	2413
644.423	51
644.482	941
644.541	2103
644.600	-527
644.659	1280
644.719	1269
644.778	3598
644.837	5666
644.896	13513
644.955	31853
645.014	8707
645.073	1971
645.132	1261
645.191	1808
645.250	1121
645.309	2133
645.368	665
645.427	2352
645.486	2317
645.545	4930
645.604	873
645.663	1643
645.722	1332
645.781	1317
645.840	1916
645.898	1468
645.957	5427
646.016	5952
646.075	14967
646.134	29890
646.192	89890
646.251	119375
646.310	11637
646.369	2220
646.427	2114
646.486	647
646.545	1452
646.603	2080
646.662	1837
646.721	1125
646.779	588
646.838	169
646.896	2217
646.955	2182
647.014	4248
647.072	5932
647.131	20647
647.189	7380
647.248	1028
647.306	604
647.365	1841
647.423	-1629
647.481	1406
647.540	-16
647.598	1457
647.657	478
647.715	1255
647.773	-502
647.832	1256
647.890	-768
647.948	-58
648.007	1457
648.065	216
648.123	-56
648.181	2040
648.240	1142
648.298	209
648.356	83
648.414	521
648.472	-330
648.531	764
648.589	-731
648.647	283
648.705	75
648.763	382
648.821	711
648.879	1008
648.937	-132
648.995	1069
649.053	691
649.111	3260
649.169	5057
649.227	10560
649.285	22657
649.343	68456
649.401	30432
649.459	22857
649.516	11460
649.574	2529
649.632	7199
649.690	7277
649.748	2065
649.806	2593
649.863	6410
649.921	13661
649.979	6237
650.037	1731
650.094	-644
650.152	1027
650.210	42
650.268	578
650.325	273
650.383	1366
650.440	-486
650.498	959
650.556	961
650.613	97
650.671	698
650.728	118
650.786	174
650.843	833
650.901	-1442
650.958	751
651.016	-230
651.073	666
651.131	-899
651.188	-742
651.246	-756
651.303	-979
651.360	61
651.418	364
651.475	329
651.532	-412
651.590	156
651.647	-1146
651.704	-124
651.762	158
651.819	-339
651.876	131
651.933	-1179
651.990	315
652.048	-1123
652.105	839
652.162	-180
652.219	-131
652.276	-277
652.333	724
652.390	-948
652.448	-32
652.505	-122
652.562	-302
652.619	-751
652.676	568
652.733	1222
652.790	599
652.847	-1480
652.904	709
652.961	-1426
653.017	-344
653.074	371
653.131	-47
653.188	-917
653.245	82
653.302	-164
653.359	-114
653.415	507
653.472	-82
653.529	-262
653.586	-82
653.642	-1319
653.699	987
653.756	-1154
653.813	250
653.869	-429
653.926	-744
653.983	-776
654.039	464
654.096	-652
654.152	1177
654.209	-1541
654.266	624
654.322	-762
654.379	181
654.435	119
654.492	789
654.548	1111
654.605	3463
654.661	1647
654.717	410
654.774	-90
654.830	-161
654.887	-235
654.943	249
655.000	700
655.056	109
655.112	-798
655.168	-1188
655.225	-280
655.281	1017
655.337	-742
655.394	-223
655.450	-343
655.506	24
655.562	147
655.618	690
655.675	-835
655.731	-179
655.787	-1138
655.843	370
655.899	-1178
655.955	203
656.011	-569
656.067	-1394
656.123	-603
656.179	-733
656.235	327
656.291	-1846
656.347	881
656.403	-336
656.459	-1179
656.515	-439
656.571	-1334
656.627	-393
656.683	-634
656.739	674
656.795	754
656.850	795
656.906	1339
656.962	984
657.018	-830
657.074	-643
657.129	-33
657.185	601
657.241	753
657.297	-58
657.352	14
657.408	-232
657.464	487
657.519	-453
657.575	-220
657.630	-75
657.686	-1167
657.742	-1172
657.797	-776
657.853	-380
657.908	-1067
657.964	-1848
658.019	-473
658.075	-903
658.130	211
658.186	-616
658.241	-437
658.297	-442
658.352	-1445
658.407	-67
658.463	-1222
658.518	621
658.573	-1001
658.629	-587
658.684	-677
658.739	135
658.795	-810
658.850	70
658.905	-1634
658.960	56
659.016	-1217
659.071	279
659.126	969
659.181	1060
659.236	4601
659.291	4574
659.346	627
659.401	991
659.457	556
659.512	179
659.567	241
659.622	-72
659.677	-790
659.732	-388
659.787	-918
659.842	-551
659.897	-432
659.952	136
660.007	-623
660.061	-1053
660.116	-1073
660.171	-724
660.226	-345
660.281	1225
660.336	-1201
660.391	245
660.445	-458
660.500	-625
660.555	-739
660.610	-464
660.664	16
660.719	-260
660.774	-1012
660.828	-174
660.883	77
660.938	-529
660.992	-1880
661.047	-101
661.101	-920
661.156	-886
661.211	-1092
661.265	49
661.320	-1093
661.374	-957
661.429	-966
661.483	590
661.538	-1827
661.592	-288
661.647	-941
661.701	-40
661.755	220
661.810	-248
661.864	-403
661.919	-567
661.973	-580
662.027	-674
662.081	-1483
662.136	-281
662.190	-470
662.244	-444
662.299	-763
662.353	292
662.407	-1255
662.461	-263
662.515	25
662.569	-849
662.624	-19
662.678	-397
662.732	-882
662.786	-158
662.840	-1311
662.894	-611
662.948	-690
663.002	-679
663.056	-753
663.110	-819
663.164	-936
663.218	-697
663.272	182
663.326	553
663.380	-302
663.434	433
663.488	-766
663.542	-104
663.595	-727
663.649	-646
663.703	-533
663.757	-900
663.811	-1014
663.864	-342
663.918	-1137
663.972	-945
664.026	-570
664.079	-573
664.133	-1268
664.187	-386
664.240	-708
664.294	375
664.348	-475
664.401	-44
664.455	-1089
664.508	-409
664.562	-901
664.615	17
664.669	-1417
664.722	-676
664.776	-1178
664.829	-242
664.883	-715
664.936	-653
664.990	-1456
665.043	687
665.097	-1695
665.150	-31
665.203	-906
665.257	350
665.310	-1229
665.363	-24
665.417	-723
665.470	-1341
665.523	-1659
665.576	-692
665.630	-1242
665.683	-724
665.736	-365
665.789	-520
665.842	-828
665.895	-1329
665.949	-1037
666.002	-21
666.055	-993
666.108	-809
666.161	-382
666.214	-18
666.267	172
666.320	1255
666.373	-555
666.426	-557
666.479	-1252
666.532	-744
666.585	-565
666.638	-244
666.691	-867
666.744	235
666.796	-1117
666.849	-561
666.902	-971
666.955	-726
667.008	-942
667.060	270
667.113	-1749
667.166	-319
667.219	-1064
667.271	-1852
667.324	-855
667.377	-511
667.430	-1385
667.482	403
667.535	-835
667.587	177
667.640	-201
667.693	1203
667.745	4082
667.798	3862
667.850	-1205
667.903	-226
667.955	-1615
668.008	-1040
668.060	10
668.113	-657
668.165	-533
668.218	225
668.270	-819
668.322	-139
668.375	-1590
668.427	85
668.479	-1406
668.532	-1027
668.584	-689
668.636	-1072
668.689	-692
668.741	-874
668.793	-882
668.845	-666
668.898	-799
668.950	-1153
669.002	-960
669.054	-860
669.106	-1225
669.158	-403
669.211	-592
669.263	-522
669.315	-259
669.367	261
669.419	-1120
669.471	234
669.523	-455
669.575	892
669.627	63
669.679	-561
669.731	-572
669.783	-38
669.835	-217
669.886	-795
669.938	-598
669.990	-490
670.042	-1253
670.094	-661
670.146	-1028
670.197	-273
670.249	-406
670.301	-443
670.353	-276
670.404	1031
670.456	1160
670.508	3689
670.560	5930
670.611	11217
670.663	19962
670.715	55898
670.766	82081
670.818	16564
670.869	1836
670.921	1023
670.972	322
671.024	-53
671.075	-932
671.127	-911
671.178	-822
671.230	-61
671.281	-918
671.333	-642
671.384	-1223
671.436	-601
671.487	-869
671.538	-317
671.590	903
671.641	1867
671.692	3955
671.744	8667
671.795	4049
671.846	110
671.897	-510
671.949	-498
672.000	-1002
672.051	-460
672.102	-196
672.153	-845
672.204	-985
672.256	-637
672.307	-1093
672.358	-83
672.409	-379
672.460	-32
672.511	-1120
672.562	-1129
672.613	-1049
672.664	-368
672.715	-776
672.766	-812
672.817	-684
672.868	-820
672.919	-1450
672.970	-971
673.021	-1175
673.071	-583
673.122	-486
673.173	-742
673.224	-1306
673.275	-979
673.326	-1211
673.376	-1163
673.427	-888
673.478	-488
673.528	-856
673.579	-911
673.630	-287
673.680	394
673.731	-751
673.782	-986
673.832	-1123
673.883	-1213
673.934	-1370
673.984	-294
674.035	-1570
674.085	-487
674.136	-797
674.186	-1265
674.237	-1577
674.287	-565
674.338	-863
674.388	-1199
674.438	-1881
674.489	-809
674.539	-1111
674.589	-961
674.640	-1195
674.690	-1179
674.740	-965
674.791	-624
674.841	-928
674.891	-1509
674.942	-725
674.992	-462
675.042	-1112
675.092	-809
675.142	-1537
675.193	-767
675.243	-1367
675.293	-1227
675.343	-1702
675.393	-644
675.443	-1090
675.493	-1064
675.543	-1040
675.593	-62
675.643	-1574
675.693	56
675.743	-1246
675.793	-1074
675.843	-1796
675.893	-825
675.943	-779
675.993	-816
676.043	-1171
676.093	-864
676.142	-1513
676.192	-736
676.242	-1817
676.292	-1469
676.341	-1520
676.391	-1106
676.441	-1991
676.491	-917
676.540	-937
676.590	-1124
676.640	-1524
676.689	-582
676.739	-1714
676.789	-726
676.838	-1304
676.888	-382
676.937	-1210
676.987	-893
677.037	-619
677.086	-1350
677.136	-1444
677.185	-909
677.235	-1441
677.284	-1203
677.333	-1831
677.383	-1700
677.432	-1748
677.482	-697
677.531	-744
677.580	-517
677.630	-1991
677.679	-1049
677.728	-1765
677.778	-583
677.827	-1098
677.876	-1170
677.925	-1454
677.975	-500
678.024	-1092
678.073	-695
678.122	-2203
678.171	-1004
678.220	-1321
678.269	-1786
678.319	-1835
678.368	-1075
678.417	-1544
678.466	-429
678.515	-1087
678.564	-436
678.613	-1002
678.662	-527
678.711	-578
678.760	-1253
678.809	-1636
678.857	-1544
678.906	-1193
678.955	-297
679.004	-1505
679.053	-1280
679.102	-1486
679.151	-1083
679.199	-1411
679.248	-768
679.297	-1484
679.346	-1613
679.394	-1891
679.443	-750
679.492	-1216
679.540	-774
679.589	-1554
679.638	-1408
679.686	-1391
679.735	-1108
679.784	-1778
679.832	-1075
679.881	-1821
679.929	-624
679.978	-2490
680.026	-1337
680.075	-1557
680.123	-1763
680.172	-675
680.220	-1440
680.268	-1249
680.317	-730
680.365	-1729
680.414	-1330
680.462	-1875
680.510	-512
680.559	-1485
680.607	-1065
680.655	-1990
680.703	-560
680.752	-1601
680.800	-812
680.848	-2222
680.896	-1036
680.945	-1117
680.993	-842
681.041	-1279
681.089	-864
681.137	-1295
681.185	-855
681.233	-2046
681.258	-1736
681.281	-1450
681.329	-1990
681.377	-1755
681.380	-1718
681.425	-1176
681.473	-1376
681.502	-1269
681.521	-1212
681.569	-1018
681.617	-1083
681.624	-1140
681.665	-1560
681.713	-675
681.745	-620
681.761	-609
681.809	-1354
681.857	-495
681.867	-850
681.904	-2096
681.952	-622
681.989	-1022
682.000	-1153
682.048	-1097
682.096	-900
682.111	-1123
682.143	-1632
682.191	-1233
682.233	-468
682.239	-362
682.286	-1472
682.334	-791
682.354	-1292
682.382	-1983
682.430	-388
682.476	-935
682.477	-952
682.525	-388
682.572	-1962
682.598	-1663
682.620	-1398
682.667	-1576
682.715	-201
682.720	-226
682.763	-552
682.810	-863
682.841	-807
682.857	-793
682.905	-884
682.952	-814
682.963	-622
683.000	-34
683.047	-1395
683.085	71
683.095	479
683.142	-900
683.190	-84
683.206	-579
683.237	-1517
683.284	14
683.328	-523
683.332	-570
683.379	-465
683.426	-963
683.449	-910
683.473	-898
683.521	-1596
683.568	-270
683.571	-332
683.615	-1123
683.662	215
683.693	61
683.709	-62
683.757	29
683.804	-499
683.814	-418
683.851	-178
683.898	-284
683.936	-290
683.945	-276
683.992	-20
684.039	133
684.057	-166
684.086	-684
684.133	-47
684.179	-782
684.180	-813
684.227	323
684.274	341
684.300	440
684.321	477
684.368	-272
684.415	-279
684.422	-273
684.462	-321
684.509	-312
684.543	-524
684.556	-570
684.603	-450
684.649	-479
684.665	-239
684.696	289
684.743	-381
684.786	436
684.790	494
684.837	-782
684.883	220
684.908	170
684.930	112
684.977	663
685.023	-278
685.029	-236
685.070	52
685.117	138
685.150	-172
685.164	-294
685.210	-113
685.257	491
685.272	285
685.303	-69
685.350	135
685.393	-35
685.396	-47
685.443	782
685.490	1520
685.514	1419
685.536	1133
685.583	255
685.629	698
685.636	684
685.675	710
685.722	643
685.757	335
685.768	256
685.815	510
685.861	5
685.878	168
685.908	386
685.954	-32
686.000	125
686.000	126
686.047	569
686.093	262
686.121	375
686.139	411
686.185	599
686.232	-22
686.242	48
686.278	319
686.324	303
686.363	-27
686.370	-84
686.416	-246
686.463	214
686.484	127
686.509	-5
686.555	189
686.601	422
686.606	450
686.647	714
686.693	467
686.727	602
686.739	671
686.785	306
686.831	672
686.848	548
686.877	255
686.923	396
686.969	309
686.969	309
687.015	329
687.061	-105
687.090	482
687.107	756
687.153	435
687.199	205
687.211	184
687.245	227
687.291	41
687.332	374
687.336	401
687.382	431
687.428	-17
687.453	327
687.474	668
687.520	117
687.565	531
687.574	457
687.611	59
687.657	822
687.695	654
687.702	659
687.748	1463
687.794	1337
687.816	1727
687.839	1874
687.885	826
687.931	635
687.937	589
687.976	645
688.022	626
688.058	533
688.067	481
688.113	958
688.158	713
688.179	508
688.204	412
688.249	409
688.295	1146
688.300	1133
688.340	958
688.386	1536
688.421	1282
688.431	1195
688.477	1085
688.522	711
688.542	890
688.567	1092
688.613	1021
688.658	805
688.663	751
688.703	536
688.749	1422
688.784	1285
688.794	1200
688.839	1190
688.884	1025
688.905	1179
688.930	1323
688.975	663
689.020	1236
689.026	1137
689.065	700
689.110	1037
689.146	852
689.155	831
689.201	1520
689.246	1035
689.267	1370
689.291	1542
689.336	1514
689.381	1293
689.388	1202
689.426	994
689.471	1122
689.509	1075
689.516	1020
689.561	1115
689.606	477
689.630	541
689.651	787
689.696	667
689.741	1425
689.750	1392
689.785	1130
689.830	1421
689.871	1022
689.875	994
689.920	1315
689.965	1225
689.992	1330
690.010	1300
690.054	789
690.099	726
690.112	790
690.144	1163
690.189	1169
690.233	614
690.233	616
690.278	1386
690.323	1394
690.354	1394
690.367	1357
690.412	1596
690.457	1683
690.474	1593
690.501	1299
690.546	1183
690.590	969
690.595	921
690.635	1034
690.680	1414
690.716	1651
690.724	1618
690.769	1349
690.813	1577
690.836	1197
690.857	1159
690.902	2013
690.946	2268
690.957	2365
690.991	2589
691.035	2802
691.077	3446
691.080	3469
691.124	2424
691.168	3059
691.198	2697
691.213	2413
691.257	2397
691.301	1635
691.318	1448
691.346	1517
691.390	1367
691.434	1539
691.439	1536
691.478	1405
691.522	1757
691.559	1433
691.567	1397
691.611	1992
691.655	1598
691.680	1661
691.699	1722
691.743	1757
691.787	1921
691.800	1918
691.831	1851
691.875	1706
691.919	1667
691.921	1656
691.964	1566
692.008	1368
692.041	1670
692.052	1790
692.096	1400
692.139	1984
692.162	1692
692.183	1317
692.227	1876
692.271	1385
692.282	1355
692.315	1589
692.359	2074
692.402	2319
692.403	2326
692.447	2266
692.490	2337
692.523	2168
692.534	2095
692.578	1986
692.622	1753
692.643	1821
692.666	1924
692.709	1868
692.753	1631
692.763	1651
692.797	2008
692.840	2386
692.884	2284
692.884	2290
692.928	2528
692.971	2419
693.004	2185
693.015	2128
693.059	1924
693.102	2280
693.124	2070
693.146	1975
693.189	2138
693.233	2186
693.245	2228
693.276	2376
693.320	2381
693.363	2644
693.365	2632
693.407	2165
693.450	2058
693.485	1899
693.493	2045
693.537	2538
693.580	2763
693.605	3158
693.624	3263
693.667	3446
693.710	3716
693.725	3684
693.753	4427
693.797	6054
693.840	7212
693.845	7395
693.883	6780
693.926	5292
693.966	4419
693.970	4389
694.013	3903
694.056	3483
694.086	2918
694.099	2745
694.142	2504
694.185	2283
694.206	2143
694.229	2336
694.272	2501
694.315	2855
694.326	2911
694.358	3079
694.401	3458
694.444	3522
694.446	3531
694.487	3858
694.530	3910
694.566	4098
694.573	4041
694.616	3252
694.659	2915
694.686	2473
694.702	2384
694.745	2310
694.787	2166
694.806	2146
694.830	2199
694.873	2179
694.916	1976
694.926	1990
694.959	2357
695.002	2775
695.044	3094
695.046	3108
695.087	3080
695.130	2348
695.166	2264
695.172	2348
695.215	2382
695.258	2895
695.286	2902
695.301	2745
695.343	2525
695.386	2433
695.406	2291
695.428	2260
695.471	2191
695.514	2291
695.526	2200
695.556	2184
695.599	2497
695.641	2723
695.646	2718
695.684	2606
695.726	2706
695.766	2776
695.769	2775
695.811	2466
695.854	2328
695.886	2094
695.896	2144
695.938	2230
695.981	2557
696.005	2729
696.023	2752
696.065	2497
696.108	2606
696.125	2516
696.150	2535
696.192	2713
696.235	2910
696.245	2946
696.277	3054
696.319	2963
696.361	3184
696.365	3172
696.404	3021
696.446	2989
696.485	2850
696.488	2863
696.530	2919
696.572	2923
696.604	2956
696.614	2975
696.656	2872
696.698	3020
696.724	2992
696.740	2966
696.783	2944
696.825	2809
696.844	2821
696.867	2871
696.909	2735
696.951	2561
696.964	2552
696.992	2566
697.034	2575
697.076	2519
697.083	2489
697.118	2723
697.160	3047
697.202	3417
697.203	3411
697.244	3154
697.286	2859
697.323	2673
697.327	2709
697.369	2886
697.411	3066
697.442	3162
697.453	3272
697.494	3620
697.536	4105
697.562	4364
697.578	4355
697.620	4291
697.661	4185
697.682	4107
697.703	4134
697.744	4210
697.786	4350
697.801	4347
697.828	4551
697.869	4884
697.911	5172
697.921	5235
697.952	4705
697.994	3982
698.035	3289
698.040	3186
698.077	3109
698.118	3007
698.160	2940
698.160	2928
698.201	3255
698.243	3524
698.279	3806
698.284	3833
698.325	3936
698.367	4053
698.399	4071
698.408	4079
698.449	4096
698.491	4118
698.518	4125
698.532	4109
698.573	3984
698.614	3888
698.638	3808
698.656	3721
698.697	3493
698.738	3264
698.757	3151
698.779	3256
698.820	3409
698.862	3578
698.877	3629
698.903	3682
698.944	3743
698.985	3805
698.996	3811
699.026	3814
699.067	3797
699.116	3765
699.235	3549
699.354	4292
699.474	3250
699.593	3661
699.713	4196
699.832	4558
699.951	4603
700.070	4377
700.190	3699
700.309	4357
700.428	3844
700.547	4216
700.667	4037
700.786	4301
700.905	3484
701.024	4801
701.143	3190
701.262	4027
701.381	3236
701.500	3965
701.619	5818
701.738	4138
701.857	2865
701.976	3149
702.095	2984
702.214	3696
702.333	4535
702.452	3856
702.571	3699
702.690	3989
702.809	2842
702.928	3604
703.047	2956
703.165	3285
703.284	3599
703.403	4033
703.522	3453
703.640	4032
703.759	4628
703.878	5561
703.997	3058
704.115	3183
704.234	3040
704.353	3484
704.471	3223
704.590	3015
704.708	2871
704.827	3101
704.946	3333
705.064	3060
705.183	3054
705.301	3320
705.420	3409
705.538	3847
705.656	3088
705.775	3877
705.893	5502
706.012	6007
706.130	3291
706.249	3947
706.367	3408
706.485	3918
706.604	3823
706.722	2913
706.840	4776
706.958	5176
707.077	3569
707.195	3343
707.313	3040
707.431	3314
707.549	3171
707.668	3291
707.786	3514
707.904	3103
708.022	3190
708.140	2655
708.258	3121
708.376	3380
708.494	3072
708.612	3089
708.730	2965
708.848	3169
708.966	3984
709.084	4489
709.202	3341
709.320	3245
709.438	2887
709.556	3433
709.674	3075
709.791	2425
709.909	3649
710.027	3329
710.145	2289
710.263	3853
710.380	3685
710.498	3588
710.616	2722
710.733	3117
710.851	2411
710.969	3784
711.086	2686
711.204	3494
711.322	2834
711.439	3111
711.557	2306
711.674	2988
711.792	2895
711.909	2989
712.027	3535
712.144	3428
712.262	3035
712.379	2530
712.497	3713
712.614	3228
712.732	3409
712.849	2706
712.966	3461
713.084	5747
713.201	3526
713.318	3204
713.436	2894
713.553	2904
713.670	3320
713.787	3691
713.905	2803
714.022	3591
714.139	3225
714.256	4438
714.373	4371
714.490	6881
714.608	15288
714.725	65101
714.842	49435
714.959	5083
715.076	2776
715.193	3373
715.310	3086
715.427	3107
715.544	3082
715.661	2908
715.778	2711
715.895	3107
716.011	2564
716.128	3038
716.245	3233
716.362	5567
716.479	4874
716.596	3621
716.713	3091
716.829	2267
716.946	2577
717.063	3076
717.180	2237
717.296	2482
717.413	2907
717.530	2805
717.646	2986
717.763	3492
717.880	1318
717.996	3315
718.113	2758
718.229	2714
718.346	2037
718.462	3443
718.579	6605
718.695	13823
718.812	4947
718.928	2719
719.045	2729
719.161	1738
719.277	2249
719.394	3013
719.510	2875
719.626	1875
719.743	2477
719.859	3749
719.975	5476
720.092	16964
720.208	28613
720.324	5019
720.440	2578
720.557	3835
720.673	8361
720.789	5882
720.905	4377
721.021	3201
721.137	2226
721.253	2646
721.369	1487
721.486	2170
721.602	2603
721.718	2581
721.834	1657
721.950	2724
722.066	2054
722.181	2762
722.297	2791
722.413	3166
722.529	2362
722.645	2513
722.761	1517
722.877	1715
722.993	2265
723.108	1326
723.224	1699
723.340	2468
723.456	2121
723.571	2658
723.687	1737
723.803	2353
723.918	2477
724.034	2118
724.150	2420
724.265	2324
724.381	2562
724.497	3299
724.612	1268
724.728	1325
724.843	1526
724.959	2710
725.074	2369
725.190	2442
725.305	1892
725.421	2033
725.536	2003
725.651	1339
725.767	2107
725.882	2673
725.997	1348
726.113	1861
726.228	1680
726.343	2398
726.459	1624
726.574	1733
726.689	1516
726.804	1995
726.920	1845
727.035	1727
727.150	1789
727.265	2609
727.380	2304
727.495	2298
727.610	1729
727.725	2382
727.841	1753
727.956	3670
728.071	2302
728.186	2221
728.301	791
728.416	2726
728.531	1910
728.645	2182
728.760	2204
728.875	3324
728.990	2276
729.105	2483
729.220	2605
729.335	2631
729.449	2477
729.564	1281
729.679	1081
729.794	1650
729.908	1310
730.023	1775
730.138	1113
730.253	2572
730.367	1976
730.482	1497
730.596	2191
730.711	3452
730.826	2620
730.940	2788
731.055	2048
731.169	1331
731.284	2203
731.398	1166
731.513	1645
731.627	1667
731.742	1592
731.856	1827
731.970	1573
732.085	2102
732.199	2239
732.313	3159
732.428	5968
732.542	16412
732.656	8506
732.771	2620
732.885	1744
732.999	2270
733.113	2102
733.227	1828
733.342	2584
733.456	1419
733.570	1475
733.684	2161
733.798	1716
733.912	1036
734.026	927
734.140	1806
734.254	1753
734.368	2252
734.482	1841
734.596	1744
734.710	2283
734.824	860
734.938	1463
735.052	1749
735.166	1894
735.280	2522
735.393	1257
735.507	2066
735.621	1821
735.735	2410
735.849	1201
735.962	2197
736.076	1612
736.190	1593
736.303	2344
736.417	2747
736.531	1873
736.644	2012
736.758	978
736.872	1597
736.985	1302
737.099	1987
737.212	1570
737.326	2191
737.439	1410
737.553	1658
737.666	1227
737.780	1007
737.893	1157
738.007	1712
738.120	1506
738.233	1807
738.347	1834
738.460	1560
738.573	2161
738.687	1654
738.800	2700
738.913	3111
739.026	2319
739.140	2188
739.253	1656
739.366	1886
739.479	1231
739.592	1585
739.705	976
739.818	1695
739.932	1288
740.045	1726
740.158	2765
740.271	1131
740.384	1008
740.497	2179
740.610	2102
740.723	2354
740.836	1641
740.949	2624
741.062	3483
741.174	2930
741.287	1743
741.400	2114
741.513	1624
741.626	2036
741.739	1502
741.851	2235
741.964	1436
742.077	1583
742.189	1205
742.302	2230
742.415	2322
742.527	1760
742.640	1629
742.753	2669
742.865	1223
742.978	1342
743.090	1376
743.203	1926
743.316	1825
743.428	786
743.541	492
743.653	1087
743.766	902
743.878	1717
743.990	1183
744.103	1131
744.215	1615
744.327	2011
744.440	3563
744.552	5673
744.664	1685
744.777	1290
744.889	1738
745.001	1973
745.113	650
745.226	313
745.338	1302
745.450	1419
745.562	1630
745.674	1023
745.786	1000
745.898	1206
746.010	745
746.122	1388
746.234	1409
746.347	1507
746.459	1169
746.570	1257
746.682	1957
746.794	1804
746.906	-189
747.018	1260
747.130	1173
747.242	1515
747.354	494
747.466	1570
747.577	709
747.689	1059
747.801	1150
747.913	1001
748.024	914
748.136	835
748.248	476
748.359	1000
748.471	593
748.583	1954
748.694	704
748.806	486
748.918	1288
749.029	1264
749.141	1785
749.252	2397
749.364	2233
749.475	6539
749.587	2294
749.698	366
749.809	1447
749.921	1011
750.032	791
750.144	979
750.255	1265
750.366	1506
750.478	626
750.589	353
750.700	936
750.811	2166
750.923	2889
751.034	7986
751.145	6063
751.256	1291
751.367	535
751.479	1392
751.590	1158
751.701	1649
751.812	578
751.923	1214
752.034	874
752.145	397
752.256	769
752.367	623
752.478	820
752.589	1326
752.700	883
752.811	501
752.922	1096
753.032	1526
753.143	1669
753.254	512
753.365	1097
753.476	1046
753.586	546
753.697	1338
753.808	946
753.919	1193
754.029	-312
754.140	1038
754.251	1715
754.361	870
754.472	60
754.582	1179
754.693	512
754.804	1119
754.914	364
755.025	1289
755.135	451
755.246	431
755.356	121
755.466	1299
755.577	643
755.687	2050
755.798	376
755.908	885
756.018	533
756.129	955
756.239	389
756.349	1131
756.460	433
756.570	1194
756.680	-83
756.790	2014
756.900	1765
757.011	1220
757.121	-131
757.231	957
757.341	322
757.451	751
757.561	255
757.671	759
757.781	365
757.891	1774
758.001	439
758.111	1101
758.221	1036
758.331	1886
758.441	1814
758.551	2759
758.661	2157
758.771	1124
758.880	199
758.990	1333
759.100	593
759.210	721
759.320	156
759.429	671
759.539	846
759.649	580
759.758	1231
759.868	1740
759.978	585
760.087	819
760.197	1001
760.307	953
760.416	1215
760.526	482
760.635	1561
760.745	769
760.854	544
760.964	1115
761.073	754
761.182	860
761.292	355
761.401	1348
761.511	102
761.620	632
761.729	1172
761.839	200
761.948	756
762.057	1420
762.166	1327
762.276	430
762.385	1186
762.494	922
762.603	824
762.712	2064
762.822	733
762.931	387
763.040	183
763.149	1014
763.258	179
763.367	1432
763.476	690
763.585	1474
763.694	1045
763.803	1486
763.912	1557
764.021	803
764.130	301
764.238	1414
764.347	429
764.456	586
764.565	1460
764.674	956
764.783	1345
764.891	1175
765.000	1723
765.109	1596
765.217	1654
765.326	2393
765.435	2122
765.543	3427
765.652	3299
765.761	4049
765.869	7453
765.978	12041
766.086	22782
766.195	47678
766.303	144058
766.412	412438
766.520	258974
766.629	51305
766.737	18721
766.846	11285
766.954	8041
767.062	6341
767.171	3950
767.279	4129
767.387	2228
767.496	3003
767.604	2150
767.712	2536
767.820	2109
767.928	1937
768.037	1377
768.145	1881
768.253	1873
768.361	2036
768.469	1580
768.577	1581
768.685	2188
768.793	1898
768.901	1601
769.009	1703
769.117	1996
769.225	2745
769.333	4587
769.441	8792
769.549	18184
769.657	49262
769.765	180408
769.873	314125
769.981	70074
770.088	15250
770.196	7603
770.304	5573
770.412	3890
770.519	3238
770.627	2801
770.735	2485
770.842	1344
770.950	1918
771.058	757
771.165	1820
771.273	927
771.380	1249
771.488	1919
771.595	638
771.703	1629
771.810	1348
771.918	816
772.025	1595
772.133	1749
772.240	1093
772.348	1391
772.455	1780
772.562	813
772.670	1363
772.777	655
772.884	821
772.991	1487
773.099	1751
773.206	785
773.313	1239
773.420	881
773.528	640
773.635	108
773.742	1942
773.849	1186
773.956	843
774.063	471
774.170	215
774.277	1193
774.384	834
774.491	668
774.598	649
774.705	629
774.812	1921
774.919	1167
775.026	1314
775.133	952
775.239	658
775.346	527
775.453	642
775.560	371
775.667	134
775.773	-25
775.880	1181
775.987	-262
776.093	1739
776.200	475
776.307	319
776.413	546
776.520	7
776.627	229
776.733	959
776.840	-710
776.946	1868
777.053	1074
777.159	1073
777.266	-305
777.372	1349
777.478	866
777.585	1105
777.691	656
777.798	566
777.904	1754
778.010	2407
778.117	2078
778.223	1072
778.329	569
778.435	1106
778.542	591
778.648	57
778.754	64
778.860	448
778.966	517
779.072	579
779.178	-44
779.284	793
779.391	144
779.497	279
779.603	1806
779.708	-567
779.815	2246
779.920	3056
780.026	2950
780.132	1112
780.238	-340
780.344	317
780.450	1057
780.556	-602
780.661	-399
780.767	26
780.873	294
780.979	1520
781.085	-121
781.190	815
781.296	409
781.402	101
781.507	-89
781.613	488
781.719	-240
781.824	619
781.930	1440
782.035	287
782.141	502
782.246	368
782.352	-420
782.457	1124
782.563	3
782.668	-65
782.773	132
782.879	32
782.984	939
783.090	1697
783.195	2685
783.300	1235
783.405	808
783.511	477
783.616	186
783.721	278
783.826	-513
783.932	231
784.037	-692
784.142	388
784.247	-441
784.352	453
784.457	404
784.562	284
784.667	366
784.772	396
784.877	-634
784.982	213
785.087	-261
785.192	1251
785.297	-25
785.402	395
785.507	220
785.611	524
785.716	380
785.821	264
785.926	-460
786.031	-88
786.135	285
786.240	5
786.345	-1225
786.450	889
786.554	465
786.659	431
786.763	-905
786.868	1185
786.973	-38
787.077	-248
787.182	-699
787.286	633
787.391	470
787.495	-821
787.600	-105
787.704	-242
787.809	132
787.913	807
788.017	-112
788.122	1018
788.226	213
788.330	-510
788.435	-314
788.539	207
788.643	-418
788.747	-2
788.852	197
788.956	-74
789.060	625
789.164	394
789.268	-320
789.372	119
789.476	325
789.580	-563
789.684	-299
789.788	1484
789.892	89
789.996	796
790.100	-56
790.204	-216
790.308	-193
790.412	490
790.516	-907
790.620	176
790.724	339
790.828	772
790.931	-1001
791.035	1546
791.139	-901
791.242	-54
791.346	1064
791.450	229
791.554	267
791.657	-348
791.761	482
791.864	1747
791.968	213
792.072	1085
792.175	177
792.279	145
792.382	637
792.486	701
792.589	-696
792.693	76
792.796	-1198
792.899	757
793.003	436
793.106	-951
793.209	-386
793.313	1699
793.416	-1126
793.519	1737
793.623	1331
793.726	2466
793.829	-252
793.932	692
794.035	-1022
794.138	1880
794.242	-190
794.345	-19
794.448	629
794.551	1308
794.654	2723
794.757	2394
794.860	102
794.963	-191
795.066	-582
795.169	853
795.272	-457
795.375	709
795.477	-668
795.580	673
795.683	-844
795.786	-63
795.889	-1561
795.991	1068
796.094	-30
796.197	-1225
796.300	827
796.402	316
796.505	-547
796.608	-1003
796.710	436
796.813	-70
796.915	-1049
797.018	77
797.120	213
797.223	-906
797.326	565
797.428	119
797.530	127
797.633	-43
797.735	-154
797.838	706
797.940	432
798.042	-273
798.145	-1181
798.247	726
798.349	-1698
798.452	416
798.554	-196
798.656	-884
798.758	99
798.860	340
798.962	-431
799.065	23
799.167	-207
799.269	721
799.371	1270
799.473	125
799.575	-903
799.677	244
799.779	1758
799.881	676
799.983	226
800.085	305
800.187	-586
800.289	-661
800.390	-594
800.492	1100
800.594	210
800.696	-511
800.798	213
800.899	-314
801.001	-572
801.103	-440
801.205	-348
801.306	-230
801.408	-1012
801.509	-176
801.611	80
801.713	330
801.814	-957
801.916	312
802.017	-296
802.119	-273
802.220	171
802.322	-1835
802.423	981
802.525	-1029
802.626	-306
802.727	1002
802.829	54
802.930	-2085
803.031	588
803.133	-624
803.234	-428
803.335	-131
803.436	-1145
803.538	588
803.639	-1575
803.740	-484
803.841	-655
803.942	158
804.043	758
804.144	-996
804.245	-291
804.346	-672
804.447	-600
804.548	987
804.649	1313
804.750	-552
804.851	-742
804.952	-293
805.053	-760
805.154	-1653
805.255	653
805.355	-228
805.456	-768
805.557	-659
805.658	-1340
805.758	228
805.859	-503
805.960	-325
806.061	-930
806.161	-447
806.262	-69
806.362	-553
806.463	-1010
806.564	-388
806.664	-569
806.765	-430
806.865	-108
806.966	-940
807.066	-1124
807.166	72
807.267	183
807.367	-329
807.468	105
807.568	-1306
807.668	-680
807.769	902
807.869	-1025
807.969	170
808.069	-277
808.170	-573
808.270	-883
808.370	34
808.470	355
808.570	-1163
808.670	-688
808.770	-729
808.870	-1291
808.970	162
809.070	-781
809.170	-297
809.271	-399
809.370	-82
809.470	200
809.570	-559
809.670	-526
809.770	-205
809.870	-266
809.970	-363
810.070	-460
810.169	-128
810.269	-1722
810.369	482
810.469	168
810.568	-785
810.668	-1169
810.768	-276
810.867	-1217
810.967	-798
811.066	-219
811.166	-640
811.265	153
811.365	-910
811.464	-1396
811.564	-103
811.663	2
811.763	-618
811.862	-191
811.962	-117
812.061	-714
812.160	-159
812.260	-728
812.359	-674
812.458	-980
812.557	148
812.657	-609
812.756	653
812.855	-474
812.954	-636
813.053	-1205
813.153	-1233
813.252	-1460
813.351	-271
813.450	-998
813.549	-1109
813.648	477
813.747	-326
813.846	-235
813.945	-614
814.044	-391
814.143	-247
814.242	-191
814.341	-644
814.439	-126
814.538	632
814.637	-364
814.736	-526
814.835	52
814.933	-679
815.032	-135
815.131	87
815.229	-567
815.328	-337
815.427	-881
815.525	302
815.624	84
815.722	-215
815.821	-313
815.919	-374
816.018	-1221
816.116	859
816.215	78
816.313	396
816.412	-822
816.510	-627
816.609	1394
816.707	-549
816.805	-119
816.904	-654
817.002	-287
817.100	437
817.198	710
817.296	-189
817.395	155
817.493	1398
817.591	295
817.689	1207
817.787	1372
817.885	3622
817.983	7772
818.081	20626
818.179	53567
818.277	142638
818.375	83391
818.473	14729
818.571	5074
818.669	3957
818.767	3433
818.865	4029
818.963	4601
819.061	8402
819.158	16211
819.256	44512
819.354	115343
819.452	248402
819.549	107733
819.647	19676
819.745	7885
819.842	5432
819.940	2351
820.038	2581
820.135	2082
820.233	2062
820.330	290
820.428	16
820.525	312
820.623	1146
820.720	67
820.818	-550
820.915	673
821.012	627
821.110	-1035
821.207	543
821.304	-595
821.402	111
821.499	152
821.596	631
821.693	-664
821.791	797
821.888	1402
821.985	4097
822.082	2150
822.179	506
822.276	-981
822.373	343
822.470	-694
822.567	356
822.664	-717
822.761	1032
822.858	-610
822.955	272
823.052	-450
823.149	44
823.246	-188
823.343	-726
823.440	-545
823.536	14
823.633	-664
823.730	-202
823.827	-748
823.923	-219
824.020	988
824.117	-251
824.213	-1776
824.310	1056
824.407	-585
824.503	541
824.600	-35
824.696	-861
824.793	79
824.889	-186
824.986	-687
825.082	-279
825.179	-1
825.275	-934
825.371	-1295
825.468	-12
825.564	-1002
825.660	80
825.757	-631
825.853	-385
825.949	-1115
826.045	55
826.142	-871
826.238	-975
826.334	-456
826.430	-1618
826.526	483
826.622	-1503
826.718	-120
826.814	-1098
826.910	151
827.006	-837
827.102	-717
827.198	750
827.294	-676
827.390	-447
827.486	-619
827.582	-1393
827.678	-825
827.774	405
827.869	-1338
827.965	235
828.061	-288
828.157	-80
828.252	-1187
828.348	-1350
828.444	-276
828.539	-1233
828.635	-1177
828.731	49
828.826	-2461
828.922	-577
829.017	-779
829.113	-191
829.208	-846
829.304	-569
829.399	-174
829.495	-1078
829.590	-350
829.685	-597
829.781	175
829.876	-1176
829.971	-1108
830.066	-860
830.162	-1064
830.257	-758
830.352	-1475
830.447	124
830.543	-341
830.638	-2008
830.733	28
830.828	-1429
830.923	-905
831.018	-644
831.113	-969
831.208	-1612
831.303	-1546
831.398	-902
831.493	-958
831.588	-66
831.683	-914
831.778	-105
831.873	-606
831.967	454
832.062	-1640
832.157	-969
832.252	-581
832.346	-592
832.441	-332
832.536	1494
832.631	3946
832.725	2217
832.820	-931
832.914	-852
833.009	-1542
833.104	56
833.198	-47
833.293	-21
833.387	67
833.482	-1125
833.576	-1287
833.670	-900
833.765	-1407
833.859	-1331
833.954	-1123
834.048	40
834.142	-718
834.237	-617
834.331	-1098
834.425	-586
834.519	-1510
834.613	713
834.708	-1061
834.802	-763
834.896	-1960
834.990	-762
835.084	-1088
835.178	-607
835.272	-716
835.366	-1587
835.460	-312
835.554	-56
835.648	-89
835.742	-1275
835.836	-1271
835.930	-1742
836.024	-1052
836.117	293
836.211	-1994
836.305	-580
836.399	-583
836.493	-1180
836.586	20
836.680	-1041
836.774	-1090
836.867	139
836.961	-2158
837.055	-975
837.148	-784
837.242	-301
837.335	-1399
837.429	-647
837.522	-1688
837.616	-1498
837.709	-37
837.803	-1757
837.896	-388
837.989	-1475
838.083	-522
838.176	-1320
838.269	-1059
838.363	-242
838.456	-1677
838.549	292
838.642	1539
838.735	4170
838.829	911
838.922	-1209
839.015	-1414
839.108	-871
839.201	-1212
839.294	-315
839.387	-459
839.480	-1271
839.573	-910
839.666	-955
839.759	-627
839.852	-927
839.945	-1199
840.038	-1068
840.131	-1398
840.223	-628
840.316	-801
840.409	-1350
840.502	-1752
840.594	605
840.687	-2078
840.780	123
840.873	-1332
840.965	-430
841.058	-707
841.150	278
841.243	-900
841.336	-431
841.428	-937
841.521	-993
841.613	-2090
841.706	326
841.798	-1029
841.890	-1057
841.983	-2101
842.075	-663
842.167	-1930
842.260	-315
842.352	-94
842.444	-788
842.537	-901
842.629	186
842.721	-563
842.813	-1167
842.905	-1674
842.997	-500
843.090	-917
843.182	-856
843.274	-1447
843.366	538
843.458	246
843.550	93
843.642	-1006
843.734	-735
843.826	-1113
843.918	-179
844.009	-402
844.101	-896
844.193	-1166
844.285	-876
844.377	-1160
844.469	-166
844.560	-361
844.652	-378
844.744	-1562
844.835	-1128
844.927	-1403
845.019	-95
845.110	-1139
845.202	-504
845.293	-1094
845.385	-1173
845.476	-277
845.568	-104
845.659	-1391
845.751	-1219
845.842	-1559
845.934	-477
846.025	-1266
846.116	-421
846.208	-240
846.299	-832
846.390	-867
846.482	-10
846.573	10
846.664	204
846.755	-593
846.846	-159
846.937	-1842
847.029	-647
847.120	-1388
847.211	-459
847.302	-160
847.393	-2148
847.484	-1152
847.575	-864
847.666	-1385
847.757	-600
847.847	-1404
847.938	28
848.029	-1072
848.120	-1130
848.211	-854
848.302	-570
848.392	-935
848.483	-412
848.574	-1923
848.664	-1219
848.755	-548
848.846	-685
848.936	-1165
849.027	-1290
849.118	-774
849.208	-1483
849.299	-952
849.389	-98
849.480	14
849.570	968
849.661	2654
849.751	4348
849.841	-41
849.932	-203
850.022	-1107
850.112	-742
850.203	-1507
850.293	-942
850.383	-1528
850.474	-1662
850.564	-1436
850.654	-1350
850.744	-633
850.834	-768
850.924	-993
851.014	-1400
851.104	-1448
851.194	-790
851.284	-199
851.374	-348
851.464	-1024
851.554	-1220
851.644	-741
851.734	-430
851.824	-1350
851.914	-1385
852.004	-992
852.094	-1591
852.183	-961
852.273	-563
852.363	-1907
852.452	-1609
852.542	-1355
852.632	-530
852.721	-1166
852.811	-1148
852.901	-968
852.990	-765
853.080	-917
853.169	-847
853.259	-410
853.348	-1074
853.438	-981
853.527	-99
853.617	-774
853.706	674
853.795	2549
853.885	7296
853.974	13685
854.063	28089
854.152	39289
854.242	9459
854.331	-121
854.420	-518
854.509	-1533
854.598	-1005
854.687	-1154
854.777	-1003
854.866	-1685
854.955	-859
855.044	-1160
855.133	-1069
855.222	-920
855.311	-947
855.400	-545
855.488	-1653
855.577	-997
855.666	-871
855.755	-543
855.844	-1124
855.933	-1902
856.021	-500
856.110	-1078
856.199	-798
856.288	-849
856.376	-1143
856.465	-1473
856.554	-674
856.642	-1273
856.731	-616
856.819	-1317
856.908	-1095
856.996	-1008
857.085	-994
857.173	-1020
857.262	-395
857.350	-885
857.438	-375
857.527	-1035
857.615	-852
857.703	-1261
857.792	-1695
857.880	-1026
857.968	-837
858.056	-1041
858.145	-506
858.233	-920
858.321	-467
858.409	-1434
858.497	-969
858.585	-1453
858.673	-675
858.761	-1236
858.849	-1786
858.937	-1151
859.025	-287
859.113	-1140
859.201	-2439
859.289	-402
859.377	-833
859.465	-191
859.552	-1695
859.640	-1193
859.728	-898
859.816	-1437
859.903	6
859.991	-2135
860.079	-1456
860.166	-396
860.254	-1316
860.342	-673
860.429	-1331
860.517	-1873
860.604	-759
860.692	-948
860.779	-1379
860.867	-1603
860.954	-587
861.042	-703
861.129	-312
861.216	-826
861.304	-257
861.391	-1029
861.478	-809
861.565	-1123
861.653	-719
861.740	-2395
861.827	-1031
861.914	-804
862.001	-673
862.089	-1339
862.176	-1615
862.263	-1000
862.350	-601
862.437	-1348
862.524	-1642
862.611	-982
862.698	-818
862.785	-905
862.871	-1521
862.958	-2259
863.045	-1279
863.132	-1628
863.219	-812
863.306	-1328
863.392	-641
863.479	-1503
863.566	-830
863.652	-1357
863.739	-1174
863.826	-1030
863.912	-1256
863.999	-1461
864.086	-1077
864.172	-1516
864.259	-1444
864.345	-902
864.432	-696
864.518	-1102
864.604	-1078
864.691	-2634
864.777	207
864.863	-812
864.950	-826
865.036	-1330
865.122	-783
865.209	-150
865.295	-1137
865.381	-1496
865.467	-654
865.553	-303
865.639	-155
865.726	-665
865.812	2357
865.898	5734
865.984	9413
866.070	20029
866.156	18205
866.242	2480
866.328	80
866.414	-1401
866.499	-1162
866.585	-937
866.671	-1353
866.757	-1315
866.843	-334
866.928	-1098
867.014	-947
867.100	-1255
867.186	-1197
867.271	-1008
867.357	240
867.442	-1179
867.528	-289
867.614	-1524
867.699	-152
867.785	-982
867.870	-854
867.956	-1013
868.041	17
868.127	-1384
868.212	-1369
868.297	-455
868.383	-1100
868.468	-332
868.553	1640
868.639	1004
868.724	4243
868.809	3656
868.894	-842
868.979	-1062
869.065	-887
869.150	-2806
869.235	-717
869.320	-1339
869.405	-1501
869.490	-1415
869.575	-607
869.660	-770
869.745	-198
869.830	-2086
869.915	-1207
870.000	-1229
870.085	-756
870.169	-1441
870.254	-788
870.339	-990
870.424	-1673
870.509	-509
870.593	-1215
870.678	-1451
870.763	90
870.847	-704
870.932	-1291
871.016	-1079
871.101	-983
871.186	-1615
871.270	-241
871.355	-1591
871.439	-782
871.523	-1084
871.608	-1257
871.692	-1598
871.777	-595
871.861	-1090
871.945	-1732
872.030	-1385
872.114	-827
872.198	-2413
872.282	-1152
872.367	-1464
872.451	-1127
872.535	-2075
872.619	-1443
872.703	-1404
872.787	-1106
872.871	-712
872.955	-971
873.039	-1569
873.123	-1812
873.207	-1119
873.291	-1001
873.375	-1580
873.459	-1388
873.543	-1279
873.627	-1361
873.711	-736
873.794	-916
873.878	-1409
873.962	-1073
874.045	-1386
874.129	-1133
874.137	-1209
874.213	-1976
874.245	-1623
874.296	-1055
874.352	-1178
874.380	-1236
874.460	-936
874.464	-925
874.547	-2260
874.568	-1777
874.631	-342
874.676	-683
874.714	-968
874.784	-677
874.798	-614
874.881	-10
874.892	-162
874.965	-1289
874.999	-1287
875.048	-1233
875.107	-944
875.131	-845
875.215	-756
875.215	-756
875.298	-956
875.323	-1143
875.381	-1577
875.430	-1165
875.465	-863
875.538	-478
875.548	-430
875.631	-1359
875.646	-1418
875.714	-1724
875.753	-1483
875.798	-1206
875.861	-1094
875.881	-1034
875.964	-561
875.968	-617
876.047	-1762
876.076	-1552
876.130	-1118
876.183	-1182
876.213	-1178
876.291	-554
876.296	-520
876.379	-1711
876.398	-1381
876.462	-383
876.506	-908
876.545	-1253
876.613	-520
876.628	-389
876.711	-775
876.721	-743
876.794	-450
876.828	-704
876.877	-1058
876.935	-567
876.960	-382
877.043	-498
877.043	-500
877.125	-754
877.150	-574
877.208	-137
877.258	-661
877.291	-974
877.365	-949
877.374	-968
877.456	-523
877.472	-538
877.539	-516
877.579	-426
877.622	-295
877.687	-780
877.704	-935
877.787	-760
877.794	-771
877.869	-822
877.901	-743
877.952	-658
878.008	-932
878.034	-1039
878.115	-599
878.117	-590
878.199	-1074
878.222	-1077
878.282	-1006
878.329	-916
878.364	-922
878.437	-841
878.447	-803
878.529	-984
878.544	-848
878.611	-260
878.651	-511
878.694	-731
878.758	-445
878.776	-427
878.858	-1015
878.865	-977
878.941	-412
878.972	-535
879.023	-704
879.078	-527
879.105	-375
879.185	-835
879.187	-846
879.269	-629
879.292	-609
879.351	-523
879.399	-709
879.433	-893
879.506	-712
879.516	-674
879.598	-407
879.613	-560
879.680	-1353
879.720	-1090
879.762	-579
879.827	-526
879.844	-589
879.926	-558
879.933	-542
880.007	-76
880.040	-87
880.089	-403
880.147	-197
880.171	10
880.253	833
880.254	835
880.335	1259
880.360	1675
880.417	3160
880.467	5268
880.499	6558
880.574	7685
880.580	7564
880.662	1007
880.680	495
880.744	-129
880.787	-557
880.825	-764
880.893	-641
880.907	-639
880.989	-324
881.000	-357
881.070	-82
881.106	154
881.152	112
881.213	42
881.233	86
881.315	-20
881.319	-11
881.396	-170
881.426	-506
881.478	-733
881.532	-118
881.559	22
881.639	-1318
881.641	-1332
881.722	-222
881.745	-163
881.803	-332
881.852	-371
881.885	-321
881.958	-154
881.966	-152
882.047	-280
882.064	-352
882.129	-266
882.171	106
882.210	352
882.277	666
882.291	688
882.372	365
882.383	236
882.454	-492
882.489	-533
882.535	-578
882.596	-613
882.616	-539
882.697	-258
882.702	-243
882.778	-343
882.808	-388
882.859	-407
882.914	-539
882.940	-595
883.020	-421
883.021	-414
883.102	-305
883.127	-144
883.183	78
883.233	-32
883.264	-310
883.339	-376
883.345	-337
883.426	-417
883.445	-299
883.507	109
883.551	-97
883.587	-482
883.657	-623
883.668	-524
883.749	-182
883.763	-24
883.830	316
883.869	134
883.910	-245
883.975	-607
883.991	-561
884.072	-312
884.081	-309
884.152	-291
884.187	-143
884.233	-185
884.292	-386
884.314	-407
884.394	-575
884.398	-586
884.475	-496
884.504	-435
884.555	-261
884.610	-8
884.636	21
884.716	-197
884.716	-193
884.797	-7
884.821	-67
884.877	-7
884.927	234
884.958	50
885.033	-851
885.038	-837
885.118	-98
885.139	-8
885.199	155
885.244	440
885.279	609
885.350	575
885.359	514
885.439	419
885.456	276
885.520	-215
885.561	-355
885.600	-428
885.667	-669
885.680	-533
885.760	307
885.773	437
885.840	172
885.878	34
885.920	54
885.984	-62
886.000	-152
886.080	-283
886.089	-350
886.160	-335
886.195	-184
886.240	-217
886.300	-302
886.320	-194
886.400	182
886.406	202
886.480	-225
886.511	-413
886.560	136
886.616	699
886.640	503
886.720	-85
886.722	-107
886.800	-96
886.827	37
886.879	-63
886.932	-508
886.959	-399
887.038	263
887.039	271
887.119	291
887.143	361
887.198	547
887.248	627
887.278	565
887.354	270
887.358	268
887.437	183
887.459	182
887.517	427
887.564	484
887.596	477
887.669	643
887.676	617
887.755	136
887.774	-4
887.835	-146
887.880	-263
887.914	-159
887.985	124
887.994	102
888.073	-202
888.090	-267
888.153	358
888.195	770
888.232	418
888.300	-267
888.311	-254
888.391	-199
888.405	-185
888.470	66
888.510	191
888.549	220
888.615	330
888.628	325
888.708	167
888.720	148
888.787	323
888.825	392
888.866	213
888.930	-83
888.945	-67
889.024	47
889.035	58
889.103	318
889.140	433
889.182	24
889.245	-557
889.261	-326
889.340	735
889.349	857
889.419	-113
889.454	-606
889.498	-487
889.559	-314
889.577	-263
889.656	-45
889.664	-23
889.735	318
889.768	477
889.814	571
889.873	692
889.978	-236
890.083	265
890.187	705
890.292	228
890.397	429
890.501	735
890.606	754
890.710	506
890.815	1243
890.919	529
891.024	1187
891.128	711
891.233	661
891.337	147
891.442	149
891.546	205
891.650	-376
891.755	-27
891.859	1706
891.963	-37
892.068	88
892.172	-11
892.276	467
892.380	926
892.484	-131
892.589	578
892.693	306
892.797	58
892.901	276
893.005	-67
893.109	1052
893.213	81
893.317	297
893.421	512
893.525	158
893.629	-68
893.733	430
893.837	84
893.941	323
894.045	442
894.148	35
894.252	787
894.356	-37
894.460	-609
894.564	78
894.667	-156
894.771	-352
894.875	323
894.978	952
895.082	-381
895.186	1180
895.289	301
895.393	564
895.496	489
895.600	-246
895.703	840
895.807	-311
895.910	259
896.014	54
896.117	656
896.221	429
896.324	344
896.427	607
896.531	-64
896.634	513
896.737	706
896.840	431
896.944	121
897.047	869
897.150	365
897.253	-26
897.356	793
897.460	-73
897.563	-215
897.666	-35
897.769	397
897.872	839
897.975	444
898.078	816
898.181	-375
898.284	-364
898.387	283
898.490	554
898.593	-502
898.695	893
898.798	421
898.901	371
899.004	227
899.107	509
899.209	196
899.312	591
899.415	20
899.518	211
899.620	-40
899.723	-12
899.826	793
899.928	1196
900.031	-166
900.133	-18
900.236	-155
900.338	931
900.441	-54
900.543	30
900.646	69
900.748	75
900.851	582
900.953	544
901.055	-413
901.158	-679
901.260	-64
901.362	210
901.465	-459
901.567	280
901.669	793
901.771	-389
901.873	571
901.976	154
902.078	-474
902.180	248
902.282	-190
902.384	-343
902.486	213
902.588	775
902.690	464
902.792	1171
902.894	-68
902.996	559
903.098	740
903.200	507
903.302	216
903.404	529
903.505	-226
903.607	381
903.709	154
903.811	52
903.913	-961
904.014	126
904.116	153
904.218	455
904.319	429
904.421	213
904.523	32
904.624	1337
904.726	-595
904.827	21
904.929	-221
905.030	510
905.132	251
905.233	-881
905.335	1
905.436	793
905.537	-583
905.639	-311
905.740	-311
905.841	433
905.943	719
906.044	86
906.145	-314
906.247	68
906.348	-611
906.449	48
906.550	165
906.651	422
906.752	763
906.854	-324
906.955	-748
907.056	141
907.157	-8
907.258	-355
907.359	-374
907.460	916
907.561	605
907.662	72
907.762	114
907.863	326
907.964	102
908.065	390
908.166	202
908.267	-539
908.367	-113
908.468	-279
908.569	-521
908.670	1120
908.770	-31
908.871	185
908.971	703
909.072	-291
909.173	664
909.273	432
909.374	-322
909.474	581
909.575	461
909.675	-38
909.776	436
909.876	-4
909.977	172
910.077	175
910.177	378
910.278	382
910.378	-260
910.478	41
910.579	577
910.679	725
910.779	232
910.879	673
910.980	224
911.080	288
911.180	-615
911.280	-616
911.380	213
911.480	-197
911.580	385
911.680	245
911.780	277
911.880	656
911.980	163
912.080	187
912.180	886
912.280	-425
912.380	-606
912.480	176
912.580	-555
912.679	197
912.779	-121
912.879	213
912.979	305
913.078	-600
913.178	245
913.278	14
913.377	388
913.477	418
913.577	-185
913.676	930
913.776	-565
913.875	590
913.975	288
914.074	-435
914.174	-134
914.273	-368
914.373	58
914.472	332
914.572	-107
914.671	44
914.770	-402
914.870	123
914.969	-273
915.068	394
915.167	-18
915.267	115
915.366	-150
915.465	505
915.564	356
915.663	711
915.763	-69
915.862	74
915.961	-45
916.060	-409
916.159	406
916.258	-364
916.357	390
916.456	-242
916.555	-597
916.654	702
916.752	-193
916.851	-494
916.950	-272
917.049	244
917.148	-75
917.247	30
917.345	-547
917.444	244
917.543	-514
917.642	-353
917.740	-325
917.839	497
917.937	-286
918.036	624
918.135	426
918.233	316
918.332	134
918.430	-231
918.529	533
918.627	606
918.726	-41
918.824	350
918.923	199
919.021	73
919.119	-846
919.218	-619
919.316	63
919.414	114
919.512	-699
919.611	-285
919.709	282
919.807	150
919.905	-95
920.003	743
920.102	-453
920.200	-261
920.298	459
920.396	32
920.494	-110
920.592	-253
920.690	-155
920.788	-546
920.886	0
920.984	521
921.082	-821
921.180	800
921.277	4
921.375	240
921.473	72
921.571	550
921.669	222
921.766	-268
921.864	182
921.962	543
922.060	-44
922.157	-55
922.255	-529
922.352	60
922.450	154
922.548	-101
922.645	241
922.743	432
922.840	241
922.938	682
923.035	-21
923.133	252
923.230	133
923.327	660
923.425	895
923.522	1025
923.619	414
923.717	280
923.814	384
923.911	740
924.008	398
924.106	205
924.203	-792
924.300	-37
924.397	-32
924.494	358
924.591	547
924.688	458
924.786	613
924.883	1136
924.979	512
925.077	949
925.173	127
925.270	981
925.367	469
925.464	585
925.561	495
925.658	520
925.755	910
925.852	1429
925.948	867
926.045	402
926.142	-158
926.239	-95
926.335	8
926.432	819
926.529	239
926.625	1092
926.722	276
926.818	414
926.915	323
927.011	423
927.108	152
927.204	100
927.301	555
927.397	-13
927.494	-148
927.590	884
927.687	-102
927.783	1107
927.879	323
927.976	-580
928.072	389
928.168	512
928.264	-91
928.361	622
928.457	-308
928.553	-33
928.649	-266
928.745	-88
928.841	321
928.937	387
929.033	-369
929.129	-125
929.225	-514
929.321	-139
929.417	-548
929.513	-173
929.609	226
929.705	495
929.801	-193
929.897	427
929.993	141
930.089	802
930.184	120
930.280	-119
930.376	-437
930.471	227
930.567	430
930.663	100
930.758	206
930.854	292
930.950	-68
931.045	449
931.141	-115
931.236	2
931.332	-137
931.427	682
931.523	445
931.618	-359
931.714	41
931.809	457
931.905	520
932.000	-73
932.095	-96
932.191	-3
932.286	201
932.381	170
932.476	-271
932.572	15
932.667	251
932.762	-317
932.857	431
932.952	26
933.047	-246
933.142	-245
933.237	-819
933.332	482
933.427	74
933.522	75
933.617	-699
933.712	990
933.807	-105
933.902	60
933.997	655
934.092	-250
934.187	99
934.282	-137
934.376	110
934.471	188
934.566	-100
934.661	1168
934.755	127
934.850	-528
934.945	488
935.039	-69
935.134	-473
935.228	316
935.323	-685
935.417	428
935.512	-155
935.606	-136
935.701	-221
935.795	1096
935.890	-144
935.984	281
936.079	-643
936.173	117
936.267	823
936.362	14
936.456	394
936.550	-465
936.644	-343
936.738	-462
936.833	219
936.927	278
937.021	-318
937.115	360
937.209	-705
937.303	270
937.397	-418
937.491	215
937.585	-87
937.679	-345
937.773	-559
937.867	-255
937.961	-528
938.055	-10
938.149	381
938.243	-1
938.337	54
938.430	-733
938.524	119
938.618	6
938.712	-423
938.805	174
938.899	-892
938.993	-487
939.086	-384
939.180	9
939.274	-157
939.367	618
939.461	102
939.554	-606
939.648	-299
939.741	593
939.835	338
939.928	166
940.022	217
940.115	-63
940.208	476
940.302	505
940.395	-468
940.488	-1532
940.582	-458
940.675	294
940.768	-102
940.861	355
940.954	-214
941.048	-16
941.141	-568
941.234	-367
941.327	568
941.420	1252
941.513	269
941.606	-93
941.699	347
941.792	-953
941.885	-450
941.978	-229
942.071	-202
942.164	-1067
942.257	-390
942.349	-222
942.442	127
942.535	-486
942.628	-1053
942.721	-570
942.813	-1384
942.906	-387
942.999	-602
943.091	-498
943.184	-503
943.277	-843
943.369	118
943.462	-706
943.554	-1208
943.647	-501
943.739	-409
943.832	-432
943.924	-979
944.017	326
944.109	-1017
944.201	-105
944.294	-689
944.386	-592
944.478	-524
944.571	360
944.663	-945
944.755	-755
944.847	-390
944.940	72
945.032	-1380
945.124	356
945.216	1422
945.308	-469
945.400	-158
945.492	-159
945.584	-1121
945.676	-427
945.768	149
945.860	-394
945.952	-952
946.044	367
946.136	-641
946.228	296
946.320	-1107
946.412	-1243
946.503	-751
946.595	815
946.687	-365
946.779	-895
946.870	-908
946.962	-459
947.054	149
947.145	-570
947.237	-776
947.329	617
947.420	-694
947.512	-725
947.603	-1218
947.695	-367
947.786	-518
947.878	-739
947.969	-993
948.061	-754
948.152	-1347
948.243	-358
948.335	-966
948.426	-1414
948.517	-703
948.609	-274
948.700	-1478
948.791	-418
948.882	-145
948.973	-512
949.065	-892
949.156	-454
949.247	-1183
949.338	-170
949.429	-1002
949.520	-719
949.611	-1341
949.702	157
949.793	-61
949.884	-1135
949.975	-944
950.066	14
950.157	-104
950.247	-495
950.338	42
950.429	-561
950.520	-581
950.611	126
950.701	-766
950.792	-267
950.883	-267
950.973	-514
951.064	152
951.155	-555
951.245	-69
951.336	610
951.427	-874
951.517	-268
951.608	-41
951.698	-1423
951.788	-414
951.879	-100
951.969	-943
952.060	-581
952.150	-855
952.240	799
952.331	-1472
952.421	651
952.511	-1366
952.602	-680
952.692	-1477
952.782	-26
952.872	-879
952.962	-866
953.052	-673
953.143	-718
953.233	-545
953.323	-730
953.413	-741
953.503	-25
953.593	-417
953.683	-961
953.773	-2246
953.863	-819
953.953	-768
954.042	-1155
954.132	-1243
954.222	438
954.312	-1207
954.402	-708
954.492	-1113
954.581	266
954.671	-1396
954.761	-1256
954.850	435
954.940	-801
955.030	-1051
955.119	-1223
955.209	-881
955.298	-297
955.388	-833
955.477	-206
955.567	-1781
955.656	194
955.746	-733
955.835	-1016
955.925	-713
956.014	-689
956.103	-1212
956.193	-726
956.282	-1002
956.371	-639
956.461	-25
956.550	-711
956.639	-356
956.728	-993
956.817	-59
956.906	-143
956.995	-825
957.085	-274
957.174	382
957.263	-1024
957.352	-74
957.441	-523
957.530	-700
957.619	-733
957.708	-999
957.796	-951
957.885	-915
957.974	-856
958.063	-656
958.152	-1861
958.241	-353
958.329	-523
958.418	-459
958.507	-775
958.596	565
958.684	-1758
958.773	-252
958.861	-1063
958.950	-906
959.039	-593
959.127	-725
959.216	-461
959.304	-994
959.393	-1077
959.481	-628
959.570	-841
959.658	-1304
959.746	-305
959.835	-688
959.923	-551
960.011	-1029
960.100	-316
960.188	-701
960.276	-835
960.365	-1668
960.453	-684
960.541	-1142
960.629	-963
960.717	-523
960.805	-1138
960.893	-492
960.981	-1495
961.069	-634
961.158	-983
961.245	-193
961.333	-1140
961.421	-1431
961.509	-757
961.597	-1093
961.685	-637
961.773	-773
961.861	-1903
961.949	-312
962.036	-1824
962.124	-208
962.212	-558
962.299	-1254
962.387	-1499
962.475	-697
962.562	-1677
962.650	-295
962.738	-676
962.825	-1369
962.913	162
963.000	-1296
963.088	-323
963.175	-2072
963.263	-1484
963.350	-1318
963.438	-1250
963.525	-1201
963.612	412
963.700	-688
963.787	1598
963.874	-1299
963.962	-259
964.049	-1003
964.136	-1260
964.223	-1364
964.310	-1021
964.398	-577
964.485	-1017
964.572	-218
964.659	-727
964.746	-672
964.833	-811
964.920	-664
965.007	-888
965.094	-1372
965.181	-650
965.268	-965
965.355	-1808
965.441	-1101
965.528	-1988
965.615	-208
965.702	-1165
965.789	-2231
965.875	-857
965.962	-883
966.049	-995
966.136	-659
966.222	-1472
966.309	-1089
966.395	-815
966.482	-1123
966.569	-2144
966.655	-1097
966.742	-671
966.828	-1255
966.915	-1134
967.001	-1141
967.087	-1566
967.174	-1037
967.260	-874
967.347	-1271
967.433	-769
967.519	410
967.605	-786
967.692	-1291
967.778	-1133
967.864	-1228
967.950	-1160
968.036	-1394
968.123	-1337
968.209	-1528
968.295	-1654
968.381	-189
968.467	-1035
968.553	-1978
968.639	-1404
968.725	-1823
968.811	-923
968.897	-496
968.983	-931
969.069	-1409
969.154	51
969.240	-281
969.326	-2360
969.412	-1938
969.497	-1227
969.583	-2042
969.669	-273
969.755	-1042
969.840	-2055
969.926	-1457
970.012	-1661
970.097	-492
970.183	-1420
970.268	-1838
970.354	-511
970.439	-2004
970.525	-99
970.610	-2252
970.696	-97
970.781	-1086
970.866	-2502
970.952	-1178
971.037	-1857
971.122	-1142
971.208	-269
971.293	-907
971.378	-1312
971.463	-1524
971.549	-1029
971.634	-543
971.719	-739
971.804	-1752
971.889	-715
971.974	-2471
972.059	-1427
972.144	-1651
972.229	-1315
972.314	-1740
972.399	-711
972.484	-1773
972.569	-175
972.654	-2753
972.739	-690
972.824	-641
972.908	-1551
972.993	-1856
973.078	-1339
973.163	-820
973.247	-1132
973.332	-1701
973.417	-270
973.501	-1987
973.586	-1051
973.671	-929
973.755	-1756
973.840	-1358
973.924	-1441
974.009	-1308
974.093	-2108
974.178	-553
974.262	-942
974.346	-2184
974.431	-1267
974.515	-1992
974.600	-1469
974.684	-1274
974.768	-1974
974.852	-854
974.937	-2068
975.021	-941
975.105	-1740
975.189	-2494
975.273	-744
975.358	-2223
975.442	-1772
975.526	-1663
975.610	-2169
975.694	-2191
975.778	-926
975.862	-1412
975.946	-2482
976.030	-436
976.114	-1186
976.198	-1070
976.281	-1564
976.365	-888
976.449	-1639
976.533	-1279
976.617	-1458
976.700	-1349
976.784	-924
976.868	-2189
976.951	-1398
977.035	-1788
977.119	-1663
977.202	-1413
977.286	-1486
977.369	-1141
977.453	-1212
977.536	-1575
977.620	-981
977.703	-875
977.787	-1799
977.870	-404
977.953	-794
978.037	-2786
978.120	-610
978.203	-1996
978.287	-1739
978.370	-1123
978.453	-1028
978.536	-1570
978.620	-1003
978.703	-1613
978.786	-1089
978.869	-2154
978.952	-2882
979.035	-335
979.118	-408
979.201	-1570
979.284	-1027
979.367	-1755
979.450	-1500
979.533	-1905
979.616	-1522
979.699	-1097
979.782	-945
979.865	-1443
979.948	-1806
980.030	-1808
980.113	-1381
980.196	-2543
980.279	-1166
980.361	-2083
980.444	-1850
980.526	-1401
980.609	-1389
980.692	-2129
980.774	-1143
980.857	-3258
980.939	-1132
981.022	-1958
981.104	-1792
981.187	-1943
981.269	-1660
981.352	-1662
981.434	-2781
981.516	-2627
981.599	-338
981.681	-1479
981.763	-1045
981.846	-2055
981.928	-1444
982.010	-2107
982.092	-2372
982.174	-1102
982.256	-1379
982.339	-2387
982.421	-1746
982.503	-1979
982.585	-1896
982.667	-1763
982.749	-1831
982.831	-1749
982.913	-2532
982.995	-933
983.077	-2122
983.158	-416
983.240	-2048
983.322	-1755
983.404	-1828
983.486	-2140
983.568	-1618
983.649	-1971
983.731	-1691
983.813	-2180
983.894	-1513
983.976	-2330
984.058	-1802
984.139	-1449
984.221	-2894
984.302	-710
984.384	-2083
984.465	-2637
984.547	-1922
984.628	-1965
984.710	-1347
984.791	-1070
984.872	-1535
984.954	-2200
985.035	-1153
985.116	-1675
985.198	-2032
985.279	-456
985.360	-2421
985.441	-2301
985.522	-1073
985.604	-2196
985.685	-3302
985.766	-1215
985.847	-572
985.928	-1928
986.009	-2154
986.090	-1620
986.171	-1526
986.252	-2129
986.333	-2080
986.414	-2184
986.495	-1310
986.576	-2822
986.656	-2016
986.737	-1797
986.818	-1685
986.899	-2028
986.980	-1602
987.060	-1053
987.141	-1468
987.222	-1259
987.302	-2035
987.383	-1603
987.464	-1941
987.544	-1840
987.625	-1662
987.705	-980
987.786	-1605
987.866	-1938
987.947	-1948
988.027	-2019
988.108	-1970
988.188	-1758
988.268	-1229
988.349	-1644
988.429	-1862
988.509	-1591
988.589	-1353
988.670	-3256
988.750	-493
988.830	-2706
988.910	-1304
988.990	-1845
989.070	-1934
989.151	-1603
989.231	-1742
989.311	-1923
989.391	-2803
989.471	-1901
989.551	-2557
989.631	-2382
989.711	-1258
989.791	-2782
989.870	-1816
989.950	-724
990.030	-2346
990.110	-2028
990.190	-2640
990.269	-1744
990.349	-2077
990.429	-1208
990.509	-1320
990.588	-1829
990.668	-1412
990.747	-1644
990.827	-1532
990.907	-1555
990.986	-1377
991.066	-1757
991.145	-2050
991.225	-1059
991.304	-2278
991.383	-2263
991.463	-1829
991.542	-1303
991.622	-2182
991.701	-2334
991.780	-1752
991.859	-1962
991.939	-1840
992.018	-1592
992.097	-2649
992.176	-1314
992.256	-2296
992.335	-2632
992.414	-1912
992.493	-1960
992.572	-1853
992.651	-1369
992.730	-1959
992.809	-1569
992.888	-1991
992.967	-2164
993.046	-1875
993.125	-2647
993.203	-1988
993.282	-1981
993.361	-1823
993.440	-1735
993.519	-3059
993.597	-1576
993.676	-2320
993.755	-2078
993.834	-1723
993.912	-2580
993.991	-892
994.069	-1529
994.148	-2298
994.226	-1866
994.305	-1561
994.384	-2199
994.462	-815
994.540	-2584
994.619	-2398
994.697	-1829
994.776	-1762
994.854	-1640
994.932	-2126
995.011	-1650
995.089	-2424
995.167	-2255
995.245	-1698
995.324	-2523
995.402	-1153
995.480	-1929
995.558	-1743
995.636	-2754
995.714	-2146
995.792	-1384
995.870	-2124
995.948	-2624
996.026	-1290
996.104	-2353
996.182	-1097
996.260	-2901
996.338	-1853
996.416	-3024
996.494	-2480
996.572	-924
996.649	-2495
996.727	-2454
996.805	-2776
996.883	-2397
996.960	-2166
997.038	-1849
997.116	-1240
997.193	-2191
997.271	-1374
997.348	-1233
997.426	-1907
997.504	-2269
997.581	-1770
997.658	-1062
997.736	-1886
997.813	-2123
997.891	-1049
997.968	-2441
998.046	-1672
998.123	-2309
998.200	-1863
998.277	-2821
998.355	-487
998.432	-3262
998.509	-1508
998.586	-1350
998.663	-2284
998.741	-1129
998.818	-2813
998.895	-2479
998.972	-2351
999.049	-2391
999.126	-1562
999.203	-1475
999.280	-2225
999.357	-2287
999.434	-1679
999.511	-2013
999.587	-351
999.664	-2141
999.741	-1505
999.818	-1652
999.895	-2074
999.971	-2511
1000.048	-1730
1000.125	-2481
1000.202	-2227
1000.278	-1451
1000.355	-1576
1000.431	-2783
1000.508	-2769
1000.584	-1263
1000.661	-1742
1000.738	-2480
1000.814	-2105
1000.890	-2228
1000.967	-2186
1001.043	-2013
1001.120	-2768
1001.196	-1684
1001.272	-2524
1001.349	-1956
1001.425	-1076
1001.501	-2265
1001.577	-2865
1001.654	-1462
1001.730	-2166
1001.806	-1661
1001.882	-2754
1001.958	-1571
1002.034	-2301
1002.110	-1304
1002.186	-2778
1002.262	-1775
1002.338	-2123
1002.414	-1871
1002.490	-1444
1002.566	-2340
1002.642	-2442
1002.718	-1584
1002.794	-1852
1002.870	-2640
1002.945	-2037
1003.021	-1708
1003.097	-1802
1003.173	-2009
1003.248	-2165
1003.324	-1976
1003.400	-1607
1003.475	-1964
1003.551	-1936
1003.626	-2081
1003.702	-2024
1003.777	-2178
1003.853	-1747
1003.928	-3100
1004.004	-1883
1004.079	-1427
1004.155	-2455
1004.230	-3345
1004.305	-1661
1004.381	-3032
1004.456	-2500
1004.531	-1886
1004.607	-1985
1004.682	-3206
1004.757	-1154
1004.832	-2572
1004.907	-2113
1004.982	-1712
1005.057	-1772
1005.133	-2289
1005.208	-2234
1005.283	-2050
1005.358	-1472
1005.433	-2290
1005.508	-928
1005.583	-2466
1005.657	-2037
1005.732	-2174
1005.807	-1625
1005.882	-2170
1005.957	-2584
1006.032	-2033
1006.106	-1555
1006.181	-1865
1006.256	-1763
1006.331	-2716
1006.405	-2756
1006.480	-2081
1006.554	-1827
1006.629	-1360
1006.704	-2412
1006.778	-2166
1006.853	-1616
1006.927	-1920
1007.002	-2801
1007.076	-2190
1007.150	-2114
1007.225	-2066
1007.299	-2291
1007.373	-2970
1007.448	-1495
1007.522	-1805
1007.596	-1072
1007.671	-3092
1007.745	-2097
1007.819	-2357
1007.893	-2744
1007.967	-1413
1008.041	-2835
1008.115	-2644
1008.190	-2385
1008.264	-1414
1008.338	-2419
1008.412	-1933
1008.486	-2264
1008.560	-1776
1008.633	-2717
1008.707	-2098
1008.781	-1216
1008.855	-2911
1008.929	-2251
1009.003	-3024
1009.076	-2617
1009.150	-2244
1009.224	-2098
1009.298	-1343
1009.371	-1984
1009.445	-1167
1009.519	-1956
1009.592	-3186
1009.666	-1774
1009.739	-1472
1009.813	-2412
1009.886	-2289
1009.960	-2321
1010.033	-1406
1010.107	-902
1010.180	-2771
1010.253	-918
1010.327	-2022
1010.400	-1740
1010.473	-1938
1010.547	-423
1010.620	-1932
1010.693	-1608
1010.766	-2929
1010.840	-2118
1010.913	-2154
1010.986	-2694
1011.059	-1971
1011.132	-2445
1011.205	-1896
1011.278	-2129
1011.351	-2200
1011.424	-1756
1011.497	-2471
1011.570	-2015
1011.643	-1662
1011.716	-1925
1011.789	-1728
1011.862	-2514
1011.934	-1304
1012.007	-3233
1012.080	-2676
1012.153	-2071
1012.225	-2016
1012.298	-3138
1012.371	-2686
1012.443	-2158
1012.516	-3048
1012.588	-1701
1012.661	-2107
1012.733	-2145
1012.806	-628
1012.879	-2594
1012.951	-2149
1013.023	-2836
1013.096	-2136
1013.168	-2035
1013.241	-1148
1013.313	-2658
1013.385	-1715
1013.458	-1202
1013.530	-1611
1013.602	-1841
1013.674	-1094
1013.746	-2003
1013.819	-2449
1013.891	-1952
1013.963	-2407
1014.035	-1930
1014.107	-2682
1014.179	-1551
1014.251	-2083
1014.323	-2211
1014.395	-1949
1014.467	-865
1014.539	-2338
1014.611	-3224
1014.683	-1750
1014.754	-2554
1014.826	-2978
1014.898	-1942
1014.970	-2572
1015.042	-1672
1015.113	-3287
1015.185	-2120
1015.257	-2422
1015.328	-1900
1015.400	-2550
1015.471	-1706
1015.543	-2876
1015.615	-2147
1015.686	-2898
1015.757	-2196
1015.829	-1739
1015.901	-2149
1015.972	-2244
1016.043	-2638
1016.115	-2221
1016.186	-1945
1016.257	-2261
1016.328	-1494
1016.400	-1718
1016.471	-2390
1016.542	-1822
1016.613	-2348
1016.685	-2083
1016.756	-2366
1016.827	-1964
1016.898	-2543
1016.969	-1874
1017.040	-2110
1017.111	-2392
1017.182	-2137
1017.253	-1530
1017.324	-2346
1017.395	-2580
1017.466	-1573
1017.537	-2596
1017.608	-2581
1017.678	-2124
1017.749	-2505
1017.820	-2059
1017.891	-1967
1017.961	-2775
1018.032	-2265
1018.103	-2460
1018.173	-2604
1018.244	-2341
1018.315	-2244
1018.385	-2022
1018.456	-2422
1018.526	-3342
1018.597	-1774
1018.667	-2113
1018.738	-1855
1018.808	-2898
1018.878	-1650
1018.949	-2325
1019.019	-2981
1019.089	-1614
1019.160	-2025
1019.230	-2771
1019.300	-2007
1019.371	-2834
1019.441	-1861
1019.511	-1740
1019.581	-2728
1019.651	-3053
1019.721	-2963
1019.791	-2616
1019.861	-2344
1019.931	-2784
1020.001	-2575
1020.071	-2250
1020.141	-2760
1020.211	-2639
1020.281	-2999
1020.351	-3236
1020.421	-1761
1020.491	-2290
1020.560	-2479
1020.630	-2458
1020.700	-2764
1020.770	-2424
1020.839	-2757
1020.909	-3003
1020.979	-2448
1021.048	-2443
1021.118	-2374
1021.187	-2716
1021.257	-2541
1021.326	-2268
1021.396	-1707
1021.465	-2297
1021.535	-1791
1021.604	-2652
1021.674	-2030
1021.743	-2822
1021.812	-2657
1021.882	-2392
1021.951	-2790
1022.020	-2931
1022.089	-1723
1022.159	-3069
1022.228	-1974
1022.297	-2831
1022.366	-2309
1022.435	-2283
1022.504	-2970
1022.573	-3184
1022.642	-2631
1022.711	-3138
1022.781	-3438
1022.849	-1900
1022.918	-2147
1022.987	-2876
1023.056	-2653
1023.125	-2667
1023.194	-2215
1023.263	-2853
1023.331	-2589
1023.400	-3018
1023.469	-2810
1023.538	-1886
1023.606	-2779
1023.675	-2545
1023.744	-2269
1023.812	-3542
1023.881	-2616
1023.949	-1885
1024.018	-2197
1024.086	-3177
1024.155	-2966
1024.223	-2296
1024.292	-2672
1024.360	-2595
1024.429	-3007
1024.497	-2494
1024.565	-1983
1024.634	-3384
1024.702	-1933
1024.770	-1978
1024.838	-2634
1024.907	-2305
1024.975	-2817
1025.043	-2349
1025.111	-2723
1025.179	-2167
1025.247	-3101
1025.315	-2953
1025.383	-1581
1025.451	-2140
1025.519	-2795
1025.587	-3089
1025.655	-2393
1025.723	-3385
1025.791	-2189
1025.859	-1893
1025.927	-1811
1025.995	-2900
1026.062	-2722
1026.130	-2971
1026.198	-2801
1026.266	-3333
1026.333	-2574
1026.401	-2176
1026.469	-2465
1026.536	-3289
1026.604	-1806
1026.671	-3538
1026.739	-1986
1026.806	-2278
1026.874	-2786
1026.941	-3057
1027.009	-2532
1027.076	-2614
1027.144	-2019
1027.211	-2786
1027.278	-2938
1027.345	-2066
1027.413	-2036
1027.480	-3177
1027.547	-2409
1027.614	-2498
1027.682	-2073
1027.749	-2613
1027.816	-2591
1027.883	-2399
1027.950	-2508
1028.017	-3085
1028.084	-3006
1028.151	-3139
1028.218	-2301
1028.285	-2406
1028.352	-2620
1028.419	-2861
1028.486	-2612
1028.553	-2934
1028.619	-2134
1028.686	-2840
1028.753	-2254
1028.820	-2645
1028.886	-2096
1028.953	-2301
1029.020	-2301
1029.086	-2712
1029.153	-2580
1029.220	-1948
1029.286	-2415
1029.353	-2222
1029.419	-1923
1029.486	-2650
1029.552	-3283
1029.619	-3503
1029.685	-2630
1029.751	-2026
1029.818	-2289
1029.884	-2750
1029.951	-1450
1030.017	-3280
1030.083	-2877
1030.149	-3076
1030.216	-2540
1030.282	-2857
1030.348	-2660
1030.414	-2877
1030.480	-2406
1030.546	-3076
1030.612	-2149
1030.678	-3221
1030.744	-2783
1030.810	-2004
1030.876	-2939
1030.942	-2891
1031.008	-2799
1031.074	-3294
1031.140	-2722
1031.206	-2043
1031.272	-3386
1031.337	-2362
1031.403	-2062
1031.469	-2873
1031.534	-2533
1031.600	-2510
1031.666	-2884
1031.731	-2524
1031.797	-2116
1031.863	-2857
1031.928	-2501
1031.994	-2862
1032.059	-2884
1032.125	-2263
1032.190	-2683
1032.256	-3227
1032.321	-2840
1032.386	-2802
1032.452	-1355
1032.517	-3067
1032.582	-2327
1032.647	-3354
1032.713	-2288
1032.778	-2806
1032.843	-2643
1032.908	-2517
1032.974	-1929
1033.039	-3092
1033.104	-2027
1033.169	-2655
1033.234	-3268
1033.299	-1993
1033.364	-2525
1033.429	-2362
1033.494	-2931
1033.559	-2930
1033.624	-2321
1033.688	-2259
1033.753	-2451
1033.818	-2885
1033.883	-2940
1033.948	-2329
1034.013	-2867
1034.077	-1969
1034.142	-2165
1034.207	-2041
1034.271	-1903
1034.336	-2101
1034.400	-2319
1034.465	-2191
1034.530	-3022
1034.594	-2292
1034.658	-2712
1034.723	-2618
1034.787	-2838
1034.852	-2024
1034.916	-2830
1034.981	-3299
1035.045	-3297
1035.109	-2624
1035.173	-2393
1035.238	-2334
1035.302	-2389
1035.366	-2624
1035.430	-2434
1035.495	-2943
1035.559	-1200
1035.623	-2656
1035.687	-2630
1035.751	-2480
1035.815	-2362
1035.879	-2580
1035.943	-2165
1036.007	-4015
1036.071	-1513
1036.135	-2246
1036.198	-2748
1036.262	-2728
1036.326	-1728
1036.390	-2651
1036.454	-2421
1036.517	-2102
1036.581	-2640
1036.645	-1951
1036.709	-2039
1036.772	-2673
1036.836	-2812
1036.900	-3156
1036.963	-2320
1037.026	-2914
1037.090	-2679
1037.154	-2280
1037.217	-2284
1037.280	-3032
1037.344	-2611
1037.407	-2675
1037.471	-2407
1037.534	-3107
1037.597	-2697
1037.661	-2273
1037.724	-2838
1037.787	-2507
1037.850	-1907
1037.913	-2756
1037.977	-2447
1038.040	-2928
1038.103	-2741
1038.166	-3069
1038.229	-2197
1038.292	-3249
1038.355	-2241
1038.418	-1912
1038.481	-2361
1038.544	-2654
1038.607	-3016
1038.670	-2969
1038.732	-2803
1038.795	-2603
1038.858	-2641
1038.921	-2026
1038.984	-1738
1039.046	-2912
1039.109	-2811
1039.172	-2366
1039.234	-3118
1039.297	-2716
1039.360	-1804
1039.422	-2949
1039.485	-2743
1039.547	-3348
1039.610	-2471
1039.672	-2804
1039.734	-3342
1039.797	-2585
1039.859	-2620
1039.922	-2951
1039.984	-1896
1040.046	-2594
1040.109	-2593
1040.171	-2567
1040.233	-2432
1040.295	-3313
1040.358	-2503
1040.420	-2997
1040.482	-2441
1040.544	-2806
1040.606	-2220
1040.668	-3351
1040.730	-2422
1040.792	-2709
1040.854	-2903
1040.916	-2952
1040.978	-2650
1041.040	-1779
1041.102	-2560
1041.164	-3060
1041.225	-2106
1041.287	-2837
1041.349	-2923
1041.411	-2284
1041.472	-2678
1041.534	-2685
1041.596	-3196
1041.657	-1618
1041.719	-2888
1041.781	-2683
1041.842	-2782
1041.904	-2745
1041.965	-2935
1042.027	-3370
1042.088	-2274
1042.150	-2815
1042.211	-2516
1042.272	-2436
1042.334	-2073
1042.395	-2912
1042.456	-2716
1042.518	-2272
1042.579	-1907
1042.640	-2391
1042.701	-2981
1042.763	-2492
1042.824	-3013
1042.885	-2612
1042.946	-2230
1043.007	-3500
1043.068	-2355
1043.129	-2861
1043.190	-2070
1043.251	-2293
1043.312	-2910
1043.373	-2462
1043.434	-1823
1043.495	-3044
1043.556	-1966
1043.616	-2530
1043.677	-2314
1043.738	-1922
1043.799	-1738
1043.859	-3247
1043.920	-2055
1043.981	-2919
1044.041	-2159
1044.102	-2773
1044.162	-2128
1044.223	-3145
1044.284	-2614
1044.344	-2541
1044.405	-2219
1044.465	-1889
1044.525	-2408
1044.586	-2602
1044.646	-2893
1044.707	-2734
1044.767	-2286
1044.827	-2384
1044.887	-2176
1044.948	-2289
1045.008	-1988
1045.068	-2370
1045.128	-1578
1045.188	-3295
1045.249	-1253
1045.309	-2175
1045.369	-2370
1045.429	-2000
1045.489	-2075
1045.549	-3030
1045.609	-2087
1045.669	-2233
1045.729	-2346
1045.789	-1851
1045.848	-2227
1045.908	-2537
1045.968	-1646
1046.028	-2020
1046.088	-2488
1046.147	-2151
1046.207	-2590
1046.267	-2123
1046.326	-1840
1046.386	-1968
1046.446	-1307
1046.505	-2045
1046.565	-1481
1046.624	-1465
1046.684	-891
1046.743	-1461
1046.803	-386
1046.862	-1380
1046.922	0
