'Start Wavelength	183.907
'End Wavelength	1046.922
'Gate Delay	5.000
'Gate Width (ms)	1.050
'Laser Output Level	0.000
'X Position	0.000
'Y Position	0.000
'Z Position	0.000
'Grid Point Number	1.000
'Shot Number	100.000
183.907	942.000
183.977	85.000
184.047	251
184.116	-180
184.186	-103
184.256	335
184.325	267
184.395	-395
184.465	873
184.534	768
184.604	-141
184.674	216
184.743	-721
184.813	1563
184.883	481
184.952	-215
185.022	211
185.092	698
185.161	402
185.231	511
185.301	-408
185.370	-145
185.440	-1004
185.509	509
185.579	66
185.649	834
185.718	10
185.788	1172
185.857	475
185.927	528
185.996	-100
186.066	241
186.136	-236
186.205	77
186.275	77
186.344	54
186.414	147
186.483	498
186.553	1048
186.622	925
186.692	143
186.761	244
186.831	508
186.900	513
186.970	139
187.039	495
187.109	969
187.178	442
187.248	347
187.317	1044
187.387	119
187.456	346
187.526	152
187.595	768
187.664	-234
187.734	-155
187.803	-42
187.873	748
187.942	-82
188.012	53
188.081	518
188.150	290
188.220	1203
188.289	854
188.358	447
188.428	688
188.497	-975
188.567	1211
188.636	196
188.705	-45
188.775	-90
188.844	-389
188.913	525
188.983	325
189.052	534
189.121	-227
189.191	104
189.260	221
189.329	522
189.399	-480
189.468	-221
189.537	3
189.606	854
189.676	-4
189.745	86
189.814	450
189.883	97
189.953	-301
190.022	615
190.091	692
190.161	664
190.230	312
190.299	837
190.368	611
190.437	-58
190.507	-371
190.576	59
190.645	642
190.714	157
190.783	-349
190.853	357
190.922	844
190.991	504
191.060	661
191.129	-116
191.198	419
191.268	-707
191.337	196
191.406	261
191.475	387
191.544	-131
191.613	447
191.682	-581
191.752	101
191.821	-191
191.890	-47
191.959	542
192.028	448
192.097	754
192.166	876
192.235	-794
192.304	598
192.373	197
192.442	35
192.511	269
192.580	30
192.650	-340
192.719	-117
192.788	164
192.857	1096
192.926	458
192.995	330
193.064	211
193.133	972
193.202	56
193.271	1238
193.340	166
193.409	1090
193.478	499
193.547	-259
193.615	619
193.684	558
193.753	422
193.822	1012
193.891	811
193.960	463
194.029	365
194.098	409
194.167	-499
194.236	712
194.305	618
194.374	410
194.443	21
194.512	670
194.580	-533
194.649	242
194.718	-92
194.787	115
194.856	846
194.925	776
194.994	243
195.062	881
195.131	541
195.200	35
195.269	989
195.338	963
195.407	521
195.475	349
195.544	441
195.613	290
195.682	202
195.751	541
195.819	417
195.888	51
195.957	1343
196.026	284
196.094	901
196.163	-205
196.232	68
196.301	304
196.369	124
196.438	378
196.507	620
196.576	307
196.644	541
196.713	402
196.782	312
196.850	754
196.919	-6
196.988	452
197.056	-28
197.125	-93
197.194	1227
197.262	26
197.331	141
197.400	271
197.468	190
197.537	247
197.606	-226
197.674	386
197.743	836
197.812	783
197.880	781
197.949	840
198.017	1114
198.086	627
198.155	187
198.223	614
198.292	21
198.360	627
198.429	-76
198.497	626
198.566	174
198.635	329
198.703	713
198.772	1208
198.840	716
198.909	1582
198.977	612
199.046	-176
199.114	223
199.183	358
199.251	-135
199.320	303
199.388	-347
199.457	258
199.525	107
199.594	450
199.662	457
199.731	976
199.799	-74
199.867	572
199.936	-232
200.004	509
200.073	513
200.141	-237
200.210	301
200.278	318
200.346	505
200.415	535
200.483	480
200.552	634
200.620	507
200.688	282
200.757	49
200.825	534
200.893	31
200.962	519
201.030	578
201.098	-545
201.167	-213
201.235	161
201.303	-32
201.372	367
201.440	-78
201.508	819
201.577	819
201.645	261
201.713	882
201.781	481
201.850	212
201.918	296
201.986	18
202.055	927
202.123	-224
202.191	126
202.259	893
202.327	437
202.396	69
202.464	302
202.532	128
202.600	748
202.669	750
202.737	-5
202.805	-81
202.873	886
202.941	-573
203.009	1101
203.078	278
203.146	353
203.214	-645
203.282	168
203.350	565
203.418	444
203.487	477
203.555	-17
203.623	194
203.691	952
203.759	688
203.827	653
203.895	323
203.963	57
204.031	593
204.099	541
204.168	-738
204.236	1069
204.304	-463
204.372	880
204.440	284
204.508	860
204.576	-46
204.644	324
204.712	-270
204.780	856
204.848	248
204.916	-547
204.984	-205
205.052	610
205.120	274
205.188	603
205.256	-3
205.324	13
205.392	201
205.460	589
205.528	-8
205.596	464
205.664	659
205.732	412
205.799	2
205.867	766
205.935	-679
206.003	1017
206.071	492
206.139	-388
206.207	1094
206.275	618
206.343	246
206.411	763
206.478	1107
206.546	244
206.614	495
206.682	-56
206.750	361
206.818	941
206.885	264
206.953	-498
207.021	673
207.089	235
207.157	-46
207.225	342
207.292	-430
207.360	219
207.428	669
207.496	619
207.563	278
207.631	1093
207.699	-247
207.767	266
207.834	-24
207.902	461
207.970	523
208.038	-56
208.105	54
208.173	143
208.241	-75
208.309	1006
208.376	280
208.444	595
208.512	442
208.579	237
208.647	1012
208.715	1249
208.782	-185
208.850	537
208.918	57
208.985	755
209.053	1017
209.120	420
209.188	-568
209.256	442
209.323	-419
209.391	-52
209.459	1457
209.526	518
209.594	-313
209.661	752
209.729	-217
209.796	268
209.864	317
209.932	184
209.999	1104
210.067	431
210.134	59
210.202	615
210.269	562
210.337	1491
210.404	72
210.472	-170
210.539	-302
210.607	-521
210.674	107
210.742	-103
210.809	619
210.877	162
210.944	497
211.012	-265
211.079	965
211.146	375
211.214	1069
211.281	737
211.349	1969
211.416	481
211.484	398
211.551	444
211.618	451
211.686	445
211.753	-387
211.821	514
211.888	539
211.955	914
212.023	299
212.090	285
212.157	581
212.225	661
212.292	1538
212.359	1227
212.427	1964
212.494	1760
212.561	781
212.629	860
212.696	214
212.763	892
212.831	252
212.898	594
212.965	-513
213.032	895
213.100	30
213.167	323
213.234	749
213.301	639
213.369	52
213.436	301
213.503	-357
213.570	628
213.638	457
213.705	600
213.772	309
213.839	194
213.906	495
213.973	418
214.041	-622
214.108	834
214.175	372
214.242	569
214.309	824
214.376	312
214.444	-239
214.511	881
214.578	-44
214.645	600
214.712	694
214.779	733
214.846	-229
214.913	738
214.980	1000
215.048	950
215.115	1002
215.182	1303
215.249	187
215.316	299
215.383	1353
215.450	421
215.517	216
215.584	773
215.651	-62
215.718	701
215.785	694
215.852	584
215.919	620
215.986	529
216.053	192
216.120	57
216.187	55
216.254	495
216.321	321
216.388	494
216.455	193
216.522	629
216.589	184
216.656	781
216.722	555
216.789	879
216.856	526
216.923	312
216.990	637
217.057	966
217.124	1087
217.191	907
217.258	1011
217.324	1142
217.391	1169
217.458	1345
217.525	980
217.592	1063
217.659	-1054
217.725	1943
217.792	216
217.859	1593
217.926	740
217.993	620
218.059	1086
218.126	530
218.193	-238
218.260	-449
218.327	505
218.393	157
218.460	372
218.527	38
218.594	353
218.660	824
218.727	1123
218.794	-109
218.860	1180
218.927	478
218.994	-170
219.061	454
219.127	617
219.194	993
219.261	515
219.327	909
219.394	977
219.461	44
219.527	681
219.594	1394
219.661	-8
219.727	93
219.794	859
219.860	681
219.927	1021
219.994	2039
220.060	1412
220.127	2428
220.193	2333
220.260	1414
220.326	1532
220.393	2037
220.460	1489
220.526	778
220.593	73
220.659	2105
220.726	725
220.792	2432
220.859	1762
220.925	2483
220.992	2930
221.058	2487
221.125	2568
221.191	1678
221.258	647
221.324	1133
221.391	276
221.457	-214
221.524	485
221.590	987
221.657	2326
221.723	1074
221.789	1264
221.856	1620
221.922	-113
221.989	1612
222.055	1008
222.121	-836
222.188	2133
222.254	313
222.321	139
222.387	-18
222.453	380
222.520	771
222.586	109
222.652	134
222.719	-334
222.785	939
222.851	1156
222.918	359
222.984	-306
223.050	-141
223.116	-498
223.183	703
223.249	-167
223.315	-682
223.382	-177
223.448	398
223.514	-918
223.580	169
223.647	-373
223.713	165
223.779	-163
223.845	357
223.911	423
223.978	176
224.044	3
224.110	-304
224.176	741
224.242	544
224.309	-950
224.375	271
224.441	359
224.507	163
224.573	-311
224.639	967
224.705	450
224.772	510
224.838	628
224.904	-199
224.970	6
225.036	636
225.102	-785
225.168	1231
225.234	584
225.300	226
225.366	10
225.432	311
225.499	178
225.565	149
225.631	-431
225.697	885
225.763	200
225.829	834
225.895	945
225.961	695
226.027	1272
226.093	650
226.159	1139
226.225	2361
226.291	4353
226.357	6133
226.423	2862
226.489	1510
226.554	1322
226.620	1955
226.686	1034
226.752	2309
226.818	3379
226.884	7385
226.950	6932
227.016	3481
227.082	1992
227.148	1319
227.214	1153
227.279	553
227.345	602
227.411	2077
227.477	2326
227.543	3419
227.609	4666
227.674	3969
227.740	1743
227.806	1034
227.872	817
227.938	1091
228.003	1143
228.069	347
228.135	826
228.201	857
228.267	-406
228.332	-37
228.398	-305
228.464	300
228.530	-43
228.595	1285
228.661	-266
228.727	163
228.792	1333
228.858	62
228.924	-1295
228.990	1745
229.055	-41
229.121	233
229.187	-296
229.252	-248
229.318	176
229.384	196
229.449	-101
229.515	-1246
229.581	-277
229.646	464
229.712	63
229.777	897
229.843	674
229.909	386
229.974	354
230.040	276
230.105	834
230.171	290
230.236	456
230.302	790
230.368	292
230.433	200
230.499	439
230.564	788
230.630	-251
230.695	-75
230.761	891
230.826	-920
230.892	1163
230.957	-370
231.023	-125
231.088	341
231.154	-85
231.219	582
231.284	464
231.350	679
231.415	-793
231.481	574
231.546	154
231.612	1058
231.677	-286
231.742	-62
231.808	1038
231.873	-1052
231.939	-1531
232.004	1408
232.069	611
232.135	152
232.200	81
232.265	491
232.331	558
232.396	-117
232.461	-393
232.527	790
232.592	-697
232.657	-5
232.723	209
232.788	-190
232.853	575
232.918	1030
232.984	-475
233.049	-261
233.114	-66
233.179	1000
233.245	762
233.310	418
233.375	-257
233.440	550
233.506	-21
233.571	-909
233.636	911
233.701	-16
233.766	172
233.832	528
233.897	-16
233.962	-772
234.027	2344
234.092	1000
234.157	117
234.222	151
234.288	908
234.353	2095
234.418	1409
234.483	1054
234.548	1252
234.613	-361
234.678	1103
234.743	182
234.808	2463
234.873	-286
234.938	1015
235.004	238
235.069	799
235.134	-369
235.199	445
235.264	367
235.329	-626
235.394	1060
235.459	1568
235.524	274
235.589	583
235.654	-209
235.719	-980
235.784	1154
235.849	766
235.913	1230
235.978	425
236.043	1514
236.108	453
236.173	-746
236.238	1090
236.303	-331
236.368	-363
236.433	1731
236.498	751
236.563	2016
236.627	2105
236.692	9742
236.757	8107
236.822	3175
236.887	1261
236.952	2480
237.017	315
237.081	1757
237.146	1302
237.211	4837
237.276	8801
237.341	15490
237.405	6823
237.470	3062
237.535	1681
237.600	1687
237.664	1574
237.729	4
237.794	1047
237.859	3725
237.923	1528
237.988	835
238.053	1642
238.118	1031
238.182	1949
238.247	2960
238.312	-305
238.376	1039
238.441	-1142
238.506	1406
238.570	-1144
238.635	1082
238.700	182
238.764	320
238.829	752
238.893	401
238.958	1171
239.023	390
239.087	738
239.152	109
239.216	708
239.281	751
239.346	440
239.410	848
239.475	-353
239.539	3389
239.604	1100
239.668	2040
239.733	1872
239.797	5118
239.862	8222
239.926	7777
239.991	4519
240.055	2244
240.120	732
240.184	1798
240.249	46
240.313	1043
240.378	177
240.442	1044
240.507	2317
240.571	772
240.635	502
240.700	1347
240.764	947
240.829	-58
240.893	-262
240.957	1417
241.022	1266
241.086	2077
241.151	-831
241.215	-750
241.279	954
241.344	435
241.408	575
241.472	178
241.537	1175
241.601	1719
241.665	-474
241.730	183
241.794	1259
241.858	164
241.922	280
241.987	63
242.051	-28
242.115	-326
242.179	681
242.244	-164
242.308	1367
242.372	524
242.436	-56
242.501	543
242.565	-388
242.629	240
242.693	441
242.757	-920
242.822	605
242.886	1246
242.950	394
243.014	-368
243.078	434
243.142	-170
243.206	376
243.271	96
243.335	-87
243.399	1850
243.463	3040
243.527	11894
243.591	3034
243.655	1758
243.719	5
243.783	1385
243.847	1514
243.911	1596
243.975	1658
244.040	-122
244.104	1630
244.168	708
244.232	677
244.296	1717
244.360	1504
244.424	333
244.488	790
244.552	316
244.615	-50
244.679	534
244.743	-55
244.807	-640
244.871	694
244.935	893
244.999	-798
245.063	-122
245.127	1545
245.191	1255
245.255	396
245.319	569
245.383	-549
245.446	2268
245.510	-772
245.574	-46
245.638	813
245.702	441
245.766	2146
245.829	1694
245.893	-301
245.957	426
246.021	849
246.085	528
246.149	723
246.212	3800
246.276	3148
246.340	390
246.404	1350
246.467	2466
246.531	-674
246.595	1823
246.659	1112
246.722	-274
246.786	650
246.850	878
246.913	1425
246.977	91
247.041	475
247.104	683
247.168	494
247.232	2121
247.295	5360
247.359	2294
247.423	619
247.486	1683
247.550	1639
247.614	1037
247.677	1284
247.741	207
247.804	382
247.868	1534
247.932	542
247.995	4757
248.059	1166
248.122	-242
248.186	2047
248.249	2664
248.313	7041
248.376	8535
248.440	4449
248.503	1468
248.567	1747
248.630	1338
248.694	2795
248.757	4362
248.821	8634
248.884	6165
248.948	4253
249.011	6560
249.075	9463
249.138	8892
249.202	2841
249.265	1530
249.328	2141
249.392	1937
249.455	2016
249.519	878
249.582	1214
249.645	2368
249.709	2559
249.772	892
249.835	1281
249.899	1637
249.962	1282
250.025	791
250.089	3047
250.152	4805
250.215	1664
250.279	1118
250.342	1423
250.405	2378
250.468	486
250.532	1299
250.595	2945
250.658	9435
250.721	18187
250.785	6162
250.848	4012
250.911	2181
250.974	2035
251.038	2200
251.101	5355
251.164	2590
251.227	2833
251.290	2192
251.354	4154
251.417	14594
251.480	14364
251.543	10779
251.606	27223
251.669	21813
251.732	8100
251.795	8142
251.859	7182
251.922	17646
251.985	11217
252.048	5325
252.111	2950
252.174	2097
252.237	4305
252.300	10272
252.363	10351
252.426	22454
252.489	7518
252.552	4043
252.615	1627
252.678	3737
252.741	7694
252.804	9989
252.867	23274
252.930	13569
252.993	6455
253.056	5071
253.119	3419
253.182	1645
253.245	2655
253.308	2954
253.371	1619
253.434	1285
253.497	2272
253.559	5156
253.622	2492
253.685	2858
253.748	3154
253.811	1429
253.874	2778
253.937	1154
254.000	1317
254.062	3029
254.125	3913
254.188	5162
254.251	2499
254.314	1417
254.376	2344
254.439	3533
254.502	2746
254.565	3248
254.628	5326
254.690	2899
254.753	600
254.816	848
254.878	1500
254.941	2819
255.004	3435
255.067	1140
255.129	386
255.192	931
255.255	44
255.317	892
255.380	1618
255.443	609
255.505	861
255.568	-545
255.631	366
255.693	1820
255.756	438
255.819	1568
255.881	765
255.944	64
256.006	383
256.069	37
256.132	368
256.194	456
256.257	1857
256.319	1997
256.382	1611
256.444	2734
256.507	1157
256.569	974
256.632	1184
256.694	1158
256.757	6163
256.819	17639
256.882	6763
256.944	3379
257.007	3083
257.069	1359
257.132	791
257.194	2036
257.257	1225
257.319	1400
257.381	1581
257.444	4654
257.506	18370
257.569	21947
257.631	7564
257.693	3921
257.756	1427
257.818	493
257.880	948
257.943	1659
258.005	104
258.067	483
258.130	851
258.192	821
258.254	711
258.317	1210
258.379	672
258.441	2956
258.503	3926
258.566	2325
258.628	3184
258.690	529
258.753	1241
258.815	2359
258.877	616
258.939	184
259.001	1034
259.064	619
259.126	366
259.188	1485
259.250	1619
259.312	1358
259.375	1151
259.437	831
259.499	576
259.561	891
259.623	838
259.685	805
259.747	967
259.809	2511
259.872	4228
259.934	6839
259.996	7206
260.058	2721
260.120	438
260.182	749
260.244	429
260.306	1119
260.368	673
260.430	617
260.492	1052
260.554	3179
260.616	798
260.678	3008
260.740	4482
260.802	298
260.864	1258
260.926	588
260.988	1625
261.050	1641
261.112	2258
261.174	6977
261.236	3919
261.298	1696
261.359	2211
261.421	3651
261.483	617
261.545	1943
261.607	-404
261.669	1013
261.731	724
261.793	2584
261.854	899
261.916	2018
261.978	559
262.040	570
262.102	1269
262.164	470
262.225	1100
262.287	1256
262.349	1991
262.411	1409
262.472	1586
262.534	670
262.596	2790
262.658	1442
262.719	610
262.781	1952
262.843	1723
262.904	2634
262.966	1837
263.028	1364
263.090	4737
263.151	15072
263.213	5090
263.275	2344
263.336	1439
263.398	1899
263.459	-107
263.521	925
263.583	2448
263.644	2455
263.706	449
263.767	-145
263.829	338
263.891	753
263.952	-355
264.014	-18
264.075	116
264.137	3216
264.198	2075
264.260	688
264.321	261
264.383	2351
264.444	5333
264.506	1509
264.567	1854
264.629	2933
264.690	3781
264.752	1813
264.813	1529
264.875	802
264.936	1495
264.998	864
265.059	1376
265.120	1181
265.182	1155
265.243	8408
265.305	10050
265.366	2800
265.427	1057
265.489	2163
265.550	817
265.611	1654
265.673	1563
265.734	990
265.795	1591
265.857	504
265.918	323
265.979	3518
266.040	14308
266.102	13257
266.163	3680
266.224	2215
266.286	658
266.347	307
266.408	1260
266.469	732
266.530	851
266.592	1060
266.653	1319
266.714	2711
266.775	1269
266.836	1251
266.898	-199
266.959	1257
267.020	1176
267.081	1971
267.142	695
267.203	657
267.264	127
267.326	1097
267.387	258
267.448	640
267.509	852
267.570	1007
267.631	-527
267.692	307
267.753	653
267.814	-350
267.875	1024
267.936	4116
267.997	1975
268.058	1634
268.119	55
268.180	962
268.241	-266
268.302	690
268.363	-449
268.424	-54
268.485	940
268.546	5
268.607	144
268.668	-144
268.729	463
268.790	1133
268.851	903
268.912	1733
268.972	1935
269.033	1063
269.094	120
269.155	47
269.216	903
269.277	611
269.338	121
269.398	92
269.459	227
269.520	911
269.581	862
269.642	1503
269.702	717
269.763	1034
269.824	490
269.885	926
269.945	1270
270.006	1170
270.067	-288
270.128	655
270.188	535
270.249	250
270.310	214
270.370	176
270.431	1253
270.492	1132
270.553	626
270.613	1563
270.674	2780
270.734	657
270.795	674
270.856	1058
270.916	476
270.977	1078
271.038	1266
271.098	1018
271.159	563
271.219	845
271.280	62
271.340	1034
271.401	178
271.462	1481
271.522	823
271.583	1094
271.643	357
271.704	385
271.764	1261
271.825	2484
271.885	7534
271.946	11296
272.006	3340
272.066	4895
272.127	9649
272.187	7102
272.248	3901
272.308	2588
272.369	5868
272.429	4006
272.489	2711
272.550	2027
272.610	2422
272.671	1429
272.731	1721
272.791	1971
272.852	627
272.912	1610
272.972	654
273.033	752
273.093	-53
273.153	2197
273.214	555
273.274	1069
273.334	3880
273.394	9009
273.455	2913
273.515	3428
273.575	7352
273.635	3531
273.696	3876
273.756	7979
273.816	3735
273.876	2431
273.936	2262
273.997	4534
274.057	1198
274.117	1511
274.177	1710
274.237	8887
274.297	8807
274.358	3825
274.418	6469
274.478	5171
274.538	589
274.598	1224
274.658	4171
274.718	3818
274.778	1742
274.838	1276
274.898	2523
274.958	5682
275.018	7134
275.078	5175
275.138	2366
275.198	865
275.258	863
275.318	675
275.378	2331
275.438	2045
275.498	1012
275.558	3595
275.618	6538
275.678	5699
275.738	3558
275.798	3780
275.858	1974
275.918	1479
275.978	1250
276.038	1629
276.098	950
276.157	1837
276.217	5825
276.277	2528
276.337	1236
276.397	1474
276.457	1610
276.517	1675
276.576	1088
276.636	585
276.696	1586
276.756	3228
276.815	1951
276.875	1514
276.935	1557
276.995	1721
277.055	1561
277.114	2680
277.174	1917
277.234	4179
277.293	1732
277.353	825
277.413	1043
277.472	1711
277.532	536
277.592	2022
277.651	4689
277.711	8737
277.771	2018
277.830	8907
277.890	7306
277.950	5055
278.009	14767
278.069	5780
278.128	5704
278.188	8378
278.248	3315
278.307	8342
278.367	5671
278.426	1809
278.486	704
278.545	1100
278.605	1416
278.664	1450
278.724	462
278.783	3907
278.843	8693
278.902	2887
278.962	1518
279.021	1799
279.081	1376
279.140	1786
279.199	1303
279.259	905
279.318	1410
279.378	2192
279.437	3623
279.496	8847
279.556	34509
279.615	26696
279.675	7273
279.734	3116
279.793	5004
279.853	7471
279.912	3299
279.971	2154
280.031	2298
280.090	3569
280.149	5205
280.208	4615
280.268	22381
280.327	24182
280.386	4891
280.445	4422
280.505	4618
280.564	2131
280.623	1480
280.682	3201
280.742	4748
280.801	1389
280.860	1371
280.919	799
280.978	898
281.037	977
281.097	216
281.156	1552
281.215	1079
281.274	1780
281.333	5507
281.392	4564
281.451	1351
281.510	491
281.569	988
281.628	1347
281.688	612
281.747	1501
281.806	1196
281.865	846
281.924	720
281.983	395
282.042	303
282.101	489
282.160	810
282.219	1333
282.278	481
282.337	2998
282.396	2029
282.454	932
282.513	1138
282.572	4086
282.631	3115
282.690	1423
282.749	-3
282.808	1460
282.867	1252
282.926	990
282.985	133
283.043	133
283.102	547
283.161	818
283.220	2145
283.279	5861
283.338	2173
283.396	987
283.455	1093
283.514	1832
283.573	2038
283.631	1140
283.690	1226
283.749	525
283.808	1740
283.866	2677
283.925	467
283.984	1777
284.043	1711
284.101	1851
284.160	-53
284.219	2131
284.277	1511
284.336	2319
284.395	6277
284.453	5917
284.512	1826
284.570	2724
284.629	2691
284.688	2072
284.746	2994
284.805	3013
284.863	3863
284.922	4837
284.981	6316
285.039	8771
285.098	13748
285.156	30253
285.215	49326
285.273	48229
285.332	33214
285.390	17582
285.449	10848
285.507	7652
285.566	5162
285.624	4272
285.683	3748
285.741	2780
285.799	3375
285.858	1805
285.916	1816
285.975	1672
286.033	2036
286.091	1750
286.150	625
286.208	1957
286.267	1783
286.325	1462
286.383	1651
286.442	1649
286.500	909
286.558	1467
286.616	1565
286.675	2176
286.733	1447
286.791	2050
286.850	1386
286.908	2266
286.966	2480
287.024	344
287.083	1305
287.141	1491
287.199	2454
287.257	2117
287.315	1071
287.374	1234
287.432	2531
287.490	2153
287.548	1087
287.606	1155
287.664	1302
287.723	2182
287.781	2197
287.839	954
287.897	1976
287.955	2415
288.013	3470
288.071	5799
288.129	19954
288.187	58817
288.245	28030
288.303	9492
288.361	5091
288.419	3735
288.477	2994
288.535	2800
288.593	1536
288.651	2066
288.709	1442
288.767	2108
288.825	1039
288.883	1668
288.941	795
288.999	915
289.057	1260
289.115	512
289.173	1254
289.231	1502
289.289	1272
289.346	1729
289.404	1363
289.462	1971
289.520	1357
289.578	1204
289.636	366
289.694	1211
289.751	712
289.809	1339
289.867	863
289.925	2278
289.983	986
290.040	2042
290.098	593
290.156	452
290.214	1049
290.271	1536
290.329	1304
290.387	1299
290.444	361
290.502	874
290.560	944
290.617	1411
290.675	1585
290.733	1273
290.790	1104
290.848	1719
290.906	1727
290.963	930
291.021	982
291.078	353
291.136	1712
291.194	3180
291.251	6329
291.309	1689
291.366	1581
291.424	1346
291.481	945
291.539	715
291.596	1988
291.654	720
291.711	1091
291.769	1724
291.826	1939
291.884	2364
291.941	161
291.999	1097
292.056	1015
292.114	868
292.171	1384
292.228	2298
292.286	907
292.343	2138
292.401	2552
292.458	1502
292.515	1146
292.573	2731
292.630	2177
292.687	1297
292.745	912
292.802	1500
292.859	3476
292.917	6221
292.974	3564
293.031	1756
293.089	1443
293.146	1453
293.203	1145
293.260	1108
293.318	917
293.375	1773
293.432	759
293.489	2217
293.546	1741
293.604	2080
293.661	3874
293.718	10839
293.775	4910
293.832	2403
293.889	2763
293.947	2223
294.004	1081
294.061	1567
294.118	3289
294.175	6129
294.232	8426
294.289	3676
294.346	2962
294.403	2235
294.460	2191
294.517	1351
294.574	1464
294.631	1694
294.688	1683
294.745	3306
294.802	10824
294.859	13279
294.916	4619
294.973	2432
295.030	1674
295.087	2087
295.144	1430
295.201	1177
295.258	1616
295.315	1710
295.372	3914
295.429	7966
295.486	4143
295.542	3115
295.599	5729
295.656	10673
295.713	6505
295.770	8047
295.827	3351
295.883	2855
295.940	896
295.997	2310
296.054	1888
296.111	1804
296.167	1689
296.224	1198
296.281	587
296.338	1720
296.394	1544
296.451	1613
296.508	3267
296.564	7418
296.621	4627
296.678	9134
296.734	13535
296.791	5219
296.848	2713
296.904	2554
296.961	5390
297.018	8942
297.074	7312
297.131	3250
297.187	2235
297.244	3409
297.301	7615
297.357	15934
297.414	5163
297.470	2948
297.527	2529
297.583	2463
297.640	2504
297.696	1838
297.753	1345
297.809	1766
297.866	1368
297.922	533
297.979	613
298.035	1348
298.092	2263
298.148	5303
298.204	6409
298.261	3023
298.317	4142
298.374	11148
298.430	7227
298.486	2613
298.543	1897
298.599	2909
298.656	2498
298.712	3681
298.768	7761
298.824	5944
298.881	2508
298.937	1395
298.993	2056
299.050	2082
299.106	2120
299.162	1512
299.218	1853
299.275	1466
299.331	2044
299.387	3776
299.443	10753
299.500	19390
299.556	12589
299.612	5957
299.668	4896
299.724	13211
299.780	14873
299.837	6906
299.893	5015
299.949	13818
300.005	19466
300.061	13706
300.117	21423
300.173	11286
300.229	4486
300.285	4702
300.341	5507
300.397	3720
300.453	2507
300.510	2440
300.566	3866
300.622	5953
300.678	17727
300.734	25722
300.790	13649
300.845	13664
300.901	12654
300.957	20124
301.013	11750
301.069	4892
301.125	3496
301.181	2721
301.237	2318
301.293	1879
301.349	1689
301.405	2060
301.461	2240
301.516	2591
301.572	3031
301.628	2388
301.684	2795
301.740	4565
301.796	6988
301.851	4636
301.907	6551
301.963	6310
302.019	8676
302.074	25171
302.130	26266
302.186	12705
302.242	5456
302.297	4274
302.353	3290
302.409	6509
302.464	4970
302.520	4403
302.576	8372
302.631	11504
302.687	5931
302.743	2716
302.798	2089
302.854	2236
302.910	2296
302.965	2520
303.021	3170
303.076	3391
303.132	3524
303.187	4332
303.243	3254
303.299	2024
303.354	1510
303.410	1957
303.465	1867
303.521	2142
303.576	1989
303.632	1545
303.687	2642
303.743	8745
303.798	7863
303.853	4242
303.909	2546
303.964	2254
304.020	2187
304.075	3985
304.130	2938
304.186	4983
304.241	6172
304.297	5459
304.352	1866
304.358	1820
304.407	1445
304.449	2491
304.463	2846
304.518	2072
304.539	1986
304.573	1843
304.629	1836
304.630	1850
304.684	2619
304.720	5463
304.739	6839
304.794	9992
304.811	8753
304.850	5884
304.902	2647
304.905	2437
304.960	1889
304.992	1793
305.015	1712
305.071	2850
305.083	2691
305.126	2076
305.173	1985
305.181	1987
305.236	1763
305.264	1862
305.292	1938
305.347	1690
305.354	1748
305.402	2145
305.445	1985
305.457	1931
305.512	2017
305.535	2208
305.567	2471
305.622	2320
305.626	2380
305.678	3956
305.716	7468
305.733	8649
305.788	9790
305.807	8355
305.843	6208
305.897	8894
305.898	8917
305.953	8391
305.988	5527
306.008	4027
306.063	2650
306.078	2319
306.118	1746
306.168	1651
306.173	1625
306.228	1368
306.259	1273
306.283	1244
306.338	1592
306.349	1596
306.393	1549
306.440	2084
306.448	2197
306.503	2063
306.530	2061
306.558	2253
306.613	3589
306.620	3764
306.668	5182
306.711	7679
306.723	7954
306.778	6670
306.801	5101
306.833	3435
306.888	1963
306.892	1897
306.943	1428
306.982	1150
306.997	1058
307.052	1350
307.072	1530
307.107	1915
307.162	2397
307.163	2396
307.217	2441
307.253	2604
307.272	2526
307.327	2591
307.343	2440
307.381	2275
307.434	1842
307.436	1884
307.491	4315
307.524	6175
307.546	6532
307.600	7094
307.614	6282
307.655	3939
307.704	2705
307.710	2688
307.765	2347
307.795	3071
307.819	3612
307.874	4781
307.885	4827
307.929	4607
307.975	4687
307.984	4888
308.038	6498
308.065	8004
308.093	13290
308.148	27349
308.156	30786
308.202	45109
308.246	52392
308.257	51650
308.312	29662
308.336	21019
308.366	14927
308.421	9369
308.426	8882
308.475	5804
308.517	4193
308.530	3823
308.585	3469
308.607	3339
308.639	3240
308.694	3100
308.697	3132
308.748	4818
308.787	6660
308.803	6600
308.857	4686
308.877	4133
308.912	4252
308.967	4269
308.967	4290
309.021	6426
309.058	8026
309.076	10080
309.130	17427
309.148	20501
309.185	35839
309.238	63610
309.239	63689
309.293	64125
309.328	55919
309.348	49182
309.402	24438
309.418	18725
309.457	13288
309.508	8544
309.511	8351
309.566	7452
309.598	7078
309.620	7002
309.674	7701
309.688	7917
309.729	7703
309.778	6937
309.783	6832
309.837	5435
309.868	4521
309.892	5320
309.946	8337
309.959	9310
310.001	11032
310.049	12039
310.055	11683
310.109	7364
310.139	4865
310.163	3886
310.218	2319
310.229	2058
310.272	2068
310.319	2224
310.326	2125
310.381	1731
310.409	1425
310.435	1521
310.489	1604
310.499	1672
310.543	1698
310.589	1696
310.598	1703
310.652	1732
310.679	1769
310.706	1667
310.760	1315
310.769	1270
310.814	1869
310.859	2376
310.868	2326
310.923	2127
310.948	2055
310.977	2045
311.031	2095
311.038	2100
311.085	1914
311.128	1530
311.139	1533
311.193	1842
311.218	1836
311.247	1753
311.301	1856
311.308	1849
311.356	1595
311.398	1457
311.410	1481
311.464	1501
311.488	1557
311.518	1434
311.572	1111
311.578	1094
311.626	1540
311.668	1777
311.680	1854
311.734	2300
311.758	2506
311.788	2417
311.842	2198
311.847	2177
311.896	2869
311.937	3504
311.950	3361
312.004	2702
312.027	2410
312.058	2034
312.112	1383
312.117	1325
312.165	1183
312.207	1077
312.297	2702
312.386	1783
312.476	2030
312.566	2749
312.656	1674
312.745	1331
312.835	1507
312.925	1793
313.015	2814
313.104	1786
313.194	2468
313.284	2275
313.374	2406
313.463	2848
313.553	1685
313.643	1592
313.732	2128
313.822	1548
313.912	2599
314.001	3139
314.091	3054
314.180	3163
314.270	3576
314.360	3478
314.449	2385
314.539	2233
314.628	2987
314.718	1835
314.808	3086
314.897	3225
314.987	3509
315.076	3063
315.166	4025
315.255	3249
315.345	3466
315.434	3030
315.524	4048
315.613	4258
315.703	5984
315.792	15421
315.881	44535
315.971	11303
316.060	5784
316.150	4944
316.239	5159
316.328	3056
316.418	2562
316.507	2391
316.597	4489
316.686	4554
316.775	3667
316.865	4958
316.954	3304
317.043	2131
317.133	2378
317.222	2186
317.311	2325
317.400	1291
317.490	3601
317.579	3006
317.668	4238
317.757	6069
317.847	26027
317.936	63345
318.025	18641
318.114	17683
318.203	7578
318.293	4846
318.382	6828
318.471	6896
318.560	9073
318.649	13902
318.738	3656
318.828	3405
318.917	2678
319.006	2328
319.095	6202
319.184	16398
319.273	7368
319.362	3835
319.451	2181
319.540	1441
319.629	4459
319.718	4996
319.807	3177
319.896	6397
319.985	21064
320.074	5618
320.163	2229
320.252	3775
320.341	4329
320.430	3694
320.519	3817
320.608	2510
320.697	3876
320.786	3442
320.875	4696
320.964	4928
321.053	5517
321.142	6960
321.230	8122
321.319	8019
321.408	12753
321.497	6751
321.586	5872
321.675	6863
321.764	6838
321.852	5232
321.941	8222
322.030	5431
322.119	7558
322.207	11993
322.296	10495
322.385	8145
322.474	10924
322.562	15343
322.651	8798
322.740	6861
322.829	7264
322.917	6636
323.006	5371
323.095	4448
323.183	4870
323.272	5164
323.361	7289
323.449	16333
323.538	5675
323.626	11376
323.715	6743
323.804	4070
323.892	10075
323.981	5019
324.069	3434
324.158	6829
324.246	5000
324.335	3535
324.424	3679
324.512	2668
324.601	3431
324.689	4265
324.778	6505
324.866	3822
324.954	2114
325.043	1922
325.131	2912
325.220	4721
325.308	5169
325.397	3977
325.485	2315
325.574	1457
325.662	2150
325.750	927
325.839	1985
325.927	1692
326.015	2216
326.104	2476
326.192	3019
326.280	1447
326.369	1690
326.457	2172
326.545	2872
326.634	810
326.722	1971
326.810	1307
326.898	2451
326.987	2211
327.075	2712
327.163	3771
327.251	2579
327.340	2829
327.428	4692
327.516	3106
327.604	2535
327.692	1830
327.781	2236
327.869	2360
327.957	1129
328.045	2025
328.133	1673
328.221	1223
328.309	1452
328.397	1459
328.485	3095
328.574	3476
328.662	7901
328.750	3497
328.838	2575
328.926	1518
329.014	2115
329.102	1746
329.190	4520
329.278	1819
329.366	1051
329.454	1749
329.542	1454
329.630	382
329.718	1730
329.806	1269
329.893	1857
329.981	529
330.069	927
330.157	1598
330.245	2273
330.333	1858
330.421	1218
330.509	2290
330.597	6792
330.684	2972
330.772	2153
330.860	3275
330.948	4196
331.036	1523
331.123	1068
331.211	1850
331.299	1875
331.387	3429
331.475	5005
331.562	2259
331.650	1263
331.738	1401
331.825	1605
331.913	1365
332.001	1596
332.089	1391
332.176	3040
332.264	5453
332.352	3722
332.439	1555
332.527	1826
332.614	584
332.702	1577
332.790	1699
332.877	3084
332.965	4104
333.052	2277
333.140	2222
333.228	3738
333.315	1073
333.403	2415
333.490	3832
333.578	3752
333.665	3770
333.753	3282
333.840	2130
333.928	3599
334.015	5928
334.103	10359
334.190	22007
334.278	9491
334.365	9853
334.452	9095
334.540	5720
334.627	7384
334.715	9663
334.802	14082
334.889	32913
334.977	32556
335.064	14026
335.151	7622
335.239	5552
335.326	5961
335.413	15424
335.501	15087
335.588	5803
335.675	5784
335.762	7672
335.850	11209
335.937	13770
336.024	24951
336.111	47172
336.199	29727
336.286	12376
336.373	8442
336.460	5171
336.547	4347
336.635	4058
336.722	3680
336.809	2697
336.896	2827
336.983	8336
337.070	16743
337.157	19894
337.245	13747
337.332	8236
337.419	2587
337.506	2890
337.593	2412
337.680	7543
337.767	14590
337.854	4152
337.941	4775
338.028	5091
338.115	2083
338.202	3605
338.289	5560
338.376	10950
338.463	5307
338.550	9312
338.637	7815
338.724	3626
338.811	4787
338.898	2238
338.984	1734
339.071	1505
339.158	2405
339.245	4137
339.332	2773
339.419	3979
339.506	2864
339.593	492
339.679	1854
339.766	1362
339.853	1652
339.940	2789
340.027	1649
340.113	1394
340.200	2253
340.287	1561
340.374	2106
340.460	2380
340.547	1373
340.634	2213
340.720	6845
340.807	3063
340.894	2200
340.980	832
341.067	963
341.154	1543
341.240	2322
341.327	3450
341.414	3289
341.500	1221
341.587	2243
341.674	1766
341.760	2610
341.847	3411
341.933	1319
342.020	-86
342.106	1762
342.193	1432
342.279	2736
342.366	2185
342.452	2614
342.539	1765
342.625	3879
342.712	6712
342.798	3195
342.885	1581
342.971	1264
343.058	1083
343.144	1744
343.230	1613
343.317	1408
343.403	1973
343.490	1203
343.576	673
343.662	1335
343.749	1888
343.835	2209
343.921	3398
344.008	19677
344.094	35341
344.180	7180
344.267	3181
344.353	11078
344.439	8361
344.525	4274
344.612	4276
344.698	3000
344.784	1012
344.870	2306
344.957	1304
345.043	3141
345.129	1329
345.215	2773
345.301	1057
345.387	1642
345.474	755
345.560	2082
345.646	1111
345.732	1732
345.818	1733
345.904	1591
345.990	1922
346.076	1770
346.162	1780
346.249	2479
346.335	569
346.421	2457
346.507	5526
346.593	13901
346.679	2014
346.765	2770
346.851	2930
346.937	2603
347.023	2449
347.108	2343
347.194	1388
347.280	1763
347.366	2810
347.452	10233
347.538	21453
347.624	14535
347.710	8109
347.796	1888
347.882	1654
347.967	1907
348.053	1103
348.139	1501
348.225	1057
348.311	1071
348.397	1671
348.482	2264
348.568	1999
348.654	2962
348.740	8623
348.825	7811
348.911	5149
348.997	11175
349.083	15181
349.168	2624
349.254	1895
349.340	1407
349.425	1272
349.511	2445
349.597	1430
349.682	2887
349.768	9135
349.854	3836
349.939	1299
350.025	1423
350.110	1650
350.196	1630
350.282	932
350.367	1711
350.453	2122
350.538	1249
350.624	1301
350.709	2970
350.795	129
350.880	1414
350.966	1802
351.051	2831
351.137	866
351.222	1680
351.308	3582
351.393	7418
351.479	1811
351.564	957
351.649	1928
351.735	1520
351.820	1340
351.906	1376
351.991	1586
352.076	5787
352.162	6703
352.247	2307
352.332	1250
352.418	1945
352.503	3330
352.588	11272
352.673	6864
352.759	1691
352.844	1024
352.929	2296
353.014	1150
353.100	1298
353.185	881
353.270	2686
353.355	2821
353.441	2285
353.526	1096
353.611	2097
353.696	2073
353.781	2710
353.866	652
353.952	1733
354.037	2371
354.122	5507
354.207	3385
354.292	1272
354.377	879
354.462	2178
354.547	1199
354.632	2027
354.717	2314
354.802	524
354.887	415
354.972	1746
355.057	1249
355.142	610
355.227	2333
355.312	1956
355.397	3764
355.482	7008
355.567	2752
355.652	3698
355.737	3785
355.822	11240
355.907	6103
355.991	2445
356.076	1138
356.161	1433
356.246	1310
356.331	1471
356.416	2751
356.501	22304
356.585	16086
356.670	2237
356.755	3816
356.840	3356
356.924	14975
357.009	41291
357.094	12941
357.179	2841
357.263	2036
357.348	3233
357.433	2388
357.517	2312
357.602	2123
357.687	1712
357.771	3545
357.856	10946
357.941	5612
358.025	13594
358.110	44341
358.195	16803
358.279	3552
358.364	2332
358.448	7699
358.533	19118
358.617	12002
358.702	13260
358.787	4544
358.871	2985
358.956	2179
359.040	1496
359.125	1253
359.209	1756
359.294	6551
359.378	9048
359.462	3608
359.547	2344
359.631	1455
359.716	969
359.800	2156
359.885	3673
359.969	205
360.053	2443
360.138	1652
360.222	2087
360.306	2556
360.391	3198
360.475	5822
360.559	10471
360.644	6338
360.728	4031
360.812	13079
360.896	27220
360.981	9396
361.065	4669
361.149	2665
361.233	2065
361.318	1450
361.402	2575
361.486	2405
361.570	1861
361.654	2348
361.739	6334
361.823	21114
361.907	27911
361.991	6017
362.075	5514
362.159	7989
362.243	13534
362.327	26273
362.411	33155
362.495	13060
362.580	6973
362.664	6894
362.748	7956
362.832	13465
362.916	28066
363.000	69045
363.084	91747
363.168	52443
363.252	14592
363.336	8276
363.420	8249
363.503	18255
363.587	17355
363.671	5923
363.755	4979
363.839	7015
363.923	6040
364.007	8852
364.091	12321
364.175	20587
364.258	55892
364.342	85054
364.426	121288
364.510	60387
364.594	22138
364.677	15208
364.761	28842
364.845	17521
364.929	7204
365.013	5401
365.096	4973
365.180	3867
365.264	10238
365.347	24891
365.431	10147
365.515	2940
365.598	2172
365.682	4118
365.766	2549
365.849	3479
365.933	1678
366.017	5069
366.100	2538
366.184	1435
366.267	2443
366.351	2461
366.435	1680
366.518	1016
366.602	2105
366.685	2295
366.769	2658
366.852	3247
366.936	5030
367.019	2425
367.103	3265
367.186	4806
367.270	2426
367.353	624
367.436	3405
367.520	1119
367.603	3381
367.687	1935
367.770	3408
367.853	3862
367.937	8953
368.020	11765
368.104	2196
368.187	3973
368.270	3873
368.353	3241
368.437	4790
368.520	7679
368.603	5218
368.687	8196
368.770	12301
368.853	2623
368.936	3864
369.020	4066
369.103	1653
369.186	743
369.269	1499
369.352	2999
369.436	3349
369.519	2182
369.602	105
369.685	2607
369.768	1204
369.851	1659
369.934	678
370.018	1856
370.101	1920
370.184	3899
370.267	2393
370.350	3058
370.433	5271
370.516	19400
370.599	32936
370.682	9951
370.765	8586
370.848	11173
370.931	17070
371.014	6083
371.097	507
371.180	1820
371.263	1830
371.346	-603
371.429	1552
371.511	280
371.594	2294
371.677	3344
371.760	5385
371.843	3706
371.926	18915
372.009	33639
372.091	11517
372.174	8130
372.257	17536
372.340	5347
372.423	4952
372.505	5766
372.588	2896
372.671	7555
372.754	17145
372.836	7729
372.919	8952
373.002	12884
373.085	2475
373.167	4038
373.250	8746
373.332	17380
373.415	28389
373.498	46924
373.580	22559
373.663	49896
373.746	47805
373.828	9048
373.911	5037
373.993	4699
374.076	14081
374.159	11248
374.241	7102
374.324	13964
374.406	9879
374.489	18441
374.571	40407
374.654	14315
374.736	10783
374.819	26799
374.901	38728
374.983	33468
375.066	7270
375.148	4373
375.231	13469
375.313	19894
375.395	7505
375.478	2813
375.560	3495
375.643	3633
375.725	10791
375.807	32178
375.890	21991
375.972	7157
376.054	6501
376.136	7071
376.219	4577
376.301	12677
376.383	25483
376.465	9112
376.548	4624
376.630	8788
376.712	20985
376.794	8313
376.877	2747
376.959	969
377.041	2419
377.123	3042
377.205	4064
377.287	510
377.369	1661
377.452	1510
377.534	1244
377.616	1375
377.698	1448
377.780	504
377.862	1877
377.944	1698
378.026	1130
378.108	1582
378.190	998
378.272	2129
378.354	1697
378.436	295
378.518	1613
378.600	4747
378.682	5631
378.764	9718
378.846	7762
378.928	1749
379.010	2191
379.091	1921
379.173	1837
379.255	648
379.337	1828
379.419	6312
379.501	13982
379.583	4576
379.664	1922
379.746	3214
379.828	10976
379.910	12681
379.991	11212
380.073	1925
380.155	2263
380.237	1119
380.318	1024
380.400	1866
380.482	3164
380.564	2639
380.645	2585
380.727	2312
380.809	2391
380.890	1843
380.972	516
381.053	637
381.135	2779
381.217	4411
381.298	10480
381.380	4224
381.461	6588
381.543	23204
381.624	23892
381.706	4279
381.787	3116
381.869	3647
381.951	13576
382.032	37037
382.113	22787
382.195	2591
382.276	2895
382.358	7385
382.439	20013
382.521	24652
382.602	34126
382.684	15798
382.765	25996
382.846	23442
382.928	24828
383.009	12791
383.090	14147
383.172	42231
383.253	51811
383.334	21594
383.416	29214
383.497	13769
383.578	6664
383.659	12765
383.741	43951
383.822	83695
383.903	37580
383.984	20517
384.066	35194
384.147	18144
384.228	6186
384.309	3995
384.390	4665
384.471	2661
384.553	3394
384.634	3770
384.715	5140
384.796	2337
384.877	3521
384.958	10877
385.039	10200
385.120	4437
385.201	3419
385.282	2246
385.363	4636
385.444	3415
385.525	6802
385.606	17151
385.687	14371
385.768	5502
385.849	5857
385.930	22244
386.011	30591
386.092	8157
386.173	3589
386.254	3683
386.335	4085
386.416	3157
386.496	8363
386.577	10491
386.658	5553
386.739	3569
386.820	5109
386.901	2938
386.981	4610
387.062	4562
387.143	6029
387.224	13136
387.304	13274
387.385	7457
387.466	5246
387.547	7410
387.627	6268
387.708	10547
387.789	22759
387.869	23774
387.950	9301
388.031	4718
388.111	3542
388.192	7228
388.273	8776
388.353	5504
388.434	3774
388.514	6388
388.595	21764
388.676	22665
388.756	11443
388.837	9277
388.917	6011
388.998	1328
389.078	3496
389.159	3292
389.239	1194
389.320	4202
389.400	1697
389.480	6353
389.561	11507
389.641	6840
389.722	3456
389.802	3865
389.883	7534
389.963	14871
390.043	8412
390.124	2396
390.204	5620
390.284	11766
390.365	7308
390.445	10601
390.525	19567
390.605	14429
390.686	5222
390.766	3727
390.846	4475
390.927	2751
391.007	2114
391.087	3764
391.167	3345
391.247	1425
391.328	4347
391.408	5329
391.488	4439
391.568	2310
391.648	3718
391.728	4187
391.808	5853
391.888	4782
391.969	9521
392.049	10744
392.129	9062
392.209	10349
392.289	17959
392.369	12609
392.449	11901
392.529	9960
392.609	11330
392.689	14427
392.769	23579
392.849	24937
392.929	29238
393.009	45267
393.089	56043
393.169	93738
393.248	192792
393.328	340963
393.408	327553
393.488	170868
393.568	76785
393.648	41014
393.728	26312
393.807	18421
393.887	15274
393.967	11982
394.047	10855
394.127	9401
394.206	12136
394.286	30511
394.366	94531
394.446	86498
394.525	21421
394.605	8739
394.685	8157
394.764	13966
394.844	21390
394.924	19084
395.003	7591
395.083	5162
395.163	4347
395.242	4102
395.322	4752
395.402	3505
395.481	7790
395.561	11236
395.640	29160
395.720	38856
395.799	29612
395.879	16991
395.958	14530
396.038	41306
396.117	121546
396.197	115560
396.276	38246
396.356	19038
396.435	20799
396.515	22813
396.594	34875
396.673	73917
396.753	177277
396.832	307188
396.912	232731
396.991	88139
397.070	37442
397.150	21056
397.229	18470
397.308	31232
397.388	48135
397.467	23706
397.546	9200
397.625	4153
397.705	6802
397.784	5184
397.863	4567
397.942	3880
398.022	3554
398.101	8230
398.180	16213
398.259	7471
398.338	5127
398.417	1972
398.497	2250
398.576	3241
398.655	1022
398.734	2092
398.813	2816
398.892	7731
398.971	16915
399.050	5998
399.129	1899
399.208	2348
399.287	2376
399.366	726
399.445	1788
399.524	996
399.603	428
399.682	1906
399.761	6470
399.840	17755
399.919	12541
399.998	2005
400.077	95
400.156	191
400.235	3561
400.313	1132
400.392	1668
400.471	5922
400.550	8125
400.629	1547
400.708	2101
400.786	664
400.865	3170
400.944	2555
401.023	3662
401.102	1121
401.180	910
401.259	1240
401.338	800
401.416	1506
401.495	652
401.574	1365
401.652	193
401.731	2191
401.810	412
401.888	448
401.967	220
402.046	397
402.124	1441
402.203	731
402.281	1737
402.360	883
402.438	4549
402.517	1271
402.596	1797
402.674	1002
402.753	856
402.831	981
402.910	2245
402.988	744
403.066	3127
403.145	2604
403.223	2560
403.302	1619
403.380	2309
403.459	1597
403.537	1419
403.615	561
403.694	-571
403.772	1893
403.850	1947
403.929	903
404.007	656
404.085	1420
404.164	608
404.242	986
404.320	6958
404.398	15829
404.477	16049
404.555	30644
404.633	24147
404.711	12120
404.789	6488
404.868	813
404.946	230
405.024	768
405.102	721
405.180	-875
405.258	-50
405.336	1366
405.415	-96
405.493	1414
405.571	1858
405.649	-96
405.727	119
405.805	1555
405.883	1063
405.961	1962
406.039	348
406.117	-839
406.195	1735
406.273	7152
406.351	22328
406.429	11119
406.507	1688
406.585	300
406.663	1076
406.740	788
406.818	118
406.896	615
406.974	1690
407.052	2015
407.130	13297
407.208	14622
407.285	3294
407.363	382
407.441	1513
407.519	289
407.596	1289
407.674	5949
407.752	19911
407.830	14006
407.907	2823
407.985	0
408.063	933
408.141	654
408.218	2284
408.296	22
408.373	999
408.451	982
408.529	1160
408.606	-435
408.684	1218
408.762	323
408.839	640
408.917	752
408.994	1663
409.072	1379
409.149	2885
409.227	5133
409.304	7485
409.382	8002
409.459	9182
409.537	11973
409.614	11248
409.692	9243
409.769	9167
409.846	12087
409.924	15562
410.001	10097
410.079	7905
410.156	5780
410.233	4450
410.311	2616
410.388	2866
410.465	2911
410.543	2039
410.620	2402
410.697	2144
410.775	1869
410.852	593
410.929	2626
411.006	3066
411.083	1237
411.161	2393
411.238	2648
411.315	2180
411.392	1151
411.469	1864
411.547	1543
411.624	-303
411.701	856
411.778	736
411.855	1726
411.932	593
412.009	-529
412.086	1914
412.163	1323
412.240	953
412.317	950
412.394	531
412.471	724
412.548	227
412.625	236
412.702	1019
412.779	1146
412.856	435
412.933	-416
413.010	821
413.087	1094
413.164	3920
413.241	5789
413.318	1012
413.395	1222
413.471	1197
413.548	735
413.625	503
413.702	-13
413.779	188
413.855	-412
413.932	-322
414.009	-314
414.086	866
414.162	-165
414.239	1781
414.316	4809
414.393	9179
414.469	1361
414.546	-49
414.623	167
414.699	357
414.776	-995
414.853	-200
414.929	472
415.006	10
415.082	212
415.159	214
415.236	-75
415.312	1051
415.389	934
415.465	-185
415.542	-33
415.618	-289
415.695	1220
415.771	-248
415.848	377
415.924	955
416.000	-399
416.077	1232
416.153	-732
416.230	-300
416.306	156
416.383	200
416.459	-646
416.535	-251
416.612	-125
416.688	-171
416.764	184
416.841	-326
416.917	-563
416.993	817
417.069	926
417.146	334
417.222	1178
417.298	1079
417.374	-829
417.451	495
417.527	114
417.603	-295
417.679	181
417.755	849
417.831	-1203
417.908	427
417.984	-154
418.060	-622
418.136	440
418.212	1021
418.288	525
418.364	493
418.440	93
418.516	589
418.592	284
418.668	1781
418.744	2038
418.820	1979
418.896	-463
418.972	-1015
419.048	-267
419.124	1935
419.200	-119
419.276	588
419.352	90
419.428	1269
419.504	-474
419.579	324
419.655	487
419.731	633
419.807	1371
419.883	3081
419.959	1629
420.034	1057
420.110	2396
420.186	6976
420.262	5317
420.337	1522
420.413	1355
420.489	1123
420.565	2066
420.640	1187
420.716	1532
420.792	1200
420.867	2448
420.943	2125
421.019	2899
421.094	2676
421.170	2500
421.245	2802
421.321	3430
421.397	4059
421.472	8509
421.548	14442
421.623	9976
421.699	7820
421.774	7975
421.850	8251
421.925	10624
422.001	13014
422.076	14755
422.152	19578
422.227	26498
422.302	37454
422.378	53493
422.453	82526
422.529	122713
422.604	140675
422.679	130063
422.755	145644
422.830	124783
422.905	81069
422.981	53770
423.056	37511
423.131	28375
423.207	21030
423.282	16311
423.357	14599
423.432	11431
423.508	10267
423.583	9256
423.658	8261
423.733	6480
423.808	6792
423.883	6418
423.959	6397
424.034	6915
424.109	6652
424.184	3323
424.259	3574
424.334	2701
424.409	1993
424.484	1752
424.559	2052
424.634	1496
424.709	2070
424.784	2116
424.859	1640
424.934	1668
425.009	5806
425.084	7241
425.159	2570
425.234	1861
425.309	510
425.384	3309
425.459	4134
425.534	1649
425.609	1037
425.683	973
425.758	1226
425.833	760
425.908	1209
425.983	3231
426.058	6514
426.132	2352
426.207	409
426.282	2657
426.357	976
426.431	644
426.506	840
426.581	164
426.655	1216
426.730	581
426.805	-212
426.879	-23
426.954	599
427.029	1261
427.103	8371
427.178	17225
427.253	5896
427.327	1005
427.402	1407
427.476	5009
427.551	2552
427.625	631
427.700	1122
427.774	-875
427.849	520
427.923	-275
427.998	998
428.072	1243
428.147	5671
428.221	26012
428.296	62522
428.370	30835
428.444	4384
428.519	3061
428.593	3364
428.667	3561
428.742	4834
428.816	11918
428.890	44383
428.965	57684
429.039	15928
429.113	4907
429.188	1117
429.262	1276
429.336	1865
429.410	3347
429.485	3287
429.559	2707
429.633	3043
429.707	2261
429.781	10684
429.855	44270
429.930	53163
430.004	19206
430.078	20908
430.152	37077
430.226	85769
430.300	75925
430.374	16469
430.448	5960
430.522	7504
430.596	16122
430.670	20036
430.744	57218
430.818	57815
430.892	10142
430.966	1704
431.040	1002
431.114	7
431.188	-626
431.262	872
431.336	56
431.410	1747
431.484	2369
431.557	2412
431.631	352
431.705	3902
431.779	20734
431.853	60395
431.927	36889
432.000	5492
432.074	1241
432.148	463
432.222	-1057
432.295	836
432.369	-810
432.443	155
432.516	8216
432.590	16964
432.664	4687
432.737	-107
432.811	-674
432.885	-1276
432.958	-63
433.032	-437
433.106	-1043
433.179	-302
433.253	-1237
433.326	-181
433.400	-828
433.473	-187
433.547	-1065
433.620	-578
433.694	-488
433.767	-62
433.841	-653
433.914	-407
433.988	-751
434.061	-156
434.134	-246
434.208	-492
434.281	-1468
434.355	-499
434.428	-618
434.501	-459
434.575	-998
434.648	71
434.721	-775
434.795	-773
434.868	-824
434.941	276
435.014	380
435.088	462
435.161	482
435.234	1186
435.307	1191
435.381	637
435.454	1893
435.527	4971
435.600	5243
435.673	4625
435.746	2869
435.819	2301
435.892	1444
435.966	1193
436.039	-228
436.112	505
436.185	763
436.258	449
436.331	-726
436.404	-89
436.477	15
436.550	-13
436.623	-365
436.696	-934
436.769	-1246
436.842	470
436.915	-723
436.987	-7
437.060	-471
437.133	-422
437.206	-1572
437.279	-408
437.352	-1556
437.425	-902
437.498	-343
437.570	114
437.643	-807
437.716	-657
437.789	-1018
437.861	-533
437.934	-13
438.007	-508
438.080	-896
438.152	343
438.225	1252
438.298	12471
438.370	25739
438.443	8769
438.516	251
438.588	-465
438.661	-947
438.734	-1473
438.806	-225
438.879	57
438.951	-876
439.024	436
439.096	-763
439.169	-454
439.241	-1155
439.314	-582
439.386	-384
439.459	72
439.531	354
439.604	-786
439.676	-731
439.749	-594
439.821	-942
439.893	-227
439.966	-230
440.038	-1005
440.110	-394
440.183	-1056
440.255	-770
440.327	228
440.400	4492
440.472	15098
440.544	7013
440.617	183
440.689	1152
440.761	378
440.833	-195
440.905	227
440.978	-1334
441.050	-401
441.122	316
441.194	-768
441.266	201
441.338	-998
441.411	896
441.483	3860
441.555	4954
441.627	371
441.699	507
441.771	298
441.843	-365
441.915	20
441.987	-314
442.059	86
442.131	939
442.203	2075
442.275	2522
442.347	4983
442.419	12928
442.491	55185
442.563	94282
442.635	37404
442.706	9799
442.778	5298
442.850	1494
442.922	1582
442.994	1216
443.066	2517
443.137	3116
443.209	3823
443.281	8075
443.353	19776
443.425	64930
443.496	149611
443.568	143116
443.640	59795
443.711	15095
443.783	5905
443.855	3448
443.926	1662
443.998	1351
444.070	1727
444.141	413
444.213	1052
444.285	1378
444.356	1446
444.428	976
444.499	1091
444.571	406
444.642	1083
444.714	492
444.785	1433
444.857	1288
444.928	3802
445.000	3019
445.071	5408
445.143	6188
445.214	7353
445.285	16322
445.357	41899
445.428	110713
445.500	171051
445.571	138958
445.642	87745
445.714	31063
445.785	13045
445.856	5643
445.928	3957
445.999	2202
446.070	1287
446.141	1726
446.213	1641
446.284	341
446.355	1019
446.426	-557
446.497	226
446.569	1104
446.640	824
446.711	-224
446.782	-342
446.853	278
446.924	615
446.995	-272
447.066	347
447.138	151
447.209	-188
447.280	-852
447.351	-915
447.422	-738
447.493	-522
447.564	-169
447.635	106
447.706	-443
447.777	-341
447.847	-712
447.918	-739
447.989	-416
448.060	-429
448.131	1009
448.202	577
448.273	178
448.344	-58
448.414	-188
448.485	-49
448.556	-840
448.627	-595
448.698	-336
448.768	-78
448.839	-957
448.910	362
448.981	-52
449.051	-748
449.122	-1234
449.193	-758
449.263	-879
449.334	-1136
449.405	-574
449.475	146
449.546	449
449.616	-103
449.687	204
449.758	-529
449.828	-1221
449.899	-669
449.969	-607
450.040	-1399
450.110	-384
450.181	-683
450.251	-491
450.322	-892
450.392	-260
450.463	-188
450.533	-816
450.604	63
450.674	-708
450.744	200
450.815	-441
450.885	368
450.955	-544
451.026	-451
451.096	-489
451.166	-331
451.237	720
451.307	2804
451.377	840
451.447	-71
451.518	-642
451.588	-454
451.658	-611
451.728	164
451.799	1962
451.869	2172
451.939	-759
452.009	-437
452.079	-630
452.149	565
452.219	114
452.289	3710
452.360	1232
452.430	62
452.500	742
452.570	1856
452.640	5563
452.710	14489
452.780	16557
452.850	7837
452.920	4023
452.990	2129
453.060	866
453.129	426
453.199	556
453.269	5254
453.339	8380
453.409	11543
453.479	12531
453.549	18375
453.619	17550
453.688	5618
453.758	297
453.828	66
453.898	-359
453.968	56
454.037	-430
454.087	-449
454.107	-491
454.168	-856
454.177	-952
454.247	-583
454.249	-565
454.316	-1216
454.330	-936
454.386	-92
454.411	367
454.456	863
454.492	1633
454.525	2284
454.574	856
454.595	209
454.655	173
454.665	148
454.734	611
454.736	703
454.804	1593
454.817	2161
454.873	3812
454.898	3571
454.943	3063
454.979	1919
455.013	957
455.060	1345
455.082	1554
455.141	1133
455.152	978
455.221	4304
455.222	4404
455.291	4874
455.303	4854
455.360	4588
455.384	5360
455.430	5904
455.465	4956
455.499	4116
455.546	4235
455.569	4053
455.627	2608
455.638	2387
455.707	636
455.708	679
455.777	1452
455.789	1475
455.846	1346
455.869	1303
455.916	1092
455.950	1221
455.985	1254
456.031	1322
456.054	1334
456.112	1370
456.124	1367
456.193	1692
456.193	1649
456.262	1429
456.274	1610
456.332	2528
456.355	2518
456.401	2190
456.436	2113
456.470	1884
456.516	1679
456.540	1656
456.597	1930
456.609	1925
456.678	2445
456.678	2406
456.747	2002
456.759	2024
456.817	2307
456.840	2277
456.886	2082
456.920	2441
456.955	2811
457.001	3450
457.024	3511
457.082	3306
457.093	3323
457.162	3722
457.163	3764
457.232	3724
457.243	3726
457.301	3460
457.324	3548
457.370	3867
457.405	4464
457.439	5061
457.485	5507
457.508	5773
457.566	7185
457.577	7828
457.646	11147
457.647	11275
457.715	23949
457.727	26601
457.784	42236
457.808	51672
457.853	59207
457.889	64282
457.922	61080
457.969	46913
457.991	49571
458.050	62537
458.060	65450
458.129	101172
458.130	102320
458.198	81113
458.211	72456
458.267	42641
458.292	30880
458.336	26403
458.372	27451
458.405	38964
458.453	58066
458.474	69758
458.533	110361
458.543	112040
458.611	140896
458.614	141531
458.680	77639
458.694	61137
458.749	32683
458.775	23658
458.818	16642
458.855	13526
458.887	12014
458.936	10298
458.955	9799
459.016	8442
459.024	8344
459.093	8527
459.097	8548
459.162	7648
459.177	7629
459.230	8287
459.257	8411
459.299	8121
459.338	7991
459.368	7854
459.418	8179
459.437	8222
459.499	7060
459.505	6923
459.574	7053
459.579	7077
459.643	7331
459.659	7297
459.711	7376
459.740	7534
459.780	7453
459.820	7416
459.849	7350
459.900	7918
459.917	8078
459.981	7829
459.986	7833
460.054	8348
460.061	8395
460.123	7769
460.141	7648
460.191	8355
460.222	9202
460.260	9897
460.302	10229
460.328	9920
460.382	9055
460.397	9287
460.462	10460
460.465	10796
460.534	19345
460.543	20465
460.602	38590
460.623	45544
460.671	66016
460.703	82197
460.739	64647
460.783	38889
460.808	32543
460.864	12763
460.876	11373
460.944	8588
460.945	8561
461.013	8760
461.024	8747
461.081	8377
461.104	8343
461.150	8477
461.184	8671
461.218	8898
461.264	9068
461.286	9095
461.345	9084
461.355	9023
461.423	8712
461.425	8712
461.491	9280
461.505	9386
461.559	11572
461.585	12423
461.628	14448
461.665	17132
461.696	17239
461.745	17073
461.764	15554
461.825	9514
461.832	9462
461.901	9087
461.905	9106
461.969	8799
461.985	8705
462.037	9729
462.065	10341
462.105	10494
462.145	10492
462.173	11197
462.225	12879
462.241	13628
462.305	16770
462.310	16511
462.378	11604
462.385	11077
462.446	10619
462.465	10470
462.514	10649
462.545	10770
462.582	10180
462.625	9573
462.650	9825
462.705	10252
462.718	10191
462.785	10281
462.786	10314
462.854	11416
462.865	11610
462.922	12001
462.945	12244
462.990	11212
463.025	10286
463.058	10297
463.104	10150
463.126	10002
463.184	9762
463.194	9912
463.262	10840
463.264	10874
463.330	11356
463.344	11377
463.398	11799
463.424	11945
463.466	11273
463.504	10894
463.533	11346
463.583	11590
463.601	11521
463.663	11838
463.669	11999
463.737	13403
463.743	13531
463.805	15696
463.823	16302
463.873	19490
463.903	21456
463.940	20670
463.982	19807
464.008	18051
464.062	13754
464.076	13469
464.142	12141
464.144	12140
464.211	11477
464.221	11437
464.279	11963
464.301	11979
464.347	12215
464.381	12559
464.414	13051
464.461	13511
464.482	13619
464.540	14017
464.550	13901
464.617	12823
464.620	12767
464.685	13889
464.699	14092
464.753	15409
464.779	16047
464.820	17004
464.859	17858
464.888	17175
464.938	15946
464.956	16091
465.018	16383
465.023	16380
465.091	16037
465.098	15976
465.158	15439
465.177	15219
465.226	15494
465.257	15680
465.293	15856
465.336	15905
465.361	16086
465.416	16531
465.428	17125
465.495	20126
465.496	20188
465.563	24189
465.575	24882
465.631	26479
465.654	27164
465.698	20957
465.734	15461
465.765	15418
465.813	15354
465.833	15419
465.893	15781
465.900	15797
465.968	15456
465.972	15408
466.035	15651
466.052	15671
466.102	15439
466.131	15253
466.170	15423
466.210	15522
466.237	15913
466.290	16692
466.304	16656
466.369	16094
466.372	16096
466.439	15224
466.449	15050
466.506	17044
466.528	17784
466.573	20943
466.607	23202
466.641	26783
466.687	31684
466.708	32671
466.766	35201
466.775	33353
466.842	18849
466.845	18119
466.909	17944
466.925	17873
466.977	17512
467.004	17266
467.044	18451
467.083	19572
467.111	20420
467.163	21867
467.178	22158
467.242	23121
467.245	23107
467.312	21740
467.321	21510
467.379	21758
467.400	21775
467.446	22753
467.480	23372
467.559	21293
467.638	21452
467.717	20984
467.796	22072
467.875	23185
467.955	23378
468.034	29820
468.113	43013
468.192	52081
468.271	32260
468.350	37646
468.429	44173
468.508	42503
468.588	32861
468.667	27207
468.746	24405
468.825	22971
468.904	21771
468.983	22875
469.062	25012
469.141	25550
469.220	20257
469.299	20608
469.378	20667
469.456	24070
469.535	22420
469.614	20951
469.693	21151
469.772	23528
469.851	26997
469.930	21003
470.009	21067
470.088	20549
470.166	21727
470.245	22765
470.324	22526
470.403	21562
470.482	19367
470.560	20016
470.639	19087
470.718	21458
470.797	20142
470.875	20971
470.954	23243
471.033	23598
471.111	19784
471.190	18687
471.269	19595
471.347	19256
471.426	19874
471.505	21338
471.583	21685
471.662	21190
471.740	19920
471.819	20626
471.898	20783
471.976	20084
472.055	19472
472.133	21593
472.212	23303
472.290	21732
472.369	19318
472.447	18657
472.526	18921
472.604	20294
472.683	18588
472.761	19000
472.839	19882
472.918	19048
472.996	19770
473.075	21120
473.153	20304
473.231	19853
473.310	21124
473.388	19886
473.466	19593
473.545	21065
473.623	21842
473.701	21578
473.780	20609
473.858	18378
473.936	21864
474.014	20830
474.093	21224
474.171	25298
474.249	25532
474.327	20796
474.405	19164
474.484	18875
474.562	19265
474.640	18984
474.718	19503
474.796	18618
474.874	19181
474.952	18393
475.030	18251
475.108	18232
475.187	18935
475.265	18871
475.343	19573
475.421	19771
475.499	18909
475.577	20206
475.655	22463
475.733	26661
475.811	33945
475.889	31228
475.966	23147
476.044	19194
476.122	18061
476.200	19211
476.278	17908
476.356	19466
476.434	18781
476.512	20269
476.590	19598
476.667	19366
476.745	17744
476.823	19383
476.901	18565
476.979	19214
477.056	18712
477.134	19458
477.212	18601
477.290	19077
477.367	17999
477.445	17944
477.523	17722
477.601	17867
477.678	18425
477.756	19963
477.834	18722
477.911	17580
477.989	18087
478.066	18953
478.144	18285
478.222	17427
478.299	19369
478.377	19653
478.454	19372
478.532	17639
478.609	17930
478.687	18518
478.764	17532
478.842	18051
478.919	17892
478.997	18321
479.074	17272
479.152	18589
479.229	19428
479.307	17290
479.384	17104
479.461	17343
479.539	17656
479.616	17367
479.694	17527
479.771	18981
479.848	17584
479.926	19222
480.003	19775
480.080	17626
480.157	17448
480.235	16724
480.312	18128
480.389	19024
480.467	21712
480.544	21827
480.621	19571
480.698	19615
480.775	19992
480.853	19279
480.930	18724
481.007	19632
481.084	21966
481.161	26457
481.238	20799
481.315	18841
481.392	18795
481.470	18781
481.547	18576
481.624	17613
481.701	18549
481.778	20000
481.855	19897
481.932	23389
482.009	27707
482.086	23428
482.163	21601
482.240	22939
482.317	22628
482.393	20583
482.470	20732
482.547	21030
482.624	19790
482.701	20614
482.778	19808
482.855	19289
482.932	19190
483.009	20707
483.085	23837
483.162	26260
483.239	25782
483.316	24120
483.393	22953
483.469	21704
483.546	21773
483.623	21392
483.699	20296
483.776	19917
483.853	20905
483.930	24028
484.006	34249
484.083	46538
484.160	38608
484.236	50362
484.313	40620
484.389	34516
484.466	36097
484.543	37441
484.619	39875
484.696	40061
484.772	35355
484.849	32858
484.925	31354
485.002	30695
485.078	30310
485.155	29284
485.231	28010
485.308	27697
485.384	28947
485.461	31200
485.537	37390
485.614	37330
485.690	28845
485.766	26961
485.843	27175
485.919	29505
485.995	27809
486.072	26634
486.148	25984
486.224	26555
486.301	26630
486.377	28082
486.453	27059
486.530	30239
486.606	35426
486.682	36070
486.758	36739
486.835	39684
486.911	36588
486.987	45445
487.063	44504
487.139	49386
487.215	46068
487.292	40789
487.368	40996
487.444	48165
487.520	59562
487.596	82914
487.672	181113
487.748	431697
487.824	569814
487.900	209808
487.976	83767
488.052	55014
488.128	45469
488.204	37367
488.280	33941
488.356	35033
488.432	44159
488.508	48448
488.584	28505
488.660	27368
488.736	26375
488.812	26358
488.888	28484
488.964	31891
489.039	42833
489.115	51159
489.191	34806
489.267	26118
489.343	25245
489.418	23631
489.494	23477
489.570	21743
489.646	25025
489.722	22760
489.797	23974
489.873	29932
489.949	39930
490.024	31170
490.100	22949
490.176	24599
490.251	23741
490.327	25241
490.403	21410
490.478	22085
490.554	21343
490.629	22032
490.705	20360
490.781	22193
490.856	20896
490.932	22765
491.007	21325
491.083	21777
491.158	22066
491.234	24528
491.309	33729
491.385	28887
491.460	20302
491.536	20991
491.611	20005
491.686	21086
491.762	22212
491.837	29789
491.913	39678
491.988	48756
492.063	48744
492.139	27276
492.214	22831
492.289	19456
492.365	18788
492.440	20562
492.515	18709
492.590	20051
492.666	18481
492.741	21323
492.816	23014
492.891	19071
492.967	18911
493.042	17935
493.117	18477
493.192	19150
493.267	24707
493.342	38590
493.418	38600
493.493	18542
493.568	17599
493.643	17716
493.718	19060
493.793	21970
493.868	21090
493.943	18748
494.018	18257
494.093	17985
494.168	18248
494.243	17781
494.318	18064
494.393	17832
494.468	16378
494.543	17084
494.618	18257
494.693	17087
494.768	16767
494.842	17697
494.917	16577
494.992	17901
495.067	16675
495.142	16755
495.217	17606
495.292	17590
495.366	18405
495.441	19243
495.516	21991
495.591	26770
495.665	49706
495.740	80939
495.815	31639
495.890	18732
495.964	17428
496.039	21264
496.114	21660
496.188	25758
496.263	21560
496.338	18571
496.412	19842
496.487	21712
496.561	20565
496.636	20218
496.710	19647
496.785	20700
496.860	20590
496.934	18063
497.009	18069
497.083	17821
497.158	18754
497.232	19787
497.307	20866
497.381	19212
497.455	19862
497.530	22722
497.604	18012
497.679	18943
497.753	23247
497.827	22684
497.902	21161
497.976	27807
498.050	65445
498.125	176690
498.199	119611
498.273	23630
498.348	20370
498.422	20207
498.496	19945
498.570	21116
498.645	18434
498.719	18115
498.793	20892
498.867	25372
498.941	35116
499.016	90564
499.090	170608
499.164	43320
499.238	18717
499.312	19125
499.386	19996
499.460	18550
499.534	18421
499.609	21330
499.683	24066
499.757	24415
499.831	50723
499.905	132373
499.979	82899
500.053	25548
500.127	25230
500.201	19528
500.275	18534
500.349	18822
500.422	19747
500.496	24570
500.570	38228
500.644	84880
500.718	113339
500.792	26624
500.866	19970
500.940	21563
501.013	19823
501.087	20083
501.161	25837
501.235	28980
501.309	59199
501.382	124568
501.456	73248
501.530	31153
501.603	41235
501.677	20947
501.751	16426
501.825	20229
501.898	30277
501.972	53980
502.046	27682
502.119	19848
502.193	32411
502.266	53975
502.340	27074
502.413	34610
502.487	45561
502.561	28026
502.634	17342
502.708	17695
502.781	16025
502.855	16727
502.928	14063
503.002	15301
503.075	15421
503.149	16662
503.222	17714
503.295	18067
503.369	19328
503.442	24968
503.516	51711
503.589	88068
503.662	52518
503.736	36023
503.809	60028
503.882	55467
503.956	93527
504.029	127235
504.102	248823
504.175	291478
504.249	125101
504.322	60750
504.395	39646
504.468	29023
504.542	24103
504.615	19834
504.688	19005
504.761	16239
504.834	18804
504.907	18792
504.980	19741
505.053	16676
505.127	16433
505.200	20170
505.273	16861
505.346	15032
505.419	13727
505.492	14661
505.565	12795
505.638	14019
505.711	13033
505.784	13563
505.857	13105
505.930	15629
506.003	11279
506.076	15200
506.149	15082
506.221	13540
506.294	18227
506.367	30852
506.440	67265
506.513	27323
506.586	15431
506.659	13244
506.731	13368
506.804	13129
506.877	14236
506.950	13343
507.022	14018
507.095	13108
507.168	14876
507.241	13106
507.313	11771
507.386	11298
507.459	14465
507.531	12886
507.604	11723
507.677	13687
507.749	10732
507.822	14905
507.894	21202
507.967	22304
508.040	16946
508.112	16492
508.185	16170
508.257	15231
508.330	18520
508.402	15586
508.475	15653
508.547	15765
508.620	15454
508.692	18266
508.765	13804
508.837	13338
508.909	14868
508.982	14556
509.054	15398
509.127	13375
509.199	13008
509.271	13290
509.344	14001
509.416	13902
509.488	14392
509.560	14718
509.633	13478
509.705	16170
509.777	17879
509.849	17923
509.922	16089
509.994	16522
510.066	16907
510.138	16683
510.210	24773
510.283	20119
510.355	18884
510.427	16998
510.499	16227
510.571	15928
510.643	15929
510.715	19157
510.787	15233
510.859	17722
510.931	16321
511.003	20506
511.076	18567
511.148	16101
511.219	16915
511.291	21492
511.363	20196
511.435	15967
511.507	14690
511.579	16197
511.651	15633
511.723	15690
511.795	13928
511.867	14546
511.939	16916
512.010	20845
512.082	16749
512.154	12744
512.226	15688
512.298	21354
512.369	21946
512.441	18653
512.513	17361
512.585	15447
512.656	17286
512.728	17174
512.800	15408
512.871	16343
512.943	14802
513.015	13934
513.086	15579
513.158	15979
513.230	14291
513.301	16940
513.373	17664
513.444	15469
513.516	14891
513.588	15013
513.659	14902
513.731	16642
513.802	14872
513.874	21839
513.945	22743
514.016	14757
514.088	14948
514.159	14975
514.231	18046
514.302	20411
514.374	18168
514.445	15977
514.516	24337
514.588	17724
514.659	16999
514.730	21593
514.802	17648
514.873	13205
514.944	16232
515.016	16498
515.087	16072
515.158	19707
515.229	20272
515.301	14211
515.372	15912
515.443	14325
515.514	14650
515.585	13879
515.656	15752
515.728	14772
515.799	14292
515.870	16691
515.941	16342
516.012	16023
516.083	18815
516.154	17578
516.225	19775
516.296	19672
516.367	17033
516.438	18134
516.509	19874
516.580	27738
516.651	62054
516.722	133407
516.793	46547
516.864	24643
516.935	24130
517.006	25319
517.077	30622
517.148	61587
517.219	171038
517.289	175882
517.360	73504
517.431	30255
517.502	18911
517.573	20951
517.643	20265
517.714	21808
517.785	21779
517.856	22099
517.926	25350
517.997	27295
518.068	27669
518.138	34013
518.209	47551
518.280	143993
518.350	323614
518.421	98371
518.492	45136
518.562	50484
518.633	64342
518.703	101049
518.774	213668
518.845	413830
518.915	297370
518.986	107189
519.056	58688
519.127	49023
519.197	53017
519.268	83311
519.338	44807
519.408	26618
519.479	25861
519.549	21550
519.620	21321
519.690	18703
519.760	17695
519.831	18108
519.901	17548
519.971	18262
520.042	18012
520.112	18436
520.182	19700
520.253	18875
520.323	17259
520.393	23034
520.463	26794
520.534	22775
520.604	34249
520.674	20343
520.744	23459
520.814	39543
520.885	27631
520.955	39929
521.025	81315
521.095	26289
521.165	17522
521.235	15806
521.305	14606
521.375	15687
521.445	17992
521.515	17017
521.585	20003
521.655	15552
521.725	18049
521.795	16959
521.865	13568
521.935	21272
522.005	15230
522.075	14472
522.145	17318
522.215	16891
522.285	19227
522.355	21446
522.424	28745
522.494	23528
522.564	18835
522.634	28022
522.704	46854
522.774	19509
522.843	15874
522.913	17817
522.983	17333
523.053	16257
523.122	17141
523.192	18408
523.262	30849
523.331	23832
523.401	16163
523.471	15551
523.540	15668
523.610	14718
523.680	16187
523.749	17613
523.819	17660
523.888	17182
523.958	16511
524.027	16555
524.097	16680
524.166	14971
524.236	14089
524.305	17766
524.375	15771
524.444	14209
524.514	17373
524.583	16271
524.653	16145
524.722	18857
524.791	15057
524.861	18065
524.930	14966
524.999	16490
525.069	18787
525.138	17815
525.207	19393
525.277	19947
525.346	19383
525.415	21391
525.484	22515
525.554	24517
525.623	29249
525.692	32834
525.761	34245
525.830	42026
525.900	51235
525.969	83804
526.038	150972
526.107	347480
526.176	714543
526.245	429050
526.314	186835
526.383	429520
526.452	454500
526.522	686775
526.591	432665
526.660	108239
526.729	71560
526.797	81442
526.867	149591
526.935	445764
527.004	884381
527.073	409848
527.142	88131
527.211	47805
527.280	36889
527.349	29831
527.418	22662
527.487	23581
527.555	19575
527.624	19601
527.693	16850
527.762	19476
527.831	16316
527.899	17415
527.968	15989
528.037	15726
528.106	17292
528.174	19427
528.243	18416
528.312	21435
528.380	21071
528.449	15912
528.518	16826
528.586	14119
528.655	16354
528.723	16138
528.792	15532
528.861	15628
528.929	15648
528.998	19422
529.066	27601
529.135	35827
529.203	35354
529.272	49731
529.340	52674
529.409	47571
529.477	43344
529.545	46528
529.614	51478
529.682	59278
529.751	60067
529.819	68859
529.887	72867
529.956	63932
530.024	60994
530.092	57812
530.161	59381
530.229	63832
530.297	65674
530.365	64506
530.434	71667
530.502	68002
530.570	59816
530.638	55299
530.707	51955
530.775	51826
530.843	55932
530.911	59179
530.979	59432
531.047	67052
531.115	62022
531.183	56386
531.252	53338
531.320	52825
531.388	53618
531.456	63477
531.524	63850
531.592	69029
531.660	74204
531.728	64912
531.796	64601
531.864	63969
531.932	63726
532.000	64788
532.067	71495
532.135	72158
532.203	77702
532.271	79264
532.339	82972
532.407	84532
532.475	74947
532.542	71920
532.610	72900
532.678	80856
532.746	117695
532.814	136319
532.881	84363
532.949	74119
533.017	69060
533.084	68045
533.152	64092
533.220	64296
533.287	67269
533.355	68943
533.423	70831
533.490	70605
533.558	67485
533.625	65282
533.693	62553
533.761	61641
533.828	63343
533.896	63736
533.963	73110
534.031	74460
534.098	78831
534.166	71717
534.233	67532
534.300	68483
534.368	66106
534.435	63002
534.503	63990
534.570	68932
534.637	67154
534.705	72170
534.772	79199
534.840	131761
534.907	394172
534.974	292570
535.041	73469
535.109	57035
535.176	54675
535.243	54240
535.310	53908
535.378	52417
535.445	50154
535.512	49171
535.579	47978
535.646	45481
535.714	46611
535.781	49736
535.848	51016
535.915	52998
535.982	54262
536.049	50902
536.116	48873
536.183	44842
536.250	42940
536.317	42823
536.384	43991
536.451	44031
536.518	46265
536.585	42571
536.652	46252
536.719	44643
536.786	39004
536.853	39966
536.920	41761
536.987	42867
537.053	45580
537.120	81049
537.187	56519
537.254	40876
537.321	41142
537.388	40223
537.454	36939
537.521	35592
537.588	35726
537.654	37228
537.721	37789
537.788	38030
537.855	36468
537.921	37181
537.988	35703
538.055	35352
538.121	32616
538.188	33230
538.254	32698
538.321	36650
538.388	34491
538.454	36059
538.521	35737
538.587	35600
538.654	36317
538.720	34934
538.787	33204
538.853	34370
538.920	33280
538.986	30158
539.053	29950
539.119	30733
539.185	31528
539.252	35102
539.318	35299
539.385	38724
539.451	33272
539.517	34206
539.583	34202
539.650	44427
539.716	50323
539.782	31494
539.849	29518
539.915	31593
539.981	30260
540.047	29487
540.114	30285
540.180	31999
540.246	30435
540.312	33597
540.378	35513
540.444	35904
540.510	44443
540.576	54833
540.643	32507
540.709	29706
540.775	30253
540.841	29420
540.907	31781
540.973	34567
541.039	31651
541.105	31197
541.171	31702
541.237	31268
541.303	31806
541.369	32842
541.435	32451
541.500	31433
541.566	27443
541.632	27389
541.698	29113
541.764	29248
541.830	28331
541.896	27683
541.961	29099
542.027	28094
542.093	30786
542.159	31343
542.224	29535
542.290	32483
542.356	31378
542.421	30556
542.487	28816
542.553	27986
542.618	28104
542.684	27387
542.750	28358
542.815	29878
542.881	35140
542.947	56693
543.012	38184
543.078	27162
543.143	26825
543.209	29109
543.274	27489
543.340	30318
543.405	39476
543.471	36893
543.536	29116
543.602	29562
543.667	28184
543.732	30285
543.798	27514
543.863	29213
543.928	27810
543.994	28396
544.059	28391
544.124	29853
544.190	29193
544.255	29910
544.320	29830
544.386	29349
544.451	32769
544.516	32000
544.581	32767
544.646	49889
544.712	48480
544.777	31999
544.842	31114
544.907	31462
544.972	31105
545.037	33134
545.102	34076
545.168	33227
545.233	34707
545.298	35239
545.363	34510
545.428	37722
545.493	44207
545.558	50005
545.623	36732
545.688	34899
545.753	36564
545.818	37424
545.883	38838
545.947	38674
546.012	40537
546.077	40620
546.142	42973
546.207	44534
546.272	46378
546.337	47482
546.401	49539
546.466	50812
546.531	52051
546.596	55742
546.661	56320
546.725	59757
546.790	61080
546.855	67165
546.919	72275
546.984	78521
547.049	85809
547.113	95740
547.178	106744
547.243	117932
547.307	137758
547.372	144792
547.436	145374
547.501	154922
547.565	158768
547.630	146101
547.695	143469
547.759	146941
547.823	145450
547.888	149402
547.952	154108
548.017	161029
548.081	161911
548.146	161446
548.210	168147
548.274	178897
548.339	166885
548.403	154759
548.468	148799
548.532	148833
548.596	150774
548.660	152987
548.725	167699
548.789	178148
548.853	171147
548.917	164244
548.982	157937
549.046	143375
549.110	131118
549.174	140241
549.238	163992
549.303	172571
549.367	174200
549.431	162801
549.495	156286
549.559	162942
549.623	192757
549.687	193326
549.751	204618
549.815	235734
549.879	225829
549.943	224518
550.007	235384
550.071	223572
550.135	204959
550.199	198548
550.263	191501
550.327	186735
550.391	196924
550.455	214144
550.519	221153
550.582	240924
550.646	264302
550.710	262311
550.774	259636
550.838	264877
550.901	275314
550.965	288316
551.029	299883
551.093	318296
551.156	346485
551.220	369427
551.284	358918
551.347	306928
551.411	294845
551.475	283131
551.538	282318
551.602	257822
551.666	251610
551.729	236746
551.793	235339
551.856	229221
551.920	229927
551.983	229658
552.047	226789
552.110	228936
552.174	231139
552.237	228323
552.301	216272
552.364	209172
552.428	205669
552.491	215266
552.554	215380
552.618	213996
552.681	216471
552.745	209621
552.808	219877
552.871	226645
552.934	220547
552.998	214231
553.061	213166
553.124	203974
553.187	207380
553.251	212285
553.314	211000
553.377	216811
553.440	234783
553.503	262009
553.567	256062
553.630	230078
553.693	227243
553.756	229597
553.819	225589
553.882	218392
553.945	222395
554.008	223023
554.071	223514
554.134	222371
554.197	212012
554.260	212012
554.323	216037
554.386	218258
554.449	224910
554.512	220837
554.575	216802
554.638	214353
554.701	214013
554.764	208375
554.827	203777
554.889	195219
554.952	185976
555.015	187221
555.078	188431
555.141	189365
555.203	184178
555.266	185279
555.329	183705
555.391	176730
555.454	173857
555.517	168290
555.580	161824
555.642	158148
555.705	155815
555.768	155772
555.830	149321
555.893	143774
555.955	139535
556.018	137147
556.080	139225
556.143	140787
556.206	137835
556.268	136836
556.330	132188
556.393	129754
556.455	128045
556.518	126619
556.580	121218
556.643	116108
556.705	115891
556.767	111764
556.830	111879
556.892	110357
556.955	109659
557.017	103379
557.079	103910
557.142	101222
557.204	99556
557.266	101283
557.328	93634
557.391	88852
557.453	87766
557.515	85936
557.577	89331
557.639	87623
557.701	86452
557.764	87103
557.826	86174
557.888	88725
557.950	89131
558.012	97939
558.074	129449
558.136	277344
558.198	402104
558.260	138062
558.322	91328
558.384	91154
558.446	91308
558.508	97367
558.570	104482
558.632	121433
558.694	153395
558.756	262766
558.818	641096
558.880	850064
558.942	425720
559.003	447389
559.065	180019
559.127	106864
559.189	103048
559.251	115233
559.312	172041
559.374	403181
559.436	732567
559.498	295669
559.559	116082
559.621	100987
559.683	120801
559.744	207174
559.806	531647
559.868	473575
559.929	136811
559.991	117817
560.052	215605
560.114	426878
560.176	221012
560.237	313839
560.299	311633
560.360	80189
560.422	52450
560.483	48524
560.545	46502
560.606	46532
560.667	43284
560.729	42703
560.790	39725
560.852	41374
560.913	38832
560.974	37822
561.036	37591
561.097	37742
561.158	37615
561.220	36866
561.281	35680
561.342	35854
561.403	37247
561.465	36039
561.526	43126
561.587	41144
561.648	33970
561.709	33943
561.771	33280
561.832	33489
561.893	33074
561.954	31978
562.015	32895
562.076	31323
562.137	32462
562.198	31974
562.259	30958
562.320	31053
562.381	32818
562.442	32896
562.503	30488
562.564	29561
562.625	28767
562.686	29141
562.747	28708
562.808	29715
562.869	29181
562.930	30577
562.991	29648
563.051	28623
563.112	27205
563.173	28069
563.234	26738
563.294	26938
563.355	26775
563.416	27323
563.477	27441
563.537	27675
563.598	26346
563.659	27351
563.720	25495
563.780	26634
563.841	26920
563.901	27699
563.962	25472
564.023	25695
564.083	26452
564.144	25964
564.204	25649
564.265	26287
564.325	26802
564.386	30574
564.446	27201
564.507	24359
564.567	24798
564.628	24783
564.688	24365
564.749	24187
564.809	25322
564.869	25880
564.930	23714
564.990	24508
565.050	23845
565.111	24432
565.171	24622
565.231	24072
565.292	25247
565.352	24291
565.412	24602
565.472	24300
565.532	23983
565.593	23929
565.653	24011
565.713	23959
565.773	24257
565.833	25393
565.893	26429
565.953	23624
566.013	23695
566.074	24051
566.134	25398
566.194	27439
566.254	26202
566.314	25032
566.374	22514
566.434	23424
566.494	24087
566.554	23937
566.614	23848
566.673	23821
566.733	23937
566.793	23587
566.853	24879
566.913	24455
566.973	23574
567.033	24960
567.092	23579
567.152	23994
567.212	23389
567.272	24775
567.331	24669
567.391	24372
567.451	25331
567.511	27168
567.570	25754
567.630	24714
567.690	22842
567.749	23602
567.809	25132
567.868	23269
567.928	24181
567.988	24314
568.047	24093
568.107	24571
568.166	23513
568.226	23342
568.285	24708
568.345	24791
568.404	24371
568.464	23462
568.523	24138
568.582	24416
568.642	24006
568.701	23239
568.761	22855
568.820	22861
568.879	24637
568.939	25815
568.998	23591
569.057	23282
569.116	23605
569.176	24367
569.235	24080
569.294	22456
569.353	22551
569.413	22692
569.472	22538
569.531	22165
569.590	21364
569.649	22332
569.708	22342
569.767	23998
569.827	22526
569.886	22099
569.945	21805
570.004	22889
570.063	22904
570.122	23515
570.181	22985
570.240	24192
570.299	23531
570.358	23325
570.417	23179
570.475	23274
570.534	23667
570.593	23293
570.652	24329
570.711	24172
570.770	23677
570.829	23318
570.887	23201
570.946	24198
571.005	23878
571.064	23404
571.122	22851
571.181	24205
571.240	21224
571.299	22773
571.357	22382
571.416	22386
571.475	23425
571.533	24064
571.592	24469
571.650	23202
571.709	23962
571.768	25695
571.826	24993
571.885	24698
571.943	22914
572.002	22649
572.060	22357
572.119	22381
572.177	22548
572.236	22989
572.294	22805
572.352	24413
572.411	24518
572.469	22957
572.528	22271
572.586	22772
572.644	22364
572.703	22300
572.761	21217
572.819	21062
572.877	21042
572.936	19603
572.994	20505
573.052	20620
573.110	20800
573.169	22348
573.227	20744
573.285	21062
573.343	21090
573.401	20151
573.459	21466
573.517	20744
573.576	21829
573.634	21623
573.692	20276
573.750	21564
573.808	20811
573.866	20232
573.924	22032
573.982	21507
574.040	19298
574.098	20498
574.155	19003
574.213	19464
574.271	20526
574.329	20070
574.387	19504
574.445	19273
574.503	18259
574.560	18480
574.618	18779
574.676	19409
574.734	17995
574.792	18792
574.849	18495
574.907	17075
574.965	16679
575.022	16141
575.080	16323
575.138	16448
575.195	16777
575.253	15802
575.311	17353
575.368	17522
575.426	16359
575.483	17604
575.541	17477
575.598	17749
575.656	16455
575.713	17357
575.771	17558
575.828	17246
575.886	16685
575.943	17048
576.001	16318
576.058	17255
576.115	16913
576.173	17530
576.230	17744
576.287	17376
576.345	17627
576.402	16715
576.459	16263
576.517	16509
576.574	16482
576.631	16935
576.688	15300
576.746	15881
576.803	15870
576.860	14650
576.917	16202
576.974	16708
577.031	16218
577.089	15457
577.146	15387
577.203	15574
577.260	16089
577.317	16550
577.374	17350
577.431	15428
577.488	15176
577.545	15999
577.602	16914
577.659	16439
577.716	15924
577.773	16902
577.830	17092
577.886	16244
577.943	15740
578.000	15885
578.057	17582
578.114	17584
578.171	21046
578.227	24988
578.284	23069
578.341	20231
578.398	17304
578.454	18012
578.511	17919
578.568	18405
578.625	16693
578.681	16491
578.738	16569
578.794	16665
578.851	16321
578.908	16379
578.964	16634
579.021	16310
579.077	16500
579.134	16430
579.190	15879
579.247	17123
579.303	16439
579.360	16888
579.416	15152
579.473	15720
579.529	15630
579.586	16611
579.642	16829
579.698	16413
579.755	16775
579.811	18247
579.867	17450
579.924	18680
579.980	20067
580.036	23064
580.093	26945
580.149	34942
580.205	33714
580.261	27421
580.317	24246
580.374	21814
580.430	21560
580.486	20631
580.542	19530
580.598	20245
580.619	20220
580.654	20206
580.692	19875
580.710	19754
580.765	19557
580.767	19579
580.823	20054
580.838	19932
580.879	19720
580.911	19765
580.935	19831
580.984	19503
580.991	19495
581.047	20708
581.057	20583
581.103	20144
581.130	21223
581.159	22410
581.203	22749
581.215	22876
581.270	22294
581.276	22172
581.326	21297
581.349	20863
581.382	20263
581.422	21137
581.438	21528
581.494	20625
581.494	20592
581.550	19377
581.567	19837
581.606	20868
581.640	20734
581.661	20693
581.713	21511
581.717	21606
581.773	19963
581.786	20176
581.829	20858
581.859	20737
581.885	20721
581.932	20987
581.940	21031
581.996	21235
582.004	21370
582.052	22319
582.077	21334
582.107	20259
582.150	21218
582.163	21480
582.219	21000
582.223	20977
582.274	20962
582.296	21234
582.330	21701
582.368	21493
582.386	21482
582.441	22274
582.441	22285
582.497	21298
582.514	21718
582.552	22694
582.587	22759
582.608	22834
582.659	22672
582.663	22669
582.719	23238
582.732	23211
582.774	23203
582.805	23841
582.830	24374
582.877	25048
582.885	25189
582.941	27374
582.950	27938
582.996	30535
583.023	31762
583.052	33406
583.095	33308
583.107	33191
583.162	33230
583.168	33138
583.218	32394
583.240	30522
583.273	27794
583.313	27267
583.328	27119
583.384	25347
583.385	25277
583.439	22882
583.458	22812
583.494	22918
583.531	22231
583.549	21799
583.603	21470
583.605	21461
583.660	20464
583.676	20798
583.715	21578
583.748	21126
583.770	20841
583.820	20937
583.825	20952
583.881	21088
583.893	20925
583.936	20046
583.965	20149
583.991	20338
584.038	20154
584.046	20113
584.101	19989
584.110	20124
584.156	20545
584.183	20347
584.211	20292
584.255	20487
584.266	20491
584.321	21591
584.328	21606
584.376	21714
584.400	21374
584.431	20695
584.472	21020
584.486	21235
584.541	22554
584.545	22590
584.596	22274
584.617	21917
584.651	21993
584.689	23186
584.706	23348
584.761	22575
584.762	22597
584.816	23097
584.834	23192
584.871	23432
584.906	23988
584.926	24172
584.978	24264
584.980	24262
585.035	25102
585.051	25487
585.090	26158
585.123	26787
585.145	27122
585.195	27874
585.200	27982
585.254	30865
585.267	31312
585.309	32471
585.340	34376
585.364	35958
585.412	41159
585.419	41947
585.473	51075
585.484	54100
585.528	68119
585.556	85446
585.583	108689
585.628	173211
585.637	190960
585.692	367542
585.700	383410
585.747	437152
585.772	359467
585.801	225958
585.845	104745
585.856	85826
585.910	49928
585.917	46944
585.965	37011
585.989	34383
586.019	32142
586.061	29602
586.074	28794
586.128	26632
586.133	26544
586.183	25429
586.205	25020
586.237	24250
586.277	23557
586.292	23343
586.346	22561
586.349	22588
586.401	22017
586.421	21636
586.455	20911
586.493	21455
586.509	22138
586.564	22994
586.565	23128
586.618	26806
586.637	26658
586.672	25465
586.709	25622
586.727	25789
586.781	26354
586.781	26305
586.835	22597
586.853	21821
586.889	20466
586.925	19363
586.944	18825
586.996	18939
586.998	18904
587.052	18243
587.068	18115
587.106	17845
587.140	17597
587.161	17304
587.212	17204
587.215	17181
587.269	17916
587.284	18095
587.323	18138
587.356	18036
587.377	18056
587.427	19013
587.431	18999
587.485	18188
587.499	18236
587.539	18461
587.571	19260
587.593	19687
587.643	19528
587.648	19476
587.702	19378
587.715	19640
587.755	19925
587.786	20002
587.810	19929
587.858	19337
587.864	19256
587.917	19788
587.930	19832
587.971	19875
588.001	20363
588.025	20241
588.073	19584
588.079	19559
588.133	19694
588.145	20027
588.187	20492
588.217	20381
588.241	20359
588.288	21261
588.295	21285
588.348	21719
588.360	21906
588.402	22790
588.431	23140
588.456	22905
588.503	23934
588.510	24184
588.564	26525
588.575	27112
588.617	28149
588.646	29500
588.671	30365
588.718	33446
588.725	34255
588.778	44696
588.789	48339
588.832	71244
588.861	92910
588.886	128917
588.932	216522
588.939	225835
588.993	258296
589.004	252122
589.047	127383
589.075	66262
589.100	49478
589.147	31827
589.154	30949
589.207	27889
589.218	27633
589.261	28385
589.290	29500
589.314	29896
589.361	32875
589.368	33931
589.421	47026
589.433	51403
589.475	84345
589.504	115945
589.528	153609
589.576	216704
589.582	210562
589.635	99886
589.647	82424
589.689	44698
589.718	25282
589.742	23476
589.790	20691
589.795	20476
589.849	20025
589.861	20233
589.902	20491
589.932	19943
589.955	19039
590.004	18025
590.009	17846
590.062	16967
590.075	16792
590.115	16280
590.146	16210
590.168	16244
590.218	16497
590.222	16399
590.275	16342
590.289	16372
590.328	16746
590.360	17086
590.381	17032
590.431	17333
590.435	17263
590.488	17450
590.503	17575
590.541	17033
590.574	16717
590.594	16695
590.645	17240
590.647	17183
590.700	17872
590.716	18173
590.753	17888
590.787	17906
590.806	18092
590.859	18894
590.859	18797
590.912	18661
590.930	18710
590.965	18664
591.001	18878
591.018	18622
591.071	18244
591.072	18340
591.124	17965
591.143	18013
591.177	17927
591.214	18163
591.230	18309
591.283	18967
591.285	19094
591.336	18067
591.356	17786
591.389	17783
591.427	18024
591.442	17850
591.495	17671
591.498	17759
591.547	17393
591.569	17449
591.600	17322
591.640	17271
591.653	17341
591.706	18197
591.711	18405
591.759	17635
591.782	17441
591.811	18121
591.853	19393
591.864	19166
591.917	18561
591.924	18600
591.969	18419
591.995	18525
592.022	18189
592.066	18086
592.075	18314
592.127	20448
592.137	20991
592.180	20006
592.208	19531
592.233	19251
592.279	19152
592.285	19014
592.338	19079
592.350	19237
592.390	19035
592.421	19179
592.443	19309
592.491	20037
592.495	19876
592.548	19745
592.562	19862
592.600	19508
592.633	19507
592.653	19127
592.704	18452
592.705	18571
592.775	19527
592.846	20208
592.916	20266
592.987	20115
593.058	19876
593.128	20163
593.199	20214
593.270	21319
593.341	20592
593.411	20796
593.482	21154
593.553	22472
593.623	21449
593.694	23426
593.764	23376
593.835	23694
593.906	23365
593.976	23717
594.047	23916
594.117	26713
594.188	26058
594.258	26242
594.329	25363
594.399	26519
594.470	27733
594.540	28310
594.611	28788
594.681	28875
594.751	28239
594.822	30437
594.892	30359
594.963	32406
595.033	32673
595.103	33170
595.174	33473
595.244	36544
595.314	37196
595.384	36389
595.455	36455
595.525	37817
595.595	38622
595.665	39664
595.736	37275
595.806	39862
595.876	39588
595.946	39807
596.016	42169
596.087	42745
596.157	42153
596.227	43402
596.297	44471
596.367	47345
596.437	50606
596.507	52259
596.577	51766
596.647	51653
596.717	52987
596.787	54433
596.857	53926
596.927	55600
596.997	55213
597.067	55889
597.137	57357
597.207	57629
597.277	57398
597.347	55218
597.417	53660
597.487	54652
597.557	55383
597.626	56601
597.696	58368
597.766	59147
597.836	55822
597.906	51914
597.975	50880
598.045	52224
598.115	53847
598.185	56359
598.254	63038
598.324	69109
598.394	69619
598.464	68209
598.533	67100
598.603	63129
598.672	61199
598.742	64442
598.812	63229
598.881	64995
598.951	63921
599.020	66338
599.090	68877
599.159	69731
599.229	67014
599.299	65226
599.368	67889
599.437	66978
599.507	63671
599.576	61522
599.646	60439
599.715	61107
599.785	60222
599.854	59476
599.924	58406
599.993	58087
600.062	58827
600.132	61684
600.201	64894
600.270	72008
600.340	76196
600.409	75518
600.478	75813
600.547	76841
600.617	71566
600.686	61112
600.755	56926
600.824	55301
600.894	54740
600.963	55478
601.032	54423
601.101	53903
601.170	51003
601.239	51330
601.308	52098
601.378	53083
601.447	53055
601.516	53327
601.585	53761
601.654	55504
601.723	55437
601.792	58569
601.861	59452
601.930	62308
601.999	61989
602.068	62131
602.137	62666
602.206	64341
602.275	63979
602.343	65563
602.412	65784
602.481	67324
602.550	66306
602.619	67003
602.688	69539
602.756	68105
602.825	69637
602.894	72126
602.963	71097
603.032	72723
603.100	73220
603.169	72587
603.238	73170
603.307	72164
603.375	73794
603.444	74803
603.513	72998
603.581	74433
603.650	76424
603.719	70578
603.787	69870
603.856	73153
603.924	73943
603.993	76151
604.061	77345
604.130	80395
604.198	82405
604.267	82883
604.335	84860
604.404	84989
604.472	87586
604.541	87274
604.609	89762
604.678	91406
604.746	90801
604.815	94428
604.883	93683
604.951	93939
605.020	94362
605.088	94613
605.156	91555
605.225	92666
605.293	93935
605.361	95115
605.429	95491
605.498	97515
605.566	99194
605.634	103430
605.702	105332
605.771	108112
605.839	107611
605.907	103972
605.975	103011
606.043	100676
606.111	98263
606.180	100676
606.248	97427
606.316	97956
606.384	98873
606.452	93838
606.520	90154
606.588	95366
606.656	94226
606.724	92816
606.792	87346
606.860	79632
606.928	72339
606.996	70694
607.064	68683
607.132	71639
607.200	75701
607.267	78410
607.335	80431
607.403	81428
607.471	78181
607.539	75835
607.607	76565
607.674	68513
607.742	68521
607.810	68133
607.878	68365
607.946	69087
608.013	71616
608.081	74025
608.149	73568
608.216	76450
608.284	79960
608.352	78702
608.419	76387
608.487	77768
608.555	74759
608.622	78128
608.690	80735
608.757	88699
608.825	89904
608.893	88927
608.960	83743
609.028	81180
609.095	81943
609.163	79282
609.230	73214
609.298	68138
609.365	69798
609.432	73908
609.500	81289
609.567	92260
609.635	104101
609.702	107306
609.769	104591
609.837	83396
609.904	74747
609.971	77520
610.039	87065
610.106	114193
610.173	206645
610.241	432568
610.308	272196
610.375	111010
610.442	82416
610.509	76374
610.577	76830
610.644	76345
610.711	78472
610.778	81623
610.845	83242
610.912	88520
610.980	90681
611.047	92580
611.114	90839
611.181	86551
611.248	85889
611.315	92105
611.382	94009
611.449	96435
611.516	99683
611.583	97940
611.650	99147
611.717	101905
611.784	102499
611.851	109095
611.918	113764
611.984	133742
612.051	182426
612.118	331645
612.185	673246
612.252	473327
612.319	175849
612.386	136238
612.452	121180
612.519	115490
612.586	112183
612.653	112296
612.719	114739
612.786	110272
612.853	104076
612.919	100656
612.986	102626
613.053	97205
613.120	90420
613.186	87302
613.253	89897
613.319	89362
613.386	90423
613.453	90929
613.519	91681
613.586	89149
613.652	93212
613.719	91525
613.785	92118
613.852	92460
613.918	90599
613.985	93817
614.051	95333
614.118	97564
614.184	93519
614.250	92619
614.317	93588
614.383	92645
614.449	93378
614.516	93751
614.582	94504
614.648	92144
614.715	91158
614.781	89200
614.847	89379
614.914	89746
614.980	86521
615.046	87702
615.112	89787
615.179	89892
615.245	91535
615.311	90228
615.377	91580
615.443	91503
615.509	93877
615.575	97311
615.642	96564
615.708	99380
615.774	103516
615.840	110990
615.906	120407
615.972	144723
616.038	208037
616.104	393640
616.170	755201
616.236	654346
616.302	253087
616.368	189042
616.434	137719
616.500	123921
616.565	137889
616.631	171265
616.697	143423
616.763	145435
616.829	211528
616.895	367148
616.961	352407
617.026	163687
617.092	110217
617.158	102637
617.224	96651
617.289	90776
617.355	84501
617.421	84429
617.487	84739
617.552	80517
617.618	79818
617.684	79403
617.749	82215
617.815	78165
617.880	76167
617.946	75922
618.012	77609
618.077	77920
618.143	74636
618.208	75578
618.274	80565
618.339	80903
618.405	68310
618.470	69257
618.536	68451
618.601	68870
618.667	64442
618.732	62479
618.798	61386
618.863	60838
618.928	59565
618.994	61526
619.059	61045
619.124	63496
619.190	60586
619.255	62083
619.320	60608
619.386	61035
619.451	60692
619.516	58611
619.581	58938
619.647	61223
619.712	60539
619.777	58901
619.842	59820
619.907	61442
619.972	61200
620.038	60352
620.103	60433
620.168	59462
620.233	61290
620.298	60942
620.363	61124
620.428	63000
620.493	64865
620.558	64201
620.623	65470
620.688	64750
620.753	65280
620.818	66115
620.883	65961
620.948	67219
621.013	66033
621.078	64755
621.143	64280
621.207	67807
621.272	65635
621.337	63513
621.402	63115
621.467	64292
621.532	63733
621.596	63526
621.661	62088
621.726	62109
621.791	61108
621.855	62262
621.920	61361
621.985	63341
622.049	65072
622.114	63293
622.179	64505
622.243	66047
622.308	66555
622.373	71961
622.437	67874
622.502	65448
622.566	63977
622.631	63308
622.695	65810
622.760	65563
622.824	66060
622.889	65155
622.953	64614
623.018	70975
623.082	69506
623.147	67812
623.211	66270
623.276	66390
623.340	63484
623.404	62259
623.469	63420
623.533	63212
623.597	61692
623.662	60923
623.726	56952
623.790	54164
623.854	53303
623.919	54723
623.983	55392
624.047	55126
624.111	55748
624.176	56662
624.240	56962
624.304	59421
624.368	56525
624.432	55743
624.496	57565
624.560	60690
624.625	60703
624.689	60554
624.753	61680
624.817	59167
624.881	56566
624.945	54422
625.009	50821
625.073	52671
625.137	52958
625.201	55950
625.265	56122
625.329	53117
625.393	53884
625.456	54653
625.520	54625
625.584	55110
625.648	57602
625.712	60981
625.776	67055
625.839	66675
625.903	51014
625.967	45887
626.031	51406
626.095	61357
626.158	51448
626.222	40258
626.286	39984
626.349	37632
626.413	35582
626.477	36539
626.540	35074
626.604	35201
626.668	36639
626.731	34861
626.795	34544
626.858	35155
626.922	32760
626.986	34836
627.049	32577
627.113	34984
627.176	32967
627.240	32839
627.303	32391
627.366	32018
627.430	32255
627.493	31295
627.557	30441
627.620	32414
627.684	33391
627.747	33574
627.810	28392
627.874	28633
627.937	26622
628.000	28891
628.064	28740
628.127	22643
628.190	25843
628.253	24422
628.317	23003
628.380	23308
628.443	22344
628.506	21768
628.569	20883
628.632	19710
628.696	19497
628.759	19767
628.822	18616
628.885	18632
628.948	17721
629.011	18281
629.074	17354
629.137	16597
629.200	16178
629.263	17650
629.326	16136
629.389	15785
629.452	16575
629.515	15771
629.578	15368
629.641	17410
629.704	15790
629.767	15723
629.830	15850
629.892	14239
629.955	14831
630.018	16588
630.081	14323
630.144	17068
630.207	13398
630.269	16739
630.332	14680
630.395	14883
630.458	13184
630.520	13576
630.583	14269
630.646	14528
630.708	13907
630.771	13015
630.834	15225
630.896	13867
630.959	14149
631.021	14493
631.084	13185
631.146	14755
631.209	15014
631.272	13791
631.334	14600
631.397	14702
631.459	14074
631.522	16285
631.584	15782
631.646	18090
631.709	18540
631.771	18465
631.834	16393
631.896	15834
631.958	14196
632.021	14840
632.083	12705
632.145	14416
632.208	12275
632.270	14276
632.332	11860
632.395	12960
632.457	13980
632.519	12598
632.581	13999
632.643	11728
632.706	13335
632.768	11470
632.830	13897
632.892	13431
632.954	12816
633.016	13908
633.078	12925
633.141	13209
633.203	12441
633.265	12842
633.327	12771
633.389	12285
633.451	14323
633.513	12648
633.575	13761
633.637	13711
633.698	12698
633.760	15121
633.822	15588
633.884	14532
633.946	15457
634.008	16078
634.070	16903
634.132	17909
634.193	19871
634.255	21944
634.317	21506
634.379	22077
634.441	18818
634.502	16851
634.564	16459
634.626	14961
634.687	14162
634.749	13320
634.811	13435
634.873	11955
634.934	12834
634.996	13662
635.057	12464
635.119	12468
635.181	13493
635.242	14840
635.304	12762
635.365	14808
635.427	12289
635.488	13362
635.550	12687
635.611	14599
635.673	12801
635.734	15278
635.796	15636
635.857	18277
635.918	17962
635.980	21759
636.041	21907
636.102	24517
636.164	24252
636.225	23919
636.286	19022
636.348	18201
636.409	15289
636.470	14710
636.531	14109
636.593	12918
636.654	13482
636.715	12287
636.776	12595
636.838	11300
636.899	11917
636.960	11272
637.021	10683
637.082	9969
637.143	10627
637.204	10222
637.265	9782
637.326	11185
637.387	10866
637.448	10147
637.509	10859
637.570	11264
637.631	11673
637.692	10453
637.753	9698
637.814	11254
637.875	9268
637.936	10783
637.997	10406
638.058	9328
638.119	10045
638.179	9464
638.240	9380
638.301	10691
638.362	8973
638.423	9860
638.483	9903
638.544	7673
638.605	10073
638.666	9602
638.726	9948
638.787	10067
638.848	8408
638.908	9674
638.969	8696
639.030	8918
639.090	8192
639.151	8063
639.211	10037
639.272	9767
639.332	9660
639.393	9696
639.453	8690
639.514	10664
639.574	9776
639.635	8500
639.695	9335
639.756	7910
639.816	7708
639.877	9000
639.937	9349
639.997	9403
640.058	8121
640.118	8252
640.178	8966
640.239	8424
640.299	7777
640.359	8432
640.420	9412
640.480	11289
640.540	11739
640.600	11975
640.661	11497
640.721	10211
640.781	11627
640.841	8270
640.901	9618
640.961	9348
641.021	9257
641.082	9392
641.142	9188
641.202	9383
641.262	6145
641.322	9253
641.382	6999
641.442	8291
641.502	8385
641.562	8957
641.622	7571
641.682	9784
641.742	9994
641.802	10682
641.861	8005
641.921	8389
641.981	8224
642.041	8162
642.101	6776
642.161	6991
642.221	7129
642.280	8079
642.340	6723
642.400	7344
642.460	8074
642.519	7680
642.579	8187
642.639	8519
642.698	5548
642.758	10120
642.818	7344
642.877	8040
642.937	7842
642.997	8941
643.056	8253
643.116	6233
643.175	10161
643.235	8291
643.294	8166
643.354	9955
643.414	10951
643.473	12859
643.532	13707
643.592	19667
643.651	30604
643.711	51697
643.770	97729
643.830	226099
643.889	414213
643.948	128389
644.008	29866
644.067	17269
644.126	12499
644.186	11652
644.245	10344
644.304	7657
644.363	10241
644.423	7479
644.482	8470
644.541	9104
644.600	7589
644.659	12910
644.719	15480
644.778	22733
644.837	38292
644.896	78952
644.955	173305
645.014	59962
645.073	15958
645.132	10951
645.191	10254
645.250	9180
645.309	10903
645.368	11164
645.427	15430
645.486	25272
645.545	44699
645.604	14324
645.663	9193
645.722	8355
645.781	9919
645.840	10969
645.898	13344
645.957	19060
646.016	27082
646.075	49530
646.134	93164
646.192	234962
646.251	318042
646.310	64250
646.369	20760
646.427	16998
646.486	10540
646.545	9368
646.603	8622
646.662	7714
646.721	8180
646.779	6957
646.838	7621
646.896	10916
646.955	14551
647.014	24388
647.072	43623
647.131	120234
647.189	57721
647.248	10057
647.306	7929
647.365	7754
647.423	4498
647.481	7312
647.540	4136
647.598	5844
647.657	5736
647.715	6616
647.773	4488
647.832	5478
647.890	3718
647.948	5102
648.007	4712
648.065	3949
648.123	4349
648.181	6132
648.240	5002
648.298	4667
648.356	4229
648.414	4813
648.472	4565
648.531	4724
648.589	4097
648.647	4895
648.705	4767
648.763	4805
648.821	4888
648.879	5046
648.937	5890
648.995	7456
649.053	9304
649.111	13600
649.169	22430
649.227	41186
649.285	87052
649.343	230509
649.401	112581
649.459	19416
649.516	10653
649.574	7822
649.632	9145
649.690	10485
649.748	12668
649.806	15805
649.863	30998
649.921	86328
649.979	56647
650.037	8868
650.094	3659
650.152	5389
650.210	3171
650.268	4306
650.325	4618
650.383	4568
650.440	2364
650.498	3322
650.556	2616
650.613	2745
650.671	2899
650.728	3506
650.786	3788
650.843	5607
650.901	3541
650.958	3410
651.016	2542
651.073	3454
651.131	2041
651.188	2192
651.246	2780
651.303	2316
651.360	2339
651.418	1822
651.475	2751
651.532	2017
651.590	2659
651.647	2341
651.704	1898
651.762	2788
651.819	2228
651.876	2695
651.933	1875
651.990	3286
652.048	981
652.105	2078
652.162	2845
652.219	1452
652.276	2827
652.333	3457
652.390	2117
652.448	2190
652.505	1744
652.562	2653
652.619	1793
652.676	2722
652.733	2749
652.790	2098
652.847	663
652.904	1610
652.961	1289
653.017	1049
653.074	1637
653.131	1235
653.188	1563
653.245	1448
653.302	1450
653.359	2293
653.415	2265
653.472	1669
653.529	2351
653.586	1570
653.642	1167
653.699	2303
653.756	1339
653.813	1830
653.869	1853
653.926	1188
653.983	812
654.039	2461
654.096	1355
654.152	2951
654.209	165
654.266	2104
654.322	491
654.379	2072
654.435	2494
654.492	1769
654.548	1171
654.605	2332
654.661	2519
654.717	1933
654.774	1208
654.830	1685
654.887	2180
654.943	1646
655.000	1823
655.056	2343
655.112	1470
655.168	1079
655.225	1404
655.281	2172
655.337	1721
655.394	2397
655.450	1840
655.506	2233
655.562	2462
655.618	4097
655.675	912
655.731	2026
655.787	1761
655.843	2190
655.899	784
655.955	1790
656.011	1976
656.067	744
656.123	2335
656.179	1852
656.235	3020
656.291	957
656.347	2586
656.403	2122
656.459	1049
656.515	1514
656.571	1042
656.627	1893
656.683	1732
656.739	2440
656.795	1969
656.850	1923
656.906	2159
656.962	2822
657.018	504
657.074	2600
657.129	2232
657.185	5347
657.241	12496
657.297	7628
657.352	1249
657.408	1732
657.464	2454
657.519	1148
657.575	802
657.630	916
657.686	1126
657.742	1514
657.797	1238
657.853	976
657.908	2146
657.964	842
658.019	1308
658.075	1401
658.130	1733
658.186	1023
658.241	2127
658.297	893
658.352	806
658.407	1441
658.463	1854
658.518	1566
658.573	1626
658.629	550
658.684	1612
658.739	2003
658.795	972
658.850	1162
658.905	710
658.960	1280
659.016	512
659.071	1474
659.126	892
659.181	1198
659.236	1862
659.291	2613
659.346	955
659.401	1557
659.457	1860
659.512	1208
659.567	2995
659.622	1652
659.677	1095
659.732	254
659.787	1197
659.842	1476
659.897	1806
659.952	1393
660.007	1174
660.061	1044
660.116	1233
660.171	318
660.226	1556
660.281	2010
660.336	602
660.391	2398
660.445	552
660.500	2177
660.555	869
660.610	1213
660.664	1589
660.719	1263
660.774	1564
660.828	1298
660.883	1357
660.938	1667
660.992	-13
661.047	1557
661.101	430
661.156	210
661.211	62
661.265	1922
661.320	836
661.374	1660
661.429	556
661.483	1517
661.538	-266
661.592	428
661.647	682
661.701	1713
661.755	749
661.810	1569
661.864	1210
661.919	1256
661.973	1089
662.027	1085
662.081	1024
662.136	921
662.190	1451
662.244	1744
662.299	845
662.353	1553
662.407	673
662.461	828
662.515	1240
662.569	542
662.624	1278
662.678	223
662.732	400
662.786	616
662.840	547
662.894	1069
662.948	1023
663.002	1623
663.056	1503
663.110	313
663.164	808
663.218	1307
663.272	1676
663.326	1384
663.380	662
663.434	1488
663.488	166
663.542	1152
663.595	1161
663.649	1295
663.703	1275
663.757	1497
663.811	600
663.864	1089
663.918	1390
663.972	930
664.026	1022
664.079	963
664.133	1357
664.187	1412
664.240	1224
664.294	1790
664.348	1931
664.401	1686
664.455	805
664.508	1154
664.562	1441
664.615	2248
664.669	674
664.722	1204
664.776	1271
664.829	1035
664.883	949
664.936	554
664.990	1277
665.043	2232
665.097	1229
665.150	2728
665.203	851
665.257	1651
665.310	1513
665.363	2214
665.417	1243
665.470	1937
665.523	1231
665.576	1528
665.630	1293
665.683	1561
665.736	1475
665.789	1471
665.842	894
665.895	1567
665.949	1633
666.002	1313
666.055	871
666.108	2197
666.161	1514
666.214	1995
666.267	1281
666.320	1709
666.373	1951
666.426	1788
666.479	1319
666.532	1427
666.585	1298
666.638	2668
666.691	1127
666.744	2525
666.796	1426
666.849	1586
666.902	1813
666.955	1212
667.008	671
667.060	1094
667.113	1232
667.166	2083
667.219	792
667.271	1422
667.324	1631
667.377	1962
667.430	890
667.482	1513
667.535	1200
667.587	2093
667.640	2212
667.693	1172
667.745	1394
667.798	2269
667.850	1640
667.903	1261
667.955	1452
668.008	1795
668.060	1518
668.113	1916
668.165	1831
668.218	2345
668.270	1168
668.322	2228
668.375	1104
668.427	2184
668.479	1568
668.532	2064
668.584	2268
668.636	1882
668.689	1734
668.741	1513
668.793	1271
668.845	1494
668.898	1329
668.950	2097
669.002	1450
669.054	1829
669.106	1205
669.158	2211
669.211	1339
669.263	1700
669.315	1882
669.367	1347
669.419	1274
669.471	2447
669.523	1397
669.575	2518
669.627	1248
669.679	1412
669.731	1304
669.783	2040
669.835	840
669.886	2187
669.938	2001
669.990	2394
670.042	1252
670.094	1952
670.146	1288
670.197	2882
670.249	2318
670.301	3041
670.353	4072
670.404	5615
670.456	7267
670.508	10516
670.560	17498
670.611	29191
670.663	51708
670.715	124274
670.766	196583
670.818	70059
670.869	13396
670.921	8434
670.972	5914
671.024	4033
671.075	3469
671.127	3312
671.178	2335
671.230	3039
671.281	2242
671.333	2944
671.384	3068
671.436	4853
671.487	6988
671.538	8497
671.590	13270
671.641	22308
671.692	38399
671.744	70918
671.795	56054
671.846	23500
671.897	11990
671.949	7753
672.000	5086
672.051	3687
672.102	3997
672.153	3115
672.204	3255
672.256	3220
672.307	2760
672.358	2888
672.409	2408
672.460	2053
672.511	2187
672.562	1009
672.613	1506
672.664	1619
672.715	1859
672.766	1586
672.817	1378
672.868	2470
672.919	1278
672.970	2095
673.021	576
673.071	1205
673.122	1662
673.173	1693
673.224	646
673.275	1551
673.326	1354
673.376	1467
673.427	931
673.478	607
673.528	1418
673.579	1245
673.630	1141
673.680	1561
673.731	2161
673.782	1448
673.832	272
673.883	2062
673.934	1371
673.984	1839
674.035	1428
674.085	1765
674.136	1516
674.186	2327
674.237	1013
674.287	2193
674.338	1935
674.388	2747
674.438	1475
674.489	2019
674.539	1126
674.589	1421
674.640	1585
674.690	2214
674.740	1338
674.791	1457
674.841	1298
674.891	1649
674.942	747
674.992	1143
675.042	687
675.092	2001
675.142	1808
675.193	1414
675.243	1163
675.293	1257
675.343	982
675.393	875
675.443	1576
675.493	1320
675.543	438
675.593	1084
675.643	1351
675.693	2144
675.743	632
675.793	1602
675.843	-195
675.893	1686
675.943	2090
675.993	1695
676.043	412
676.093	1627
676.142	1386
676.192	2322
676.242	753
676.292	1321
676.341	786
676.391	367
676.441	270
676.491	1144
676.540	409
676.590	1772
676.640	611
676.689	1198
676.739	169
676.789	2120
676.838	696
676.888	741
676.937	1149
676.987	-138
677.037	748
677.086	1614
677.136	812
677.185	727
677.235	225
677.284	1268
677.333	434
677.383	827
677.432	-122
677.482	1376
677.531	355
677.580	694
677.630	-126
677.679	1174
677.728	501
677.778	2177
677.827	-11
677.876	1303
677.925	498
677.975	1484
678.024	1313
678.073	1192
678.122	1067
678.171	1019
678.220	860
678.269	2173
678.319	1911
678.368	1786
678.417	1143
678.466	1336
678.515	1872
678.564	-98
678.613	278
678.662	1034
678.711	748
678.760	611
678.809	933
678.857	919
678.906	973
678.955	460
679.004	725
679.053	995
679.102	824
679.151	976
679.199	311
679.248	1404
679.297	542
679.346	580
679.394	564
679.443	598
679.492	280
679.540	1169
679.589	1152
679.638	1363
679.686	948
679.735	1310
679.784	864
679.832	1381
679.881	891
679.929	1447
679.978	1180
680.026	143
680.075	880
680.123	578
680.172	-284
680.220	617
680.268	352
680.317	762
680.365	530
680.414	-153
680.462	986
680.510	1452
680.559	960
680.607	1341
680.655	44
680.703	189
680.752	-83
680.800	894
680.848	329
680.896	405
680.945	-107
680.993	503
681.041	-477
681.089	1478
681.137	-135
681.185	564
681.233	971
681.258	1079
681.281	1167
681.329	476
681.377	773
681.380	786
681.425	760
681.473	1551
681.502	1320
681.521	1129
681.569	1504
681.617	349
681.624	475
681.665	1175
681.713	1405
681.745	1325
681.761	1267
681.809	1276
681.857	1387
681.867	1041
681.904	-222
681.952	1831
681.989	704
682.000	344
682.048	938
682.096	933
682.111	1089
682.143	1368
682.191	917
682.233	1772
682.239	1890
682.286	1110
682.334	1787
682.354	1739
682.382	1624
682.430	1628
682.476	1445
682.477	1428
682.525	750
682.572	807
682.598	940
682.620	1019
682.667	2054
682.715	1890
682.720	1858
682.763	1395
682.810	1697
682.841	1233
682.857	999
682.905	1577
682.952	1514
682.963	1466
683.000	1226
683.047	1699
683.085	2803
683.095	3089
683.142	915
683.190	1842
683.206	1695
683.237	1389
683.284	2881
683.328	1989
683.332	1902
683.379	1658
683.426	1325
683.449	1413
683.473	1492
683.521	1454
683.568	2365
683.571	2308
683.615	1381
683.662	2214
683.693	2100
683.709	2012
683.757	1715
683.804	1617
683.814	1619
683.851	1627
683.898	2074
683.936	2282
683.945	2320
683.992	2134
684.039	2489
684.057	2260
684.086	1894
684.133	2237
684.179	1798
684.180	1774
684.227	2922
684.274	2440
684.300	2417
684.321	2380
684.368	1913
684.415	2627
684.422	2535
684.462	1915
684.509	2421
684.543	2408
684.556	2402
684.603	2760
684.649	2549
684.665	2529
684.696	2465
684.743	2674
684.786	3074
684.790	3096
684.837	2815
684.883	3181
684.908	2954
684.930	2750
684.977	2464
685.023	2729
685.029	2833
685.070	3487
685.117	2841
685.150	3250
685.164	3435
685.210	2804
685.257	3711
685.272	3515
685.303	3001
685.350	4077
685.393	2657
685.396	2538
685.443	3503
685.490	3424
685.514	3385
685.536	3362
685.583	3191
685.629	3190
685.636	3092
685.675	2469
685.722	3479
685.757	2949
685.768	2777
685.815	3411
685.861	3071
685.878	3158
685.908	3345
685.954	3036
686.000	3663
686.000	3668
686.047	3288
686.093	3748
686.121	3621
686.139	3582
686.185	3910
686.232	3718
686.242	3789
686.278	3802
686.324	3565
686.363	3645
686.370	3683
686.416	3566
686.463	3670
686.484	3548
686.509	3414
686.555	3684
686.601	3073
686.606	3188
686.647	4184
686.693	3603
686.727	3542
686.739	3511
686.785	3041
686.831	3369
686.848	3510
686.877	3773
686.923	3612
686.969	3688
686.969	3688
687.015	3459
687.061	3557
687.090	3901
687.107	4079
687.153	3807
687.199	4718
687.211	4353
687.245	3453
687.291	4002
687.332	4402
687.336	4437
687.382	5022
687.428	4495
687.453	4739
687.474	4922
687.520	4875
687.565	4586
687.574	4526
687.611	4338
687.657	5171
687.695	4770
687.702	4719
687.748	5555
687.794	5753
687.816	5692
687.839	5404
687.885	4967
687.931	4405
687.937	4393
687.976	4554
688.022	4998
688.058	4668
688.067	4552
688.113	4416
688.158	4254
688.179	3983
688.204	3891
688.249	4627
688.295	5072
688.300	5039
688.340	4678
688.386	5394
688.421	5011
688.431	4871
688.477	5063
688.522	4700
688.542	4548
688.567	4571
688.613	4954
688.658	5250
688.663	5238
688.703	4931
688.749	5309
688.784	5189
688.794	5159
688.839	5127
688.884	5165
688.905	4911
688.930	4644
688.975	5072
689.020	5206
689.026	5118
689.065	4738
689.110	5359
689.146	5606
689.155	5620
689.201	5364
689.246	5405
689.267	5334
689.291	5307
689.336	5194
689.381	5465
689.388	5407
689.426	5132
689.471	5685
689.509	5075
689.516	4962
689.561	5156
689.606	5045
689.630	5162
689.651	5314
689.696	4718
689.741	5277
689.750	5337
689.785	5558
689.830	5333
689.871	4895
689.875	4862
689.920	5077
689.965	5068
689.992	5068
690.010	5121
690.054	4998
690.099	5760
690.112	5757
690.144	5739
690.189	5642
690.233	5345
690.233	5352
690.278	5694
690.323	5374
690.354	5720
690.367	5874
690.412	5668
690.457	5858
690.474	5875
690.501	5891
690.546	6181
690.590	6180
690.595	6105
690.635	5741
690.680	5973
690.716	6145
690.724	6250
690.769	6690
690.813	7868
690.836	7857
690.857	8422
690.902	10668
690.946	12126
690.957	12668
690.991	16969
691.035	22683
691.077	28813
691.080	28877
691.124	26688
691.168	24805
691.198	23401
691.213	21574
691.257	16707
691.301	11976
691.318	10081
691.346	9358
691.390	8393
691.434	7405
691.439	7259
691.478	6893
691.522	6983
691.559	6180
691.567	6106
691.611	7146
691.655	6768
691.680	6949
691.699	6934
691.743	6741
691.787	6337
691.800	6165
691.831	6207
691.875	6648
691.919	6575
691.921	6589
691.964	6870
692.008	6426
692.041	6058
692.052	6095
692.096	6136
692.139	6857
692.162	6780
692.183	6502
692.227	6778
692.271	6070
692.282	6069
692.315	6398
692.359	6295
692.402	6531
692.403	6545
692.447	6616
692.490	6832
692.523	6638
692.534	6600
692.578	6392
692.622	6551
692.643	6578
692.666	6529
692.709	6230
692.753	6187
692.763	6154
692.797	6261
692.840	6045
692.884	6110
692.884	6125
692.928	6277
692.971	6355
693.004	6332
693.015	6368
693.059	6687
693.102	6775
693.124	6747
693.146	6646
693.189	6825
693.233	6469
693.245	6561
693.276	7188
693.320	7598
693.363	7857
693.365	7842
693.407	8067
693.450	8823
693.485	9323
693.493	9578
693.537	11054
693.580	12000
693.605	12880
693.624	14809
693.667	18485
693.710	23086
693.725	24594
693.753	32428
693.797	45782
693.840	59000
693.845	60232
693.883	56207
693.926	51042
693.966	47292
693.970	46324
694.013	35119
694.056	24201
694.086	16524
694.099	15684
694.142	13232
694.185	10713
694.206	9592
694.229	9509
694.272	8971
694.315	8699
694.326	8536
694.358	8304
694.401	8283
694.444	7774
694.446	7749
694.487	7446
694.530	7155
694.566	6667
694.573	6652
694.616	6432
694.659	6549
694.686	6428
694.702	6442
694.745	6863
694.787	6583
694.806	6711
694.830	6971
694.873	6869
694.916	7228
694.926	7241
694.959	7147
695.002	6944
695.044	6789
695.046	6776
695.087	7213
695.130	7147
695.166	7361
695.172	7417
695.215	7356
695.258	7705
695.286	7853
695.301	7878
695.343	7514
695.386	7520
695.406	7550
695.428	7917
695.471	8298
695.514	8767
695.526	8857
695.556	8925
695.599	9313
695.641	9468
695.646	9439
695.684	9019
695.726	8653
695.766	8361
695.769	8358
695.811	7986
695.854	7648
695.886	7315
695.896	7376
695.938	7585
695.981	7811
696.005	7935
696.023	8163
696.065	8593
696.108	9115
696.125	9238
696.150	9162
696.192	9211
696.235	9054
696.245	9038
696.277	9203
696.319	9072
696.361	9275
696.365	9258
696.404	9426
696.446	9614
696.485	9638
696.488	9661
696.530	9762
696.572	9799
696.604	9828
696.614	9839
696.656	9749
696.698	9647
696.724	9566
696.740	9628
696.783	9795
696.825	9918
696.844	9941
696.867	9833
696.909	9476
696.951	9198
696.964	9110
696.992	9080
697.034	8971
697.076	8769
697.083	8728
697.118	9287
697.160	9923
697.202	10480
697.203	10468
697.244	10437
697.286	10541
697.323	10405
697.327	10403
697.369	10221
697.411	10012
697.442	9883
697.453	9934
697.494	9928
697.536	10040
697.562	10022
697.578	10029
697.620	10077
697.661	9969
697.682	9944
697.703	10132
697.744	10462
697.786	10855
697.801	10889
697.828	10777
697.869	10657
697.911	10530
697.921	10495
697.952	10672
697.994	10714
698.035	10878
698.040	10855
698.077	10642
698.118	10482
698.160	10230
698.160	10200
698.201	10388
698.243	10507
698.279	10657
698.284	10738
698.325	11194
698.367	11650
698.399	11920
698.408	11889
698.449	11671
698.491	11385
698.518	11211
698.532	11410
698.573	11889
698.614	12367
698.638	12599
698.656	12529
698.697	12321
698.738	12070
698.757	11940
698.779	11932
698.820	11818
698.862	11720
698.877	11655
698.903	11902
698.944	12238
698.985	12577
698.996	12639
699.026	12342
699.067	11886
699.116	11312
699.235	11573
699.354	11641
699.474	11390
699.593	10820
699.713	11543
699.832	11697
699.951	11384
700.070	11793
700.190	11128
700.309	10293
700.428	10515
700.547	10457
700.667	10505
700.786	10953
700.905	9488
701.024	10516
701.143	9745
701.262	10413
701.381	10380
701.500	10497
701.619	9900
701.738	10197
701.857	10143
701.976	9743
702.095	10737
702.214	9544
702.333	8915
702.452	11514
702.571	10543
702.690	10175
702.809	10266
702.928	9264
703.047	8517
703.165	9604
703.284	8725
703.403	8889
703.522	9396
703.640	9394
703.759	8785
703.878	9350
703.997	8739
704.115	8549
704.234	9452
704.353	9646
704.471	8509
704.590	8894
704.708	8953
704.827	8130
704.946	7547
705.064	8704
705.183	7890
705.301	8789
705.420	10185
705.538	9468
705.656	8529
705.775	8931
705.893	10282
706.012	11831
706.130	9491
706.249	9094
706.367	8549
706.485	8911
706.604	7802
706.722	8641
706.840	9347
706.958	11614
707.077	9625
707.195	8737
707.313	7792
707.431	7184
707.549	7494
707.668	7412
707.786	7519
707.904	7971
708.022	7632
708.140	8403
708.258	8211
708.376	8325
708.494	7343
708.612	8397
708.730	9879
708.848	8823
708.966	9269
709.084	9777
709.202	9407
709.320	8497
709.438	8377
709.556	8607
709.674	8317
709.791	8601
709.909	8519
710.027	7746
710.145	7390
710.263	7753
710.380	7678
710.498	8408
710.616	7803
710.733	7527
710.851	6865
710.969	7884
711.086	6871
711.204	7949
711.322	7649
711.439	7419
711.557	6855
711.674	7759
711.792	6567
711.909	7789
712.027	6367
712.144	7035
712.262	7273
712.379	6839
712.497	8953
712.614	8836
712.732	7810
712.849	7425
712.966	8249
713.084	8719
713.201	7595
713.318	8140
713.436	8702
713.553	8278
713.670	8971
713.787	8129
713.905	8338
714.022	8401
714.139	8283
714.256	11389
714.373	15601
714.490	27275
714.608	72239
714.725	286575
714.842	288261
714.959	29579
715.076	13271
715.193	9914
715.310	9976
715.427	7627
715.544	8006
715.661	7934
715.778	7653
715.895	7370
716.011	8006
716.128	6892
716.245	6404
716.362	6886
716.479	5925
716.596	6999
716.713	6295
716.829	5710
716.946	6713
717.063	6175
717.180	5407
717.296	5173
717.413	5887
717.530	5933
717.646	5953
717.763	6380
717.880	6284
717.996	5661
718.113	5323
718.229	5075
718.346	5407
718.462	5359
718.579	6289
718.695	6918
718.812	6333
718.928	5967
719.045	4922
719.161	5600
719.277	5538
719.394	6254
719.510	6469
719.626	6647
719.743	8046
719.859	12399
719.975	26421
720.092	101595
720.208	222493
720.324	28826
720.440	8120
720.557	7451
720.673	6872
720.789	8630
720.905	10769
721.021	6549
721.137	4807
721.253	5076
721.369	4753
721.486	5831
721.602	7231
721.718	5348
721.834	5012
721.950	4647
722.066	4544
722.181	4106
722.297	4929
722.413	4693
722.529	4819
722.645	4892
722.761	4735
722.877	5328
722.993	4530
723.108	6303
723.224	5125
723.340	4675
723.456	4791
723.571	4118
723.687	4096
723.803	4144
723.918	3767
724.034	3957
724.150	3990
724.265	4730
724.381	6348
724.497	6163
724.612	4709
724.728	4249
724.843	3863
724.959	4446
725.074	4994
725.190	5914
725.305	5021
725.421	3782
725.536	4221
725.651	3881
725.767	2770
725.882	3620
725.997	3611
726.113	4536
726.228	4018
726.343	4184
726.459	4010
726.574	2858
726.689	3915
726.804	3790
726.920	3890
727.035	3770
727.150	3690
727.265	3550
727.380	3565
727.495	4390
727.610	3074
727.725	3848
727.841	2948
727.956	5183
728.071	3510
728.186	3393
728.301	3269
728.416	4084
728.531	3555
728.645	3139
728.760	3015
728.875	2896
728.990	3295
729.105	2937
729.220	3596
729.335	4211
729.449	3553
729.564	3394
729.679	3295
729.794	3685
729.908	2908
730.023	3947
730.138	3551
730.253	3776
730.367	3235
730.482	3672
730.596	3009
730.711	3824
730.826	5257
730.940	4535
731.055	4055
731.169	3651
731.284	3736
731.398	3618
731.513	4143
731.627	4497
731.742	6447
731.856	6089
731.970	6717
732.085	8619
732.199	13615
732.313	23283
732.428	62663
732.542	175419
732.656	102575
732.771	19895
732.885	10107
732.999	8398
733.113	8742
733.227	8558
733.342	7160
733.456	7093
733.570	6758
733.684	6121
733.798	6530
733.912	6462
734.026	5879
734.140	6006
734.254	5942
734.368	6417
734.482	6693
734.596	6063
734.710	5331
734.824	5435
734.938	5283
735.052	6317
735.166	5735
735.280	6037
735.393	4761
735.507	5264
735.621	5838
735.735	7084
735.849	5361
735.962	5406
736.076	5579
736.190	5136
736.303	5336
736.417	6289
736.531	4701
736.644	5133
736.758	4873
736.872	5113
736.985	4728
737.099	5664
737.212	3977
737.326	5285
737.439	5265
737.553	3989
737.666	4745
737.780	3901
737.893	3787
738.007	4580
738.120	4372
738.233	4666
738.347	4144
738.460	5061
738.573	4432
738.687	3340
738.800	4839
738.913	4683
739.026	4252
739.140	3772
739.253	4003
739.366	4197
739.479	4302
739.592	4258
739.705	3737
739.818	4666
739.932	3792
740.045	4175
740.158	4861
740.271	4467
740.384	4823
740.497	3736
740.610	4076
740.723	3996
740.836	3545
740.949	4222
741.062	4549
741.174	4367
741.287	3569
741.400	4458
741.513	4529
741.626	4314
741.739	3851
741.851	4482
741.964	4285
742.077	3678
742.189	2867
742.302	4277
742.415	3277
742.527	3677
742.640	3792
742.753	3346
742.865	3481
742.978	2716
743.090	3918
743.203	3776
743.316	3968
743.428	3545
743.541	3788
743.653	2949
743.766	3396
743.878	3784
743.990	3223
744.103	4434
744.215	3668
744.327	4666
744.440	3392
744.552	3530
744.664	3292
744.777	3259
744.889	2646
745.001	3099
745.113	2836
745.226	3150
745.338	3555
745.450	3285
745.562	3659
745.674	2880
745.786	3643
745.898	3660
746.010	3047
746.122	3514
746.234	2934
746.347	3377
746.459	2995
746.570	2697
746.682	3809
746.794	4172
746.906	2583
747.018	2517
747.130	3871
747.242	4174
747.354	2489
747.466	3834
747.577	2488
747.689	2711
747.801	2627
747.913	2948
748.024	2588
748.136	2750
748.248	2745
748.359	3338
748.471	2570
748.583	2338
748.694	2795
748.806	3249
748.918	2872
749.029	3172
749.141	3653
749.252	3992
749.364	2989
749.475	3119
749.587	2456
749.698	1928
749.809	3173
749.921	2674
750.032	2415
750.144	2531
750.255	1952
750.366	2989
750.478	1902
750.589	2240
750.700	1788
750.811	2583
750.923	3403
751.034	2536
751.145	3384
751.256	2890
751.367	2795
751.479	2430
751.590	2001
751.701	3181
751.812	2396
751.923	2981
752.034	2923
752.145	3608
752.256	2679
752.367	2439
752.478	2226
752.589	3235
752.700	2215
752.811	2255
752.922	2704
753.032	2563
753.143	2694
753.254	1766
753.365	3144
753.476	2545
753.586	3128
753.697	2816
753.808	2358
753.919	2147
754.029	2152
754.140	3227
754.251	3127
754.361	2693
754.472	3303
754.582	2781
754.693	2265
754.804	3151
754.914	3527
755.025	2047
755.135	3049
755.246	2950
755.356	2686
755.466	3213
755.577	2970
755.687	1793
755.798	2424
755.908	2828
756.018	2839
756.129	3171
756.239	3186
756.349	3384
756.460	2607
756.570	3624
756.680	3217
756.790	2546
756.900	3135
757.011	2457
757.121	2191
757.231	3529
757.341	2125
757.451	3407
757.561	2479
757.671	3418
757.781	1276
757.891	3351
758.001	2137
758.111	3654
758.221	3044
758.331	3039
758.441	3435
758.551	3422
758.661	3417
758.771	3834
758.880	3065
758.990	3683
759.100	3634
759.210	3494
759.320	4222
759.429	3055
759.539	3976
759.649	4507
759.758	4653
759.868	4775
759.978	4925
760.087	5832
760.197	5640
760.307	4951
760.416	4294
760.526	4909
760.635	4736
760.745	5149
760.854	5720
760.964	5823
761.073	6113
761.182	5684
761.292	6238
761.401	5029
761.511	4579
761.620	4510
761.729	4640
761.839	4640
761.948	5177
762.057	4772
762.166	4913
762.276	4360
762.385	6579
762.494	5116
762.603	5334
762.712	6173
762.822	5645
762.931	6492
763.040	6008
763.149	5996
763.258	6616
763.367	7472
763.476	7839
763.585	7991
763.694	8656
763.803	8601
763.912	9336
764.021	9071
764.130	9318
764.238	10820
764.347	11536
764.456	12773
764.565	13508
764.674	13726
764.783	16026
764.891	16804
765.000	20425
765.109	21929
765.217	25120
765.326	30599
765.435	33610
765.543	40784
765.652	49633
765.761	63617
765.869	84912
765.978	116418
766.086	166103
766.195	248009
766.303	357954
766.412	374564
766.520	327548
766.629	315563
766.737	217868
766.846	149858
766.954	107713
767.062	80767
767.171	61994
767.279	48309
767.387	38348
767.496	33152
767.604	29057
767.712	24835
767.820	21466
767.928	21349
768.037	19355
768.145	18930
768.253	17585
768.361	17548
768.469	17005
768.577	17086
768.685	18607
768.793	19366
768.901	20692
769.009	24020
769.117	28651
769.225	37249
769.333	50017
769.441	74144
769.549	116551
769.657	201375
769.765	327650
769.873	316703
769.981	279561
770.088	176468
770.196	108353
770.304	73439
770.412	52733
770.519	40809
770.627	33103
770.735	26398
770.842	23162
770.950	19916
771.058	17018
771.165	16486
771.273	15081
771.380	14184
771.488	12750
771.595	11776
771.703	10560
771.810	10964
771.918	9845
772.025	10563
772.133	9957
772.240	9275
772.348	10245
772.455	11097
772.562	7877
772.670	8429
772.777	8864
772.884	8407
772.991	6729
773.099	7112
773.206	5904
773.313	7302
773.420	7381
773.528	6017
773.635	5328
773.742	7267
773.849	5777
773.956	8094
774.063	6203
774.170	6285
774.277	6560
774.384	5592
774.491	5882
774.598	6355
774.705	5871
774.812	5189
774.919	6285
775.026	4783
775.133	4992
775.239	4987
775.346	5139
775.453	5485
775.560	3778
775.667	4456
775.773	4268
775.880	4966
775.987	3959
776.093	5385
776.200	4491
776.307	3239
776.413	4595
776.520	4537
776.627	4297
776.733	4600
776.840	2914
776.946	6126
777.053	4716
777.159	4760
777.266	3405
777.372	4949
777.478	5146
777.585	4151
777.691	4553
777.798	3616
777.904	4026
778.010	3876
778.117	3962
778.223	3249
778.329	3010
778.435	2708
778.542	4114
778.648	3553
778.754	1889
778.860	3465
778.966	3161
779.072	3294
779.178	3970
779.284	4166
779.391	2929
779.497	2477
779.603	5074
779.708	3672
779.815	10065
779.920	29127
780.026	54411
780.132	10745
780.238	3186
780.344	3682
780.450	3509
780.556	2704
780.661	2683
780.767	2969
780.873	1964
780.979	3278
781.085	2282
781.190	2096
781.296	2147
781.402	1688
781.507	2178
781.613	1938
781.719	1668
781.824	3704
781.930	2907
782.035	2230
782.141	2165
782.246	2228
782.352	2464
782.457	1959
782.563	1922
782.668	2036
782.773	2139
782.879	1971
782.984	2424
783.090	2717
783.195	2619
783.300	2644
783.405	1880
783.511	1353
783.616	1732
783.721	2187
783.826	1635
783.932	1744
784.037	1927
784.142	1873
784.247	1678
784.352	1631
784.457	1698
784.562	2310
784.667	2071
784.772	2627
784.877	1209
784.982	2283
785.087	1043
785.192	1646
785.297	1571
785.402	2381
785.507	2077
785.611	2441
785.716	2088
785.821	1911
785.926	1325
786.031	1794
786.135	1645
786.240	1667
786.345	745
786.450	1673
786.554	867
786.659	1317
786.763	652
786.868	811
786.973	2809
787.077	1746
787.182	1704
787.286	1979
787.391	1351
787.495	1478
787.600	1667
787.704	967
787.809	2168
787.913	1309
788.017	1742
788.122	1729
788.226	1589
788.330	317
788.435	765
788.539	2537
788.643	1650
788.747	979
788.852	1131
788.956	1305
789.060	1652
789.164	1607
789.268	939
789.372	1711
789.476	1150
789.580	259
789.684	400
789.788	1967
789.892	587
789.996	1601
790.100	783
790.204	1265
790.308	1886
790.412	1610
790.516	651
790.620	380
790.724	1991
790.828	1171
790.931	150
791.035	1621
791.139	463
791.242	422
791.346	2320
791.450	541
791.554	861
791.657	-560
791.761	1384
791.864	1229
791.968	1188
792.072	1048
792.175	1167
792.279	968
792.382	901
792.486	1273
792.589	240
792.693	1240
792.796	795
792.899	1743
793.003	986
793.106	-333
793.209	729
793.313	2011
793.416	-359
793.519	1403
793.623	1062
793.726	1199
793.829	-230
793.932	957
794.035	-802
794.138	2271
794.242	797
794.345	775
794.448	2031
794.551	3267
794.654	15240
794.757	30723
794.860	5193
794.963	1696
795.066	755
795.169	1998
795.272	743
795.375	789
795.477	101
795.580	1228
795.683	-1055
795.786	901
795.889	-234
795.991	1343
796.094	1620
796.197	-750
796.300	1630
796.402	1420
796.505	257
796.608	1030
796.710	857
796.813	1065
796.915	1112
797.018	787
797.120	275
797.223	-513
797.326	1871
797.428	284
797.530	340
797.633	359
797.735	1296
797.838	456
797.940	1297
798.042	-351
798.145	139
798.247	781
798.349	-256
798.452	1609
798.554	208
798.656	813
798.758	2056
798.860	709
798.962	-190
799.065	323
799.167	-1287
799.269	1419
799.371	1607
799.473	868
799.575	-369
799.677	522
799.779	1436
799.881	-31
799.983	1433
800.085	421
800.187	525
800.289	42
800.390	270
800.492	771
800.594	1394
800.696	-15
800.798	-116
800.899	300
801.001	240
801.103	776
801.205	568
801.306	770
801.408	-217
801.509	302
801.611	485
801.713	878
801.814	-243
801.916	-100
802.017	35
802.119	-27
802.220	554
802.322	-804
802.423	1305
802.525	-1364
802.626	370
802.727	447
802.829	815
802.930	-1764
803.031	1778
803.133	687
803.234	346
803.335	443
803.436	-1251
803.538	93
803.639	-532
803.740	697
803.841	-46
803.942	1112
804.043	786
804.144	-1012
804.245	32
804.346	-181
804.447	-549
804.548	456
804.649	321
804.750	-105
804.851	-169
804.952	-519
805.053	236
805.154	-1499
805.255	672
805.355	215
805.456	123
805.557	-456
805.658	-415
805.758	174
805.859	-8
805.960	139
806.061	-960
806.161	-303
806.262	-14
806.362	-77
806.463	-61
806.564	664
806.664	-258
806.765	-83
806.865	-145
806.966	-65
807.066	-736
807.166	735
807.267	426
807.367	-37
807.468	768
807.568	-722
807.668	901
807.769	513
807.869	-679
807.969	74
808.069	373
808.170	615
808.270	-817
808.370	-282
808.470	902
808.570	-1358
808.670	-135
808.770	279
808.870	-838
808.970	291
809.070	-280
809.170	-542
809.271	906
809.370	31
809.470	422
809.570	4
809.670	178
809.770	-277
809.870	169
809.970	-226
810.070	-82
810.169	52
810.269	-1957
810.369	881
810.469	-346
810.568	-798
810.668	-136
810.768	-522
810.867	158
810.967	-274
811.066	-523
811.166	107
811.265	340
811.365	-821
811.464	-226
811.564	-736
811.663	357
811.763	-1503
811.862	-654
811.962	424
812.061	86
812.160	-417
812.260	-56
812.359	-532
812.458	-520
812.557	1564
812.657	517
812.756	104
812.855	316
812.954	-1055
813.053	-79
813.153	845
813.252	-612
813.351	-468
813.450	-135
813.549	-705
813.648	-644
813.747	-503
813.846	-521
813.945	192
814.044	-485
814.143	318
814.242	1188
814.341	-668
814.439	-189
814.538	251
814.637	-166
814.736	-213
814.835	652
814.933	-401
815.032	225
815.131	1035
815.229	1372
815.328	2512
815.427	1508
815.525	1654
815.624	1807
815.722	1338
815.821	1747
815.919	1627
816.018	1179
816.116	2323
816.215	311
816.313	1882
816.412	2177
816.510	2458
816.609	3030
816.707	2646
816.805	2449
816.904	1999
817.002	2198
817.100	3120
817.198	1907
817.296	2190
817.395	1646
817.493	3116
817.591	2340
817.689	2391
817.787	1808
817.885	2023
817.983	2112
818.081	2899
818.179	1970
818.277	4817
818.375	4597
818.473	2274
818.571	2333
818.669	1608
818.767	2075
818.865	1650
818.963	1352
819.061	1130
819.158	1989
819.256	3718
819.354	2215
819.452	7669
819.549	4143
819.647	2540
819.745	1515
819.842	1614
819.940	1565
820.038	1586
820.135	1074
820.233	2792
820.330	1938
820.428	86
820.525	2847
820.623	1821
820.720	1431
820.818	1814
820.915	2096
821.012	1064
821.110	1175
821.207	2202
821.304	444
821.402	1851
821.499	1548
821.596	1471
821.693	1148
821.791	2434
821.888	1199
821.985	1852
822.082	1444
822.179	1732
822.276	1117
822.373	1062
822.470	965
822.567	1005
822.664	746
822.761	1614
822.858	728
822.955	1012
823.052	1388
823.149	956
823.246	514
823.343	891
823.440	1077
823.536	1097
823.633	801
823.730	530
823.827	1606
823.923	1251
824.020	2287
824.117	1517
824.213	471
824.310	1090
824.407	150
824.503	2003
824.600	1098
824.696	1627
824.793	1475
824.889	378
824.986	624
825.082	947
825.179	863
825.275	1013
825.371	805
825.468	1670
825.564	-162
825.660	2566
825.757	1847
825.853	2162
825.949	-694
826.045	1027
826.142	488
826.238	1446
826.334	1201
826.430	164
826.526	-126
826.622	-257
826.718	1161
826.814	1054
826.910	805
827.006	813
827.102	-494
827.198	2711
827.294	952
827.390	2130
827.486	1125
827.582	-580
827.678	-572
827.774	1252
827.869	-764
827.965	775
828.061	-745
828.157	973
828.252	455
828.348	-405
828.444	919
828.539	825
828.635	855
828.731	1767
828.826	-672
828.922	955
829.017	1181
829.113	1523
829.208	-9
829.304	11
829.399	2412
829.495	235
829.590	1303
829.685	15
829.781	1433
829.876	1156
829.971	-347
830.066	466
830.162	1282
830.257	836
830.352	79
830.447	1231
830.543	-15
830.638	-951
830.733	1497
830.828	369
830.923	678
831.018	1157
831.113	1367
831.208	-406
831.303	-467
831.398	311
831.493	402
831.588	1803
831.683	303
831.778	678
831.873	269
831.967	408
832.062	-293
832.157	46
832.252	559
832.346	562
832.441	494
832.536	946
832.631	1384
832.725	849
832.820	-109
832.914	-187
833.009	26
833.104	329
833.198	379
833.293	-259
833.387	443
833.482	-441
833.576	65
833.670	369
833.765	-71
833.859	725
833.954	749
834.048	-216
834.142	-142
834.237	-538
834.331	2
834.425	388
834.519	-725
834.613	496
834.708	-61
834.802	596
834.896	616
834.990	330
835.084	-440
835.178	-237
835.272	-757
835.366	690
835.460	905
835.554	-103
835.648	249
835.742	-741
835.836	-73
835.930	-1177
836.024	221
836.117	664
836.211	-266
836.305	-40
836.399	859
836.493	-569
836.586	602
836.680	-457
836.774	-748
836.867	604
836.961	-1099
837.055	-624
837.148	215
837.242	44
837.335	204
837.429	521
837.522	-1019
837.616	-433
837.709	318
837.803	-385
837.896	231
837.989	483
838.083	117
838.176	-68
838.269	-860
838.363	452
838.456	158
838.549	308
838.642	-125
838.735	651
838.829	358
838.922	-747
839.015	-119
839.108	-665
839.201	50
839.294	348
839.387	447
839.480	-591
839.573	312
839.666	78
839.759	-602
839.852	-361
839.945	23
840.038	-412
840.131	-893
840.223	-514
840.316	750
840.409	-438
840.502	-643
840.594	441
840.687	-906
840.780	204
840.873	-1189
840.965	-69
841.058	-107
841.150	-34
841.243	-88
841.336	-262
841.428	-463
841.521	-828
841.613	-943
841.706	-164
841.798	-174
841.890	-282
841.983	-724
842.075	1211
842.167	-1035
842.260	-422
842.352	-169
842.444	150
842.537	536
842.629	1076
842.721	97
842.813	-64
842.905	-633
842.997	130
843.090	-706
843.182	624
843.274	-778
843.366	1874
843.458	1890
843.550	2497
843.642	-428
843.734	178
843.826	-315
843.918	-176
844.009	597
844.101	-1068
844.193	-184
844.285	-723
844.377	-977
844.469	-402
844.560	-981
844.652	-636
844.744	-434
844.835	55
844.927	-302
845.019	98
845.110	-421
845.202	-454
845.293	223
845.385	-857
845.476	-755
845.568	122
845.659	-899
845.751	37
845.842	-251
845.934	-1173
846.025	-306
846.116	218
846.208	-29
846.299	-927
846.390	-512
846.482	-137
846.573	-95
846.664	-730
846.755	-607
846.846	629
846.937	-761
847.029	-157
847.120	-417
847.211	-297
847.302	990
847.393	-1105
847.484	-670
847.575	-1032
847.666	-813
847.757	-975
847.847	-2
847.938	451
848.029	-12
848.120	-672
848.211	-199
848.302	-1162
848.392	-135
848.483	-41
848.574	-797
848.664	-465
848.755	-1277
848.846	-277
848.936	-828
849.027	-603
849.118	-571
849.208	697
849.299	274
849.389	1199
849.480	3950
849.570	8251
849.661	15643
849.751	26258
849.841	8205
849.932	1257
850.022	-200
850.112	1033
850.203	-401
850.293	-117
850.383	-656
850.474	-625
850.564	-1370
850.654	339
850.744	-161
850.834	-987
850.924	42
851.014	667
851.104	119
851.194	-814
851.284	216
851.374	-349
851.464	-356
851.554	-948
851.644	-581
851.734	1073
851.824	-507
851.914	315
852.004	1513
852.094	783
852.183	-263
852.273	158
852.363	-672
852.452	-537
852.542	-198
852.632	-842
852.721	-361
852.811	-968
852.901	154
852.990	81
853.080	-803
853.169	-559
853.259	114
853.348	-257
853.438	1291
853.527	1589
853.617	1239
853.706	5374
853.795	10134
853.885	20507
853.974	36623
854.063	67631
854.152	88851
854.242	38132
854.331	8964
854.420	3223
854.509	2329
854.598	1463
854.687	1193
854.777	1329
854.866	-251
854.955	-95
855.044	-10
855.133	558
855.222	-774
855.311	-647
855.400	557
855.488	-516
855.577	-219
855.666	-188
855.755	406
855.844	-63
855.933	-692
856.021	-208
856.110	-1553
856.199	-1008
856.288	-670
856.376	-849
856.465	-910
856.554	-116
856.642	-1181
856.731	-571
856.819	-583
856.908	-737
856.996	-498
857.085	-698
857.173	-718
857.262	-1070
857.350	-484
857.438	-51
857.527	-639
857.615	-1036
857.703	-465
857.792	-607
857.880	-577
857.968	-579
858.056	-1085
858.145	-75
858.233	-1347
858.321	289
858.409	81
858.497	-633
858.585	-377
858.673	-226
858.761	-976
858.849	-597
858.937	-922
859.025	-288
859.113	-404
859.201	-1197
859.289	-363
859.377	-340
859.465	-1234
859.552	-297
859.640	-525
859.728	-399
859.816	-1404
859.903	-457
859.991	-1047
860.079	-259
860.166	-1091
860.254	-669
860.342	-65
860.429	-1125
860.517	-421
860.604	-432
860.692	-784
860.779	-957
860.867	-457
860.954	-913
861.042	-54
861.129	164
861.216	-328
861.304	-285
861.391	-290
861.478	-1427
861.565	-164
861.653	128
861.740	-688
861.827	-633
861.914	-407
862.001	-1240
862.089	-1169
862.176	-637
862.263	-1017
862.350	-653
862.437	-879
862.524	-1156
862.611	-1074
862.698	395
862.785	-72
862.871	-80
862.958	-1058
863.045	-392
863.132	-474
863.219	-510
863.306	-1481
863.392	-406
863.479	-170
863.566	-315
863.652	-286
863.739	-992
863.826	-172
863.912	-161
863.999	-1065
864.086	-545
864.172	-200
864.259	-89
864.345	-877
864.432	-726
864.518	-842
864.604	-995
864.691	-615
864.777	-457
864.863	-350
864.950	1331
865.036	1955
865.122	5001
865.209	4786
865.295	3547
865.381	2679
865.467	3043
865.553	4001
865.639	4273
865.726	7100
865.812	13250
865.898	23006
865.984	33234
866.070	54796
866.156	55821
866.242	18957
866.328	6599
866.414	3916
866.499	3773
866.585	3298
866.671	2372
866.757	3366
866.843	2617
866.928	2807
867.014	2054
867.100	1806
867.186	1721
867.271	2259
867.357	2632
867.442	2181
867.528	2673
867.614	1800
867.699	2196
867.785	2380
867.870	1951
867.956	2051
868.041	2456
868.127	2496
868.212	1970
868.297	2218
868.383	2441
868.468	2120
868.553	2855
868.639	1606
868.724	2586
868.809	2782
868.894	1785
868.979	1486
869.065	1753
869.150	1134
869.235	1857
869.320	2113
869.405	1143
869.490	2091
869.575	2030
869.660	1628
869.745	2458
869.830	1758
869.915	1411
870.000	1782
870.085	1106
870.169	2553
870.254	2598
870.339	1025
870.424	1244
870.509	1590
870.593	1251
870.678	2006
870.763	1252
870.847	1043
870.932	1716
871.016	956
871.101	742
871.186	1653
871.270	2200
871.355	967
871.439	1730
871.523	1620
871.608	1090
871.692	1085
871.777	2136
871.861	1515
871.945	693
872.030	2083
872.114	1311
872.198	1476
872.282	788
872.367	579
872.451	911
872.535	397
872.619	2067
872.703	1297
872.787	2371
872.871	1145
872.955	-500
873.039	196
873.123	1251
873.207	1266
873.291	150
873.375	297
873.459	1196
873.543	1426
873.627	1003
873.711	618
873.794	2081
873.878	1728
873.962	189
874.045	440
874.129	1212
874.137	1168
874.213	725
874.245	579
874.296	343
874.352	633
874.380	772
874.460	902
874.464	906
874.547	609
874.568	672
874.631	859
874.676	1096
874.714	1277
874.784	1199
874.798	1184
874.881	1409
874.892	1401
874.965	1406
874.999	1446
875.048	1464
875.107	1135
875.131	995
875.215	221
875.215	221
875.298	601
875.323	743
875.381	1134
875.430	1360
875.465	1436
875.538	863
875.548	801
875.631	1084
875.646	1039
875.714	701
875.753	735
875.798	910
875.861	1508
875.881	1643
875.964	1016
875.968	1010
876.047	1031
876.076	1281
876.130	1713
876.183	1327
876.213	1138
876.291	1409
876.296	1424
876.379	509
876.398	726
876.462	1271
876.506	769
876.545	451
876.613	1385
876.628	1611
876.711	803
876.721	920
876.794	1652
876.828	1753
876.877	1817
876.935	1502
876.960	1383
877.043	568
877.043	570
877.125	1762
877.150	1765
877.208	1472
877.258	1399
877.291	1345
877.365	628
877.374	550
877.456	525
877.472	575
877.539	1034
877.579	1248
877.622	1344
877.687	1129
877.704	1111
877.787	1523
877.794	1530
877.869	1538
877.901	1670
877.952	1791
878.008	1680
878.034	1618
878.115	1234
878.117	1235
878.199	1394
878.222	1410
878.282	1448
878.329	2112
878.364	2503
878.437	1792
878.447	1687
878.529	469
878.544	550
878.611	962
878.651	1122
878.694	1619
878.758	2384
878.776	2529
878.858	2284
878.865	2252
878.941	1161
878.972	999
879.023	1229
879.078	1462
879.105	1630
879.185	2155
879.187	2169
879.269	2363
879.292	2365
879.351	2156
879.399	1771
879.433	1334
879.506	1320
879.516	1427
879.598	1986
879.613	2023
879.680	1748
879.720	2078
879.762	2469
879.827	1528
879.844	1277
879.926	2033
879.933	2055
880.007	2504
880.040	2282
880.089	1884
880.147	1597
880.171	1623
880.253	2936
880.254	2927
880.335	1364
880.360	1553
880.417	2634
880.467	2957
880.499	3195
880.574	3755
880.580	3734
880.662	3144
880.680	2856
880.744	1993
880.787	1715
880.825	1630
880.893	1956
880.907	2008
880.989	1806
881.000	1822
881.070	2470
881.106	2657
881.152	2486
881.213	2418
881.233	2394
881.315	1650
881.319	1645
881.396	2464
881.426	2639
881.478	2523
881.532	2576
881.559	2825
881.639	2776
881.641	2762
881.722	2828
881.745	2573
881.803	2509
881.852	2512
881.885	2224
881.958	1724
881.966	1752
882.047	2240
882.064	2226
882.129	1719
882.171	1781
882.210	2077
882.277	1831
882.291	1808
882.372	2765
882.383	2769
882.454	2903
882.489	2836
882.535	2538
882.596	2568
882.616	2669
882.697	3248
882.702	3232
882.778	2389
882.808	2126
882.859	2069
882.914	2288
882.940	2309
883.020	1468
883.021	1478
883.102	2823
883.127	3088
883.183	3332
883.233	3402
883.264	3153
883.339	2621
883.345	2549
883.426	1161
883.445	1084
883.507	1953
883.551	2028
883.587	2126
883.657	2877
883.668	3063
883.749	3938
883.763	4021
883.830	2478
883.869	1605
883.910	1703
883.975	2380
883.991	2547
884.072	2372
884.081	2438
884.152	3452
884.187	3756
884.233	4041
884.292	4539
884.314	4268
884.394	2573
884.398	2489
884.475	1701
884.504	1568
884.555	1958
884.610	2049
884.636	2137
884.716	2516
884.716	2535
884.797	3885
884.821	4207
884.877	4113
884.927	4019
884.958	3518
885.033	2345
885.038	2331
885.118	1803
885.139	1691
885.199	2002
885.244	2229
885.279	2453
885.350	3057
885.359	3186
885.439	4107
885.456	4181
885.520	3567
885.561	3495
885.600	3242
885.667	2534
885.680	2599
885.760	2902
885.773	2936
885.840	2765
885.878	2673
885.920	2618
885.984	2519
886.000	2735
886.080	3834
886.089	3939
886.160	3651
886.195	3407
886.240	3355
886.300	3222
886.320	3210
886.400	3453
886.406	3448
886.480	3422
886.511	3400
886.560	3317
886.616	3022
886.640	3052
886.720	3156
886.722	3147
886.800	2507
886.827	2341
886.879	3219
886.932	3837
886.959	3790
887.038	3880
887.039	3894
887.119	3595
887.143	3580
887.198	3296
887.248	2964
887.278	3115
887.354	3452
887.358	3459
887.437	3278
887.459	3251
887.517	3705
887.564	3940
887.596	3670
887.669	3120
887.676	3126
887.755	3060
887.774	3000
887.835	2829
887.880	2789
887.914	3206
887.985	3958
887.994	3984
888.073	4118
888.090	4118
888.153	4948
888.195	5460
888.232	4670
888.300	3159
888.311	3185
888.391	3255
888.405	3295
888.470	3137
888.510	2869
888.549	2980
888.615	3380
888.628	3557
888.708	4411
888.720	4526
888.787	4584
888.825	4574
888.866	3698
888.930	2364
888.945	2463
889.024	2960
889.035	3010
889.103	3563
889.140	3842
889.182	3738
889.245	3579
889.261	3667
889.340	4007
889.349	4035
889.419	4121
889.454	4136
889.498	3907
889.559	3578
889.577	3743
889.656	4410
889.664	4464
889.735	4899
889.768	5085
889.814	4798
889.873	4382
889.978	4145
890.083	3779
890.187	4756
890.292	4968
890.397	4020
890.501	4032
890.606	3277
890.710	4072
890.815	4994
890.919	4733
891.024	4397
891.128	4206
891.233	3746
891.337	3561
891.442	4805
891.546	4168
891.650	2792
891.755	3227
891.859	4515
891.963	4954
892.068	4613
892.172	3462
892.276	2971
892.380	3427
892.484	3773
892.589	5057
892.693	3786
892.797	2544
892.901	2668
893.005	3292
893.109	4655
893.213	5384
893.317	3936
893.421	2974
893.525	2280
893.629	2766
893.733	3402
893.837	3770
893.941	3552
894.045	3344
894.148	2046
894.252	5206
894.356	5071
894.460	5963
894.564	2982
894.667	4328
894.771	2730
894.875	2454
894.978	3076
895.082	3977
895.186	3916
895.289	3552
895.393	2956
895.496	4672
895.600	3571
895.703	2207
895.807	2661
895.910	4004
896.014	3647
896.117	2944
896.221	2935
896.324	4104
896.427	2815
896.531	2234
896.634	3486
896.737	3443
896.840	2723
896.944	4255
897.047	4140
897.150	3276
897.253	2541
897.356	2047
897.460	1799
897.563	2744
897.666	2892
897.769	4104
897.872	2894
897.975	2153
898.078	3420
898.181	2699
898.284	2515
898.387	3505
898.490	4494
898.593	2791
898.695	3082
898.798	2429
898.901	2765
899.004	3064
899.107	3064
899.209	3741
899.312	4264
899.415	2753
899.518	1727
899.620	2219
899.723	1800
899.826	3757
899.928	3164
900.031	3027
900.133	3385
900.236	4641
900.338	2417
900.441	2537
900.543	2325
900.646	2855
900.748	2634
900.851	3314
900.953	3346
901.055	2371
901.158	2093
901.260	2762
901.362	1294
901.465	2200
901.567	3121
901.669	3937
901.771	2635
901.873	2775
901.976	1186
902.078	3554
902.180	2274
902.282	2241
902.384	2035
902.486	4245
902.588	3057
902.690	2646
902.792	1539
902.894	3036
902.996	3260
903.098	2485
903.200	2460
903.302	2301
903.404	2132
903.505	2202
903.607	1582
903.709	3545
903.811	4036
903.913	3283
904.014	1334
904.116	1638
904.218	1932
904.319	2793
904.421	3988
904.523	4217
904.624	2986
904.726	2591
904.827	2225
904.929	2559
905.030	1907
905.132	3909
905.233	4121
905.335	2914
905.436	1181
905.537	2047
905.639	2244
905.740	2150
905.841	3292
905.943	3039
906.044	3199
906.145	2785
906.247	1214
906.348	2462
906.449	2318
906.550	2761
906.651	1891
906.752	2167
906.854	2882
906.955	2705
907.056	2301
907.157	2847
907.258	4561
907.359	2010
907.460	1431
907.561	2515
907.662	1697
907.762	2354
907.863	2389
907.964	3583
908.065	3618
908.166	3145
908.267	3078
908.367	2561
908.468	1974
908.569	3017
908.670	3110
908.770	3197
908.871	2158
908.971	2701
909.072	3068
909.173	1982
909.273	2437
909.374	3095
909.474	2387
909.575	2283
909.675	1421
909.776	2872
909.876	2242
909.977	1957
910.077	2145
910.177	3244
910.278	3075
910.378	2690
910.478	2214
910.579	3207
910.679	3650
910.779	4193
910.879	2300
910.980	2949
911.080	4044
911.180	2705
911.280	2166
911.380	3174
911.480	1761
911.580	1909
911.680	2724
911.780	3064
911.880	3025
911.980	3005
912.080	1402
912.180	2572
912.280	2978
912.380	1818
912.480	2139
912.580	1667
912.679	2173
912.779	3206
912.879	2899
912.979	1629
913.078	2166
913.178	2003
913.278	1906
913.377	2851
913.477	2416
913.577	1814
913.676	2341
913.776	3037
913.875	2879
913.975	2179
914.074	2075
914.174	2945
914.273	1239
914.373	2901
914.472	2244
914.572	2118
914.671	1962
914.770	3079
914.870	2574
914.969	2057
915.068	2471
915.167	4004
915.267	2459
915.366	2600
915.465	2616
915.564	1971
915.663	2158
915.763	3528
915.862	3053
915.961	3495
916.060	2670
916.159	2026
916.258	1721
916.357	1776
916.456	1941
916.555	2610
916.654	2832
916.752	3621
916.851	3154
916.950	1593
917.049	1713
917.148	1569
917.247	2121
917.345	1802
917.444	2073
917.543	2867
917.642	2469
917.740	2936
917.839	3817
917.937	4402
918.036	3689
918.135	2529
918.233	2569
918.332	2193
918.430	1885
918.529	2592
918.627	2572
918.726	4187
918.824	3631
918.923	2868
919.021	2449
919.119	2159
919.218	2587
919.316	3557
919.414	2877
919.512	3573
919.611	3271
919.709	3162
919.807	3508
919.905	4803
920.003	4341
920.102	4079
920.200	3530
920.298	4230
920.396	3754
920.494	4686
920.592	3611
920.690	3979
920.788	3556
920.886	4216
920.984	4782
921.082	4168
921.180	5513
921.277	4828
921.375	5132
921.473	7056
921.571	6481
921.669	6346
921.766	6267
921.864	6673
921.962	6358
922.060	6156
922.157	6050
922.255	6431
922.352	6232
922.450	8227
922.548	7374
922.645	8734
922.743	10338
922.840	14061
922.938	18723
923.035	15431
923.133	15078
923.230	15978
923.327	21198
923.425	19278
923.522	18903
923.619	17371
923.717	16766
923.814	15800
923.911	16168
924.008	17712
924.106	15091
924.203	15389
924.300	16288
924.397	16075
924.494	15771
924.591	16051
924.688	14644
924.786	16270
924.883	14918
924.979	14847
925.077	15536
925.173	15057
925.270	14512
925.367	14905
925.464	16278
925.561	16810
925.658	16852
925.755	14213
925.852	15925
925.948	15455
926.045	15240
926.142	15262
926.239	15872
926.335	13221
926.432	13665
926.529	14618
926.625	15781
926.722	12905
926.818	13262
926.915	14949
927.011	14950
927.108	13907
927.204	14443
927.301	13401
927.397	13974
927.494	17097
927.590	12006
927.687	11506
927.783	15746
927.879	16415
927.976	13218
928.072	11889
928.168	14146
928.264	15079
928.361	12954
928.457	15397
928.553	12888
928.649	13192
928.745	14433
928.841	12528
928.937	12799
929.033	14108
929.129	12268
929.225	14643
929.321	13157
929.417	11937
929.513	13554
929.609	11880
929.705	11336
929.801	14164
929.897	12254
929.993	11799
930.089	12795
930.184	11757
930.280	11532
930.376	15011
930.471	12208
930.567	10765
930.663	12128
930.758	10354
930.854	11185
930.950	11800
931.045	10694
931.141	11229
931.236	13673
931.332	13566
931.427	8668
931.523	13381
931.618	13024
931.714	9573
931.809	9682
931.905	12954
932.000	10323
932.095	8263
932.191	12058
932.286	14359
932.381	12500
932.476	8876
932.572	11034
932.667	10753
932.762	8486
932.857	11078
932.952	13017
933.047	11702
933.142	9251
933.237	10396
933.332	12710
933.427	12204
933.522	11344
933.617	8798
933.712	9045
933.807	12053
933.902	13684
933.997	13796
934.092	9927
934.187	9619
934.282	11713
934.376	10300
934.471	12390
934.566	9384
934.661	8866
934.755	11775
934.850	12335
934.945	10716
935.039	8767
935.134	8448
935.228	8382
935.323	14785
935.417	10705
935.512	8417
935.606	8151
935.701	10102
935.795	10842
935.890	11127
935.984	8891
936.079	7015
936.173	8963
936.267	9495
936.362	7814
936.456	8969
936.550	11494
936.644	10273
936.738	7149
936.833	8679
936.927	7092
937.021	7808
937.115	8871
937.209	10319
937.303	9995
937.397	7316
937.491	8502
937.585	10121
937.679	9111
937.773	8021
937.867	7544
937.961	6916
938.055	9748
938.149	10513
938.243	6697
938.337	7104
938.430	6376
938.524	11074
938.618	9088
938.712	7373
938.805	6457
938.899	10305
938.993	11480
939.086	8755
939.180	5193
939.274	6455
939.367	8540
939.461	10681
939.554	8076
939.648	7840
939.741	6958
939.835	8377
939.928	10376
940.022	10425
940.115	8638
940.208	8935
940.302	11058
940.395	11430
940.488	7192
940.582	7559
940.675	5969
940.768	6855
940.861	8894
940.954	10509
941.048	6202
941.141	6168
941.234	6699
941.327	7161
941.420	7734
941.513	8700
941.606	6868
941.699	6172
941.792	8194
941.885	8461
941.978	7809
942.071	7961
942.164	5968
942.257	5587
942.349	6736
942.442	8564
942.535	5202
942.628	6527
942.721	6280
942.813	6773
942.906	7648
942.999	7468
943.091	5868
943.184	6612
943.277	6361
943.369	6221
943.462	4399
943.554	6623
943.647	7242
943.739	7804
943.832	9617
943.924	5399
944.017	4692
944.109	4457
944.201	6476
944.294	6212
944.386	6040
944.478	6368
944.571	5808
944.663	6291
944.755	6033
944.847	7275
944.940	6578
945.032	4160
945.124	3940
945.216	6202
945.308	5784
945.400	6633
945.492	4758
945.584	7532
945.676	8578
945.768	6759
945.860	6427
945.952	8351
946.044	7093
946.136	5596
946.228	5346
946.320	5576
946.412	6066
946.503	7088
946.595	9153
946.687	5429
946.779	4342
946.870	4759
946.962	5346
947.054	5491
947.145	6868
947.237	6204
947.329	5963
947.420	5997
947.512	5911
947.603	4814
947.695	3782
947.786	4499
947.878	4334
947.969	6599
948.061	6299
948.152	6425
948.243	4420
948.335	4401
948.426	3663
948.517	4854
948.609	7072
948.700	6019
948.791	4969
948.882	4098
948.973	2282
949.065	4533
949.156	5536
949.247	4004
949.338	5181
949.429	3523
949.520	4624
949.611	4951
949.702	5994
949.793	6096
949.884	4861
949.975	5341
950.066	2625
950.157	3449
950.247	4694
950.338	4088
950.429	3217
950.520	5994
950.611	3524
950.701	4878
950.792	7136
950.883	5752
950.973	5106
951.064	5360
951.155	6237
951.245	6024
951.336	5711
951.427	5881
951.517	7049
951.608	6058
951.698	4480
951.788	3888
951.879	3559
951.969	4721
952.060	3484
952.150	5694
952.240	6244
952.331	4627
952.421	5245
952.511	3728
952.602	3649
952.692	3477
952.782	3515
952.872	3052
952.962	4313
953.052	4728
953.143	3780
953.233	4336
953.323	3614
953.413	4422
953.503	5984
953.593	4749
953.683	4320
953.773	3333
953.863	2550
953.953	3393
954.042	3757
954.132	5085
954.222	4856
954.312	3523
954.402	3332
954.492	4692
954.581	3605
954.671	4762
954.761	3244
954.850	5929
954.940	3129
955.030	2055
955.119	2741
955.209	3353
955.298	4049
955.388	4940
955.477	4989
955.567	3691
955.656	3799
955.746	4007
955.835	3148
955.925	3667
956.014	3669
956.103	5027
956.193	6408
956.282	6040
956.371	4294
956.461	4954
956.550	3715
956.639	4478
956.728	4265
956.817	4442
956.906	3712
956.995	6069
957.085	4759
957.174	5120
957.263	4009
957.352	3887
957.441	4123
957.530	4006
957.619	3482
957.708	4304
957.796	3388
957.885	4356
957.974	3523
958.063	5021
958.152	2144
958.241	3403
958.329	2714
958.418	4160
958.507	3204
958.596	5424
958.684	3716
958.773	5201
958.861	3651
958.950	4842
959.039	3644
959.127	3496
959.216	4343
959.304	4880
959.393	4144
959.481	5215
959.570	3602
959.658	3959
959.746	2725
959.835	4118
959.923	4674
960.011	4279
960.100	4271
960.188	4946
960.276	4102
960.365	3614
960.453	3442
960.541	2406
960.629	3609
960.717	3079
960.805	2128
960.893	3560
960.981	4112
961.069	4685
961.158	5038
961.245	7158
961.333	4559
961.421	4104
961.509	2693
961.597	5043
961.685	2921
961.773	3868
961.861	3362
961.949	4354
962.036	3832
962.124	4196
962.212	2962
962.299	2573
962.387	2453
962.475	2950
962.562	2162
962.650	4115
962.738	3093
962.825	2391
962.913	2718
963.000	3453
963.088	3129
963.175	4614
963.263	3019
963.350	2856
963.438	3584
963.525	2276
963.612	2808
963.700	4169
963.787	7080
963.874	5337
963.962	2653
964.049	2950
964.136	2685
964.223	3043
964.310	2358
964.398	2304
964.485	1708
964.572	3404
964.659	2406
964.746	3361
964.833	1332
964.920	2548
965.007	2401
965.094	3136
965.181	2309
965.268	3705
965.355	3137
965.441	3097
965.528	2611
965.615	4687
965.702	2207
965.789	3815
965.875	3473
965.962	3770
966.049	2675
966.136	4236
966.222	3597
966.309	4383
966.395	3034
966.482	4472
966.569	3003
966.655	4213
966.742	3537
966.828	2592
966.915	2439
967.001	2884
967.087	1468
967.174	2578
967.260	2484
967.347	3514
967.433	3735
967.519	5476
967.605	3655
967.692	3322
967.778	2701
967.864	2945
967.950	3185
968.036	1839
968.123	2770
968.209	3002
968.295	929
968.381	3665
968.467	2961
968.553	2081
968.639	3478
968.725	2531
968.811	4011
968.897	4231
968.983	2905
969.069	2133
969.154	1905
969.240	2124
969.326	242
969.412	2112
969.497	2044
969.583	1781
969.669	3310
969.755	2786
969.840	2374
969.926	5020
970.012	6024
970.097	7899
970.183	6623
970.268	3529
970.354	3638
970.439	3460
970.525	4886
970.610	2600
970.696	3683
970.781	2603
970.866	1255
970.952	2298
971.037	2101
971.122	3085
971.208	2204
971.293	2695
971.378	1457
971.463	3015
971.549	1619
971.634	2850
971.719	3008
971.804	2496
971.889	2095
971.974	2593
972.059	2406
972.144	3721
972.229	1572
972.314	2591
972.399	3216
972.484	2238
972.569	1544
972.654	2437
972.739	3074
972.824	2455
972.908	2469
972.993	1780
973.078	2611
973.163	3002
973.247	2291
973.332	2355
973.417	3055
973.501	2381
973.586	2510
973.671	3413
973.755	1946
973.840	3095
973.924	3419
974.009	4450
974.093	4540
974.178	6151
974.262	3502
974.346	4088
974.431	3002
974.515	2673
974.600	3009
974.684	3349
974.768	1913
974.852	3752
974.937	2433
975.021	3745
975.105	3112
975.189	2588
975.273	3006
975.358	1522
975.442	1274
975.526	2896
975.610	1832
975.694	1811
975.778	3271
975.862	1786
975.946	110
976.030	4740
976.114	2313
976.198	2642
976.281	2122
976.365	3331
976.449	1670
976.533	2361
976.617	2169
976.700	2929
976.784	1975
976.868	2184
976.951	2147
977.035	2865
977.119	2234
977.202	2518
977.286	2515
977.369	3468
977.453	5767
977.536	6033
977.620	4152
977.703	4478
977.787	2666
977.870	3959
977.953	3900
978.037	1572
978.120	2989
978.203	3382
978.287	3893
978.370	3331
978.453	2699
978.536	1863
978.620	2545
978.703	3239
978.786	3131
978.869	2176
978.952	1293
979.035	4285
979.118	3425
979.201	2316
979.284	3272
979.367	2262
979.450	2843
979.533	1493
979.616	1808
979.699	2035
979.782	1991
979.865	2800
979.948	2033
980.030	2352
980.113	1988
980.196	1776
980.279	3030
980.361	2258
980.444	2429
980.526	4588
980.609	4921
980.692	6333
980.774	5597
980.857	3574
980.939	4864
981.022	2941
981.104	3476
981.187	3433
981.269	2704
981.352	3127
981.434	2547
981.516	3352
981.599	4627
981.681	3922
981.763	3553
981.846	3223
981.928	3183
982.010	3415
982.092	2345
982.174	3622
982.256	3094
982.339	3306
982.421	3502
982.503	3004
982.585	2094
982.667	2207
982.749	2876
982.831	2866
982.913	2267
982.995	4027
983.077	1984
983.158	4541
983.240	3405
983.322	4558
983.404	6331
983.486	6239
983.568	4978
983.649	5086
983.731	5186
983.813	4386
983.894	4387
983.976	3407
984.058	4032
984.139	4623
984.221	2467
984.302	4734
984.384	3179
984.465	3647
984.547	3877
984.628	2938
984.710	3987
984.791	3673
984.872	3517
984.954	3886
985.035	4159
985.116	3962
985.198	3043
985.279	4186
985.360	3481
985.441	3705
985.522	4322
985.604	3802
985.685	1652
985.766	4757
985.847	4307
985.928	3868
986.009	3227
986.090	4484
986.171	4337
986.252	3058
986.333	4472
986.414	4223
986.495	4025
986.576	4588
986.656	4620
986.737	5127
986.818	4809
986.899	4645
986.980	4402
987.060	4649
987.141	4164
987.222	5412
987.302	6011
987.383	6709
987.464	5402
987.544	6581
987.625	5306
987.705	6046
987.786	6469
987.866	5531
987.947	5942
988.027	6275
988.108	4895
988.188	4922
988.268	4896
988.349	6810
988.429	4270
988.509	5132
988.589	4354
988.670	3439
988.750	5568
988.830	4478
988.910	5060
988.990	4490
989.070	4233
989.151	4337
989.231	4077
989.311	4928
989.391	3972
989.471	4464
989.551	3845
989.631	4231
989.711	4137
989.791	4924
989.870	3435
989.950	5292
990.030	3460
990.110	3885
990.190	2405
990.269	3842
990.349	3953
990.429	4447
990.509	3543
990.588	2790
990.668	4010
990.747	3964
990.827	3326
990.907	3423
990.986	3418
991.066	4363
991.145	2500
991.225	4023
991.304	3692
991.383	3761
991.463	3056
991.542	4107
991.622	3163
991.701	3619
991.780	3319
991.859	3640
991.939	2920
992.018	4412
992.097	3373
992.176	3124
992.256	2422
992.335	2507
992.414	3398
992.493	3333
992.572	2509
992.651	4055
992.730	3053
992.809	3149
992.888	2188
992.967	2701
993.046	3010
993.125	1951
993.203	2728
993.282	3343
993.361	2737
993.440	2777
993.519	1475
993.597	2689
993.676	2678
993.755	3923
993.834	2936
993.912	1974
993.991	2927
994.069	2136
994.148	1685
994.226	2021
994.305	2169
994.384	1731
994.462	2975
994.540	2606
994.619	772
994.697	2170
994.776	2118
994.854	3673
994.932	2260
995.011	1403
995.089	1771
995.167	2241
995.245	1937
995.324	2144
995.402	2004
995.480	1828
995.558	1882
995.636	1100
995.714	1623
995.792	3326
995.870	1128
995.948	1170
996.026	978
996.104	738
996.182	2229
996.260	967
996.338	1856
996.416	509
996.494	1979
996.572	2513
996.649	553
996.727	1763
996.805	1887
996.883	1435
996.960	1879
997.038	1577
997.116	1058
997.193	1793
997.271	741
997.348	404
997.426	1198
997.504	1498
997.581	2761
997.658	2463
997.736	67
997.813	950
997.891	1928
997.968	1665
998.046	1091
998.123	1064
998.200	1697
998.277	1399
998.355	1657
998.432	700
998.509	75
998.586	1410
998.663	909
998.741	586
998.818	564
998.895	390
998.972	1371
999.049	680
999.126	1194
999.203	645
999.280	-22
999.357	863
999.434	282
999.511	943
999.587	1004
999.664	250
999.741	800
999.818	2332
999.895	241
999.971	1300
1000.048	-252
1000.125	1093
1000.202	315
1000.278	735
1000.355	1618
1000.431	427
1000.508	-471
1000.584	-411
1000.661	-652
1000.738	-236
1000.814	-3
1000.890	1004
1000.967	1395
1001.043	1105
1001.120	-1008
1001.196	229
1001.272	-400
1001.349	610
1001.425	1628
1001.501	184
1001.577	412
1001.654	490
1001.730	827
1001.806	598
1001.882	-54
1001.958	1119
1002.034	202
1002.110	1094
1002.186	77
1002.262	-379
1002.338	-1048
1002.414	1513
1002.490	569
1002.566	594
1002.642	-162
1002.718	1210
1002.794	-379
1002.870	912
1002.945	-256
1003.021	-364
1003.097	-36
1003.173	438
1003.248	-925
1003.324	968
1003.400	376
1003.475	-1254
1003.551	-175
1003.626	-414
1003.702	191
1003.777	-682
1003.853	25
1003.928	109
1004.004	-489
1004.079	286
1004.155	117
1004.230	-346
1004.305	1056
1004.381	-1067
1004.456	-280
1004.531	-1044
1004.607	-477
1004.682	135
1004.757	-9
1004.832	-180
1004.907	-586
1004.982	-468
1005.057	-215
1005.133	81
1005.208	-708
1005.283	-524
1005.358	-484
1005.433	-495
1005.508	-518
1005.583	-628
1005.657	-450
1005.732	691
1005.807	-345
1005.882	-673
1005.957	-163
1006.032	-388
1006.106	-567
1006.181	44
1006.256	-7
1006.331	165
1006.405	-488
1006.480	111
1006.554	-906
1006.629	-461
1006.704	-950
1006.778	-579
1006.853	-425
1006.927	-355
1007.002	-370
1007.076	-411
1007.150	-711
1007.225	-662
1007.299	-134
1007.373	-797
1007.448	-662
1007.522	-321
1007.596	-675
1007.671	97
1007.745	-297
1007.819	-731
1007.893	-164
1007.967	450
1008.041	-941
1008.115	-104
1008.190	-808
1008.264	-835
1008.338	-1906
1008.412	-627
1008.486	-205
1008.560	-701
1008.633	-1202
1008.707	-352
1008.781	233
1008.855	-1014
1008.929	-584
1009.003	-812
1009.076	-1185
1009.150	-617
1009.224	-193
1009.298	-443
1009.371	-1079
1009.445	-752
1009.519	-994
1009.592	-2097
1009.666	-721
1009.739	-60
1009.813	-1703
1009.886	-236
1009.960	-1599
1010.033	-611
1010.107	-1231
1010.180	-1463
1010.253	-1878
1010.327	-1515
1010.400	-1835
1010.473	-1320
1010.547	-17
1010.620	-561
1010.693	-716
1010.766	-653
1010.840	-570
1010.913	-1120
1010.986	-1065
1011.059	-893
1011.132	-896
1011.205	-338
1011.278	-1192
1011.351	-1200
1011.424	-783
1011.497	-1417
1011.570	-1776
1011.643	-228
1011.716	-954
1011.789	-864
1011.862	-254
1011.934	-1182
1012.007	-1259
1012.080	-490
1012.153	-1505
1012.225	-460
1012.298	-1113
1012.371	-568
1012.443	-1034
1012.516	-1764
1012.588	-819
1012.661	-1127
1012.733	-1555
1012.806	-1017
1012.879	-874
1012.951	-1032
1013.023	-1142
1013.096	-761
1013.168	-935
1013.241	-627
1013.313	-1196
1013.385	-1514
1013.458	-1567
1013.530	-170
1013.602	-1372
1013.674	-452
1013.746	-1236
1013.819	-1861
1013.891	-618
1013.963	-1533
1014.035	-773
1014.107	-841
1014.179	-1110
1014.251	-917
1014.323	-722
1014.395	-684
1014.467	-952
1014.539	-1541
1014.611	-1518
1014.683	-791
1014.754	-1126
1014.826	-1393
1014.898	-1324
1014.970	-2311
1015.042	-321
1015.113	-652
1015.185	-1645
1015.257	-1799
1015.328	-1089
1015.400	-1209
1015.471	-1385
1015.543	-2047
1015.615	-677
1015.686	-731
1015.757	-1970
1015.829	-1300
1015.901	-2094
1015.972	-106
1016.043	-1228
1016.115	-437
1016.186	-1645
1016.257	-1267
1016.328	-1828
1016.400	-1299
1016.471	-2514
1016.542	-2177
1016.613	-1583
1016.685	-974
1016.756	-1041
1016.827	-928
1016.898	-1908
1016.969	-792
1017.040	-2043
1017.111	-1832
1017.182	-981
1017.253	-1368
1017.324	-1880
1017.395	-2099
1017.466	-1352
1017.537	-1784
1017.608	-1779
1017.678	-1183
1017.749	-1450
1017.820	-1155
1017.891	-2080
1017.961	-2248
1018.032	-966
1018.103	-1279
1018.173	-1701
1018.244	-940
1018.315	-1985
1018.385	-849
1018.456	-1949
1018.526	-1913
1018.597	-1296
1018.667	-1448
1018.738	-2034
1018.808	-1135
1018.878	-1369
1018.949	-1584
1019.019	-1903
1019.089	-1716
1019.160	-1563
1019.230	-1507
1019.300	-1193
1019.371	-1764
1019.441	-2182
1019.511	-2220
1019.581	-2642
1019.651	-1569
1019.721	-1538
1019.791	-1208
1019.861	-1939
1019.931	-982
1020.001	-1556
1020.071	-1480
1020.141	-1572
1020.211	-1909
1020.281	-2190
1020.351	-1361
1020.421	-1374
1020.491	-1812
1020.560	-2043
1020.630	-1241
1020.700	-2378
1020.770	-2364
1020.839	-2050
1020.909	-953
1020.979	-1572
1021.048	-1911
1021.118	-1669
1021.187	-1331
1021.257	-1601
1021.326	-1168
1021.396	-2285
1021.465	-1252
1021.535	-1801
1021.604	-2301
1021.674	-2361
1021.743	-2095
1021.812	-2067
1021.882	-1185
1021.951	-1512
1022.020	-1254
1022.089	-707
1022.159	-1929
1022.228	-1445
1022.297	-1523
1022.366	-1608
1022.435	-1925
1022.504	-1839
1022.573	-2557
1022.642	-1755
1022.711	-1553
1022.781	-1823
1022.849	-2273
1022.918	-1691
1022.987	-1377
1023.056	-2466
1023.125	-880
1023.194	-1604
1023.263	-1836
1023.331	-1653
1023.400	-1952
1023.469	-2350
1023.538	-1591
1023.606	-1815
1023.675	-1771
1023.744	-2310
1023.812	-2620
1023.881	-2500
1023.949	-1956
1024.018	-2669
1024.086	-2169
1024.155	-2015
1024.223	-1122
1024.292	-1771
1024.360	-1014
1024.429	-2017
1024.497	-1786
1024.565	-2160
1024.634	-1705
1024.702	-1748
1024.770	-1534
1024.838	-1806
1024.907	-1116
1024.975	-2075
1025.043	-1756
1025.111	-2564
1025.179	-849
1025.247	-2442
1025.315	-2465
1025.383	-2614
1025.451	-2444
1025.519	-2620
1025.587	-1857
1025.655	-1156
1025.723	-1625
1025.791	-2325
1025.859	-1243
1025.927	-1598
1025.995	-2621
1026.062	-2121
1026.130	-1862
1026.198	-2295
1026.266	-2004
1026.333	-1984
1026.401	-1506
1026.469	-2098
1026.536	-1906
1026.604	-2333
1026.671	-1546
1026.739	-1663
1026.806	-2093
1026.874	-1954
1026.941	-2264
1027.009	-2032
1027.076	-1873
1027.144	-2153
1027.211	-2993
1027.278	-2259
1027.345	-1801
1027.413	-2784
1027.480	-1878
1027.547	-2461
1027.614	-2160
1027.682	-2051
1027.749	-1641
1027.816	-1587
1027.883	-1551
1027.950	-1935
1028.017	-2016
1028.084	-1518
1028.151	-2254
1028.218	-2832
1028.285	-1674
1028.352	-2345
1028.419	-2683
1028.486	-2364
1028.553	-1123
1028.619	-2312
1028.686	-1991
1028.753	-2077
1028.820	-3636
1028.886	-2392
1028.953	-1369
1029.020	-2461
1029.086	-2920
1029.153	-2724
1029.220	-2376
1029.286	-2020
1029.353	-2278
1029.419	-3121
1029.486	-1519
1029.552	-2358
1029.619	-2395
1029.685	-2491
1029.751	-1868
1029.818	-2386
1029.884	-2021
1029.951	-1973
1030.017	-2254
1030.083	-1698
1030.149	-1859
1030.216	-2711
1030.282	-2026
1030.348	-2928
1030.414	-2434
1030.480	-2144
1030.546	-2288
1030.612	-2260
1030.678	-2659
1030.744	-2001
1030.810	-1716
1030.876	-2458
1030.942	-2713
1031.008	-2003
1031.074	-2516
1031.140	-3205
1031.206	-1546
1031.272	-2932
1031.337	-1998
1031.403	-1332
1031.469	-2518
1031.534	-3040
1031.600	-2194
1031.666	-2056
1031.731	-2150
1031.797	-2630
1031.863	-2055
1031.928	-2323
1031.994	-2238
1032.059	-2191
1032.125	-2133
1032.190	-2594
1032.256	-2700
1032.321	-2688
1032.386	-2362
1032.452	-1540
1032.517	-2288
1032.582	-2735
1032.647	-2059
1032.713	-2811
1032.778	-1141
1032.843	-2667
1032.908	-2062
1032.974	-2125
1033.039	-2314
1033.104	-2101
1033.169	-1848
1033.234	-2567
1033.299	-2339
1033.364	-2652
1033.429	-2182
1033.494	-2181
1033.559	-1926
1033.624	-1887
1033.688	-2005
1033.753	-2496
1033.818	-2500
1033.883	-1883
1033.948	-1544
1034.013	-1106
1034.077	-1153
1034.142	-112
1034.207	196
1034.271	2241
1034.336	3411
1034.400	1825
1034.465	1129
1034.530	-1530
1034.594	-1505
1034.658	-1850
1034.723	-1634
1034.787	-2289
1034.852	-1843
1034.916	-1853
1034.981	-1720
1035.045	-2224
1035.109	-2830
1035.173	-2347
1035.238	-1755
1035.302	-2393
1035.366	-1858
1035.430	-2191
1035.495	-2678
1035.559	-2187
1035.623	-2094
1035.687	-2223
1035.751	-1605
1035.815	-2580
1035.879	-2022
1035.943	-2420
1036.007	-2232
1036.071	-2176
1036.135	-1936
1036.198	-2137
1036.262	-1757
1036.326	-2464
1036.390	-2293
1036.454	-2182
1036.517	-2183
1036.581	-2124
1036.645	-1245
1036.709	-1678
1036.772	-2237
1036.836	-3037
1036.900	-2019
1036.963	-3566
1037.026	-1695
1037.090	-2424
1037.154	-2254
1037.217	-3343
1037.280	-2769
1037.344	-2378
1037.407	-2322
1037.471	-1995
1037.534	-3012
1037.597	-1836
1037.661	-2489
1037.724	-2203
1037.787	-1144
1037.850	-2698
1037.913	-2413
1037.977	-1828
1038.040	-2193
1038.103	-2426
1038.166	-1803
1038.229	-2385
1038.292	-2559
1038.355	-2284
1038.418	-1842
1038.481	-1668
1038.544	-1928
1038.607	-2333
1038.670	-2083
1038.732	-2531
1038.795	-2137
1038.858	-3403
1038.921	-1636
1038.984	-2167
1039.046	-2298
1039.109	-2554
1039.172	-2078
1039.234	-2822
1039.297	-2494
1039.360	-2359
1039.422	-1713
1039.485	-2102
1039.547	-2051
1039.610	-3065
1039.672	-1409
1039.734	-1670
1039.797	-2179
1039.859	-2012
1039.922	-2324
1039.984	-2872
1040.046	-2741
1040.109	-2772
1040.171	-2592
1040.233	-1961
1040.295	-1651
1040.358	-2827
1040.420	-1689
1040.482	-2391
1040.544	-1789
1040.606	-1545
1040.668	-2078
1040.730	-1988
1040.792	-1615
1040.854	-2995
1040.916	-2334
1040.978	-3375
1041.040	-1211
1041.102	-1948
1041.164	-1886
1041.225	-3314
1041.287	-1606
1041.349	-2670
1041.411	-1969
1041.472	-2323
1041.534	-2048
1041.596	-2487
1041.657	-2239
1041.719	-2030
1041.781	-2692
1041.842	-2649
1041.904	-2272
1041.965	-2545
1042.027	-2433
1042.088	-1938
1042.150	-2890
1042.211	-2672
1042.272	-2734
1042.334	-2483
1042.395	-2570
1042.456	-3101
1042.518	-2089
1042.579	-2110
1042.640	-1790
1042.701	-2637
1042.763	-1999
1042.824	-2578
1042.885	-2210
1042.946	-1905
1043.007	-2554
1043.068	-1835
1043.129	-2255
1043.190	-2451
1043.251	-1630
1043.312	-2174
1043.373	-1736
1043.434	-2803
1043.495	-2617
1043.556	-1700
1043.616	-2072
1043.677	-2766
1043.738	-2564
1043.799	-2718
1043.859	-1612
1043.920	-2651
1043.981	-2493
1044.041	-2853
1044.102	-2335
1044.162	-2421
1044.223	-2697
1044.284	-2237
1044.344	-1908
1044.405	-2238
1044.465	-2304
1044.525	-2142
1044.586	-1861
1044.646	-3030
1044.707	-2177
1044.767	-1512
1044.827	-1987
1044.887	-2457
1044.948	-2055
1045.008	-1642
1045.068	-3162
1045.128	-2039
1045.188	-1660
1045.249	-1542
1045.309	-1453
1045.369	-1996
1045.429	-1986
1045.489	-2405
1045.549	-2098
1045.609	-1541
1045.669	-1993
1045.729	-2382
1045.789	-2175
1045.848	-1477
1045.908	-1593
1045.968	-1949
1046.028	-1893
1046.088	-1548
1046.147	-1997
1046.207	-2141
1046.267	-1433
1046.326	-1940
1046.386	-1385
1046.446	-1451
1046.505	-1526
1046.565	-1829
1046.624	-1538
1046.684	-717
1046.743	-786
1046.803	-1559
1046.862	256
1046.922	0
