'Start Wavelength	183.907
'End Wavelength	1046.922
'Gate Delay	5.000
'Gate Width (ms)	1.050
'Laser Output Level	0.000
'X Position	0.000
'Y Position	0.000
'Z Position	0.000
'Grid Point Number	1.000
'Shot Number	100.000
183.907	422.000
183.977	-148.000
184.047	-352
184.116	179
184.186	-48
184.256	375
184.325	-29
184.395	-681
184.465	1186
184.534	40
184.604	84
184.674	173
184.743	-552
184.813	-650
184.883	822
184.952	-83
185.022	-647
185.092	-182
185.161	226
185.231	31
185.301	-6
185.370	159
185.440	278
185.509	-685
185.579	220
185.649	262
185.718	261
185.788	546
185.857	-573
185.927	-118
185.996	120
186.066	-354
186.136	-126
186.205	-140
186.275	193
186.344	-581
186.414	-338
186.483	-762
186.553	440
186.622	565
186.692	576
186.761	249
186.831	907
186.900	40
186.970	56
187.039	192
187.109	908
187.178	365
187.248	307
187.317	433
187.387	-266
187.456	236
187.526	83
187.595	186
187.664	-435
187.734	403
187.803	268
187.873	168
187.942	831
188.012	584
188.081	910
188.150	114
188.220	1033
188.289	812
188.358	611
188.428	623
188.497	-218
188.567	20
188.636	187
188.705	-76
188.775	398
188.844	172
188.913	1254
188.983	220
189.052	631
189.121	391
189.191	768
189.260	527
189.329	553
189.399	434
189.468	13
189.537	-165
189.606	567
189.676	736
189.745	560
189.814	521
189.883	436
189.953	1213
190.022	1035
190.091	1680
190.161	2199
190.230	909
190.299	567
190.368	588
190.437	195
190.507	617
190.576	372
190.645	-362
190.714	561
190.783	145
190.853	487
190.922	869
190.991	637
191.060	-59
191.129	-378
191.198	-94
191.268	720
191.337	793
191.406	837
191.475	880
191.544	-101
191.613	811
191.682	275
191.752	429
191.821	696
191.890	372
191.959	269
192.028	1085
192.097	535
192.166	462
192.235	101
192.304	936
192.373	-208
192.442	-187
192.511	147
192.580	-371
192.650	884
192.719	490
192.788	966
192.857	732
192.926	1222
192.995	1035
193.064	1481
193.133	1841
193.202	1932
193.271	2193
193.340	1970
193.409	610
193.478	2441
193.547	2522
193.615	3244
193.684	2456
193.753	2313
193.822	1546
193.891	1349
193.960	835
194.029	374
194.098	1068
194.167	760
194.236	1364
194.305	862
194.374	769
194.443	1731
194.512	882
194.580	524
194.649	1104
194.718	1496
194.787	851
194.856	454
194.925	1085
194.994	1491
195.062	1041
195.131	1315
195.200	424
195.269	1270
195.338	711
195.407	1628
195.475	783
195.544	1767
195.613	894
195.682	804
195.751	1869
195.819	1147
195.888	1222
195.957	1988
196.026	1719
196.094	1516
196.163	1406
196.232	931
196.301	1238
196.369	1655
196.438	928
196.507	1255
196.576	1064
196.644	1241
196.713	718
196.782	946
196.850	1203
196.919	325
196.988	860
197.056	167
197.125	1159
197.194	1972
197.262	851
197.331	1078
197.400	827
197.468	1248
197.537	1089
197.606	923
197.674	2061
197.743	2573
197.812	955
197.880	3062
197.949	1764
198.017	2594
198.086	1952
198.155	760
198.223	1570
198.292	3501
198.360	1921
198.429	1416
198.497	1085
198.566	2173
198.635	2627
198.703	2815
198.772	2289
198.840	3080
198.909	3110
198.977	2112
199.046	2068
199.114	1843
199.183	906
199.251	1755
199.320	2021
199.388	1256
199.457	984
199.525	1080
199.594	169
199.662	1119
199.731	1733
199.799	1806
199.867	1694
199.936	1763
200.004	1319
200.073	1901
200.141	1368
200.210	1371
200.278	1271
200.346	1418
200.415	1968
200.483	2056
200.552	1441
200.620	2172
200.688	1173
200.757	1050
200.825	1009
200.893	1433
200.962	1984
201.030	1282
201.098	1196
201.167	1876
201.235	1616
201.303	1044
201.372	1628
201.440	2033
201.508	1678
201.577	1640
201.645	1608
201.713	2653
201.781	957
201.850	2133
201.918	1494
201.986	1628
202.055	1766
202.123	1587
202.191	1638
202.259	2286
202.327	1608
202.396	1949
202.464	659
202.532	1946
202.600	3936
202.669	3477
202.737	1925
202.805	1425
202.873	977
202.941	1992
203.009	2085
203.078	1711
203.146	2176
203.214	1374
203.282	1172
203.350	1978
203.418	1596
203.487	1808
203.555	1082
203.623	1874
203.691	1633
203.759	1055
203.827	2186
203.895	3078
203.963	1796
204.031	1559
204.099	1396
204.168	1959
204.236	1636
204.304	2840
204.372	3005
204.440	2808
204.508	2177
204.576	1459
204.644	1741
204.712	2266
204.780	1968
204.848	2561
204.916	1831
204.984	1851
205.052	1871
205.120	2525
205.188	2306
205.256	1572
205.324	2559
205.392	2096
205.460	2342
205.528	2752
205.596	2741
205.664	2098
205.732	2068
205.799	3907
205.867	6615
205.935	2413
206.003	2584
206.071	2269
206.139	2420
206.207	3034
206.275	2210
206.343	2279
206.411	2236
206.478	2890
206.546	1917
206.614	2199
206.682	2042
206.750	2380
206.818	2283
206.885	3071
206.953	1863
207.021	2930
207.089	2340
207.157	2279
207.225	2333
207.292	2117
207.360	2674
207.428	2402
207.496	2518
207.563	2677
207.631	2696
207.699	1819
207.767	2174
207.834	2608
207.902	2211
207.970	1977
208.038	2641
208.105	3336
208.173	3105
208.241	3758
208.309	2929
208.376	4088
208.444	3878
208.512	3786
208.579	2456
208.647	3829
208.715	3600
208.782	3050
208.850	2474
208.918	2528
208.985	2822
209.053	3068
209.120	2759
209.188	3156
209.256	3002
209.323	2545
209.391	2357
209.459	3722
209.526	3452
209.594	2850
209.661	3423
209.729	3622
209.796	3168
209.864	3580
209.932	2061
209.999	4020
210.067	3345
210.134	3480
210.202	3467
210.269	4819
210.337	3460
210.404	3451
210.472	3691
210.539	3929
210.607	3112
210.674	3999
210.742	3289
210.809	3977
210.877	3632
210.944	3939
211.012	3712
211.079	4428
211.146	3112
211.214	3285
211.281	3631
211.349	3962
211.416	3926
211.484	4467
211.551	2914
211.618	4212
211.686	3314
211.753	3251
211.821	3675
211.888	3663
211.955	4183
212.023	3520
212.090	4106
212.157	4411
212.225	4451
212.292	6618
212.359	9548
212.427	15313
212.494	9872
212.561	5521
212.629	4410
212.696	4308
212.763	4086
212.831	3473
212.898	4490
212.965	3913
213.032	3571
213.100	4803
213.167	3374
213.234	5360
213.301	4030
213.369	3994
213.436	4081
213.503	4148
213.570	4988
213.638	5229
213.705	3822
213.772	2701
213.839	4428
213.906	5735
213.973	4653
214.041	4318
214.108	4484
214.175	5129
214.242	3876
214.309	4872
214.376	4853
214.444	4496
214.511	5005
214.578	5384
214.645	4208
214.712	5674
214.779	5024
214.846	3935
214.913	5884
214.980	5515
215.048	5463
215.115	5475
215.182	4987
215.249	4264
215.316	3818
215.383	4810
215.450	4073
215.517	4429
215.584	3798
215.651	4417
215.718	3457
215.785	5315
215.852	3817
215.919	4997
215.986	5334
216.053	4466
216.120	3569
216.187	4878
216.254	4555
216.321	4954
216.388	5215
216.455	5644
216.522	4967
216.589	5418
216.656	6395
216.722	7628
216.789	7000
216.856	6532
216.923	5920
216.990	6528
217.057	5639
217.124	7279
217.191	5709
217.258	7820
217.324	8003
217.391	8379
217.458	7024
217.525	6780
217.592	5113
217.659	4961
217.725	6242
217.792	6062
217.859	5684
217.926	4190
217.993	4298
218.059	4680
218.126	4422
218.193	4914
218.260	4193
218.327	3788
218.393	4099
218.460	4029
218.527	3062
218.594	4368
218.660	5962
218.727	6028
218.794	3933
218.860	4613
218.927	3593
218.994	3882
219.061	3559
219.127	4392
219.194	4935
219.261	3814
219.327	3364
219.394	4187
219.461	3037
219.527	4049
219.594	5229
219.661	3707
219.727	3458
219.794	4035
219.860	2746
219.927	4753
219.994	5533
220.060	7462
220.127	6266
220.193	6767
220.260	6418
220.326	9808
220.393	10814
220.460	13020
220.526	9667
220.593	7950
220.659	9448
220.726	9134
220.792	13285
220.859	14341
220.925	16668
220.992	20236
221.058	18493
221.125	16663
221.191	12828
221.258	8319
221.324	6744
221.391	6414
221.457	5993
221.524	6271
221.590	7268
221.657	13205
221.723	11015
221.789	8661
221.856	9316
221.922	6533
221.989	5372
222.055	5113
222.121	4853
222.188	7152
222.254	5212
222.321	4938
222.387	3875
222.453	3938
222.520	3755
222.586	4422
222.652	4883
222.719	3421
222.785	4032
222.851	3581
222.918	4401
222.984	4434
223.050	4019
223.116	3671
223.183	4999
223.249	3698
223.315	2926
223.382	3777
223.448	3658
223.514	3188
223.580	3355
223.647	2251
223.713	3388
223.779	4134
223.845	3806
223.911	4451
223.978	2188
224.044	3750
224.110	3812
224.176	4277
224.242	3133
224.309	3007
224.375	3285
224.441	3335
224.507	3209
224.573	3539
224.639	3574
224.705	2974
224.772	3576
224.838	2845
224.904	4315
224.970	3773
225.036	3703
225.102	3532
225.168	3939
225.234	3962
225.300	3444
225.366	3072
225.432	3713
225.499	3569
225.565	4338
225.631	4072
225.697	4932
225.763	5534
225.829	6871
225.895	6633
225.961	7777
226.027	8679
226.093	7520
226.159	10798
226.225	14182
226.291	24320
226.357	31208
226.423	20520
226.489	13277
226.554	11490
226.620	10599
226.686	12628
226.752	17065
226.818	24698
226.884	36970
226.950	34578
227.016	19027
227.082	12666
227.148	9688
227.214	9555
227.279	7552
227.345	6386
227.411	6696
227.477	6421
227.543	8010
227.609	8014
227.674	7512
227.740	6065
227.806	6173
227.872	5447
227.938	5898
228.003	7377
228.069	4666
228.135	4218
228.201	4952
228.267	4190
228.332	4017
228.398	5542
228.464	4528
228.530	2961
228.595	3881
228.661	2905
228.727	5653
228.792	5855
228.858	3522
228.924	3674
228.990	6577
229.055	4097
229.121	5974
229.187	4256
229.252	4052
229.318	3498
229.384	4294
229.449	5191
229.515	2258
229.581	2003
229.646	4934
229.712	4225
229.777	6544
229.843	7633
229.909	7445
229.974	8189
230.040	6546
230.105	6364
230.171	5691
230.236	8861
230.302	10204
230.368	9718
230.433	6613
230.499	6834
230.564	7079
230.630	5848
230.695	5774
230.761	5903
230.826	4751
230.892	7878
230.957	4379
231.023	4546
231.088	5022
231.154	5406
231.219	5086
231.284	6144
231.350	7291
231.415	4488
231.481	5208
231.546	4784
231.612	4879
231.677	4340
231.742	3199
231.808	5752
231.873	3421
231.939	2421
232.004	6874
232.069	7308
232.135	3749
232.200	5647
232.265	4220
232.331	4895
232.396	3689
232.461	3702
232.527	3601
232.592	4084
232.657	4065
232.723	4809
232.788	4790
232.853	5007
232.918	4741
232.984	3366
233.049	2994
233.114	4563
233.179	5094
233.245	6864
233.310	7678
233.375	3265
233.440	4345
233.506	4684
233.571	3865
233.636	4702
233.701	3779
233.766	5355
233.832	6569
233.897	4721
233.962	4017
234.027	5456
234.092	4748
234.157	4061
234.222	4949
234.288	5569
234.353	12705
234.418	12209
234.483	9710
234.548	8115
234.613	7195
234.678	7791
234.743	7084
234.808	15338
234.873	10444
234.938	7321
235.004	7113
235.069	6150
235.134	5642
235.199	7135
235.264	6614
235.329	4653
235.394	6455
235.459	6758
235.524	5814
235.589	6749
235.654	4736
235.719	4216
235.784	5435
235.849	5521
235.913	8396
235.978	9777
236.043	10867
236.108	6778
236.173	5560
236.238	7188
236.303	6484
236.368	5898
236.433	9310
236.498	13497
236.563	13876
236.627	22867
236.692	50215
236.757	46036
236.822	23951
236.887	18643
236.952	15512
237.017	12979
237.081	14911
237.146	18925
237.211	32733
237.276	50714
237.341	62357
237.405	42651
237.470	23741
237.535	17279
237.600	12566
237.664	11224
237.729	8035
237.794	11187
237.859	21545
237.923	15026
237.988	9083
238.053	10984
238.118	9593
238.182	18577
238.247	16267
238.312	9525
238.376	8131
238.441	6079
238.506	8337
238.570	5232
238.635	5885
238.700	5748
238.764	4479
238.829	9485
238.893	10858
238.958	8571
239.023	8068
239.087	5918
239.152	7355
239.216	4866
239.281	6482
239.346	6052
239.410	5647
239.475	6854
239.539	16000
239.604	13729
239.668	6778
239.733	5735
239.797	6071
239.862	10687
239.926	14259
239.991	8620
240.055	4793
240.120	5186
240.184	5730
240.249	4831
240.313	5541
240.378	4945
240.442	10662
240.507	15999
240.571	6665
240.635	8207
240.700	10553
240.764	5542
240.829	5136
240.893	2975
240.957	5007
241.022	9815
241.086	15745
241.151	7978
241.215	4407
241.279	7434
241.344	9025
241.408	7642
241.472	7519
241.537	8914
241.601	7703
241.665	6551
241.730	7794
241.794	8214
241.858	7458
241.922	6967
241.987	7733
242.051	6804
242.115	6193
242.179	7228
242.244	6496
242.308	7741
242.372	7330
242.436	7548
242.501	7343
242.565	5754
242.629	6003
242.693	7178
242.757	5596
242.822	6250
242.886	6714
242.950	7668
243.014	6182
243.078	7391
243.142	7977
243.206	6530
243.271	8354
243.335	8598
243.399	12370
243.463	31575
243.527	66443
243.591	25126
243.655	12031
243.719	8211
243.783	9335
243.847	13773
243.911	16643
243.975	16821
244.040	11254
244.104	9410
244.168	7385
244.232	9192
244.296	12557
244.360	14451
244.424	7507
244.488	8000
244.552	6542
244.615	4201
244.679	6144
244.743	7676
244.807	6705
244.871	6744
244.935	6136
244.999	5249
245.063	5989
245.127	7047
245.191	11038
245.255	11123
245.319	7983
245.383	6457
245.446	7736
245.510	4184
245.574	6045
245.638	6535
245.702	4806
245.766	13219
245.829	9086
245.893	6868
245.957	6944
246.021	8289
246.085	7243
246.149	8689
246.212	17325
246.276	21555
246.340	11745
246.404	9533
246.467	9972
246.531	12172
246.595	9574
246.659	8805
246.722	7705
246.786	10332
246.850	10102
246.913	12224
246.977	6739
247.041	7278
247.104	8175
247.168	7701
247.232	15292
247.295	28555
247.359	16690
247.423	8906
247.486	14678
247.550	9784
247.614	7251
247.677	10233
247.741	8153
247.804	7237
247.868	8966
247.932	13502
247.995	28102
248.059	12998
248.122	8264
248.186	11381
248.249	16240
248.313	41878
248.376	44432
248.440	31097
248.503	14056
248.567	13887
248.630	16625
248.694	21537
248.757	27450
248.821	48565
248.884	32366
248.948	29827
249.011	38304
249.075	51798
249.138	45934
249.202	22745
249.265	15920
249.328	18138
249.392	14512
249.455	13479
249.519	10815
249.582	12508
249.645	19887
249.709	15903
249.772	13376
249.835	12890
249.899	11473
249.962	10842
250.025	10967
250.089	21400
250.152	26402
250.215	15305
250.279	12390
250.342	12776
250.405	12800
250.468	13409
250.532	17068
250.595	24500
250.658	63843
250.721	93017
250.785	44114
250.848	25354
250.911	16450
250.974	15691
251.038	19485
251.101	32649
251.164	20355
251.227	22752
251.290	21285
251.354	31775
251.417	86536
251.480	88866
251.543	74057
251.606	131895
251.669	111063
251.732	58283
251.795	52270
251.859	50890
251.922	94675
251.985	62959
252.048	30741
252.111	23496
252.174	21691
252.237	33352
252.300	57950
252.363	68264
252.426	108278
252.489	56354
252.552	31043
252.615	23610
252.678	24773
252.741	47659
252.804	66035
252.867	116804
252.930	76013
252.993	43268
253.056	27340
253.119	20379
253.182	16704
253.245	28820
253.308	22497
253.371	18664
253.434	17814
253.497	16644
253.559	27851
253.622	21134
253.685	24069
253.748	24206
253.811	13299
253.874	16585
253.937	15282
254.000	12799
254.062	20628
254.125	29625
254.188	26468
254.251	23644
254.314	12575
254.376	22254
254.439	23307
254.502	18635
254.565	19969
254.628	34393
254.690	20797
254.753	11729
254.816	11273
254.878	11770
254.941	20980
255.004	21385
255.067	10980
255.129	10694
255.192	7738
255.255	6947
255.317	8813
255.380	6897
255.443	5740
255.505	5182
255.568	5576
255.631	6115
255.693	7009
255.756	4931
255.819	6106
255.881	5003
255.944	5628
256.006	5583
256.069	6433
256.132	5791
256.194	7223
256.257	15794
256.319	12120
256.382	12197
256.444	11301
256.507	9047
256.569	8844
256.632	10800
256.694	16152
256.757	37486
256.819	92472
256.882	47792
256.944	20666
257.007	15718
257.069	14674
257.132	11404
257.194	11812
257.257	11521
257.319	12334
257.381	15082
257.444	32133
257.506	97460
257.569	108903
257.631	56166
257.693	29852
257.756	17791
257.818	12832
257.880	10636
257.943	10110
258.005	9020
258.067	9252
258.130	8735
258.192	9991
258.254	15187
258.317	10973
258.379	9825
258.441	18197
258.503	17757
258.566	18705
258.628	22066
258.690	9717
258.753	9769
258.815	15117
258.877	10859
258.939	8828
259.001	8746
259.064	8535
259.126	9689
259.188	11623
259.250	10261
259.312	11646
259.375	21139
259.437	14603
259.499	9578
259.561	7956
259.623	8940
259.685	8925
259.747	9201
259.809	18325
259.872	29781
259.934	42863
259.996	40970
260.058	15663
260.120	7701
260.182	7490
260.244	7679
260.306	6132
260.368	7272
260.430	7131
260.492	14484
260.554	24210
260.616	15825
260.678	25708
260.740	30673
260.802	11179
260.864	9887
260.926	7660
260.988	10162
261.050	8830
261.112	19640
261.174	37890
261.236	24635
261.298	11049
261.359	14532
261.421	19883
261.483	8725
261.545	9233
261.607	5983
261.669	7688
261.731	10959
261.793	22159
261.854	12003
261.916	9287
261.978	8471
262.040	9231
262.102	7048
262.164	9847
262.225	8744
262.287	7630
262.349	15530
262.411	12024
262.472	8099
262.534	11113
262.596	18606
262.658	8790
262.719	6623
262.781	8983
262.843	17903
262.904	10576
262.966	9863
263.028	12258
263.090	42911
263.151	97733
263.213	35648
263.275	19987
263.336	10311
263.398	7477
263.459	6394
263.521	7463
263.583	14514
263.644	10495
263.706	6216
263.767	4689
263.829	5086
263.891	4350
263.952	4901
264.014	4436
264.075	8995
264.137	21064
264.198	10430
264.260	5520
264.321	5783
264.383	12934
264.444	31122
264.506	11899
264.567	8279
264.629	14063
264.690	28053
264.752	11444
264.813	8018
264.875	6189
264.936	6764
264.998	6744
265.059	5982
265.120	7470
265.182	12654
265.243	54059
265.305	58137
265.366	16815
265.427	8964
265.489	8210
265.550	5507
265.611	6762
265.673	6910
265.734	6799
265.795	6795
265.857	6697
265.918	8830
265.979	18318
266.040	80461
266.102	72334
266.163	24664
266.224	16513
266.286	9647
266.347	6827
266.408	7370
266.469	6581
266.530	5875
266.592	5584
266.653	10658
266.714	15020
266.775	6670
266.836	5062
266.898	5181
266.959	9497
267.020	6875
267.081	7049
267.142	6098
267.203	5236
267.264	5154
267.326	6794
267.387	5331
267.448	4425
267.509	5849
267.570	5581
267.631	6158
267.692	5232
267.753	6524
267.814	5517
267.875	11069
267.936	21247
267.997	15318
268.058	14010
268.119	8871
268.180	7417
268.241	5206
268.302	5338
268.363	4960
268.424	5545
268.485	5650
268.546	4788
268.607	4160
268.668	4345
268.729	4666
268.790	4994
268.851	6056
268.912	12737
268.972	14798
269.033	8080
269.094	5506
269.155	4264
269.216	4364
269.277	5356
269.338	4886
269.398	5786
269.459	6673
269.520	8252
269.581	10003
269.642	10584
269.702	8466
269.763	8156
269.824	6741
269.885	7857
269.945	11472
270.006	6814
270.067	4973
270.128	4905
270.188	4998
270.249	4852
270.310	5425
270.370	5569
270.431	4848
270.492	4813
270.553	6017
270.613	8665
270.674	18965
270.734	8379
270.795	6628
270.856	7959
270.916	6744
270.977	5518
271.038	6439
271.098	6572
271.159	10650
271.219	9548
271.280	6509
271.340	5226
271.401	6005
271.462	11004
271.522	8323
271.583	5946
271.643	6173
271.704	5778
271.764	7659
271.825	15879
271.885	44303
271.946	54204
272.006	21151
272.066	27021
272.127	42410
272.187	15863
272.248	9718
272.308	10381
272.369	29749
272.429	17665
272.489	14269
272.550	14204
272.610	16114
272.671	11217
272.731	10312
272.791	14288
272.852	9800
272.912	8550
272.972	5974
273.033	5746
273.093	8474
273.153	10015
273.214	7788
273.274	7280
273.334	24893
273.394	43219
273.455	18503
273.515	17989
273.575	37964
273.635	16028
273.696	19601
273.756	38708
273.816	17925
273.876	10730
273.936	18120
273.997	28641
274.057	10739
274.117	9717
274.177	13890
274.237	50297
274.297	41241
274.358	25869
274.418	32407
274.478	25564
274.538	11019
274.598	9635
274.658	23925
274.718	28878
274.778	13480
274.838	8837
274.898	15568
274.958	37078
275.018	39321
275.078	26081
275.138	11576
275.198	7290
275.258	6485
275.318	8169
275.378	14536
275.438	14684
275.498	10474
275.558	20437
275.618	38803
275.678	28472
275.738	19485
275.798	15288
275.858	10185
275.918	5713
275.978	6902
276.038	7916
276.098	6286
276.157	11677
276.217	29821
276.277	14623
276.337	11317
276.397	7548
276.457	7279
276.517	6804
276.576	5231
276.636	5284
276.696	8957
276.756	18272
276.815	14404
276.875	7174
276.935	8598
276.995	8417
277.055	5357
277.114	5366
277.174	8058
277.234	23457
277.293	12331
277.353	7566
277.413	5096
277.472	6234
277.532	7310
277.592	6862
277.651	17969
277.711	28802
277.771	12935
277.830	37156
277.890	29384
277.950	21798
278.009	55716
278.069	21974
278.128	22303
278.188	28566
278.248	15001
278.307	31884
278.367	20700
278.426	9467
278.486	6868
278.545	5627
278.605	6316
278.664	6553
278.724	7242
278.783	16788
278.843	39457
278.902	13791
278.962	8478
279.021	9295
279.081	10564
279.140	10636
279.199	11567
279.259	10828
279.318	10131
279.378	13839
279.437	20844
279.496	63029
279.556	140512
279.615	99762
279.675	31095
279.734	21039
279.793	32583
279.853	51842
279.912	22044
279.971	13634
280.031	13156
280.090	23895
280.149	39771
280.208	25760
280.268	96077
280.327	89317
280.386	25086
280.445	21537
280.505	20509
280.564	10217
280.623	9310
280.682	14325
280.742	20951
280.801	8371
280.860	6548
280.919	6139
280.978	5595
281.037	5492
281.097	5084
281.156	6060
281.215	5434
281.274	6500
281.333	25665
281.392	19450
281.451	5966
281.510	5131
281.569	4657
281.628	3659
281.688	4753
281.747	5389
281.806	6127
281.865	4940
281.924	4102
281.983	4975
282.042	3115
282.101	3722
282.160	3816
282.219	3977
282.278	5869
282.337	15311
282.396	11058
282.454	5834
282.513	7363
282.572	23585
282.631	13978
282.690	5887
282.749	3929
282.808	6313
282.867	5690
282.926	6228
282.985	4461
283.043	3755
283.102	4181
283.161	5520
283.220	12318
283.279	25401
283.338	10000
283.396	5891
283.455	5636
283.514	6821
283.573	9800
283.631	7948
283.690	5556
283.749	4404
283.808	10915
283.866	12332
283.925	5647
283.984	5593
284.043	7829
284.101	8254
284.160	5294
284.219	7164
284.277	6829
284.336	10358
284.395	31530
284.453	25128
284.512	9178
284.570	13729
284.629	11967
284.688	10260
284.746	11238
284.805	11264
284.863	15588
284.922	19205
284.981	24950
285.039	34287
285.098	54938
285.156	115369
285.215	176048
285.273	173309
285.332	127232
285.390	71728
285.449	44358
285.507	29644
285.566	22974
285.624	17437
285.683	14659
285.741	12278
285.799	11195
285.858	10104
285.916	9628
285.975	7449
286.033	6850
286.091	6564
286.150	6209
286.208	6832
286.267	6439
286.325	6168
286.383	10974
286.442	9908
286.500	5664
286.558	4654
286.616	5332
286.675	6889
286.733	6248
286.791	5573
286.850	6565
286.908	8516
286.966	13366
287.024	6467
287.083	5165
287.141	4604
287.199	5735
287.257	7519
287.315	7373
287.374	6757
287.432	16753
287.490	11497
287.548	6952
287.606	6228
287.664	6869
287.723	8518
287.781	11545
287.839	9165
287.897	11687
287.955	15422
288.013	22597
288.071	41618
288.129	127609
288.187	253567
288.245	148184
288.303	59165
288.361	32422
288.419	22783
288.477	15553
288.535	11985
288.593	11212
288.651	9059
288.709	7687
288.767	6425
288.825	6696
288.883	6550
288.941	6033
288.999	6087
289.057	5390
289.115	4533
289.173	5050
289.231	4560
289.289	4379
289.346	4812
289.404	6604
289.462	8169
289.520	9043
289.578	4545
289.636	4818
289.694	4160
289.751	3915
289.809	2952
289.867	3988
289.925	5833
289.983	7147
290.040	4356
290.098	4180
290.156	5796
290.214	5749
290.271	3438
290.329	5099
290.387	3915
290.444	3866
290.502	3119
290.560	3347
290.617	4323
290.675	4075
290.733	4355
290.790	4288
290.848	3128
290.906	4198
290.963	3770
291.021	4761
291.078	4377
291.136	4373
291.194	13695
291.251	29010
291.309	10367
291.366	5384
291.424	4352
291.481	4500
291.539	4269
291.596	3938
291.654	3387
291.711	2611
291.769	4355
291.826	9265
291.884	6316
291.941	3875
291.999	3683
292.056	4632
292.114	5270
292.171	4650
292.228	4471
292.286	5118
292.343	8130
292.401	10954
292.458	6511
292.515	5172
292.573	6511
292.630	6708
292.687	6361
292.745	5232
292.802	6560
292.859	18189
292.917	28088
292.974	15751
293.031	6808
293.089	5449
293.146	4348
293.203	4297
293.260	4197
293.318	5473
293.375	9082
293.432	5708
293.489	4116
293.546	5619
293.604	6757
293.661	16540
293.718	41886
293.775	24065
293.832	10832
293.889	8852
293.947	8980
294.004	6866
294.061	7341
294.118	13945
294.175	28265
294.232	37930
294.289	15396
294.346	9972
294.403	11200
294.460	7808
294.517	5431
294.574	5350
294.631	6184
294.688	7590
294.745	14222
294.802	48982
294.859	58278
294.916	24217
294.973	13708
295.030	9327
295.087	8095
295.144	6925
295.201	6296
295.258	6401
295.315	6900
295.372	19680
295.429	36354
295.486	17216
295.542	11586
295.599	26624
295.656	43971
295.713	29781
295.770	33178
295.827	15507
295.883	7919
295.940	8150
295.997	12457
296.054	11581
296.111	7201
296.167	5704
296.224	4271
296.281	4546
296.338	5569
296.394	5646
296.451	6876
296.508	17203
296.564	30210
296.621	21341
296.678	39756
296.734	55777
296.791	24049
296.848	12861
296.904	12976
296.961	26682
297.018	39199
297.074	29429
297.131	13569
297.187	10695
297.244	12567
297.301	35969
297.357	59978
297.414	24098
297.470	11821
297.527	8844
297.583	7194
297.640	7144
297.696	6427
297.753	5211
297.809	5025
297.866	4562
297.922	4454
297.979	5304
298.035	5033
298.092	9444
298.148	23498
298.204	23558
298.261	11577
298.317	19634
298.374	46364
298.430	28001
298.486	12827
298.543	11059
298.599	10932
298.656	12920
298.712	19021
298.768	46355
298.824	35495
298.881	12756
298.937	7892
298.993	7580
299.050	7776
299.106	8132
299.162	6676
299.218	7742
299.275	6196
299.331	7957
299.387	12235
299.443	40090
299.500	39724
299.556	17465
299.612	9249
299.668	9375
299.724	8504
299.780	9410
299.837	7172
299.893	11048
299.949	33669
300.005	38270
300.061	32868
300.117	54400
300.173	27362
300.229	13228
300.285	15819
300.341	18011
300.397	10465
300.453	6665
300.510	6983
300.566	7564
300.622	8142
300.678	14605
300.734	31678
300.790	31879
300.845	38624
300.901	23888
300.957	32622
301.013	26060
301.069	11100
301.125	8657
301.181	9278
301.237	7373
301.293	5271
301.349	5694
301.405	5403
301.461	6497
301.516	9192
301.572	8626
301.628	12330
301.684	12077
301.740	16433
301.796	27248
301.851	18680
301.907	29581
301.963	28177
302.019	40788
302.074	100414
302.130	103433
302.186	51292
302.242	23223
302.297	16017
302.353	14818
302.409	25681
302.464	23336
302.520	18961
302.576	41447
302.631	46831
302.687	28755
302.743	14045
302.798	9634
302.854	8352
302.910	8864
302.965	10078
303.021	16215
303.076	15330
303.132	18107
303.187	21654
303.243	12717
303.299	8292
303.354	7747
303.410	7089
303.465	7164
303.521	6343
303.576	6757
303.632	7475
303.687	12674
303.743	35768
303.798	31981
303.853	14684
303.909	10171
303.964	7801
304.020	11976
304.075	17184
304.130	16066
304.186	24633
304.241	27244
304.297	22597
304.352	14026
304.358	13511
304.407	9334
304.449	8497
304.463	8221
304.518	9279
304.539	8889
304.573	8292
304.629	7811
304.630	7868
304.684	10778
304.720	22380
304.739	28036
304.794	41093
304.811	35089
304.850	21073
304.902	11586
304.905	10987
304.960	9025
304.992	9840
305.015	10320
305.071	9304
305.083	8955
305.126	7778
305.173	6068
305.181	5804
305.236	5560
305.264	5905
305.292	6242
305.347	7497
305.354	7666
305.402	8940
305.445	10151
305.457	10380
305.512	11923
305.535	11571
305.567	11634
305.622	11913
305.626	12278
305.678	20308
305.716	38107
305.733	44078
305.788	46509
305.807	39617
305.843	28535
305.897	37277
305.898	37352
305.953	36292
305.988	25123
306.008	19408
306.063	12753
306.078	11760
306.118	9388
306.168	6516
306.173	6276
306.228	6052
306.259	5862
306.283	5874
306.338	6597
306.349	6774
306.393	7250
306.440	9359
306.448	9844
306.503	9866
306.530	10530
306.558	12906
306.613	23802
306.620	25335
306.668	32418
306.711	39642
306.723	40233
306.778	30927
306.801	23454
306.833	15847
306.888	9071
306.892	8878
306.943	7572
306.982	6834
306.997	6638
307.052	6850
307.072	6964
307.107	8104
307.162	11135
307.163	11171
307.217	15275
307.253	17951
307.272	18002
307.327	17022
307.343	15506
307.381	14347
307.434	14813
307.436	15151
307.491	26215
307.524	37167
307.546	38529
307.600	34854
307.614	30409
307.655	20357
307.704	13759
307.710	13809
307.765	18518
307.795	22847
307.819	24840
307.874	33868
307.885	33824
307.929	30782
307.975	28515
307.984	30529
308.038	48867
308.065	60619
308.093	94276
308.148	179479
308.156	195248
308.202	231455
308.246	241700
308.257	235892
308.312	151791
308.336	114675
308.366	88704
308.421	54962
308.426	52053
308.475	34483
308.517	26147
308.530	24499
308.585	21274
308.607	20567
308.639	21597
308.694	23921
308.697	24202
308.748	35905
308.787	47363
308.803	46293
308.857	35646
308.877	31070
308.912	30493
308.967	32541
308.967	32609
309.021	46797
309.058	58381
309.076	75454
309.130	133712
309.148	156149
309.185	224589
309.238	334325
309.239	334463
309.293	303922
309.328	266600
309.348	239253
309.402	139839
309.418	112985
309.457	82930
309.508	54050
309.511	53079
309.566	43531
309.598	40147
309.620	40341
309.674	42480
309.688	43661
309.729	39942
309.778	33080
309.783	32766
309.837	29112
309.868	27445
309.892	34347
309.946	53045
309.959	58507
310.001	62690
310.049	63969
310.055	61889
310.109	36472
310.139	22008
310.163	17888
310.218	12688
310.229	11888
310.272	10561
310.319	9802
310.326	9657
310.381	8700
310.409	8354
310.435	8315
310.489	8337
310.499	8380
310.543	9247
310.589	10047
310.598	9849
310.652	8624
310.679	7967
310.706	7184
310.760	5454
310.769	5245
310.814	5273
310.859	4991
310.868	5019
310.923	5527
310.948	5786
310.977	6431
311.031	7565
311.038	7747
311.085	6845
311.128	5741
311.139	5798
311.193	6170
311.218	6287
311.247	6072
311.301	5879
311.308	5836
311.356	5859
311.398	5951
311.410	5921
311.464	5754
311.488	5621
311.518	5810
311.572	6266
311.578	6318
311.626	7624
311.668	8811
311.680	8918
311.734	9199
311.758	9323
311.788	9128
311.842	8772
311.847	8727
311.896	12872
311.937	16505
311.950	15706
312.004	12008
312.027	10342
312.058	8857
312.112	6258
312.117	6001
312.165	6553
312.207	7040
312.297	9444
312.386	7646
312.476	9797
312.566	12762
312.656	6742
312.745	5642
312.835	6595
312.925	7718
313.015	7791
313.104	7529
313.194	6840
313.284	6268
313.374	8291
313.463	6770
313.553	5945
313.643	4580
313.732	4951
313.822	4572
313.912	6758
314.001	8019
314.091	9439
314.180	9763
314.270	9728
314.360	11006
314.449	7846
314.539	5531
314.628	6281
314.718	7676
314.808	8172
314.897	5865
314.987	5276
315.076	7287
315.166	9761
315.255	8892
315.345	8891
315.434	9077
315.524	8768
315.613	9990
315.703	11354
315.792	13472
315.881	16479
315.971	10665
316.060	19650
316.150	28532
316.239	24692
316.328	7874
316.418	5766
316.507	6184
316.597	8416
316.686	7615
316.775	18562
316.865	24887
316.954	6177
317.043	5550
317.133	5535
317.222	5145
317.311	5383
317.400	4397
317.490	9757
317.579	7458
317.668	6384
317.757	8861
317.847	19726
317.936	31338
318.025	19835
318.114	11960
318.203	9940
318.293	19291
318.382	27467
318.471	23965
318.560	44497
318.649	61008
318.738	11597
318.828	10872
318.917	10177
319.006	18549
319.095	46743
319.184	89561
319.273	38486
319.362	16911
319.451	8127
319.540	9904
319.629	24068
319.718	23819
319.807	15671
319.896	49809
319.985	100913
320.074	25725
320.163	13199
320.252	18269
320.341	16652
320.430	13204
320.519	14737
320.608	8254
320.697	7913
320.786	8014
320.875	10318
320.964	14163
321.053	21578
321.142	31515
321.230	24302
321.319	30639
321.408	48081
321.497	19099
321.586	21428
321.675	31493
321.764	22242
321.852	19822
321.941	30079
322.030	16427
322.119	30529
322.207	52601
322.296	36690
322.385	19556
322.474	29717
322.562	62323
322.651	24594
322.740	29132
322.829	36415
322.917	37301
323.006	19603
323.095	16144
323.183	16156
323.272	24146
323.361	58563
323.449	105418
323.538	39346
323.626	90127
323.715	33766
323.804	29889
323.892	77517
323.981	27436
324.069	17214
324.158	50277
324.246	27360
324.335	15492
324.424	16715
324.512	8264
324.601	11967
324.689	26410
324.778	35057
324.866	25024
324.954	8100
325.043	10864
325.131	21808
325.220	34026
325.308	32502
325.397	27011
325.485	11843
325.574	5705
325.662	7259
325.750	5732
325.839	6819
325.927	6185
326.015	9094
326.104	18903
326.192	16553
326.280	5755
326.369	6531
326.457	11033
326.545	14902
326.634	5626
326.722	4996
326.810	4884
326.898	6013
326.987	7758
327.075	16387
327.163	16531
327.251	9047
327.340	16916
327.428	13634
327.516	5648
327.604	6907
327.692	6328
327.781	10039
327.869	14405
327.957	8891
328.045	6867
328.133	6103
328.221	8580
328.309	6279
328.397	6577
328.485	7722
328.574	15456
328.662	33654
328.750	17037
328.838	8276
328.926	5405
329.014	5820
329.102	11591
329.190	25286
329.278	10664
329.366	5336
329.454	5850
329.542	6374
329.630	5697
329.718	7126
329.806	9459
329.893	12438
329.981	16027
330.069	38687
330.157	148328
330.245	240043
330.333	101693
330.421	24857
330.509	23622
330.597	46502
330.684	21874
330.772	13089
330.860	18390
330.948	20192
331.036	7416
331.123	5138
331.211	6279
331.299	7722
331.387	24685
331.475	25103
331.562	8044
331.650	5403
331.738	7978
331.825	9206
331.913	5260
332.001	5391
332.089	10299
332.176	20197
332.264	45101
332.352	21900
332.439	8594
332.527	6328
332.614	7100
332.702	7442
332.790	7725
332.877	25125
332.965	28776
333.052	7567
333.140	12856
333.228	16359
333.315	6028
333.403	8671
333.490	25877
333.578	15799
333.665	17152
333.753	8685
333.840	6474
333.928	11530
334.015	28182
334.103	59836
334.190	102143
334.278	18810
334.365	10758
334.452	6692
334.540	5959
334.627	9985
334.715	13322
334.802	42648
334.889	168623
334.977	89207
335.064	11768
335.151	8482
335.239	9032
335.326	17554
335.413	76461
335.501	52368
335.588	10044
335.675	7315
335.762	12620
335.850	14571
335.937	12738
336.024	54049
336.111	134748
336.199	31849
336.286	8373
336.373	4856
336.460	4462
336.547	6120
336.635	8235
336.722	6716
336.809	6597
336.896	14320
336.983	48317
337.070	98132
337.157	105770
337.245	101505
337.332	42106
337.419	9127
337.506	5717
337.593	10455
337.680	46429
337.767	68476
337.854	22890
337.941	27160
338.028	28948
338.115	10024
338.202	15191
338.289	41245
338.376	83226
338.463	24812
338.550	62250
338.637	35873
338.724	23686
338.811	23128
338.898	7048
338.984	6098
339.071	7593
339.158	11857
339.245	21277
339.332	12344
339.419	22915
339.506	14318
339.593	3215
339.679	5496
339.766	5356
339.853	10316
339.940	12809
340.027	5319
340.113	6564
340.200	7778
340.287	6531
340.374	9686
340.460	11674
340.547	5382
340.634	16785
340.720	43327
340.807	14396
340.894	4331
340.980	5438
341.067	4842
341.154	6532
341.240	12730
341.327	15995
341.414	7840
341.500	5916
341.587	4586
341.674	6423
341.760	15886
341.847	12392
341.933	4378
342.020	2989
342.106	4644
342.193	7553
342.279	9037
342.366	9697
342.452	12192
342.539	9048
342.625	26206
342.712	38243
342.798	15249
342.885	5580
342.971	2989
343.058	3580
343.144	3591
343.230	4708
343.317	4161
343.403	3331
343.490	3764
343.576	4082
343.662	4241
343.749	6151
343.835	7850
343.921	22174
344.008	115345
344.094	134896
344.180	24915
344.267	19692
344.353	61412
344.439	40302
344.525	18664
344.612	15346
344.698	14050
344.784	7503
344.870	5325
344.957	6128
345.043	7516
345.129	8616
345.215	11660
345.301	6249
345.387	4887
345.474	3446
345.560	4599
345.646	6676
345.732	5683
345.818	5900
345.904	5127
345.990	6057
346.076	8928
346.162	12022
346.249	5657
346.335	4336
346.421	7391
346.507	37113
346.593	58051
346.679	10844
346.765	4962
346.851	4805
346.937	3778
347.023	5186
347.108	5687
347.194	4946
347.280	4932
347.366	7943
347.452	34597
347.538	81734
347.624	61256
347.710	36364
347.796	6564
347.882	5421
347.967	5329
348.053	8082
348.139	4779
348.225	4245
348.311	4194
348.397	3783
348.482	6864
348.568	6186
348.654	3956
348.740	4049
348.825	3975
348.911	14133
348.997	57233
349.083	56931
349.168	8897
349.254	5721
349.340	4998
349.425	3661
349.511	7968
349.597	9264
349.682	23523
349.768	48208
349.854	14860
349.939	5297
350.025	5057
350.110	5605
350.196	2797
350.282	2231
350.367	4752
350.453	10769
350.538	8984
350.624	7566
350.709	4804
350.795	3828
350.880	3523
350.966	6733
351.051	9359
351.137	6241
351.222	7584
351.308	25817
351.393	35850
351.479	8127
351.564	3165
351.649	4937
351.735	3579
351.820	3767
351.906	5080
351.991	10486
352.076	38821
352.162	30137
352.247	6696
352.332	6887
352.418	12160
352.503	23397
352.588	68850
352.673	32517
352.759	9802
352.844	4936
352.929	7936
353.014	7239
353.100	6924
353.185	13869
353.270	17160
353.355	11732
353.441	5575
353.526	8866
353.611	16795
353.696	13353
353.781	9052
353.866	4500
353.952	7829
354.037	18898
354.122	31015
354.207	24485
354.292	8920
354.377	4832
354.462	5516
354.547	6872
354.632	7316
354.717	12643
354.802	11408
354.887	4218
354.972	4765
355.057	3342
355.142	3846
355.227	6519
355.312	11615
355.397	28133
355.482	47116
355.567	18427
355.652	18751
355.737	25480
355.822	67695
355.907	29943
355.991	6298
356.076	4915
356.161	4297
356.246	4344
356.331	6838
356.416	27709
356.501	113539
356.585	62790
356.670	10769
356.755	10255
356.840	21757
356.924	109033
357.009	201765
357.094	50455
357.179	17586
357.263	11284
357.348	13896
357.433	11617
357.517	11211
357.602	7853
357.687	8191
357.771	21717
357.856	43911
357.941	25209
358.025	91095
358.110	200469
358.195	62032
358.279	13047
358.364	16396
358.448	61637
358.533	107791
358.617	74231
358.702	66690
358.787	21513
358.871	16121
358.956	10585
359.040	4062
359.125	4704
359.209	8188
359.294	28144
359.378	28550
359.462	11418
359.547	7281
359.631	5283
359.716	2913
359.800	5845
359.885	9545
359.969	5541
360.053	5902
360.138	6143
360.222	9926
360.306	14576
360.391	14001
360.475	35060
360.559	47980
360.644	44307
360.728	28065
360.812	82798
360.896	122256
360.981	51442
361.065	22290
361.149	9435
361.233	8081
361.318	7351
361.402	7680
361.486	7104
361.570	5510
361.654	10607
361.739	33321
361.823	118863
361.907	101654
361.991	17275
362.075	18852
362.159	28061
362.243	18179
362.327	14615
362.411	13751
362.495	9633
362.580	6344
362.664	4739
362.748	4016
362.832	5504
362.916	9929
363.000	34356
363.084	118938
363.168	122330
363.252	25644
363.336	14238
363.420	31048
363.503	99128
363.587	68098
363.671	12890
363.755	11686
363.839	14625
363.923	8516
364.007	19088
364.091	18771
364.175	50982
364.258	125339
364.342	49797
364.426	29788
364.510	17069
364.594	20568
364.677	49055
364.761	132507
364.845	58839
364.929	27637
365.013	19284
365.096	22075
365.180	21659
365.264	60467
365.347	124551
365.431	38803
365.515	11539
365.598	6303
365.682	8502
365.766	16005
365.849	14053
365.933	8605
366.017	11389
366.100	6852
366.184	4443
366.267	6001
366.351	4849
366.435	3520
366.518	3106
366.602	3911
366.685	4570
366.769	6709
366.852	15164
366.936	18527
367.019	9065
367.103	12272
367.186	16413
367.270	4945
367.353	3099
367.436	4595
367.520	4584
367.603	7837
367.687	11943
367.770	16844
367.853	15513
367.937	48640
368.020	47449
368.104	11981
368.187	16936
368.270	20154
368.353	18638
368.437	35849
368.520	62559
368.603	34790
368.687	61264
368.770	64562
368.853	16179
368.936	21567
369.020	16891
369.103	6005
369.186	5464
369.269	7077
369.352	15560
369.436	16111
369.519	9703
369.602	3291
369.685	7441
369.768	6316
369.851	5812
369.934	4745
370.018	9053
370.101	13754
370.184	12560
370.267	11350
370.350	18334
370.433	32657
370.516	76428
370.599	54032
370.682	23804
370.765	46876
370.848	67190
370.931	89803
371.014	25768
371.097	6903
371.180	5496
371.263	4634
371.346	3429
371.429	5380
371.511	6459
371.594	11858
371.677	18974
371.760	19773
371.843	26552
371.926	111789
372.009	143864
372.091	43662
372.174	54235
372.257	84418
372.340	26865
372.423	31741
372.505	28878
372.588	15301
372.671	49713
372.754	94584
372.836	36673
372.919	54424
373.002	66440
373.085	16869
373.167	22233
373.250	55721
373.332	95524
373.415	157404
373.498	204419
373.580	74429
373.663	127469
373.746	108778
373.828	25610
373.911	15711
373.993	30547
374.076	85907
374.159	54756
374.241	42251
374.324	84311
374.406	48339
374.489	109707
374.571	179409
374.654	56165
374.736	59484
374.819	137925
374.901	185203
374.983	129554
375.066	20826
375.148	22316
375.231	84694
375.313	99977
375.395	29988
375.478	7644
375.560	7168
375.643	14474
375.725	67371
375.807	164522
375.890	104638
375.972	49186
376.054	36779
376.136	46973
376.219	23736
376.301	74343
376.383	121535
376.465	37617
376.548	33198
376.630	59641
376.712	111361
376.794	32219
376.877	6288
376.959	4686
377.041	8641
377.123	18506
377.205	15143
377.287	4529
377.369	4956
377.452	4321
377.534	4254
377.616	4657
377.698	3799
377.780	3866
377.862	5096
377.944	5544
378.026	2597
378.108	4541
378.190	3895
378.272	4210
378.354	3422
378.436	3941
378.518	14973
378.600	33870
378.682	33600
378.764	63714
378.846	31609
378.928	14423
379.010	16440
379.091	9001
379.173	5047
379.255	4671
379.337	11774
379.419	44354
379.501	76243
379.583	21503
379.664	12002
379.746	29544
379.828	68096
379.910	80160
379.991	49470
380.073	9556
380.155	7688
380.237	5281
380.318	4942
380.400	6563
380.482	16222
380.564	19752
380.645	20446
380.727	15568
380.809	10003
380.890	7209
380.972	5285
381.053	6350
381.135	10130
381.217	32756
381.298	55507
381.380	23460
381.461	45595
381.543	140008
381.624	104274
381.706	18495
381.787	13407
381.869	19473
381.951	83401
382.032	179472
382.113	79599
382.195	19718
382.276	20024
382.358	56657
382.439	108096
382.521	132317
382.602	149358
382.684	87130
382.765	156796
382.846	132900
382.928	129978
383.009	64252
383.090	99912
383.172	273583
383.253	257480
383.334	124288
383.416	146377
383.497	55711
383.578	38024
383.659	92066
383.741	301053
383.822	455888
383.903	178751
383.984	133566
384.066	188907
384.147	84949
384.228	19879
384.309	17512
384.390	11616
384.471	9741
384.553	11644
384.634	16875
384.715	13829
384.796	8555
384.877	21443
384.958	63618
385.039	50275
385.120	16161
385.201	11729
385.282	14376
385.363	14363
385.444	13368
385.525	37389
385.606	87225
385.687	49182
385.768	17202
385.849	34582
385.930	112801
386.011	120204
386.092	26752
386.173	10284
386.254	9399
386.335	10129
386.416	15906
386.496	47257
386.577	49204
386.658	18475
386.739	13348
386.820	13261
386.901	10015
386.981	8854
387.062	8072
387.143	25063
387.224	61344
387.304	39748
387.385	16593
387.466	11689
387.547	14048
387.627	10268
387.708	41266
387.789	119379
387.869	97225
387.950	21282
388.031	7008
388.111	10106
388.192	25429
388.273	29653
388.353	14864
388.434	11450
388.514	38258
388.595	111556
388.676	101811
388.756	52067
388.837	52982
388.917	22903
388.998	6567
389.078	8909
389.159	7425
389.239	6856
389.320	12113
389.400	9938
389.480	36356
389.561	59598
389.641	20484
389.722	13369
389.802	18310
389.883	40054
389.963	74190
390.043	36790
390.124	14903
390.204	34698
390.284	67410
390.365	41443
390.445	96664
390.525	189542
390.605	113819
390.686	29137
390.766	11769
390.846	7830
390.927	6105
391.007	6620
391.087	9325
391.167	8266
391.247	7581
391.328	15816
391.408	19193
391.488	10540
391.568	4993
391.648	9443
391.728	11472
391.808	12051
391.888	17004
391.969	43155
392.049	45695
392.129	23075
392.209	40033
392.289	66365
392.369	33139
392.449	32342
392.529	15982
392.609	15920
392.689	33427
392.769	72074
392.849	42740
392.929	54348
393.009	94920
393.089	48588
393.169	45424
393.248	200514
393.328	545984
393.408	385129
393.488	72639
393.568	25655
393.648	16126
393.728	11928
393.807	11429
393.887	11784
393.967	13829
394.047	19791
394.127	29207
394.206	68344
394.286	276278
394.366	657820
394.446	488870
394.525	129023
394.605	42793
394.685	38872
394.764	67647
394.844	87257
394.924	45535
395.003	17607
395.083	14331
395.163	12374
395.242	12732
395.322	13354
395.402	10422
395.481	19254
395.561	56773
395.640	93603
395.720	75960
395.799	116617
395.879	84048
395.958	112452
396.038	391734
396.117	829754
396.197	659989
396.276	225126
396.356	87570
396.435	56147
396.515	34571
396.594	31947
396.673	58448
396.753	228289
396.832	475323
396.912	256738
396.991	56686
397.070	19328
397.150	11569
397.229	11169
397.308	11668
397.388	13296
397.467	8791
397.546	6747
397.625	5978
397.705	10783
397.784	8630
397.863	5355
397.942	5128
398.022	10659
398.101	46575
398.180	85417
398.259	33278
398.338	10638
398.417	6964
398.497	5839
398.576	6687
398.655	3847
398.734	5054
398.813	10360
398.892	48986
398.971	93630
399.050	31257
399.129	5528
399.208	4919
399.287	5140
399.366	3719
399.445	4345
399.524	5332
399.603	5036
399.682	14822
399.761	49340
399.840	109589
399.919	55906
399.998	8430
400.077	4718
400.156	3864
400.235	7622
400.313	5252
400.392	11526
400.471	41548
400.550	41850
400.629	10004
400.708	7653
400.786	10728
400.865	24497
400.944	18986
401.023	8778
401.102	2764
401.180	4623
401.259	5129
401.338	6144
401.416	7906
401.495	6021
401.574	6168
401.652	5113
401.731	7917
401.810	5382
401.888	4075
401.967	3021
402.046	5393
402.124	8935
402.203	7769
402.281	6521
402.360	13099
402.438	28444
402.517	14071
402.596	7008
402.674	5816
402.753	4243
402.831	4554
402.910	9540
402.988	41148
403.066	79495
403.145	33260
403.223	38319
403.302	66933
403.380	45784
403.459	41369
403.537	14285
403.615	6267
403.694	2465
403.772	3976
403.850	3431
403.929	2933
404.007	5931
404.085	11883
404.164	9874
404.242	9769
404.320	35684
404.398	83415
404.477	103507
404.555	176375
404.633	109177
404.711	57264
404.789	27372
404.868	9307
404.946	4180
405.024	3189
405.102	3123
405.180	2973
405.258	2477
405.336	3856
405.415	5669
405.493	10490
405.571	8049
405.649	3607
405.727	4116
405.805	7363
405.883	7134
405.961	8087
406.039	8590
406.117	4468
406.195	14225
406.273	63752
406.351	132987
406.429	52098
406.507	11672
406.585	4651
406.663	5469
406.740	7566
406.818	5253
406.896	3482
406.974	6471
407.052	27720
407.130	97663
407.208	82690
407.285	13782
407.363	4423
407.441	3849
407.519	3845
407.596	7236
407.674	19514
407.752	40642
407.830	32349
407.907	13813
407.985	5047
408.063	4364
408.141	3920
408.218	9043
408.296	7295
408.373	5166
408.451	5447
408.529	4925
408.606	2666
408.684	2244
408.762	2058
408.839	1264
408.917	1476
408.994	2409
409.072	2059
409.149	2090
409.227	4672
409.304	4360
409.382	2594
409.459	2774
409.537	5214
409.614	4034
409.692	3752
409.769	3030
409.846	5016
409.924	7749
410.001	4614
410.079	3883
410.156	4535
410.233	4545
410.311	3735
410.388	3308
410.465	4406
410.543	3649
410.620	3857
410.697	4970
410.775	3876
410.852	1437
410.929	5640
411.006	5480
411.083	5573
411.161	11247
411.238	9929
411.315	5539
411.392	2577
411.469	6303
411.547	5533
411.624	2118
411.701	2707
411.778	6696
411.855	9831
411.932	4390
412.009	3559
412.086	3866
412.163	5066
412.240	6357
412.317	7050
412.394	5291
412.471	2880
412.548	2439
412.625	3149
412.702	6817
412.779	9899
412.856	5378
412.933	2958
413.010	3335
413.087	13461
413.164	36829
413.241	32963
413.318	7388
413.395	8457
413.471	8964
413.548	3710
413.625	4608
413.702	4564
413.779	3028
413.855	1043
413.932	2323
414.009	1467
414.086	2036
414.162	3378
414.239	12102
414.316	43387
414.393	58666
414.469	13739
414.546	3062
414.623	2396
414.699	2873
414.776	3952
414.853	3110
414.929	3641
415.006	4074
415.082	4487
415.159	3072
415.236	3497
415.312	4792
415.389	8629
415.465	8115
415.542	4300
415.618	4232
415.695	6676
415.771	3900
415.848	3986
415.924	3846
416.000	2538
416.077	3227
416.153	704
416.230	78
416.306	1785
416.383	2839
416.459	2729
416.535	1947
416.612	2329
416.688	2375
416.764	2168
416.841	2310
416.917	2760
416.993	3484
417.069	5594
417.146	7307
417.222	10287
417.298	4920
417.374	2470
417.451	4311
417.527	5039
417.603	4389
417.679	2823
417.755	3026
417.831	1881
417.908	2267
417.984	1927
418.060	2904
418.136	9500
418.212	8799
418.288	3373
418.364	2913
418.440	3260
418.516	6430
418.592	10722
418.668	17003
418.744	20807
418.820	10590
418.896	3758
418.972	1153
419.048	3998
419.124	10855
419.200	4140
419.276	2608
419.352	1901
419.428	2826
419.504	3599
419.579	4301
419.655	3250
419.731	5288
419.807	15920
419.883	23653
419.959	11696
420.034	5370
420.110	19874
420.186	43498
420.262	21076
420.337	5684
420.413	3496
420.489	2047
420.565	1760
420.640	1597
420.716	2335
420.792	834
420.867	3534
420.943	3239
421.019	6053
421.094	4105
421.170	2194
421.245	2313
421.321	2679
421.397	2584
421.472	10324
421.548	17874
421.623	9489
421.699	4417
421.774	4742
421.850	4711
421.925	7547
422.001	5907
422.076	4189
422.152	5958
422.227	8383
422.302	9404
422.378	13811
422.453	26593
422.529	86772
422.604	282877
422.679	396622
422.755	169150
422.830	43210
422.905	17313
422.981	8525
423.056	6905
423.131	5720
423.207	5374
423.282	7498
423.357	12574
423.432	6981
423.508	12139
423.583	21175
423.658	9964
423.733	5829
423.808	7328
423.883	7475
423.959	5516
424.034	3972
424.109	2721
424.184	1907
424.259	2379
424.334	1882
424.409	1863
424.484	3196
424.559	3300
424.634	2910
424.709	4910
424.784	5512
424.859	4650
424.934	10830
425.009	35599
425.084	41420
425.159	10110
425.234	2348
425.309	3964
425.384	17203
425.459	17536
425.534	5264
425.609	2358
425.683	2481
425.758	1501
425.833	2624
425.908	7310
425.983	27180
426.058	45143
426.132	13732
426.207	5295
426.282	8836
426.357	5233
426.431	2665
426.506	3089
426.581	2919
426.655	2504
426.730	2511
426.805	1861
426.879	2540
426.954	4077
427.029	16286
427.103	69601
427.178	108261
427.253	31640
427.327	5892
427.402	14676
427.476	24623
427.551	8108
427.625	4394
427.700	3542
427.774	2789
427.849	3718
427.923	1782
427.998	1954
428.072	4001
428.147	11444
428.221	36187
428.296	52030
428.370	17569
428.444	6039
428.519	12637
428.593	21219
428.667	18080
428.742	20626
428.816	22287
428.890	55595
428.965	54784
429.039	25498
429.113	21106
429.188	5845
429.262	2913
429.336	11596
429.410	22468
429.485	13849
429.559	18215
429.633	9904
429.707	5140
429.781	21909
429.855	66230
429.930	68574
430.004	65572
430.078	96683
430.152	73682
430.226	95845
430.300	59698
430.374	8372
430.448	11757
430.522	50510
430.596	91041
430.670	52922
430.744	112236
430.818	106274
430.892	17368
430.966	4705
431.040	2682
431.114	1219
431.188	1758
431.262	2749
431.336	3180
431.410	14703
431.484	25669
431.557	10855
431.631	2090
431.705	3624
431.779	18471
431.853	46842
431.927	19778
432.000	3777
432.074	2265
432.148	4319
432.222	3134
432.295	1898
432.369	2653
432.443	14524
432.516	70371
432.590	104764
432.664	26321
432.737	3610
432.811	830
432.885	952
432.958	1694
433.032	1382
433.106	753
433.179	1364
433.253	1420
433.326	1526
433.400	119
433.473	965
433.547	947
433.620	2939
433.694	5230
433.767	4904
433.841	1838
433.914	1188
433.988	1591
434.061	1675
434.134	180
434.208	632
434.281	780
434.355	644
434.428	1979
434.501	1284
434.575	1613
434.648	1277
434.721	470
434.795	859
434.868	1117
434.941	542
435.014	1108
435.088	1582
435.161	2386
435.234	5519
435.307	5098
435.381	2614
435.454	1932
435.527	2083
435.600	914
435.673	2052
435.746	1257
435.819	980
435.892	1446
435.966	1789
436.039	2476
436.112	761
436.185	762
436.258	497
436.331	87
436.404	1471
436.477	289
436.550	719
436.623	798
436.696	822
436.769	1575
436.842	1608
436.915	2759
436.987	3413
437.060	824
437.133	1084
437.206	797
437.279	1615
437.352	993
437.425	1993
437.498	2755
437.570	6365
437.643	4217
437.716	2062
437.789	2006
437.861	7026
437.934	11669
438.007	3922
438.080	2277
438.152	3253
438.225	16580
438.298	93088
438.370	142333
438.443	40249
438.516	9702
438.588	3315
438.661	1225
438.734	1296
438.806	2577
438.879	3416
438.951	4542
439.024	5537
439.096	1489
439.169	1537
439.241	1139
439.314	2404
439.386	4802
439.459	7558
439.531	7586
439.604	2609
439.676	1188
439.749	941
439.821	729
439.893	1080
439.966	1985
440.038	3556
440.110	2045
440.183	1549
440.255	1891
440.327	7021
440.400	44781
440.472	102648
440.544	39549
440.617	5577
440.689	6454
440.761	9392
440.833	10087
440.905	4680
440.978	1152
441.050	532
441.122	1133
441.194	1342
441.266	1241
441.338	1402
441.411	9157
441.483	38153
441.555	31659
441.627	6850
441.699	6018
441.771	4917
441.843	1586
441.915	1283
441.987	97
442.059	2306
442.131	2517
442.203	4953
442.275	4419
442.347	3866
442.419	5445
442.491	22169
442.563	32321
442.635	18720
442.706	24720
442.778	12187
442.850	2232
442.922	1784
442.994	4476
443.066	4909
443.137	3054
443.209	2686
443.281	3882
443.353	9841
443.425	36405
443.496	76948
443.568	50495
443.640	14897
443.711	4031
443.783	2873
443.855	2468
443.926	1014
443.998	2551
444.070	2839
444.141	3356
444.213	5216
444.285	5142
444.356	5645
444.428	3867
444.499	1315
444.571	44
444.642	1012
444.714	3171
444.785	5513
444.857	9400
444.928	17190
445.000	8736
445.071	12783
445.143	9983
445.214	6885
445.285	13944
445.357	35565
445.428	84216
445.500	121138
445.571	62507
445.642	26450
445.714	24981
445.785	22364
445.856	7038
445.928	6208
445.999	5230
446.070	3796
446.141	5394
446.213	4768
446.284	3153
446.355	3534
446.426	1935
446.497	3140
446.569	6570
446.640	7438
446.711	4026
446.782	2086
446.853	4672
446.924	3319
446.995	2892
447.066	4957
447.138	7211
447.209	2497
447.280	596
447.351	312
447.422	1413
447.493	2736
447.564	4429
447.635	4387
447.706	1601
447.777	421
447.847	1124
447.918	1689
447.989	3456
448.060	6712
448.131	12335
448.202	9770
448.273	5295
448.344	2023
448.414	2361
448.485	1030
448.556	1277
448.627	704
448.698	1725
448.768	1102
448.839	2418
448.910	6374
448.981	4621
449.051	2093
449.122	2196
449.193	1515
449.263	1554
449.334	1829
449.405	5138
449.475	8369
449.546	5774
449.616	8053
449.687	5387
449.758	3163
449.828	2492
449.899	3137
449.969	1816
450.040	2278
450.110	3641
450.181	3988
450.251	1740
450.322	1988
450.392	2985
450.463	2314
450.533	2102
450.604	2228
450.674	1895
450.744	2733
450.815	1420
450.885	2552
450.955	1856
451.026	1216
451.096	1798
451.166	3890
451.237	10689
451.307	16974
451.377	4820
451.447	879
451.518	2070
451.588	911
451.658	3183
451.728	7705
451.799	22925
451.869	16476
451.939	3906
452.009	2271
452.079	985
452.149	1978
452.219	9160
452.289	24514
452.360	11421
452.430	2026
452.500	3638
452.570	3521
452.640	6097
452.710	16267
452.780	17556
452.850	13255
452.920	8961
452.990	3743
453.060	3553
453.129	4744
453.199	8315
453.269	44422
453.339	56808
453.409	69238
453.479	95482
453.549	119839
453.619	105638
453.688	30475
453.758	6416
453.828	3458
453.898	2648
453.968	2019
454.037	1981
454.087	2246
454.107	2331
454.168	2012
454.177	1942
454.247	2319
454.249	2354
454.316	2510
454.330	3107
454.386	5012
454.411	8855
454.456	14930
454.492	13975
454.525	13167
454.574	6682
454.595	3892
454.655	2926
454.665	2823
454.734	4568
454.736	4799
454.804	9615
454.817	12660
454.873	23738
454.898	22084
454.943	18894
454.979	12673
455.013	7503
455.060	5337
455.082	4615
455.141	7658
455.152	8302
455.221	24020
455.222	24384
455.291	34042
455.303	37259
455.360	49273
455.384	59660
455.430	71987
455.465	49787
455.499	30995
455.546	25081
455.569	22053
455.627	11051
455.638	9219
455.707	3518
455.708	3544
455.777	3560
455.789	3544
455.846	3278
455.869	3184
455.916	2940
455.950	3328
455.985	3565
456.031	3038
456.054	2771
456.112	2457
456.124	2459
456.193	2578
456.193	2546
456.262	3778
456.274	4126
456.332	5489
456.355	5692
456.401	5473
456.436	4110
456.470	2822
456.516	2341
456.540	2208
456.597	2012
456.609	1955
456.678	2319
456.678	2299
456.747	2328
456.759	2288
456.817	2276
456.840	2419
456.886	2339
456.920	2384
456.955	2769
457.001	3297
457.024	3546
457.082	4254
457.093	4402
457.162	7055
457.163	7095
457.232	6279
457.243	5821
457.301	3759
457.324	3104
457.370	2406
457.405	2682
457.439	2922
457.485	2700
457.508	2633
457.566	3871
457.577	4099
457.646	4495
457.647	4525
457.715	5491
457.727	5661
457.784	6543
457.808	7042
457.853	7684
457.889	8478
457.922	8642
457.969	7852
457.991	7881
458.050	8258
458.060	8333
458.129	12027
458.130	12098
458.198	10195
458.211	9469
458.267	6652
458.292	5673
458.336	5095
458.372	4977
458.405	5829
458.453	7397
458.474	8319
458.533	12641
458.543	13036
458.611	18235
458.614	18305
458.680	11741
458.694	9855
458.749	6212
458.775	5408
458.818	4456
458.855	4244
458.887	4416
458.936	4306
458.955	4145
459.016	4763
459.024	4903
459.093	5203
459.097	5213
459.162	4465
459.177	4652
459.230	6157
459.257	6760
459.299	6868
459.338	6483
459.368	6297
459.418	7120
459.437	7134
459.499	6048
459.505	5958
459.574	5618
459.579	5545
459.643	4600
459.659	4555
459.711	4945
459.740	5219
459.780	5659
459.820	6205
459.849	6482
459.900	6749
459.917	6517
459.981	6487
459.986	6568
460.054	6477
460.061	6521
460.123	6753
460.141	6894
460.191	7612
460.222	8101
460.260	8559
460.302	9307
460.328	8900
460.382	7271
460.397	7200
460.462	7347
460.465	7616
460.534	14346
460.543	15251
460.602	31867
460.623	38669
460.671	56809
460.703	73506
460.739	62950
460.783	38078
460.808	30276
460.864	9637
460.876	7957
460.944	6685
460.945	6672
461.013	7189
461.024	7251
461.081	7219
461.104	7328
461.150	6824
461.184	6436
461.218	6430
461.264	6043
461.286	6075
461.345	6304
461.355	6328
461.423	6986
461.425	6995
461.491	7920
461.505	8215
461.559	16418
461.585	20275
461.628	28236
461.665	36849
461.696	37965
461.745	40388
461.764	35228
461.825	10625
461.832	10212
461.901	8637
461.905	8716
461.969	7025
461.985	6496
462.037	7288
462.065	7795
462.105	9473
462.145	11250
462.173	14357
462.225	20348
462.241	21981
462.305	30691
462.310	29856
462.378	14182
462.385	12150
462.446	8829
462.465	8361
462.514	8181
462.545	8364
462.582	8421
462.625	8215
462.650	8130
462.705	8349
462.718	8749
462.785	10299
462.786	10339
462.854	12806
462.865	13332
462.922	16153
462.945	17044
462.990	12633
463.025	8597
463.058	8129
463.104	7900
463.126	7675
463.184	7244
463.194	7359
463.262	7984
463.264	8019
463.330	8796
463.344	8926
463.398	10013
463.424	10406
463.466	10155
463.504	10086
463.533	10132
463.583	10025
463.601	10321
463.663	11217
463.669	11517
463.737	15294
463.743	15622
463.805	24627
463.823	27219
463.873	38019
463.903	45222
463.940	44300
463.982	42974
464.008	34535
464.062	14118
464.076	13307
464.142	9871
464.144	9847
464.211	9660
464.221	9658
464.279	9724
464.301	9779
464.347	10978
464.381	11883
464.414	13146
464.461	14838
464.482	15072
464.540	15940
464.550	15704
464.617	12977
464.620	12885
464.685	15107
464.699	15580
464.753	19517
464.779	21541
464.820	23428
464.859	25153
464.888	24218
464.938	22082
464.956	21974
465.018	21608
465.023	21481
465.091	19396
465.098	19138
465.158	19037
465.177	19083
465.226	18954
465.257	18763
465.293	19607
465.336	20507
465.361	21507
465.416	23746
465.428	25491
465.495	34756
465.496	34901
465.563	48991
465.575	51515
465.631	56711
465.654	58724
465.698	39139
465.734	21881
465.765	20784
465.813	19635
465.833	19565
465.893	19706
465.900	19835
465.968	20676
465.972	20694
466.035	20769
466.052	20751
466.102	21087
466.131	21256
466.170	22065
466.210	22774
466.237	23588
466.290	25194
466.304	25251
466.369	25126
466.372	25212
466.439	26524
466.449	26656
466.506	29312
466.528	30282
466.573	40852
466.607	48687
466.641	60719
466.687	77293
466.708	81111
466.766	91616
466.775	85656
466.842	38835
466.845	36558
466.909	33604
466.925	32906
466.977	31536
467.004	30753
467.044	32741
467.083	34635
467.111	37139
467.163	41669
467.178	42129
467.242	43638
467.245	43506
467.312	39079
467.321	38420
467.379	37309
467.400	36795
467.446	38437
467.480	39491
467.559	33398
467.638	30825
467.717	30580
467.796	32562
467.875	33464
467.955	32458
468.034	50649
468.113	83829
468.192	107189
468.271	30940
468.350	25919
468.429	27145
468.508	25650
468.588	25478
468.667	26118
468.746	28419
468.825	26470
468.904	21742
468.983	28126
469.062	37211
469.141	40676
469.220	23300
469.299	23644
469.378	27105
469.456	33986
469.535	28241
469.614	27050
469.693	28739
469.772	33470
469.851	41966
469.930	28460
470.009	24960
470.088	24257
470.166	25081
470.245	28599
470.324	30208
470.403	26334
470.482	23966
470.560	24521
470.639	23927
470.718	27102
470.797	22846
470.875	29041
470.954	33601
471.033	34230
471.111	19150
471.190	19437
471.269	18736
471.347	18738
471.426	20878
471.505	25786
471.583	27711
471.662	26268
471.740	22343
471.819	22850
471.898	20978
471.976	21896
472.055	21658
472.133	24308
472.212	29270
472.290	29364
472.369	21290
472.447	20669
472.526	18518
472.604	21301
472.683	21630
472.761	20617
472.839	19764
472.918	19285
472.996	20541
473.075	22517
473.153	21480
473.231	19571
473.310	21834
473.388	21677
473.466	21708
473.545	24486
473.623	28679
473.701	25782
473.780	20227
473.858	19779
473.936	22971
474.014	19503
474.093	24031
474.171	31258
474.249	41145
474.327	24022
474.405	18386
474.484	17812
474.562	18574
474.640	19850
474.718	21707
474.796	22718
474.874	21564
474.952	19591
475.030	20928
475.108	23194
475.187	27078
475.265	26375
475.343	30977
475.421	31253
475.499	21084
475.577	22189
475.655	27930
475.733	48909
475.811	77637
475.889	66432
475.966	37721
476.044	19602
476.122	23305
476.200	25976
476.278	20811
476.356	16263
476.434	18568
476.512	21127
476.590	24419
476.667	21071
476.745	16129
476.823	17689
476.901	17618
476.979	17726
477.056	18566
477.134	19490
477.212	20102
477.290	17533
477.367	14796
477.445	16566
477.523	15901
477.601	15817
477.678	16557
477.756	20116
477.834	20390
477.911	15486
477.989	15842
478.066	15201
478.144	18137
478.222	19749
478.299	25509
478.377	24526
478.454	14739
478.532	14513
478.609	15424
478.687	16172
478.764	13802
478.842	16377
478.919	16201
478.997	15786
479.074	13663
479.152	17897
479.229	20505
479.307	14056
479.384	12368
479.461	13370
479.539	14418
479.616	17884
479.694	14351
479.771	16330
479.848	18008
479.926	21854
480.003	21537
480.080	13364
480.157	13529
480.235	13275
480.312	13623
480.389	17014
480.467	26104
480.544	29644
480.621	15462
480.698	15619
480.775	17841
480.853	18149
480.930	13944
481.007	16526
481.084	18784
481.161	19202
481.238	17425
481.315	12667
481.392	12958
481.470	13829
481.547	14919
481.624	13622
481.701	13336
481.778	14421
481.855	17734
481.932	26717
482.009	40032
482.086	22576
482.163	13986
482.240	21462
482.317	29195
482.393	22502
482.470	14204
482.547	13432
482.624	13070
482.701	14820
482.778	13086
482.855	12893
482.932	12084
483.009	11548
483.085	14305
483.162	16451
483.239	14955
483.316	12619
483.393	13060
483.469	13341
483.546	16081
483.623	16896
483.699	12346
483.776	15249
483.853	17368
483.930	30525
484.006	67794
484.083	106723
484.160	71033
484.236	110028
484.313	78167
484.389	59047
484.466	51643
484.543	49906
484.619	50161
484.696	51983
484.772	54247
484.849	54602
484.925	47106
485.002	47267
485.078	49624
485.155	49003
485.231	45709
485.308	43993
485.384	46944
485.461	56951
485.537	79699
485.614	82618
485.690	44592
485.766	42848
485.843	46249
485.919	53091
485.995	51221
486.072	39709
486.148	39106
486.224	39480
486.301	41159
486.377	46817
486.453	45946
486.530	47682
486.606	65182
486.682	70017
486.758	75159
486.835	80094
486.911	71187
486.987	98652
487.063	92316
487.139	102483
487.215	74601
487.292	47471
487.368	43914
487.444	49440
487.520	51910
487.596	47502
487.672	54828
487.748	78463
487.824	92082
487.900	53938
487.976	44873
488.052	45642
488.128	50637
488.204	44840
488.280	40446
488.356	53536
488.432	91398
488.508	115503
488.584	44427
488.660	37840
488.736	38095
488.812	41587
488.888	48804
488.964	62112
489.039	105156
489.115	135054
489.191	77936
489.267	39791
489.343	37747
489.418	33034
489.494	34197
489.570	31893
489.646	34357
489.722	33747
489.797	35664
489.873	56614
489.949	95529
490.024	70250
490.100	31755
490.176	33104
490.251	35384
490.327	43227
490.403	28677
490.478	30237
490.554	25975
490.629	29036
490.705	26686
490.781	31357
490.856	28981
490.932	34802
491.007	31152
491.083	32613
491.158	29229
491.234	44089
491.309	75124
491.385	65689
491.460	29230
491.536	32102
491.611	28547
491.686	30981
491.762	39492
491.837	64868
491.913	104087
491.988	138217
492.063	148702
492.139	52848
492.214	36561
492.289	24030
492.365	24278
492.440	27803
492.515	27010
492.590	28451
492.666	23596
492.741	33715
492.816	42210
492.891	27334
492.967	25026
493.042	23361
493.117	26232
493.192	29507
493.267	73785
493.342	203536
493.418	216339
493.493	33864
493.568	20831
493.643	22904
493.718	26519
493.793	36766
493.868	36765
493.943	23467
494.018	21029
494.093	20697
494.168	20771
494.243	18792
494.318	18110
494.393	18236
494.468	17986
494.543	18669
494.618	20920
494.693	18734
494.768	19975
494.842	20968
494.917	17851
494.992	20427
495.067	18997
495.142	18906
495.217	20994
495.292	19672
495.366	24226
495.441	26550
495.516	31040
495.591	49037
495.665	141060
495.740	261321
495.815	92733
495.890	29654
495.964	24618
496.039	27816
496.114	25781
496.188	28072
496.263	27573
496.338	25777
496.412	30505
496.487	33843
496.561	33934
496.636	34801
496.710	31782
496.785	34394
496.860	37530
496.934	32114
497.009	33773
497.083	35281
497.158	38055
497.232	42862
497.307	50421
497.381	48334
497.455	57355
497.530	68103
497.604	57088
497.679	64254
497.753	88544
497.827	103695
497.902	100926
497.976	121425
498.050	255652
498.125	659185
498.199	510156
498.273	133527
498.348	119688
498.422	106921
498.496	97204
498.570	86877
498.645	74700
498.719	69946
498.793	71758
498.867	87794
498.941	116499
499.016	313178
499.090	617002
499.164	163301
499.238	44341
499.312	40116
499.386	44326
499.460	38930
499.534	37201
499.609	42236
499.683	52688
499.757	54234
499.831	150892
499.905	444256
499.979	310368
500.053	60392
500.127	58238
500.201	41400
500.275	30078
500.349	29775
500.422	32370
500.496	46121
500.570	99538
500.644	263517
500.718	387601
500.792	65909
500.866	30622
500.940	37331
501.013	29584
501.087	31152
501.161	46558
501.235	64721
501.309	162515
501.382	391016
501.456	255771
501.530	75093
501.603	114095
501.677	38299
501.751	21715
501.825	29131
501.898	64905
501.972	148210
502.046	70779
502.119	30650
502.193	78666
502.266	155364
502.340	62699
502.413	81090
502.487	129668
502.561	67177
502.634	24588
502.708	20739
502.781	17466
502.855	16956
502.928	15020
503.002	15533
503.075	16035
503.149	17233
503.222	17710
503.295	18543
503.369	22697
503.442	38713
503.516	132011
503.589	272484
503.662	144971
503.736	58650
503.809	126735
503.882	96816
503.956	151056
504.029	103043
504.102	47505
504.175	45745
504.249	22211
504.322	23550
504.395	19968
504.468	16199
504.542	16212
504.615	12756
504.688	12788
504.761	11136
504.834	18394
504.907	21055
504.980	26449
505.053	16296
505.127	19567
505.200	24258
505.273	24413
505.346	14048
505.419	11992
505.492	12636
505.565	10129
505.638	11657
505.711	10918
505.784	11116
505.857	10187
505.930	14176
506.003	10866
506.076	14655
506.149	18047
506.221	19155
506.294	22880
506.367	74175
506.440	195689
506.513	76654
506.586	22298
506.659	13999
506.731	13261
506.804	16590
506.877	21226
506.950	15906
507.022	13095
507.095	16382
507.168	19182
507.241	13096
507.313	11689
507.386	12146
507.459	16119
507.531	11767
507.604	10421
507.677	11433
507.749	9694
507.822	19226
507.894	38906
507.967	43557
508.040	26245
508.112	22889
508.185	21014
508.257	19933
508.330	27236
508.402	19713
508.475	19776
508.547	21506
508.620	23018
508.692	30249
508.765	20709
508.837	16584
508.909	16556
508.982	16533
509.054	18774
509.127	16369
509.199	16000
509.271	14503
509.344	15722
509.416	15732
509.488	15830
509.560	17116
509.633	17348
509.705	19928
509.777	20082
509.849	24965
509.922	20498
509.994	17610
510.066	19104
510.138	24763
510.210	46306
510.283	37850
510.355	30784
510.427	26695
510.499	24126
510.571	24845
510.643	25313
510.715	34706
510.787	26336
510.859	25278
510.931	27770
511.003	32561
511.076	28898
511.148	21487
511.219	25055
511.291	36905
511.363	36097
511.435	22462
511.507	19605
511.579	21025
511.651	20794
511.723	21252
511.795	18803
511.867	19717
511.939	25698
512.010	44848
512.082	31295
512.154	19994
512.226	23061
512.298	36559
512.369	45732
512.441	35540
512.513	32303
512.585	26098
512.656	26901
512.728	27726
512.800	22987
512.871	24382
512.943	23615
513.015	21374
513.086	22803
513.158	24461
513.230	25135
513.301	32572
513.373	30159
513.444	23600
513.516	21261
513.588	21652
513.659	22539
513.731	26033
513.802	23908
513.874	46245
513.945	57759
514.016	26370
514.088	21839
514.159	23289
514.231	31472
514.302	41852
514.374	32008
514.445	32254
514.516	53884
514.588	36462
514.659	32150
514.730	49899
514.802	40364
514.873	42688
514.944	44783
515.016	37948
515.087	35158
515.158	43892
515.229	51746
515.301	50663
515.372	65525
515.443	47319
515.514	36315
515.585	27585
515.656	26777
515.728	23647
515.799	22291
515.870	22886
515.941	23228
516.012	24863
516.083	33461
516.154	34673
516.225	35431
516.296	34026
516.367	28443
516.438	29647
516.509	34285
516.580	51029
516.651	147901
516.722	371248
516.793	140905
516.864	47574
516.935	43008
517.006	46666
517.077	62171
517.148	150089
517.219	459005
517.289	541819
517.360	230205
517.431	68434
517.502	31768
517.573	30137
517.643	31478
517.714	35060
517.785	34421
517.856	33132
517.926	37495
517.997	37989
518.068	42298
518.138	51353
518.209	89735
518.280	364014
518.350	926989
518.421	278424
518.492	50243
518.562	36334
518.633	34234
518.703	30300
518.774	40748
518.845	58105
518.915	48969
518.986	33600
519.056	37604
519.127	62693
519.197	105151
519.268	223027
519.338	105605
519.408	37559
519.479	39072
519.549	29599
519.620	22697
519.690	20421
519.760	21841
519.831	21401
519.901	20661
519.971	20446
520.042	20810
520.112	23410
520.182	25753
520.253	26086
520.323	22439
520.393	31910
520.463	42456
520.534	34987
520.604	58550
520.674	29521
520.744	32954
520.814	68924
520.885	55865
520.955	98703
521.025	252480
521.095	70845
521.165	23577
521.235	20704
521.305	17957
521.375	18133
521.445	20813
521.515	23198
521.585	27814
521.655	23072
521.725	22572
521.795	21867
521.865	16808
521.935	29710
522.005	22717
522.075	17019
522.145	19505
522.215	20934
522.285	28410
522.355	41335
522.424	69421
522.494	51570
522.564	30395
522.634	60801
522.704	129165
522.774	42173
522.843	18469
522.913	19455
522.983	21308
523.053	16550
523.122	18120
523.192	27122
523.262	79349
523.331	59186
523.401	18269
523.471	15153
523.540	15841
523.610	11222
523.680	12484
523.749	15024
523.819	18650
523.888	17249
523.958	12636
524.027	15031
524.097	15101
524.166	14283
524.236	14884
524.305	16697
524.375	13323
524.444	12061
524.514	15864
524.583	15788
524.653	20186
524.722	19711
524.791	13632
524.861	14783
524.930	11726
524.999	14401
525.069	18230
525.138	16574
525.207	19104
525.277	13514
525.346	15233
525.415	14202
525.484	15037
525.554	17294
525.623	16953
525.692	15108
525.761	14468
525.830	14321
525.900	15779
525.969	21448
526.038	25112
526.107	43828
526.176	91378
526.245	66372
526.314	40919
526.383	62370
526.452	68406
526.522	128298
526.591	120090
526.660	63887
526.729	31400
526.797	38205
526.867	111672
526.935	388693
527.004	355832
527.073	132870
527.142	22974
527.211	17026
527.280	18983
527.349	16783
527.418	10928
527.487	13323
527.555	10898
527.624	11216
527.693	8967
527.762	11547
527.831	9372
527.899	10933
527.968	10047
528.037	10362
528.106	15171
528.174	24990
528.243	21411
528.312	33446
528.380	32984
528.449	13136
528.518	12374
528.586	8293
528.655	9946
528.723	9821
528.792	9146
528.861	10758
528.929	8915
528.998	10111
529.066	8710
529.135	8913
529.203	8925
529.272	8550
529.340	10979
529.409	11747
529.477	9961
529.545	15011
529.614	15707
529.682	18400
529.751	18856
529.819	20748
529.887	13477
529.956	10170
530.024	11059
530.092	9754
530.161	14193
530.229	18480
530.297	10172
530.365	10725
530.434	8603
530.502	9330
530.570	9049
530.638	8015
530.707	11335
530.775	11709
530.843	10609
530.911	9685
530.979	9364
531.047	9045
531.115	10627
531.183	9410
531.252	9390
531.320	9606
531.388	9552
531.456	10847
531.524	7648
531.592	11384
531.660	12434
531.728	9472
531.796	9665
531.864	10823
531.932	10422
532.000	11389
532.067	11535
532.135	12559
532.203	14328
532.271	16013
532.339	30187
532.407	60413
532.475	30876
532.542	18215
532.610	19253
532.678	31913
532.746	138966
532.814	232684
532.881	47095
532.949	15154
533.017	12573
533.084	11553
533.152	11160
533.220	12085
533.287	12270
533.355	10364
533.423	12347
533.490	10321
533.558	11913
533.625	13888
533.693	13578
533.761	13151
533.828	14865
533.896	15626
533.963	30068
534.031	34159
534.098	39601
534.166	18884
534.233	15414
534.300	17426
534.368	15911
534.435	14497
534.503	14840
534.570	16321
534.637	13017
534.705	12939
534.772	14178
534.840	19633
534.907	53285
534.974	47856
535.041	15834
535.109	15822
535.176	10772
535.243	11031
535.310	11932
535.378	10971
535.445	10980
535.512	9317
535.579	10994
535.646	11553
535.714	14064
535.781	17790
535.848	17164
535.915	19876
535.982	19629
536.049	19105
536.116	18691
536.183	15820
536.250	15750
536.317	14951
536.384	18003
536.451	22081
536.518	21528
536.585	16962
536.652	22363
536.719	27736
536.786	20183
536.853	17654
536.920	28204
536.987	35516
537.053	42442
537.120	149504
537.187	83902
537.254	14631
537.321	12470
537.388	12767
537.454	10470
537.521	11406
537.588	11270
537.654	16400
537.721	18502
537.788	16649
537.855	13476
537.921	14048
537.988	13534
538.055	13424
538.121	12815
538.188	15921
538.254	24252
538.321	36492
538.388	20563
538.454	14380
538.521	13159
538.587	11917
538.654	11595
538.720	10922
538.787	13399
538.853	13888
538.920	17276
538.986	16935
539.053	13700
539.119	15487
539.185	13419
539.252	17732
539.318	23335
539.385	20795
539.451	19280
539.517	18311
539.583	22404
539.650	54726
539.716	93933
539.782	24434
539.849	14661
539.915	16181
539.981	15322
540.047	17665
540.114	17312
540.180	17166
540.246	14641
540.312	22724
540.378	38767
540.444	33743
540.510	54117
540.576	105538
540.643	28331
540.709	13861
540.775	14719
540.841	15333
540.907	23465
540.973	34269
541.039	27234
541.105	24075
541.171	17473
541.237	15707
541.303	15890
541.369	19975
541.435	24579
541.500	32177
541.566	18236
541.632	13663
541.698	13001
541.764	13667
541.830	12058
541.896	12559
541.961	14726
542.027	14636
542.093	14961
542.159	15681
542.224	18430
542.290	28511
542.356	37541
542.421	33147
542.487	20248
542.553	17165
542.618	18787
542.684	15172
542.750	15100
542.815	18797
542.881	37093
542.947	107152
543.012	53158
543.078	14955
543.143	14227
543.209	16046
543.274	16328
543.340	20779
543.405	46166
543.471	52809
543.536	16533
543.602	14498
543.667	13385
543.732	14949
543.798	13375
543.863	15596
543.928	13092
543.994	13737
544.059	13407
544.124	14353
544.190	14210
544.255	15817
544.320	14798
544.386	15957
544.451	19414
544.516	21903
544.581	26410
544.646	77637
544.712	81446
544.777	21699
544.842	19587
544.907	20086
544.972	16831
545.037	18103
545.102	18155
545.168	18043
545.233	20042
545.298	21624
545.363	24670
545.428	26115
545.493	47130
545.558	78846
545.623	29094
545.688	18875
545.753	18574
545.818	18234
545.883	19530
545.947	18662
546.012	21684
546.077	20464
546.142	18808
546.207	19858
546.272	23677
546.337	21869
546.401	21655
546.466	21153
546.531	18916
546.596	21665
546.661	20190
546.725	18620
546.790	16770
546.855	18582
546.919	15793
546.984	19249
547.049	20112
547.113	23434
547.178	20281
547.243	22123
547.307	25578
547.372	29087
547.436	27699
547.501	21629
547.565	24633
547.630	28017
547.695	27102
547.759	30426
547.823	24730
547.888	22219
547.952	20974
548.017	23839
548.081	29042
548.146	35523
548.210	27714
548.274	22477
548.339	22044
548.403	22004
548.468	20401
548.532	21276
548.596	20775
548.660	20598
548.725	23787
548.789	27569
548.853	27969
548.917	25546
548.982	34175
549.046	29323
549.110	21020
549.174	21564
549.238	21056
549.303	20678
549.367	22693
549.431	21236
549.495	21370
549.559	21558
549.623	22576
549.687	28612
549.751	33120
549.815	27403
549.879	26559
549.943	24325
550.007	27254
550.071	28174
550.135	32370
550.199	26135
550.263	25306
550.327	28822
550.391	35323
550.455	26553
550.519	25899
550.582	29168
550.646	37580
550.710	34341
550.774	27610
550.838	28849
550.901	29541
550.965	31230
551.029	31447
551.093	36979
551.156	46389
551.220	81690
551.284	68584
551.347	47396
551.411	94974
551.475	77288
551.538	30514
551.602	28666
551.666	25999
551.729	24673
551.793	25793
551.856	26600
551.920	27386
551.983	26298
552.047	25952
552.110	24995
552.174	24405
552.237	25802
552.301	23999
552.364	23375
552.428	23075
552.491	23873
552.554	25116
552.618	26228
552.681	26140
552.745	27970
552.808	36379
552.871	41395
552.934	32297
552.998	28499
553.061	28732
553.124	27572
553.187	27722
553.251	31012
553.314	32672
553.377	36856
553.440	68009
553.503	232124
553.567	256402
553.630	45229
553.693	27733
553.756	26713
553.819	24258
553.882	23623
553.945	23246
554.008	23450
554.071	21864
554.134	22133
554.197	20692
554.260	21064
554.323	23264
554.386	23789
554.449	21640
554.512	22818
554.575	21298
554.638	22515
554.701	21563
554.764	21835
554.827	21006
554.889	20081
554.952	18681
555.015	19657
555.078	20210
555.141	20052
555.203	19622
555.266	20053
555.329	19414
555.391	20131
555.454	20980
555.517	20550
555.580	19137
555.642	18609
555.705	18598
555.768	19908
555.830	18831
555.893	17795
555.955	19046
556.018	18890
556.080	18596
556.143	18172
556.206	18350
556.268	19871
556.330	19699
556.393	19102
556.455	20884
556.518	30612
556.580	25062
556.643	17864
556.705	17281
556.767	16596
556.830	17864
556.892	21061
556.955	27801
557.017	21414
557.079	17133
557.142	17584
557.204	22269
557.266	39342
557.328	26937
557.391	17108
557.453	16460
557.515	17161
557.577	20389
557.639	19584
557.701	15264
557.764	15299
557.826	17470
557.888	18276
557.950	16987
558.012	18141
558.074	21140
558.136	42089
558.198	68057
558.260	29945
558.322	20386
558.384	21981
558.446	22393
558.508	24824
558.570	30012
558.632	49908
558.694	61078
558.756	65842
558.818	203631
558.880	347033
558.942	94684
559.003	75077
559.065	35114
559.127	23683
559.189	23733
559.251	26367
559.312	36187
559.374	92762
559.436	221849
559.498	82319
559.559	24311
559.621	22154
559.683	26970
559.744	48325
559.806	126665
559.868	129191
559.929	32264
559.991	27956
560.052	36863
560.114	72927
560.176	43406
560.237	54246
560.299	63285
560.360	22705
560.422	18978
560.483	18216
560.545	18043
560.606	16588
560.667	16877
560.729	16160
560.790	16459
560.852	16585
560.913	16418
560.974	16852
561.036	16574
561.097	17775
561.158	17334
561.220	17624
561.281	16906
561.342	17538
561.403	22015
561.465	26954
561.526	58197
561.587	55334
561.648	22125
561.709	17586
561.771	18445
561.832	17542
561.893	16693
561.954	16799
562.015	18030
562.076	17630
562.137	17030
562.198	18203
562.259	17209
562.320	18064
562.381	20316
562.442	24602
562.503	20405
562.564	17143
562.625	16496
562.686	17771
562.747	19398
562.808	18353
562.869	18722
562.930	22232
562.991	21438
563.051	20714
563.112	18878
563.173	19176
563.234	17186
563.294	18159
563.355	18149
563.416	18294
563.477	18472
563.537	20120
563.598	19988
563.659	20347
563.720	18826
563.780	20736
563.841	19230
563.901	19346
563.962	19131
564.023	19091
564.083	19916
564.144	19882
564.204	19756
564.265	20659
564.325	25488
564.386	44041
564.446	32719
564.507	19677
564.567	19839
564.628	20380
564.688	19946
564.749	20695
564.809	24850
564.869	25526
564.930	21033
564.990	21990
565.050	20731
565.111	22019
565.171	20730
565.231	22215
565.292	21940
565.352	21152
565.412	22669
565.472	23710
565.532	23150
565.593	23586
565.653	23175
565.713	25202
565.773	25699
565.833	29364
565.893	33087
565.953	27474
566.013	27634
566.074	29327
566.134	36011
566.194	48297
566.254	46413
566.314	37795
566.374	33260
566.434	34427
566.494	34977
566.554	37375
566.614	39388
566.673	40795
566.733	42723
566.793	46411
566.853	47791
566.913	49864
566.973	49780
567.033	48933
567.092	48564
567.152	49242
567.212	50526
567.272	53634
567.331	56659
567.391	58975
567.451	63222
567.511	70080
567.570	63005
567.630	53715
567.690	53944
567.749	56599
567.809	60517
567.868	66350
567.928	75978
567.988	88503
568.047	103541
568.107	131024
568.166	178837
568.226	263104
568.285	327600
568.345	303343
568.404	264165
568.464	237315
568.523	224794
568.582	223363
568.642	248032
568.701	301684
568.761	413231
568.820	561486
568.879	545863
568.939	457130
568.998	366395
569.057	299201
569.116	246655
569.176	205819
569.235	174640
569.294	149233
569.353	130036
569.413	113435
569.472	101507
569.531	89094
569.590	81175
569.649	73321
569.708	66360
569.767	62126
569.827	60778
569.886	53697
569.945	48856
570.004	46885
570.063	43441
570.122	42129
570.181	41610
570.240	41984
570.299	38756
570.358	36389
570.417	32702
570.475	32039
570.534	31106
570.593	32325
570.652	30558
570.711	30710
570.770	28241
570.829	29221
570.887	29055
570.946	28077
571.005	24949
571.064	24318
571.122	25348
571.181	27038
571.240	23545
571.299	23526
571.357	23863
571.416	24010
571.475	26856
571.533	24432
571.592	22184
571.650	22454
571.709	21199
571.768	21128
571.826	19888
571.885	20082
571.943	19690
572.002	19855
572.060	19083
572.119	18502
572.177	17666
572.236	17935
572.294	17025
572.352	18864
572.411	17906
572.469	17514
572.528	17380
572.586	17119
572.644	19270
572.703	21808
572.761	19087
572.819	17252
572.877	16889
572.936	16703
572.994	16282
573.052	16683
573.110	17187
573.169	16154
573.227	17053
573.285	17624
573.343	15684
573.401	16059
573.459	16102
573.517	16403
573.576	16090
573.634	16731
573.692	16256
573.750	15336
573.808	15099
573.866	19076
573.924	20277
573.982	18557
574.040	16347
574.098	16589
574.155	15560
574.213	15501
574.271	14901
574.329	15565
574.387	14557
574.445	15145
574.503	14083
574.560	14842
574.618	14219
574.676	14503
574.734	14183
574.792	15316
574.849	13842
574.907	14416
574.965	14178
575.022	14393
575.080	14563
575.138	14757
575.195	13790
575.253	15571
575.311	15438
575.368	15267
575.426	14274
575.483	15101
575.541	14205
575.598	15052
575.656	15283
575.713	15083
575.771	14197
575.828	14492
575.886	14887
575.943	15737
576.001	15376
576.058	16010
576.115	16326
576.173	18796
576.230	19641
576.287	19040
576.345	16486
576.402	16768
576.459	15830
576.517	17081
576.574	17914
576.631	18128
576.688	16026
576.746	15778
576.803	15799
576.860	15701
576.917	15589
576.974	17203
577.031	15746
577.089	15740
577.146	16557
577.203	17019
577.260	18607
577.317	18308
577.374	19514
577.431	18811
577.488	16904
577.545	16479
577.602	18053
577.659	18374
577.716	19851
577.773	19966
577.830	18357
577.886	18431
577.943	16500
578.000	18597
578.057	19806
578.114	20896
578.171	21822
578.227	27745
578.284	26358
578.341	23812
578.398	21283
578.454	20688
578.511	21528
578.568	21514
578.625	18368
578.681	17409
578.738	16629
578.794	18102
578.851	17711
578.908	18175
578.964	18481
579.021	19756
579.077	18016
579.134	17979
579.190	17301
579.247	17969
579.303	17414
579.360	17819
579.416	18012
579.473	18016
579.529	17451
579.586	17651
579.642	19001
579.698	19157
579.755	19489
579.811	20114
579.867	19465
579.924	19620
579.980	21964
580.036	24757
580.093	28469
580.149	37883
580.205	39572
580.261	31880
580.317	29330
580.374	26997
580.430	26050
580.486	24528
580.542	23202
580.598	21489
580.619	21367
580.654	21184
580.692	20939
580.710	20859
580.765	19789
580.767	19781
580.823	21119
580.838	21120
580.879	21201
580.911	20282
580.935	19653
580.984	19965
580.991	20036
581.047	20765
581.057	20870
581.103	21488
581.130	22452
581.159	23506
581.203	24046
581.215	24221
581.270	25171
581.276	24888
581.326	22345
581.349	22280
581.382	22316
581.422	22284
581.438	22275
581.494	21955
581.494	21926
581.550	20962
581.567	21095
581.606	21383
581.640	20817
581.661	20521
581.713	21675
581.717	21784
581.773	20530
581.786	20702
581.829	21294
581.859	21211
581.885	21189
581.932	20998
581.940	20984
581.996	22030
582.004	22000
582.052	21723
582.077	21338
582.107	21062
582.150	21376
582.163	21465
582.219	21769
582.223	21802
582.274	22390
582.296	22425
582.330	22413
582.368	22616
582.386	22843
582.441	21672
582.441	21678
582.497	23007
582.514	23368
582.552	24481
582.587	25002
582.608	25230
582.659	24274
582.663	24203
582.719	23954
582.732	23829
582.774	23669
582.805	23402
582.830	23081
582.877	23354
582.885	23414
582.941	24490
582.950	24578
582.996	25066
583.023	25814
583.052	26816
583.095	27717
583.107	27984
583.162	32559
583.168	32568
583.218	32145
583.240	31390
583.273	30274
583.313	29012
583.328	28563
583.384	27765
583.385	27745
583.439	27223
583.458	26870
583.494	26133
583.531	26085
583.549	26203
583.603	26982
583.605	26994
583.660	26636
583.676	26600
583.715	26502
583.748	26940
583.770	27288
583.820	27671
583.825	27694
583.881	27533
583.893	27470
583.936	27333
583.965	27517
583.991	27627
584.038	28405
584.046	28532
584.101	28817
584.110	28706
584.156	28251
584.183	28793
584.211	29123
584.255	29020
584.266	29083
584.321	28859
584.328	28973
584.376	29229
584.400	29144
584.431	29395
584.472	30202
584.486	30335
584.541	30758
584.545	30768
584.596	31139
584.617	31140
584.651	31274
584.689	32465
584.706	32667
584.761	33115
584.762	33127
584.816	33088
584.834	33381
584.871	33997
584.906	34549
584.926	34642
584.978	34500
584.980	34505
585.035	35675
585.051	36063
585.090	36787
585.123	37758
585.145	38162
585.195	38500
585.200	38597
585.254	41161
585.267	41941
585.309	44300
585.340	45386
585.364	45765
585.412	44043
585.419	43693
585.473	43755
585.484	43947
585.528	45663
585.556	48342
585.583	51852
585.628	60238
585.637	62440
585.692	85920
585.700	88862
585.747	100960
585.772	90006
585.801	70981
585.845	54592
585.856	52187
585.910	50190
585.917	50000
585.965	49526
585.989	49802
586.019	50388
586.061	50783
586.074	50788
586.128	52043
586.133	52234
586.183	54177
586.205	54716
586.237	54742
586.277	55300
586.292	55801
586.346	58205
586.349	58379
586.401	59693
586.421	60386
586.455	61812
586.493	64605
586.509	66137
586.564	72642
586.565	73001
586.618	87155
586.637	86522
586.672	78834
586.709	73179
586.727	71588
586.781	72882
586.781	72802
586.835	75644
586.853	76232
586.889	76862
586.925	78519
586.944	79516
586.996	83072
586.998	83045
587.052	86535
587.068	87549
587.106	89653
587.140	91624
587.161	92789
587.212	96720
587.215	96782
587.269	101715
587.284	102834
587.323	105621
587.356	109807
587.377	112213
587.427	118337
587.431	118584
587.485	124172
587.499	126170
587.539	131921
587.571	136976
587.593	140320
587.643	149123
587.648	149693
587.702	159924
587.715	162715
587.755	171639
587.786	179075
587.810	183972
587.858	197395
587.864	198737
587.917	215954
587.930	220530
587.971	235179
588.001	247293
588.025	256721
588.073	278487
588.079	280911
588.133	309785
588.145	317350
588.187	344378
588.217	366328
588.241	385718
588.288	426274
588.295	431293
588.348	487264
588.360	501145
588.402	555571
588.431	597153
588.456	635563
588.503	720750
588.510	733676
588.564	858043
588.575	887252
588.617	1015200
588.646	1109730
588.671	1209888
588.718	1403858
588.725	1436860
588.778	1683580
588.789	1723672
588.832	1824451
588.861	1844892
588.886	1730556
588.932	1456831
588.939	1422785
588.993	1317044
589.004	1330094
589.047	1719493
589.075	1935969
589.100	1931550
589.147	1834270
589.154	1807710
589.207	1568425
589.218	1522072
589.261	1423023
589.290	1370511
589.314	1384439
589.361	1434306
589.368	1453733
589.421	1634511
589.433	1665408
589.475	1737490
589.504	1731138
589.528	1601941
589.576	1396145
589.582	1406771
589.635	1676920
589.647	1716850
589.689	1626560
589.718	1510454
589.742	1363714
589.790	1058250
589.795	1033196
589.849	819474
589.861	774328
589.902	670402
589.932	599016
589.955	553250
590.004	467342
590.009	459875
590.062	397994
590.075	384427
590.115	347489
590.146	322086
590.168	306800
590.218	277717
590.222	274784
590.275	247728
590.289	241703
590.328	225281
590.360	213416
590.381	205655
590.431	190192
590.435	188801
590.488	174436
590.503	171136
590.541	162041
590.574	154951
590.594	149878
590.645	139540
590.647	138837
590.700	130285
590.716	128180
590.753	122142
590.787	117797
590.806	115541
590.859	110103
590.859	109709
590.912	104096
590.930	102581
590.965	98991
591.001	96068
591.018	94420
591.071	90364
591.072	90564
591.124	86571
591.143	85464
591.177	83169
591.214	81305
591.230	80336
591.283	77858
591.285	77956
591.336	75742
591.356	75195
591.389	72869
591.427	70603
591.442	69482
591.495	65792
591.498	65711
591.547	63589
591.569	62890
591.600	61748
591.640	60598
591.653	60192
591.706	59308
591.711	59354
591.759	58141
591.782	57824
591.811	57670
591.853	57663
591.864	56836
591.917	53290
591.924	52922
591.969	51887
591.995	51505
592.022	50872
592.066	50119
592.075	50074
592.127	50680
592.137	50929
592.180	51946
592.208	52588
592.233	49670
592.279	44612
592.285	44348
592.338	43135
592.350	42984
592.390	41834
592.421	41177
592.443	41132
592.491	41363
592.495	41233
592.548	40869
592.562	40866
592.600	39914
592.633	39286
592.653	39073
592.704	38570
592.705	38759
592.775	37303
592.846	37007
592.916	36717
592.987	36388
593.058	35583
593.128	33480
593.199	33819
593.270	33091
593.341	33010
593.411	31089
593.482	31457
593.553	30481
593.623	30071
593.694	29874
593.764	30677
593.835	28339
593.906	28128
593.976	28376
594.047	29078
594.117	30978
594.188	31050
594.258	25748
594.329	26247
594.399	26063
594.470	25827
594.540	25055
594.611	25969
594.681	24897
594.751	25614
594.822	25640
594.892	25867
594.963	26124
595.033	25673
595.103	24023
595.174	26157
595.244	31513
595.314	36785
595.384	24328
595.455	23719
595.525	24109
595.595	23042
595.665	23022
595.736	23107
595.806	21828
595.876	22302
595.946	22859
596.016	22546
596.087	21094
596.157	22423
596.227	21492
596.297	22878
596.367	22433
596.437	24657
596.507	29098
596.577	33646
596.647	24234
596.717	21684
596.787	22062
596.857	22073
596.927	21809
596.997	21427
597.067	21756
597.137	25205
597.207	23127
597.277	22195
597.347	21346
597.417	21965
597.487	20942
597.557	21419
597.626	22418
597.696	22965
597.766	24550
597.836	31677
597.906	22174
597.975	20294
598.045	19786
598.115	20214
598.185	20291
598.254	21325
598.324	22488
598.394	22694
598.464	21401
598.533	20296
598.603	20111
598.672	20413
598.742	19952
598.812	20678
598.881	20681
598.951	20231
599.020	19611
599.090	19554
599.159	19737
599.229	19850
599.299	18721
599.368	19166
599.437	19155
599.507	20165
599.576	18845
599.646	20847
599.715	20289
599.785	19782
599.854	18528
599.924	20270
599.993	19400
600.062	18187
600.132	18633
600.201	18687
600.270	19856
600.340	20488
600.409	19746
600.478	18936
600.547	18729
600.617	18770
600.686	17552
600.755	17696
600.824	17647
600.894	17434
600.963	17021
601.032	16257
601.101	15369
601.170	17391
601.239	16938
601.308	17712
601.378	17199
601.447	17062
601.516	16120
601.585	17664
601.654	18469
601.723	17306
601.792	16767
601.861	17932
601.930	20919
601.999	19669
602.068	17139
602.137	19373
602.206	18332
602.275	18276
602.343	18617
602.412	19843
602.481	16657
602.550	16425
602.619	16975
602.688	18209
602.756	15555
602.825	17390
602.894	17182
602.963	17107
603.032	16162
603.100	16552
603.169	16215
603.238	16863
603.307	15885
603.375	16706
603.444	17085
603.513	16203
603.581	16077
603.650	16745
603.719	16057
603.787	16488
603.856	16786
603.924	17396
603.993	16213
604.061	16719
604.130	17334
604.198	17279
604.267	17192
604.335	17766
604.404	17141
604.472	18397
604.541	16728
604.609	17391
604.678	17956
604.746	17264
604.815	17565
604.883	17918
604.951	17732
605.020	18805
605.088	18223
605.156	17771
605.225	18002
605.293	18096
605.361	17689
605.429	18834
605.498	19161
605.566	17838
605.634	18792
605.702	19249
605.771	17545
605.839	19949
605.907	18228
605.975	18794
606.043	17658
606.111	18311
606.180	19663
606.248	21809
606.316	22662
606.384	19361
606.452	20916
606.520	20737
606.588	17719
606.656	16692
606.724	16269
606.792	17364
606.860	15284
606.928	14367
606.996	13137
607.064	14168
607.132	14134
607.200	15261
607.267	15667
607.335	14810
607.403	15827
607.471	15164
607.539	14975
607.607	15220
607.674	12943
607.742	14784
607.810	14339
607.878	13915
607.946	13645
608.013	14902
608.081	14050
608.149	14941
608.216	13538
608.284	16490
608.352	14566
608.419	14885
608.487	20607
608.555	15311
608.622	16007
608.690	15731
608.757	15305
608.825	17107
608.893	15238
608.960	18492
609.028	18595
609.095	21550
609.163	15803
609.230	14780
609.298	14575
609.365	13523
609.432	14321
609.500	16132
609.567	16625
609.635	19057
609.702	18440
609.769	19751
609.837	18115
609.904	16222
609.971	15403
610.039	19724
610.106	24896
610.173	42473
610.241	93086
610.308	87945
610.375	47881
610.442	20034
610.509	15166
610.577	15671
610.644	15473
610.711	15362
610.778	15337
610.845	15005
610.912	15797
610.980	19294
611.047	26162
611.114	19963
611.181	15630
611.248	14965
611.315	16580
611.382	15269
611.449	14590
611.516	17340
611.583	16350
611.650	15993
611.717	17450
611.784	17134
611.851	18564
611.918	20967
611.984	23599
612.051	35857
612.118	71535
612.185	170749
612.252	106290
612.319	26021
612.386	21213
612.452	18934
612.519	19461
612.586	23407
612.653	19804
612.719	19118
612.786	16451
612.853	16586
612.919	15975
612.986	16913
613.053	14559
613.120	14992
613.186	14320
613.253	15975
613.319	15153
613.386	14680
613.453	15145
613.519	16742
613.586	17768
613.652	24105
613.719	20481
613.785	19431
613.852	16486
613.918	15921
613.985	19274
614.051	26325
614.118	55930
614.184	50500
614.250	17704
614.317	15545
614.383	14741
614.449	15489
614.516	15355
614.582	15336
614.648	14441
614.715	14149
614.781	15325
614.847	15005
614.914	15458
614.980	15948
615.046	16468
615.112	17051
615.179	17417
615.245	22512
615.311	30621
615.377	55923
615.443	62613
615.509	32284
615.575	23065
615.642	20959
615.708	21483
615.774	23196
615.840	28689
615.906	38248
615.972	65498
616.038	130976
616.104	179518
616.170	260977
616.236	203823
616.302	47297
616.368	30801
616.434	23440
616.500	21675
616.565	22976
616.631	24625
616.697	21795
616.763	22540
616.829	29859
616.895	46749
616.961	45610
617.026	24574
617.092	18073
617.158	17727
617.224	16476
617.289	15330
617.355	15112
617.421	14420
617.487	15926
617.552	13610
617.618	13622
617.684	13337
617.749	15576
617.815	13202
617.880	13318
617.946	13126
618.012	14800
618.077	12919
618.143	13285
618.208	14222
618.274	15065
618.339	14498
618.405	12059
618.470	13775
618.536	13581
618.601	14571
618.667	14449
618.732	13233
618.798	12698
618.863	13412
618.928	12151
618.994	14138
619.059	15721
619.124	19141
619.190	15199
619.255	12398
619.320	12900
619.386	12098
619.451	11875
619.516	12173
619.581	12584
619.647	12786
619.712	13165
619.777	11637
619.842	13174
619.907	13034
619.972	13372
620.038	13632
620.103	12383
620.168	11598
620.233	13246
620.298	12213
620.363	12793
620.428	13102
620.493	13004
620.558	12460
620.623	12718
620.688	12851
620.753	12538
620.818	12453
620.883	12712
620.948	12081
621.013	12167
621.078	13305
621.143	12503
621.207	14629
621.272	14403
621.337	13553
621.402	15308
621.467	17502
621.532	20028
621.596	15228
621.661	14543
621.726	13330
621.791	13786
621.855	14540
621.920	15860
621.985	15325
622.049	18877
622.114	16209
622.179	14805
622.243	15245
622.308	14446
622.373	16603
622.437	15839
622.502	13293
622.566	14493
622.631	13782
622.695	16113
622.760	15174
622.824	15122
622.889	15241
622.953	16170
623.018	21274
623.082	20754
623.147	15334
623.211	15079
623.276	15625
623.340	13581
623.404	14569
623.469	13936
623.533	14113
623.597	13199
623.662	13292
623.726	12798
623.790	12754
623.854	13593
623.919	12883
623.983	13201
624.047	13461
624.111	13057
624.176	14195
624.240	13823
624.304	15826
624.368	12161
624.432	13072
624.496	13192
624.560	14824
624.625	15208
624.689	13973
624.753	13446
624.817	14164
624.881	12956
624.945	12486
625.009	12515
625.073	13374
625.137	13958
625.201	16333
625.265	15842
625.329	13207
625.393	13936
625.456	13356
625.520	15139
625.584	14912
625.648	19413
625.712	26797
625.776	58901
625.839	64391
625.903	26317
625.967	15027
626.031	26993
626.095	36761
626.158	15381
626.222	10550
626.286	11342
626.349	10240
626.413	9710
626.477	12472
626.540	9865
626.604	10076
626.668	10785
626.731	9243
626.795	10348
626.858	10950
626.922	9527
626.986	10574
627.049	7824
627.113	10222
627.176	9378
627.240	9406
627.303	9515
627.366	8900
627.430	10737
627.493	9760
627.557	9859
627.620	11263
627.684	9524
627.747	9557
627.810	8633
627.874	9280
627.937	8184
628.000	10706
628.064	9320
628.127	7680
628.190	9917
628.253	8579
628.317	8531
628.380	8162
628.443	8199
628.506	8053
628.569	8871
628.632	7460
628.696	8070
628.759	7130
628.822	6740
628.885	6651
628.948	8512
629.011	7562
629.074	7749
629.137	7806
629.200	7647
629.263	8904
629.326	7270
629.389	6305
629.452	7471
629.515	7812
629.578	8600
629.641	8467
629.704	8014
629.767	7615
629.830	8179
629.892	7156
629.955	6920
630.018	9505
630.081	8122
630.144	10425
630.207	6979
630.269	8787
630.332	8387
630.395	7620
630.458	7969
630.520	6184
630.583	8194
630.646	6887
630.708	6471
630.771	6290
630.834	7276
630.896	6250
630.959	6598
631.021	5838
631.084	7677
631.146	7921
631.209	9833
631.272	6342
631.334	6742
631.397	5922
631.459	6893
631.522	7111
631.584	6493
631.646	6941
631.709	7323
631.771	8929
631.834	7433
631.896	6815
631.958	6395
632.021	7730
632.083	6642
632.145	7046
632.208	6110
632.270	7135
632.332	6431
632.395	5222
632.457	7508
632.519	5547
632.581	7420
632.643	4865
632.706	6362
632.768	4919
632.830	6512
632.892	5717
632.954	5276
633.016	6818
633.078	5305
633.141	5434
633.203	5679
633.265	6224
633.327	5913
633.389	4879
633.451	7372
633.513	7579
633.575	8053
633.637	6697
633.698	6430
633.760	5898
633.822	6526
633.884	5978
633.946	6655
634.008	4543
634.070	7374
634.132	8255
634.193	7058
634.255	6479
634.317	5148
634.379	7478
634.441	5741
634.502	5928
634.564	6216
634.626	5619
634.687	6604
634.749	5752
634.811	6175
634.873	4834
634.934	5097
634.996	6181
635.057	5426
635.119	3919
635.181	5978
635.242	5948
635.304	3336
635.365	6659
635.427	4641
635.488	5658
635.550	4568
635.611	5557
635.673	3934
635.734	6968
635.796	4943
635.857	6862
635.918	5511
635.980	6764
636.041	5169
636.102	5658
636.164	6457
636.225	6936
636.286	4498
636.348	6792
636.409	5317
636.470	4352
636.531	6590
636.593	4904
636.654	6704
636.715	4535
636.776	4772
636.838	4030
636.899	5108
636.960	4234
637.021	4735
637.082	4204
637.143	4675
637.204	4108
637.265	4612
637.326	4895
637.387	5368
637.448	3459
637.509	5170
637.570	3919
637.631	5507
637.692	3265
637.753	3792
637.814	4202
637.875	4801
637.936	5243
637.997	4555
638.058	4835
638.119	5995
638.179	4882
638.240	4032
638.301	4296
638.362	3968
638.423	5216
638.483	5904
638.544	2457
638.605	4751
638.666	2950
638.726	4531
638.787	4961
638.848	4236
638.908	3675
638.969	5235
639.030	3861
639.090	2748
639.151	3091
639.211	5909
639.272	5005
639.332	8592
639.393	6006
639.453	3745
639.514	3997
639.574	4652
639.635	3063
639.695	4463
639.756	2652
639.816	4681
639.877	5025
639.937	8036
639.997	9390
640.058	3997
640.118	3028
640.178	4151
640.239	3814
640.299	3559
640.359	3081
640.420	4094
640.480	3478
640.540	3913
640.600	2837
640.661	4234
640.721	3087
640.781	5989
640.841	2557
640.901	4859
640.961	4160
641.021	4555
641.082	3766
641.142	6199
641.202	5638
641.262	2165
641.322	3905
641.382	2425
641.442	4722
641.502	4062
641.562	3745
641.622	3614
641.682	3244
641.742	4217
641.802	3791
641.861	4389
641.921	4573
641.981	4197
642.041	5054
642.101	5345
642.161	2433
642.221	3959
642.280	3353
642.340	2815
642.400	1989
642.460	4406
642.519	2849
642.579	3820
642.639	3772
642.698	1408
642.758	5347
642.818	3504
642.877	2598
642.937	3791
642.997	3490
643.056	5831
643.116	2583
643.175	4698
643.235	3114
643.294	2991
643.354	3829
643.414	4071
643.473	4820
643.532	5020
643.592	5796
643.651	10999
643.711	18282
643.770	33290
643.830	75916
643.889	162342
643.948	37314
644.008	7178
644.067	4739
644.126	3951
644.186	3170
644.245	5397
644.304	1688
644.363	5704
644.423	1810
644.482	3501
644.541	3467
644.600	2541
644.659	5073
644.719	3678
644.778	4757
644.837	7548
644.896	13971
644.955	27174
645.014	10928
645.073	5853
645.132	2903
645.191	4597
645.250	2994
645.309	5085
645.368	3139
645.427	4732
645.486	4144
645.545	7327
645.604	2573
645.663	4201
645.722	3179
645.781	3670
645.840	4309
645.898	4908
645.957	7038
646.016	7798
646.075	13894
646.134	27506
646.192	70893
646.251	104604
646.310	15108
646.369	5607
646.427	4613
646.486	2352
646.545	3041
646.603	3487
646.662	2308
646.721	3935
646.779	2149
646.838	1727
646.896	4311
646.955	3650
647.014	5470
647.072	6904
647.131	17598
647.189	10066
647.248	2794
647.306	3366
647.365	3512
647.423	1551
647.481	3995
647.540	2077
647.598	1980
647.657	2651
647.715	2845
647.773	1847
647.832	3690
647.890	1243
647.948	1978
648.007	3377
648.065	1276
648.123	1986
648.181	4438
648.240	5392
648.298	3979
648.356	2862
648.414	2682
648.472	3611
648.531	2466
648.589	2651
648.647	2690
648.705	2628
648.763	2621
648.821	2850
648.879	2243
648.937	3525
648.995	3212
649.053	3116
649.111	4925
649.169	6747
649.227	11113
649.285	20470
649.343	55063
649.401	29955
649.459	14005
649.516	10765
649.574	8459
649.632	21005
649.690	24878
649.748	8995
649.806	8796
649.863	16040
649.921	14289
649.979	9193
650.037	3626
650.094	967
650.152	2775
650.210	2989
650.268	2710
650.325	2140
650.383	1908
650.440	1944
650.498	2395
650.556	2596
650.613	1244
650.671	2523
650.728	1639
650.786	3177
650.843	1810
650.901	875
650.958	2481
651.016	2443
651.073	1417
651.131	2037
651.188	876
651.246	2566
651.303	1050
651.360	2681
651.418	1234
651.475	1870
651.532	807
651.590	3126
651.647	1923
651.704	3375
651.762	1529
651.819	2415
651.876	1920
651.933	1709
651.990	2749
652.048	538
652.105	1603
652.162	2543
652.219	1114
652.276	1562
652.333	2028
652.390	1799
652.448	1361
652.505	2332
652.562	2337
652.619	3460
652.676	4894
652.733	6415
652.790	1874
652.847	1153
652.904	1625
652.961	1131
653.017	989
653.074	2547
653.131	1955
653.188	1131
653.245	1182
653.302	2385
653.359	1162
653.415	1601
653.472	850
653.529	2590
653.586	941
653.642	1020
653.699	1697
653.756	1183
653.813	1050
653.869	2254
653.926	1222
653.983	1531
654.039	2444
654.096	1498
654.152	2714
654.209	792
654.266	1812
654.322	923
654.379	2418
654.435	2709
654.492	1739
654.548	2991
654.605	4553
654.661	3458
654.717	1559
654.774	2007
654.830	1974
654.887	1963
654.943	1959
655.000	1973
655.056	1944
655.112	2580
655.168	813
655.225	2014
655.281	1960
655.337	3131
655.394	5123
655.450	3957
655.506	3574
655.562	5900
655.618	4668
655.675	1320
655.731	2424
655.787	1676
655.843	1946
655.899	988
655.955	2628
656.011	2581
656.067	1524
656.123	3469
656.179	2382
656.235	5172
656.291	1269
656.347	3488
656.403	1736
656.459	2411
656.515	2598
656.571	2841
656.627	1957
656.683	2086
656.739	2407
656.795	1680
656.850	2037
656.906	2269
656.962	2238
657.018	1405
657.074	1180
657.129	1611
657.185	2352
657.241	2458
657.297	982
657.352	1098
657.408	1165
657.464	2419
657.519	1448
657.575	359
657.630	762
657.686	1203
657.742	1702
657.797	1258
657.853	1444
657.908	2603
657.964	414
658.019	1486
658.075	1795
658.130	1633
658.186	96
658.241	2457
658.297	187
658.352	1598
658.407	1525
658.463	1569
658.518	1485
658.573	1639
658.629	107
658.684	856
658.739	1770
658.795	309
658.850	749
658.905	832
658.960	1933
659.016	1413
659.071	1779
659.126	1660
659.181	1370
659.236	3937
659.291	3662
659.346	2482
659.401	2130
659.457	3113
659.512	4106
659.567	2991
659.622	1156
659.677	1373
659.732	607
659.787	1737
659.842	1280
659.897	2498
659.952	2681
660.007	2019
660.061	929
660.116	527
660.171	1152
660.226	1621
660.281	1357
660.336	762
660.391	2091
660.445	1041
660.500	1512
660.555	1321
660.610	627
660.664	1884
660.719	160
660.774	1832
660.828	2495
660.883	1528
660.938	1400
660.992	-420
661.047	1919
661.101	1724
661.156	1120
661.211	1352
661.265	741
661.320	361
661.374	205
661.429	1119
661.483	1840
661.538	1035
661.592	1208
661.647	2035
661.701	944
661.755	1215
661.810	664
661.864	845
661.919	137
661.973	2490
662.027	615
662.081	737
662.136	624
662.190	2158
662.244	1377
662.299	1149
662.353	1318
662.407	562
662.461	647
662.515	2046
662.569	903
662.624	2879
662.678	1793
662.732	881
662.786	2267
662.840	1384
662.894	947
662.948	1242
663.002	655
663.056	2416
663.110	-130
663.164	1217
663.218	1090
663.272	1325
663.326	2070
663.380	1454
663.434	1146
663.488	1404
663.542	1458
663.595	1402
663.649	438
663.703	1381
663.757	1629
663.811	829
663.864	859
663.918	1109
663.972	782
664.026	1352
664.079	750
664.133	1606
664.187	555
664.240	1232
664.294	266
664.348	2205
664.401	1364
664.455	1130
664.508	953
664.562	1247
664.615	601
664.669	521
664.722	686
664.776	1715
664.829	1126
664.883	1506
664.936	475
664.990	1140
665.043	590
665.097	937
665.150	2489
665.203	730
665.257	277
665.310	1437
665.363	1179
665.417	2129
665.470	934
665.523	1203
665.576	1742
665.630	1937
665.683	1056
665.736	1944
665.789	1997
665.842	933
665.895	1141
665.949	1785
666.002	1495
666.055	1569
666.108	1340
666.161	1161
666.214	1890
666.267	1953
666.320	1535
666.373	1425
666.426	1146
666.479	1307
666.532	837
666.585	2387
666.638	1759
666.691	2573
666.744	2507
666.796	1800
666.849	1521
666.902	1725
666.955	1588
667.008	1178
667.060	1109
667.113	1951
667.166	1154
667.219	1809
667.271	1177
667.324	2067
667.377	1149
667.430	1626
667.482	2308
667.535	2098
667.587	2091
667.640	1491
667.693	1578
667.745	2324
667.798	3970
667.850	2231
667.903	1106
667.955	1498
668.008	894
668.060	2115
668.113	1344
668.165	1710
668.218	1984
668.270	2874
668.322	1652
668.375	1599
668.427	1840
668.479	1508
668.532	532
668.584	1334
668.636	1983
668.689	1744
668.741	1209
668.793	1670
668.845	902
668.898	1872
668.950	1405
669.002	1128
669.054	1784
669.106	1545
669.158	1591
669.211	2582
669.263	1960
669.315	3449
669.367	3169
669.419	2355
669.471	3190
669.523	2372
669.575	4742
669.627	3793
669.679	2327
669.731	2641
669.783	3131
669.835	3371
669.886	2203
669.938	2886
669.990	2586
670.042	2192
670.094	2699
670.146	3447
670.197	4016
670.249	5777
670.301	6471
670.353	10289
670.404	14403
670.456	21495
670.508	33699
670.560	51640
670.611	81499
670.663	138366
670.715	320419
670.766	532328
670.818	204181
670.869	34896
670.921	16378
670.972	10493
671.024	7038
671.075	6402
671.127	5227
671.178	4274
671.230	3933
671.281	2714
671.333	2532
671.384	2993
671.436	3478
671.487	3238
671.538	2588
671.590	3915
671.641	3620
671.692	6322
671.744	8654
671.795	7252
671.846	3893
671.897	2516
671.949	2157
672.000	1880
672.051	1460
672.102	2745
672.153	1604
672.204	1377
672.256	1644
672.307	2693
672.358	2401
672.409	2254
672.460	1440
672.511	1655
672.562	1890
672.613	1251
672.664	1389
672.715	2686
672.766	2024
672.817	1225
672.868	1099
672.919	1845
672.970	585
673.021	2183
673.071	749
673.122	1734
673.173	1422
673.224	1813
673.275	882
673.326	2868
673.376	1165
673.427	526
673.478	2090
673.528	1731
673.579	1283
673.630	1419
673.680	1164
673.731	1306
673.782	742
673.832	2199
673.883	1475
673.934	1739
673.984	1193
674.035	2420
674.085	1130
674.136	2101
674.186	1600
674.237	2306
674.287	2787
674.338	2211
674.388	1052
674.438	2057
674.489	1046
674.539	1491
674.589	1188
674.640	1377
674.690	1225
674.740	1110
674.791	1027
674.841	1036
674.891	1297
674.942	736
674.992	869
675.042	964
675.092	324
675.142	1100
675.193	1393
675.243	313
675.293	1504
675.343	1139
675.393	1122
675.443	1122
675.493	396
675.543	1235
675.593	1305
675.643	1564
675.693	1151
675.743	1766
675.793	2124
675.843	393
675.893	986
675.943	1362
675.993	951
676.043	916
676.093	845
676.142	1570
676.192	1544
676.242	1536
676.292	841
676.341	954
676.391	606
676.441	1079
676.491	651
676.540	705
676.590	1457
676.640	1720
676.689	1549
676.739	803
676.789	1136
676.838	1244
676.888	152
676.937	933
676.987	1016
677.037	997
677.086	-226
677.136	1753
677.185	473
677.235	504
677.284	596
677.333	140
677.383	207
677.432	169
677.482	954
677.531	1309
677.580	-125
677.630	1160
677.679	328
677.728	1360
677.778	1032
677.827	875
677.876	934
677.925	644
677.975	1019
678.024	788
678.073	-160
678.122	1552
678.171	1105
678.220	460
678.269	1508
678.319	1865
678.368	1429
678.417	498
678.466	1357
678.515	1000
678.564	894
678.613	1363
678.662	102
678.711	1091
678.760	463
678.809	1638
678.857	430
678.906	874
678.955	732
679.004	1373
679.053	996
679.102	757
679.151	784
679.199	498
679.248	747
679.297	979
679.346	696
679.394	913
679.443	593
679.492	1385
679.540	1188
679.589	870
679.638	844
679.686	883
679.735	1228
679.784	1186
679.832	568
679.881	1131
679.929	629
679.978	662
680.026	-164
680.075	408
680.123	312
680.172	616
680.220	-679
680.268	1807
680.317	234
680.365	972
680.414	-286
680.462	719
680.510	1150
680.559	934
680.607	-303
680.655	694
680.703	761
680.752	248
680.800	950
680.848	613
680.896	243
680.945	852
680.993	359
681.041	711
681.089	551
681.137	878
681.185	204
681.233	883
681.258	410
681.281	-49
681.329	686
681.377	382
681.380	390
681.425	330
681.473	999
681.502	1040
681.521	1042
681.569	931
681.617	958
681.624	905
681.665	513
681.713	833
681.745	645
681.761	531
681.809	337
681.857	1066
681.867	1131
681.904	1320
681.952	427
681.989	458
682.000	457
682.048	207
682.096	1006
682.111	995
682.143	924
682.191	1045
682.233	913
682.239	884
682.286	978
682.334	1148
682.354	831
682.382	382
682.430	729
682.476	1461
682.477	1467
682.525	577
682.572	663
682.598	412
682.620	190
682.667	1098
682.715	915
682.720	913
682.763	749
682.810	999
682.841	1061
682.857	1100
682.905	235
682.952	1632
682.963	1482
683.000	859
683.047	1176
683.085	1686
683.095	1819
683.142	1409
683.190	1122
683.206	939
683.237	537
683.284	1291
683.328	1112
683.332	1096
683.379	1460
683.426	1078
683.449	913
683.473	713
683.521	974
683.568	1319
683.571	1338
683.615	1488
683.662	1802
683.693	1386
683.709	1140
683.757	1079
683.804	939
683.814	881
683.851	691
683.898	1746
683.936	1433
683.945	1336
683.992	1247
684.039	1216
684.057	1482
684.086	1924
684.133	930
684.179	1600
684.180	1615
684.227	1624
684.274	1988
684.300	2036
684.321	2005
684.368	1559
684.415	1225
684.422	1272
684.462	1647
684.509	2071
684.543	1790
684.556	1649
684.603	1954
684.649	1986
684.665	1846
684.696	1532
684.743	1754
684.786	1833
684.790	1847
684.837	1785
684.883	1891
684.908	2097
684.930	2222
684.977	2709
685.023	2325
685.029	2271
685.070	1679
685.117	1639
685.150	1940
685.164	2133
685.210	1960
685.257	2092
685.272	2302
685.303	2631
685.350	2574
685.393	2031
685.396	1990
685.443	2144
685.490	2255
685.514	2544
685.536	2747
685.583	2541
685.629	2519
685.636	2518
685.675	2440
685.722	2267
685.757	2165
685.768	2147
685.815	2237
685.861	2364
685.878	2389
685.908	2520
685.954	2359
686.000	3006
686.000	3011
686.047	2915
686.093	3808
686.121	3700
686.139	3526
686.185	2586
686.232	2460
686.242	2417
686.278	2377
686.324	2446
686.363	1821
686.370	1720
686.416	2788
686.463	2399
686.484	2637
686.509	2909
686.555	2127
686.601	2754
686.606	2775
686.647	2795
686.693	2705
686.727	2198
686.739	2065
686.785	3501
686.831	2550
686.848	2830
686.877	3231
686.923	2614
686.969	3075
686.969	3078
687.015	2419
687.061	3095
687.090	2860
687.107	2615
687.153	2946
687.199	2381
687.211	2213
687.245	2052
687.291	2793
687.332	3456
687.336	3506
687.382	2971
687.428	2789
687.453	3104
687.474	3338
687.520	2920
687.565	3180
687.574	3065
687.611	2550
687.657	2923
687.695	3217
687.702	3338
687.748	3205
687.794	3978
687.816	3687
687.839	3101
687.885	3597
687.931	2795
687.937	2820
687.976	3109
688.022	2850
688.058	2947
688.067	3013
688.113	2727
688.158	2641
688.179	2886
688.204	3118
688.249	3773
688.295	3029
688.300	3086
688.340	3576
688.386	3643
688.421	3445
688.431	3352
688.477	3069
688.522	3187
688.542	3187
688.567	3278
688.613	3228
688.658	3246
688.663	3229
688.703	3091
688.749	3161
688.784	3574
688.794	3671
688.839	2856
688.884	3009
688.905	2945
688.930	2931
688.975	3392
689.020	2873
689.026	2887
689.065	3078
689.110	3305
689.146	3438
689.155	3477
689.201	2993
689.246	3427
689.267	3379
689.291	3258
689.336	3589
689.381	3207
689.388	3198
689.426	3317
689.471	3694
689.509	3666
689.516	3637
689.561	3569
689.606	3621
689.630	3595
689.651	3658
689.696	3149
689.741	3823
689.750	3772
689.785	3512
689.830	3407
689.871	3512
689.875	3533
689.920	3472
689.965	4032
689.992	3625
690.010	3429
690.054	3574
690.099	3687
690.112	3795
690.144	3841
690.189	3278
690.233	3477
690.233	3485
690.278	3581
690.323	3511
690.354	3753
690.367	3868
690.412	3915
690.457	4177
690.474	4389
690.501	4612
690.546	3932
690.590	4047
690.595	4037
690.635	4500
690.680	4579
690.716	5150
690.724	5312
690.769	6176
690.813	7103
690.836	7346
690.857	7996
690.902	9091
690.946	11246
690.957	11637
690.991	15194
691.035	21454
691.077	27612
691.080	27691
691.124	24962
691.168	22170
691.198	20495
691.213	18755
691.257	14121
691.301	10181
691.318	8425
691.346	7512
691.390	6841
691.434	5415
691.439	5263
691.478	5098
691.522	5084
691.559	5108
691.567	5107
691.611	5108
691.655	5163
691.680	4794
691.699	4541
691.743	4765
691.787	4651
691.800	4562
691.831	4517
691.875	4411
691.919	4443
691.921	4432
691.964	4342
692.008	4567
692.041	4504
692.052	4511
692.096	4343
692.139	4634
692.162	4613
692.183	4580
692.227	4515
692.271	4780
692.282	4701
692.315	4677
692.359	4980
692.402	5238
692.403	5247
692.447	4752
692.490	4310
692.523	4452
692.534	4675
692.578	4765
692.622	5083
692.643	5099
692.666	4842
692.709	5064
692.753	4188
692.763	4226
692.797	4712
692.840	4728
692.884	4916
692.884	4928
692.928	4833
692.971	5021
693.004	4860
693.015	4809
693.059	4946
693.102	4980
693.124	4862
693.146	4882
693.189	5071
693.233	5741
693.245	5691
693.276	5723
693.320	6177
693.363	6373
693.365	6371
693.407	6947
693.450	7723
693.485	8400
693.493	8739
693.537	9847
693.580	11637
693.605	12461
693.624	14121
693.667	18215
693.710	22400
693.725	23957
693.753	31640
693.797	44667
693.840	58156
693.845	59286
693.883	54659
693.926	48307
693.966	43267
693.970	42258
694.013	32111
694.056	21640
694.086	14642
694.099	14050
694.142	12026
694.185	10198
694.206	9082
694.229	8581
694.272	8264
694.315	7458
694.326	7275
694.358	7098
694.401	7016
694.444	6638
694.446	6609
694.487	6650
694.530	6797
694.566	6518
694.573	6402
694.616	5878
694.659	5414
694.686	5293
694.702	5455
694.745	5090
694.787	5281
694.806	5280
694.830	5182
694.873	5189
694.916	4665
694.926	4624
694.959	4787
695.002	5079
695.044	5181
695.046	5164
695.087	5131
695.130	5453
695.166	5419
695.172	5405
695.215	5445
695.258	5201
695.286	5461
695.301	5609
695.343	5339
695.386	5266
695.406	5238
695.428	5224
695.471	5137
695.514	4871
695.526	4873
695.556	4977
695.599	5194
695.641	5029
695.646	5004
695.684	4981
695.726	5055
695.766	5056
695.769	5077
695.811	5127
695.854	5432
695.886	5518
695.896	5493
695.938	4912
695.981	4964
696.005	4825
696.023	4852
696.065	4907
696.108	5010
696.125	4979
696.150	5044
696.192	5372
696.235	5392
696.245	5449
696.277	5562
696.319	5488
696.361	5564
696.365	5538
696.404	5684
696.446	6024
696.485	6318
696.488	6309
696.530	5764
696.572	5458
696.604	4999
696.614	4953
696.656	4962
696.698	4657
696.724	4659
696.740	4766
696.783	4688
696.825	4883
696.844	4911
696.867	5152
696.909	5558
696.951	5917
696.964	6045
696.992	5782
697.034	5280
697.076	4825
697.083	4730
697.118	5050
697.160	5399
697.202	5802
697.203	5793
697.244	5613
697.286	5471
697.323	5296
697.327	5326
697.369	5446
697.411	5570
697.442	5643
697.453	5664
697.494	5640
697.536	5707
697.562	5718
697.578	5677
697.620	5509
697.661	5220
697.682	5125
697.703	5266
697.744	5474
697.786	5779
697.801	5825
697.828	5875
697.869	5936
697.911	6002
697.921	6016
697.952	6059
697.994	6054
698.035	5989
698.040	5974
698.077	5944
698.118	5812
698.160	5737
698.160	5719
698.201	5459
698.243	5161
698.279	4946
698.284	4999
698.325	5325
698.367	5626
698.399	5850
698.408	5841
698.449	5697
698.491	5587
698.518	5475
698.532	5515
698.573	5609
698.614	5665
698.638	5698
698.656	5725
698.697	5730
698.738	5748
698.757	5729
698.779	5781
698.820	5867
698.862	5932
698.877	5942
698.903	6196
698.944	6569
698.985	6953
698.996	7039
699.026	6796
699.067	6439
699.116	5995
699.235	5714
699.354	5989
699.474	5926
699.593	7517
699.713	7445
699.832	6711
699.951	6276
700.070	6338
700.190	5667
700.309	6348
700.428	6613
700.547	6378
700.667	4864
700.786	6154
700.905	5889
701.024	6079
701.143	5762
701.262	5896
701.381	6070
701.500	5739
701.619	5299
701.738	5080
701.857	5998
701.976	5296
702.095	4652
702.214	5536
702.333	4733
702.452	5222
702.571	5064
702.690	4988
702.809	5659
702.928	4939
703.047	5438
703.165	5478
703.284	4627
703.403	5212
703.522	5802
703.640	6080
703.759	6401
703.878	8316
703.997	5916
704.115	5008
704.234	5284
704.353	5395
704.471	4784
704.590	4522
704.708	3979
704.827	4623
704.946	4728
705.064	5003
705.183	4735
705.301	5576
705.420	7466
705.538	7766
705.656	6897
705.775	8304
705.893	18031
706.012	21831
706.130	7485
706.249	7356
706.367	7380
706.485	7253
706.604	6813
706.722	6970
706.840	7799
706.958	8952
707.077	6971
707.195	5875
707.313	5577
707.431	6142
707.549	5675
707.668	4973
707.786	6353
707.904	5953
708.022	5362
708.140	6358
708.258	5698
708.376	6363
708.494	5178
708.612	7347
708.730	9004
708.848	8652
708.966	7572
709.084	6889
709.202	7196
709.320	7055
709.438	6023
709.556	7912
709.674	7436
709.791	7491
709.909	6648
710.027	7118
710.145	6025
710.263	7937
710.380	7060
710.498	7261
710.616	6930
710.733	6972
710.851	7080
710.969	7858
711.086	7247
711.204	6402
711.322	6028
711.439	6539
711.557	7024
711.674	6870
711.792	6849
711.909	8184
712.027	7979
712.144	5761
712.262	6636
712.379	8451
712.497	9865
712.614	10085
712.732	7953
712.849	7846
712.966	7927
713.084	9133
713.201	8306
713.318	8437
713.436	8060
713.553	8335
713.670	8532
713.787	8317
713.905	8869
714.022	7915
714.139	7427
714.256	9087
714.373	8895
714.490	11081
714.608	19200
714.725	68015
714.842	65993
714.959	9689
715.076	7503
715.193	8018
715.310	7199
715.427	7178
715.544	7013
715.661	7305
715.778	6065
715.895	7257
716.011	7842
716.128	6916
716.245	6704
716.362	7216
716.479	7321
716.596	7494
716.713	6429
716.829	6041
716.946	6253
717.063	5935
717.180	5960
717.296	6301
717.413	6389
717.530	6518
717.646	5765
717.763	6284
717.880	5827
717.996	5712
718.113	6248
718.229	6671
718.346	5368
718.462	5721
718.579	7596
718.695	9132
718.812	8160
718.928	7923
719.045	5992
719.161	5385
719.277	5486
719.394	5329
719.510	6362
719.626	5547
719.743	6504
719.859	7429
719.975	8315
720.092	19963
720.208	37003
720.324	8586
720.440	5818
720.557	6084
720.673	8505
720.789	12693
720.905	25209
721.021	8336
721.137	4894
721.253	5609
721.369	5764
721.486	7192
721.602	8075
721.718	5182
721.834	5340
721.950	5936
722.066	5556
722.181	5230
722.297	5446
722.413	5434
722.529	4631
722.645	4618
722.761	4967
722.877	5190
722.993	4000
723.108	5386
723.224	4724
723.340	4288
723.456	4856
723.571	6146
723.687	3534
723.803	4761
723.918	3421
724.034	4985
724.150	5125
724.265	5563
724.381	10949
724.497	11884
724.612	4003
724.728	4599
724.843	4667
724.959	4737
725.074	9276
725.190	10349
725.305	4258
725.421	4182
725.536	4169
725.651	4990
725.767	3513
725.882	4565
725.997	3941
726.113	4623
726.228	4611
726.343	3584
726.459	4018
726.574	3974
726.689	3531
726.804	4553
726.920	3569
727.035	3668
727.150	3657
727.265	3529
727.380	3794
727.495	4543
727.610	3808
727.725	4417
727.841	5258
727.956	12633
728.071	8279
728.186	4197
728.301	2376
728.416	4227
728.531	3746
728.645	3361
728.760	3613
728.875	4288
728.990	3796
729.105	3946
729.220	3768
729.335	4392
729.449	3586
729.564	2808
729.679	3507
729.794	2691
729.908	3809
730.023	3889
730.138	3024
730.253	3426
730.367	2372
730.482	2730
730.596	3205
730.711	3106
730.826	3926
730.940	3657
731.055	3840
731.169	2590
731.284	3337
731.398	2831
731.513	3926
731.627	3328
731.742	4055
731.856	3561
731.970	3019
732.085	3643
732.199	3470
732.313	4682
732.428	7258
732.542	18507
732.656	10418
732.771	4182
732.885	3852
732.999	4027
733.113	2956
733.227	4301
733.342	2657
733.456	2959
733.570	2591
733.684	3679
733.798	2803
733.912	3286
734.026	2693
734.140	3102
734.254	3661
734.368	6550
734.482	7268
734.596	3677
734.710	2854
734.824	3424
734.938	2416
735.052	3300
735.166	3349
735.280	3871
735.393	2968
735.507	3486
735.621	3851
735.735	6614
735.849	3823
735.962	3190
736.076	3117
736.190	4199
736.303	4443
736.417	5722
736.531	2779
736.644	2394
736.758	2074
736.872	2328
736.985	2769
737.099	3573
737.212	2537
737.326	3443
737.439	2914
737.553	3051
737.666	2534
737.780	2522
737.893	2403
738.007	3404
738.120	1959
738.233	3155
738.347	1986
738.460	2826
738.573	2952
738.687	2673
738.800	2946
738.913	3762
739.026	3645
739.140	2860
739.253	2915
739.366	2912
739.479	1842
739.592	2444
739.705	2614
739.818	2909
739.932	3088
740.045	2235
740.158	1920
740.271	3685
740.384	2395
740.497	2775
740.610	3100
740.723	3133
740.836	2347
740.949	3040
741.062	3982
741.174	2604
741.287	3049
741.400	2257
741.513	2431
741.626	3105
741.739	2234
741.851	2260
741.964	2275
742.077	2610
742.189	3079
742.302	4182
742.415	3471
742.527	2870
742.640	2062
742.753	2816
742.865	2489
742.978	2776
743.090	3240
743.203	2947
743.316	1943
743.428	2503
743.541	2242
743.653	2564
743.766	1414
743.878	2598
743.990	3284
744.103	4355
744.215	3716
744.327	2384
744.440	2959
744.552	3809
744.664	2130
744.777	2758
744.889	1644
745.001	3870
745.113	2027
745.226	1988
745.338	2232
745.450	2293
745.562	2269
745.674	2397
745.786	1258
745.898	2146
746.010	2086
746.122	1794
746.234	2802
746.347	3101
746.459	2237
746.570	2930
746.682	4001
746.794	5917
746.906	2925
747.018	2314
747.130	2309
747.242	2596
747.354	1992
747.466	1729
747.577	2292
747.689	2251
747.801	2387
747.913	2471
748.024	2084
748.136	1842
748.248	2386
748.359	2634
748.471	2306
748.583	1579
748.694	3473
748.806	4564
748.918	2736
749.029	2855
749.141	2311
749.252	2803
749.364	1962
749.475	3674
749.587	3299
749.698	2710
749.809	2403
749.921	2323
750.032	1807
750.144	2552
750.255	2175
750.366	2330
750.478	1240
750.589	2378
750.700	1886
750.811	2153
750.923	2257
751.034	4564
751.145	3294
751.256	2239
751.367	1456
751.479	2897
751.590	1174
751.701	2188
751.812	1864
751.923	2276
752.034	2437
752.145	1991
752.256	1642
752.367	2281
752.478	1818
752.589	2830
752.700	1609
752.811	1840
752.922	2463
753.032	1742
753.143	1899
753.254	1854
753.365	2460
753.476	1649
753.586	2062
753.697	1881
753.808	1721
753.919	2684
754.029	1696
754.140	2381
754.251	2590
754.361	2221
754.472	1754
754.582	1804
754.693	2025
754.804	3073
754.914	1266
755.025	2565
755.135	1877
755.246	2555
755.356	2400
755.466	2236
755.577	2590
755.687	2914
755.798	1813
755.908	2119
756.018	2217
756.129	2700
756.239	2285
756.349	2801
756.460	1678
756.570	2903
756.680	2661
756.790	2608
756.900	2748
757.011	3027
757.121	2081
757.231	2012
757.341	1991
757.451	2589
757.561	1777
757.671	2274
757.781	1562
757.891	3224
758.001	1272
758.111	2959
758.221	3030
758.331	3428
758.441	2624
758.551	3122
758.661	3065
758.771	2727
758.880	2627
758.990	3269
759.100	3619
759.210	3201
759.320	2578
759.429	3015
759.539	3348
759.649	3025
759.758	3303
759.868	3753
759.978	3174
760.087	3740
760.197	4046
760.307	4144
760.416	3443
760.526	3732
760.635	3789
760.745	4645
760.854	4110
760.964	4505
761.073	4296
761.182	4710
761.292	4240
761.401	4759
761.511	3967
761.620	5037
761.729	4374
761.839	5099
761.948	5846
762.057	5944
762.166	5049
762.276	4164
762.385	5724
762.494	6110
762.603	5546
762.712	5743
762.822	6040
762.931	7101
763.040	5768
763.149	6405
763.258	7059
763.367	8035
763.476	8186
763.585	7629
763.694	8818
763.803	9082
763.912	9912
764.021	10176
764.130	10938
764.238	12255
764.347	11170
764.456	12813
764.565	13899
764.674	15087
764.783	17031
764.891	18652
765.000	21461
765.109	25086
765.217	27207
765.326	33232
765.435	40256
765.543	50758
765.652	61625
765.761	84124
765.869	117272
765.978	173303
766.086	271902
766.195	444095
766.303	673530
766.412	627481
766.520	660901
766.629	558716
766.737	332813
766.846	205290
766.954	139101
767.062	101978
767.171	78803
767.279	59760
767.387	47387
767.496	40764
767.604	35826
767.712	30732
767.820	27507
767.928	25980
768.037	22630
768.145	21973
768.253	21995
768.361	20003
768.469	20887
768.577	20724
768.685	22002
768.793	22856
768.901	25463
769.009	31585
769.117	36793
769.225	48752
769.333	69818
769.441	111844
769.549	192024
769.657	363478
769.765	599584
769.873	586994
769.981	499549
770.088	255616
770.196	139230
770.304	90763
770.412	64011
770.519	47807
770.627	38002
770.735	30204
770.842	25959
770.950	22400
771.058	19088
771.165	17428
771.273	15644
771.380	14324
771.488	12746
771.595	12286
771.703	11672
771.810	10764
771.918	9905
772.025	8631
772.133	7967
772.240	7493
772.348	7354
772.455	7501
772.562	7255
772.670	6937
772.777	6820
772.884	5796
772.991	5914
773.099	6108
773.206	4337
773.313	6223
773.420	5447
773.528	4802
773.635	4305
773.742	4867
773.849	5397
773.956	4425
774.063	4297
774.170	4371
774.277	5046
774.384	4712
774.491	3404
774.598	3815
774.705	3814
774.812	3563
774.919	3595
775.026	4788
775.133	3236
775.239	4316
775.346	3648
775.453	2873
775.560	3326
775.667	2698
775.773	1672
775.880	3712
775.987	3097
776.093	3449
776.200	2674
776.307	2739
776.413	3495
776.520	3215
776.627	3256
776.733	2966
776.840	2476
776.946	5002
777.053	5557
777.159	10570
777.266	5507
777.372	9063
777.478	6866
777.585	4626
777.691	2755
777.798	3282
777.904	3263
778.010	5079
778.117	2504
778.223	2723
778.329	1674
778.435	2366
778.542	2397
778.648	3365
778.754	1389
778.860	2808
778.966	1856
779.072	2682
779.178	2104
779.284	1967
779.391	2592
779.497	2855
779.603	6054
779.708	7603
779.815	22137
779.920	83920
780.026	98309
780.132	11869
780.238	2770
780.344	3325
780.450	3585
780.556	3177
780.661	1818
780.767	2003
780.873	1551
780.979	2364
781.085	852
781.190	2656
781.296	870
781.402	1386
781.507	1357
781.613	2508
781.719	1125
781.824	1808
781.930	2776
782.035	2108
782.141	1483
782.246	1949
782.352	1935
782.457	1473
782.563	1319
782.668	1673
782.773	2039
782.879	818
782.984	1558
783.090	3043
783.195	2365
783.300	2459
783.405	1962
783.511	1068
783.616	2053
783.721	1067
783.826	1506
783.932	1831
784.037	2198
784.142	2028
784.247	391
784.352	1784
784.457	1724
784.562	1500
784.667	1188
784.772	1541
784.877	951
784.982	2079
785.087	723
785.192	2110
785.297	790
785.402	919
785.507	504
785.611	1562
785.716	996
785.821	1344
785.926	959
786.031	1198
786.135	1173
786.240	1849
786.345	-180
786.450	1311
786.554	167
786.659	1085
786.763	-595
786.868	1654
786.973	1289
787.077	1310
787.182	194
787.286	1176
787.391	1871
787.495	220
787.600	1036
787.704	1651
787.809	717
787.913	615
788.017	880
788.122	1255
788.226	1212
788.330	1003
788.435	112
788.539	563
788.643	757
788.747	263
788.852	-291
788.956	196
789.060	1023
789.164	1426
789.268	827
789.372	1120
789.476	517
789.580	1026
789.684	728
789.788	949
789.892	405
789.996	1799
790.100	642
790.204	758
790.308	532
790.412	881
790.516	1014
790.620	996
790.724	812
790.828	216
790.931	9
791.035	2270
791.139	819
791.242	688
791.346	999
791.450	640
791.554	756
791.657	-370
791.761	1606
791.864	1486
791.968	291
792.072	1417
792.175	2
792.279	924
792.382	306
792.486	1476
792.589	72
792.693	1490
792.796	-79
792.899	1261
793.003	836
793.106	-1231
793.209	98
793.313	1649
793.416	-202
793.519	1842
793.623	878
793.726	1334
793.829	573
793.932	792
794.035	-435
794.138	1789
794.242	1382
794.345	2376
794.448	4309
794.551	11448
794.654	46154
794.757	57323
794.860	7235
794.963	1963
795.066	150
795.169	1696
795.272	721
795.375	1109
795.477	630
795.580	1336
795.683	-908
795.786	897
795.889	-890
795.991	1805
796.094	2264
796.197	-57
796.300	1332
796.402	-51
796.505	-81
796.608	616
796.710	1061
796.813	353
796.915	407
797.018	17
797.120	192
797.223	-6
797.326	1926
797.428	644
797.530	133
797.633	670
797.735	1351
797.838	1188
797.940	1250
798.042	-434
798.145	-235
798.247	820
798.349	-440
798.452	700
798.554	-508
798.656	-664
798.758	399
798.860	779
798.962	-179
799.065	35
799.167	-734
799.269	971
799.371	1130
799.473	1162
799.575	-410
799.677	1249
799.779	1778
799.881	-953
799.983	1248
800.085	1070
800.187	271
800.289	-172
800.390	-198
800.492	381
800.594	951
800.696	48
800.798	-389
800.899	91
801.001	-318
801.103	474
801.205	-530
801.306	475
801.408	-960
801.509	-83
801.611	262
801.713	1483
801.814	-10
801.916	1240
802.017	147
802.119	-86
802.220	702
802.322	-1303
802.423	1787
802.525	-931
802.626	-499
802.727	497
802.829	502
802.930	-1143
803.031	1647
803.133	-87
803.234	-329
803.335	-172
803.436	-1446
803.538	190
803.639	-575
803.740	904
803.841	-998
803.942	530
804.043	844
804.144	-721
804.245	483
804.346	-261
804.447	-181
804.548	433
804.649	672
804.750	-22
804.851	-35
804.952	-675
805.053	624
805.154	-235
805.255	491
805.355	574
805.456	-153
805.557	332
805.658	-1528
805.758	608
805.859	-276
805.960	75
806.061	-705
806.161	222
806.262	865
806.362	-290
806.463	-660
806.564	490
806.664	399
806.765	1189
806.865	352
806.966	390
807.066	-921
807.166	1040
807.267	167
807.367	-221
807.468	487
807.568	-2011
807.668	9
807.769	518
807.869	-889
807.969	664
808.069	265
808.170	640
808.270	-750
808.370	375
808.470	541
808.570	-596
808.670	-709
808.770	-230
808.870	-230
808.970	148
809.070	-649
809.170	-372
809.271	-159
809.370	335
809.470	422
809.570	193
809.670	-392
809.770	101
809.870	657
809.970	296
810.070	87
810.169	1174
810.269	-1160
810.369	562
810.469	461
810.568	-255
810.668	-584
810.768	-39
810.867	577
810.967	-506
811.066	-313
811.166	146
811.265	826
811.365	9
811.464	-216
811.564	65
811.663	379
811.763	-937
811.862	-546
811.962	660
812.061	-491
812.160	-597
812.260	151
812.359	192
812.458	-347
812.557	2338
812.657	2818
812.756	-62
812.855	367
812.954	-193
813.053	955
813.153	-143
813.252	221
813.351	8
813.450	-7
813.549	-667
813.648	-283
813.747	-300
813.846	1295
813.945	-494
814.044	364
814.143	158
814.242	887
814.341	-94
814.439	130
814.538	370
814.637	217
814.736	564
814.835	1307
814.933	-654
815.032	1322
815.131	64
815.229	-22
815.328	747
815.427	-97
815.525	952
815.624	755
815.722	-379
815.821	326
815.919	1166
816.018	-221
816.116	1400
816.215	329
816.313	870
816.412	716
816.510	1823
816.609	2479
816.707	1432
816.805	2026
816.904	1925
817.002	2426
817.100	3078
817.198	3085
817.296	3514
817.395	2807
817.493	6450
817.591	6126
817.689	10525
817.787	13689
817.885	24045
817.983	43315
818.081	90022
818.179	201025
818.277	397583
818.375	298038
818.473	109436
818.571	49095
818.669	31633
818.767	28052
818.865	27947
818.963	34100
819.061	48831
819.158	83233
819.256	164587
819.354	337311
819.452	519547
819.549	337188
819.647	143512
819.745	68027
819.842	40075
819.940	26660
820.038	19346
820.135	14929
820.233	12736
820.330	8523
820.428	8007
820.525	8009
820.623	5558
820.720	3809
820.818	4460
820.915	4325
821.012	4287
821.110	2308
821.207	3722
821.304	1293
821.402	2958
821.499	3621
821.596	3909
821.693	2382
821.791	2438
821.888	1691
821.985	3648
822.082	1431
822.179	2506
822.276	615
822.373	1551
822.470	610
822.567	927
822.664	662
822.761	2070
822.858	89
822.955	1434
823.052	548
823.149	1015
823.246	-165
823.343	246
823.440	245
823.536	431
823.633	-516
823.730	355
823.827	217
823.923	276
824.020	1333
824.117	821
824.213	-1078
824.310	1234
824.407	-190
824.503	887
824.600	-533
824.696	-593
824.793	288
824.889	-49
824.986	-339
825.082	-231
825.179	137
825.275	321
825.371	-476
825.468	811
825.564	-1135
825.660	647
825.757	71
825.853	-27
825.949	-439
826.045	851
826.142	-801
826.238	127
826.334	335
826.430	-1068
826.526	60
826.622	-764
826.718	-536
826.814	-860
826.910	178
827.006	-833
827.102	-449
827.198	242
827.294	-811
827.390	-587
827.486	346
827.582	-1397
827.678	-1417
827.774	272
827.869	-1299
827.965	1443
828.061	-1055
828.157	-491
828.252	-299
828.348	-781
828.444	497
828.539	-434
828.635	-470
828.731	216
828.826	-861
828.922	313
829.017	-993
829.113	832
829.208	-598
829.304	-709
829.399	-15
829.495	-947
829.590	-361
829.685	-1407
829.781	-395
829.876	-951
829.971	-609
830.066	-633
830.162	-328
830.257	-293
830.352	-685
830.447	289
830.543	-59
830.638	-1448
830.733	-32
830.828	-928
830.923	32
831.018	-654
831.113	-812
831.208	-1228
831.303	-382
831.398	155
831.493	-958
831.588	228
831.683	-1769
831.778	49
831.873	249
831.967	77
832.062	-1019
832.157	-1363
832.252	-686
832.346	-417
832.441	639
832.536	822
832.631	1599
832.725	706
832.820	-1136
832.914	-1190
833.009	-757
833.104	-747
833.198	-37
833.293	-1427
833.387	-747
833.482	-754
833.576	-877
833.670	-991
833.765	-797
833.859	-968
833.954	-1040
834.048	-407
834.142	-485
834.237	-103
834.331	-802
834.425	-377
834.519	-757
834.613	-119
834.708	-1437
834.802	-606
834.896	-501
834.990	-800
835.084	-956
835.178	-612
835.272	-384
835.366	-465
835.460	-675
835.554	-1508
835.648	-605
835.742	-449
835.836	-972
835.930	-1132
836.024	112
836.117	771
836.211	-814
836.305	388
836.399	1112
836.493	-1417
836.586	-507
836.680	-626
836.774	-1461
836.867	296
836.961	-1693
837.055	-568
837.148	-651
837.242	-656
837.335	-1107
837.429	-136
837.522	-1378
837.616	-297
837.709	1009
837.803	-217
837.896	-189
837.989	-378
838.083	-270
838.176	1884
838.269	243
838.363	441
838.456	-280
838.549	-32
838.642	44
838.735	1503
838.829	443
838.922	-660
839.015	-934
839.108	-1586
839.201	-620
839.294	198
839.387	-1062
839.480	-842
839.573	-453
839.666	65
839.759	-860
839.852	-1092
839.945	-747
840.038	-654
840.131	-978
840.223	-620
840.316	-782
840.409	-546
840.502	-1401
840.594	458
840.687	-1712
840.780	100
840.873	-1568
840.965	179
841.058	-658
841.150	1680
841.243	-895
841.336	-613
841.428	-889
841.521	-995
841.613	-1462
841.706	-180
841.798	-533
841.890	-1050
841.983	-1701
842.075	-661
842.167	-1057
842.260	-1036
842.352	-175
842.444	-77
842.537	1532
842.629	2117
842.721	-615
842.813	-872
842.905	-1865
842.997	-684
843.090	-521
843.182	-27
843.274	907
843.366	5130
843.458	8780
843.550	4891
843.642	-806
843.734	22
843.826	-585
843.918	-339
844.009	-390
844.101	-705
844.193	-560
844.285	-1330
844.377	-231
844.469	995
844.560	-151
844.652	-441
844.744	-203
844.835	-355
844.927	-219
845.019	-34
845.110	-1200
845.202	-1297
845.293	-1294
845.385	-846
845.476	-948
845.568	41
845.659	-829
845.751	-33
845.842	-551
845.934	-1414
846.025	-1169
846.116	-391
846.208	-806
846.299	-523
846.390	-411
846.482	-274
846.573	-12
846.664	33
846.755	-337
846.846	17
846.937	-1483
847.029	-700
847.120	-1280
847.211	-419
847.302	-329
847.393	-1167
847.484	-418
847.575	-1314
847.666	-384
847.757	-746
847.847	-185
847.938	266
848.029	-813
848.120	-1425
848.211	-803
848.302	-1233
848.392	-1279
848.483	-7
848.574	-2064
848.664	-1775
848.755	-1288
848.846	-530
848.936	-1435
849.027	-1420
849.118	-1150
849.208	-1075
849.299	-382
849.389	-76
849.480	34
849.570	1258
849.661	2106
849.751	2757
849.841	50
849.932	-959
850.022	-1474
850.112	-735
850.203	-1128
850.293	-905
850.383	-1063
850.474	-1261
850.564	-1112
850.654	-463
850.744	-780
850.834	-735
850.924	-683
851.014	-687
851.104	-485
851.194	-803
851.284	-835
851.374	-133
851.464	-342
851.554	-617
851.644	-479
851.734	154
851.824	-437
851.914	670
852.004	1636
852.094	320
852.183	-754
852.273	-392
852.363	-1297
852.452	-608
852.542	-130
852.632	-1197
852.721	-1104
852.811	-1258
852.901	-677
852.990	-1382
853.080	-967
853.169	-979
853.259	-1019
853.348	-903
853.438	-364
853.527	-667
853.617	-533
853.706	859
853.795	1407
853.885	5680
853.974	10989
854.063	21810
854.152	28055
854.242	9297
854.331	202
854.420	-771
854.509	-709
854.598	-133
854.687	-801
854.777	-203
854.866	-1133
854.955	55
855.044	-1442
855.133	-693
855.222	-708
855.311	-1575
855.400	-1324
855.488	-557
855.577	-1497
855.666	-576
855.755	613
855.844	520
855.933	-435
856.021	-460
856.110	-424
856.199	-601
856.288	-1397
856.376	-643
856.465	-1329
856.554	-110
856.642	-555
856.731	319
856.819	-1153
856.908	-1861
856.996	-876
857.085	-249
857.173	-1312
857.262	-600
857.350	-754
857.438	-162
857.527	-865
857.615	-647
857.703	-1395
857.792	-1018
857.880	-1086
857.968	-1310
858.056	-603
858.145	-839
858.233	-526
858.321	-1360
858.409	-763
858.497	-1270
858.585	-1091
858.673	-469
858.761	-1798
858.849	-1023
858.937	-1264
859.025	89
859.113	-786
859.201	-509
859.289	-136
859.377	-355
859.465	-354
859.552	-708
859.640	-1446
859.728	-166
859.816	-1332
859.903	-544
859.991	-1012
860.079	-1542
860.166	-1313
860.254	-1392
860.342	-669
860.429	-231
860.517	-1582
860.604	-919
860.692	-801
860.779	-523
860.867	-1660
860.954	-1186
861.042	-876
861.129	-794
861.216	-124
861.304	-1236
861.391	-538
861.478	-1727
861.565	-942
861.653	-233
861.740	-905
861.827	-535
861.914	-1113
862.001	-1159
862.089	-1108
862.176	-1121
862.263	-966
862.350	-259
862.437	-1509
862.524	-1131
862.611	-1031
862.698	-116
862.785	-392
862.871	214
862.958	-1978
863.045	-847
863.132	-911
863.219	-807
863.306	-1935
863.392	-326
863.479	-771
863.566	-988
863.652	-1051
863.739	-998
863.826	-965
863.912	-593
863.999	-828
864.086	-1439
864.172	-992
864.259	-534
864.345	-1257
864.432	-666
864.518	-929
864.604	-660
864.691	-1716
864.777	-114
864.863	93
864.950	-764
865.036	-1406
865.122	-26
865.209	-713
865.295	-528
865.381	-791
865.467	-158
865.553	-626
865.639	-384
865.726	-62
865.812	1691
865.898	4729
865.984	7453
866.070	15368
866.156	12551
866.242	1071
866.328	323
866.414	-1062
866.499	-788
866.585	-1883
866.671	-876
866.757	-558
866.843	-819
866.928	-1371
867.014	-484
867.100	-1076
867.186	-489
867.271	-74
867.357	148
867.442	417
867.528	-226
867.614	-1261
867.699	-544
867.785	-14
867.870	-6
867.956	1210
868.041	327
868.127	-37
868.212	1042
868.297	-486
868.383	-354
868.468	433
868.553	365
868.639	63
868.724	2001
868.809	1070
868.894	-747
868.979	-1080
869.065	-543
869.150	-831
869.235	-367
869.320	-1089
869.405	-1709
869.490	-1508
869.575	-694
869.660	-351
869.745	-442
869.830	-1565
869.915	-858
870.000	-634
870.085	15
870.169	-698
870.254	-892
870.339	-1030
870.424	-888
870.509	-692
870.593	-1365
870.678	-984
870.763	-1145
870.847	-972
870.932	-1250
871.016	-1287
871.101	-752
871.186	-931
871.270	-671
871.355	-1168
871.439	-576
871.523	-503
871.608	-1005
871.692	-1054
871.777	-336
871.861	-1119
871.945	-689
872.030	-335
872.114	-1395
872.198	-1140
872.282	-587
872.367	-1263
872.451	-1018
872.535	-1549
872.619	-790
872.703	-1192
872.787	-671
872.871	-1489
872.955	-909
873.039	-1530
873.123	-633
873.207	-207
873.291	-656
873.375	-1953
873.459	-126
873.543	-1509
873.627	-410
873.711	-577
873.794	-482
873.878	-2092
873.962	-1393
874.045	-1272
874.129	-349
874.137	-427
874.213	-1203
874.245	-845
874.296	-270
874.352	-837
874.380	-1114
874.460	-1086
874.464	-1086
874.547	-1024
874.568	-929
874.631	-613
874.676	-1033
874.714	-1412
874.784	-519
874.798	-333
874.881	413
874.892	195
874.965	-1357
874.999	-1284
875.048	-1157
875.107	-842
875.131	-733
875.215	-797
875.215	-797
875.298	-656
875.323	-738
875.381	-938
875.430	-1118
875.465	-1197
875.538	-732
875.548	-685
875.631	-266
875.646	-480
875.714	-1466
875.753	-1431
875.798	-1402
875.861	-984
875.881	-825
875.964	-446
875.968	-443
876.047	-546
876.076	-394
876.130	-40
876.183	-759
876.213	-1162
876.291	-7
876.296	73
876.379	-775
876.398	-566
876.462	25
876.506	-217
876.545	-357
876.613	34
876.628	91
876.711	-755
876.721	-650
876.794	342
876.828	97
876.877	-391
876.935	-170
876.960	-13
877.043	-831
877.043	-825
877.125	849
877.150	732
877.208	565
877.258	621
877.291	606
877.365	148
877.374	105
877.456	-79
877.472	8
877.539	257
877.579	488
877.622	780
877.687	444
877.704	347
877.787	755
877.794	628
877.869	-492
877.901	41
877.952	684
878.008	548
878.034	573
878.115	711
878.117	713
878.199	-56
878.222	103
878.282	533
878.329	320
878.364	150
878.437	440
878.447	507
878.529	-224
878.544	-129
878.611	54
878.651	42
878.694	326
878.758	699
878.776	702
878.858	706
878.865	689
878.941	614
878.972	225
879.023	-433
879.078	-227
879.105	-19
879.185	35
879.187	31
879.269	508
879.292	426
879.351	463
879.399	415
879.433	305
879.506	178
879.516	183
879.598	310
879.613	202
879.680	-245
879.720	-63
879.762	254
879.827	542
879.844	544
879.926	564
879.933	556
880.007	583
880.040	555
880.089	459
880.147	452
880.171	618
880.253	1829
880.254	1826
880.335	2075
880.360	2538
880.417	4328
880.467	5693
880.499	6436
880.574	7527
880.580	7301
880.662	2568
880.680	1844
880.744	769
880.787	150
880.825	258
880.893	611
880.907	549
880.989	431
881.000	335
881.070	633
881.106	568
881.152	78
881.213	189
881.233	401
881.315	1032
881.319	1049
881.396	709
881.426	371
881.478	263
881.532	664
881.559	641
881.639	362
881.641	373
881.722	622
881.745	748
881.803	852
881.852	593
881.885	463
881.958	428
881.966	431
882.047	798
882.064	697
882.129	711
882.171	1445
882.210	2366
882.277	3084
882.291	2962
882.372	1593
882.383	1456
882.454	557
882.489	358
882.535	742
882.596	1027
882.616	955
882.697	596
882.702	556
882.778	898
882.808	1196
882.859	937
882.914	207
882.940	248
883.020	881
883.021	885
883.102	269
883.127	182
883.183	786
883.233	1261
883.264	1256
883.339	1154
883.345	1139
883.426	617
883.445	578
883.507	729
883.551	582
883.587	581
883.657	958
883.668	996
883.749	1268
883.763	1218
883.830	1151
883.869	1222
883.910	880
883.975	490
883.991	638
884.072	1028
884.081	1090
884.152	884
884.187	621
884.233	685
884.292	1064
884.314	1049
884.394	719
884.398	707
884.475	1286
884.504	1397
884.555	1123
884.610	953
884.636	1071
884.716	1252
884.716	1259
884.797	1088
884.821	964
884.877	1026
884.927	1409
884.958	1575
885.033	1310
885.038	1283
885.118	1006
885.139	893
885.199	893
885.244	1138
885.279	1153
885.350	774
885.359	816
885.439	1341
885.456	1338
885.520	1159
885.561	1357
885.600	1219
885.667	927
885.680	1012
885.760	1227
885.773	1285
885.840	1789
885.878	1981
885.920	1919
885.984	1587
886.000	1394
886.080	856
886.089	767
886.160	1194
886.195	1522
886.240	1562
886.300	1222
886.320	1293
886.400	2098
886.406	2119
886.480	1884
886.511	1843
886.560	2387
886.616	2784
886.640	2481
886.720	1560
886.722	1527
886.800	1573
886.827	1647
886.879	1864
886.932	1898
886.959	1964
887.038	2406
887.039	2410
887.119	1538
887.143	1363
887.198	1709
887.248	1741
887.278	1560
887.354	1452
887.358	1509
887.437	2238
887.459	2455
887.517	1889
887.564	1407
887.596	1717
887.669	2478
887.676	2442
887.755	1663
887.774	1480
887.835	1887
887.880	2198
887.914	2168
887.985	2003
887.994	2011
888.073	2072
888.090	2061
888.153	1992
888.195	1965
888.232	2274
888.300	2728
888.311	2613
888.391	1743
888.405	1589
888.470	1991
888.510	2123
888.549	2034
888.615	2037
888.628	2106
888.708	2336
888.720	2378
888.787	1836
888.825	1437
888.866	1871
888.930	2619
888.945	2613
889.024	2494
889.035	2469
889.103	2412
889.140	2347
889.182	2382
889.245	2440
889.261	2481
889.340	2602
889.349	2610
889.419	2161
889.454	1905
889.498	2147
889.559	2487
889.577	2430
889.656	2129
889.664	2093
889.735	2730
889.768	3013
889.814	2829
889.873	2564
889.978	2761
890.083	2561
890.187	2412
890.292	2360
890.397	2426
890.501	2566
890.606	2293
890.710	2912
890.815	2695
890.919	2018
891.024	3121
891.128	2475
891.233	2710
891.337	1455
891.442	3059
891.546	2081
891.650	2169
891.755	2677
891.859	3461
891.963	2244
892.068	2652
892.172	1829
892.276	1809
892.380	1643
892.484	2566
892.589	2025
892.693	2983
892.797	956
892.901	2411
893.005	1756
893.109	2699
893.213	1583
893.317	1957
893.421	2048
893.525	2488
893.629	1202
893.733	2256
893.837	1067
893.941	2282
894.045	2866
894.148	3106
894.252	5485
894.356	3063
894.460	2528
894.564	2805
894.667	1617
894.771	2691
894.875	1702
894.978	2072
895.082	1556
895.186	2648
895.289	2037
895.393	2441
895.496	1318
895.600	2057
895.703	1749
895.807	1659
895.910	2087
896.014	2016
896.117	1045
896.221	2580
896.324	1416
896.427	2185
896.531	1891
896.634	2071
896.737	1504
896.840	2540
896.944	742
897.047	1871
897.150	1705
897.253	2185
897.356	1609
897.460	1956
897.563	1185
897.666	1349
897.769	1508
897.872	2838
897.975	1244
898.078	2267
898.181	1686
898.284	2479
898.387	942
898.490	2261
898.593	1738
898.695	2178
898.798	1491
898.901	2645
899.004	2003
899.107	1285
899.209	1691
899.312	1903
899.415	1115
899.518	2281
899.620	1498
899.723	2303
899.826	3464
899.928	4628
900.031	1372
900.133	1503
900.236	1641
900.338	2027
900.441	1070
900.543	1653
900.646	1273
900.748	1371
900.851	1491
900.953	2518
901.055	2036
901.158	1623
901.260	1665
901.362	1570
901.465	1226
901.567	2384
901.669	1076
901.771	1782
901.873	1065
901.976	2134
902.078	791
902.180	1024
902.282	1577
902.384	1189
902.486	1739
902.588	2505
902.690	2671
902.792	2230
902.894	1324
902.996	1455
903.098	1114
903.200	1017
903.302	1499
903.404	1902
903.505	1435
903.607	2220
903.709	1809
903.811	1069
903.913	1646
904.014	1480
904.116	1185
904.218	2872
904.319	1741
904.421	1761
904.523	759
904.624	1950
904.726	1057
904.827	2318
904.929	1092
905.030	1993
905.132	1291
905.233	2482
905.335	1560
905.436	1055
905.537	1966
905.639	1928
905.740	1182
905.841	2179
905.943	1265
906.044	2514
906.145	1802
906.247	2253
906.348	984
906.449	2112
906.550	1797
906.651	1340
906.752	1293
906.854	1671
906.955	1604
907.056	2133
907.157	766
907.258	1960
907.359	563
907.460	1936
907.561	793
907.662	1546
907.762	1386
907.863	974
907.964	1585
908.065	2617
908.166	471
908.267	1870
908.367	1375
908.468	2092
908.569	1644
908.670	2150
908.770	2180
908.871	2730
908.971	2205
909.072	2518
909.173	2240
909.273	2006
909.374	1107
909.474	714
909.575	992
909.675	1494
909.776	1543
909.876	1997
909.977	498
910.077	1759
910.177	1115
910.278	765
910.378	1189
910.478	1759
910.579	894
910.679	1869
910.779	1058
910.879	2059
910.980	406
911.080	1624
911.180	1353
911.280	1168
911.380	1284
911.480	2073
911.580	1135
911.680	1396
911.780	1146
911.880	2557
911.980	1989
912.080	1963
912.180	806
912.280	1702
912.380	1386
912.480	1713
912.580	690
912.679	2346
912.779	971
912.879	2718
912.979	1427
913.078	2093
913.178	641
913.278	2074
913.377	722
913.477	2112
913.577	1324
913.676	2312
913.776	429
913.875	1946
913.975	1595
914.074	1822
914.174	1193
914.273	521
914.373	1275
914.472	1045
914.572	521
914.671	1931
914.770	1422
914.870	1270
914.969	968
915.068	1808
915.167	1087
915.267	1098
915.366	521
915.465	2349
915.564	1333
915.663	2005
915.763	1084
915.862	2378
915.961	1315
916.060	1492
916.159	647
916.258	1537
916.357	1081
916.456	2720
916.555	1147
916.654	1876
916.752	910
916.851	1380
916.950	1071
917.049	1417
917.148	605
917.247	1080
917.345	513
917.444	1214
917.543	1943
917.642	2412
917.740	1155
917.839	1818
917.937	1345
918.036	1969
918.135	998
918.233	1208
918.332	689
918.430	1306
918.529	1325
918.627	1433
918.726	-4
918.824	2043
918.923	1394
919.021	1973
919.119	875
919.218	1565
919.316	1353
919.414	1727
919.512	760
919.611	1199
919.709	1651
919.807	1577
919.905	1431
920.003	2297
920.102	1287
920.200	1148
920.298	868
920.396	1251
920.494	436
920.592	1606
920.690	1389
920.788	1082
920.886	772
920.984	2758
921.082	665
921.180	2423
921.277	892
921.375	1287
921.473	1278
921.571	2380
921.669	1351
921.766	2082
921.864	1582
921.962	1473
922.060	1838
922.157	2214
922.255	1884
922.352	1917
922.450	1713
922.548	978
922.645	1242
922.743	2274
922.840	1796
922.938	2616
923.035	2518
923.133	1781
923.230	1665
923.327	2347
923.425	2312
923.522	2026
923.619	1057
923.717	1444
923.814	1478
923.911	1918
924.008	1278
924.106	1512
924.203	1554
924.300	1732
924.397	1509
924.494	2705
924.591	2095
924.688	1906
924.786	1367
924.883	2125
924.979	1250
925.077	1770
925.173	1744
925.270	1861
925.367	2289
925.464	1605
925.561	2611
925.658	2851
925.755	1998
925.852	2150
925.948	2202
926.045	3163
926.142	2402
926.239	3712
926.335	1838
926.432	3938
926.529	2911
926.625	3289
926.722	1835
926.818	2859
926.915	1378
927.011	2142
927.108	1030
927.204	2165
927.301	1675
927.397	1991
927.494	1215
927.590	1495
927.687	1818
927.783	2214
927.879	1225
927.976	2343
928.072	957
928.168	2285
928.264	1390
928.361	2032
928.457	1703
928.553	1650
928.649	1579
928.745	1461
928.841	691
928.937	2286
929.033	1129
929.129	1797
929.225	1497
929.321	2309
929.417	1401
929.513	1773
929.609	1224
929.705	1774
929.801	1071
929.897	1119
929.993	886
930.089	1689
930.184	1303
930.280	1840
930.376	899
930.471	1875
930.567	260
930.663	1470
930.758	867
930.854	1424
930.950	971
931.045	1747
931.141	1802
931.236	1862
931.332	1623
931.427	1704
931.523	1106
931.618	1628
931.714	255
931.809	1923
931.905	824
932.000	1519
932.095	252
932.191	1696
932.286	900
932.381	1314
932.476	1702
932.572	1424
932.667	1556
932.762	1761
932.857	1194
932.952	1408
933.047	501
933.142	1426
933.237	506
933.332	2183
933.427	1258
933.522	1490
933.617	940
933.712	1463
933.807	1029
933.902	1721
933.997	1040
934.092	906
934.187	1153
934.282	1076
934.376	781
934.471	1470
934.566	562
934.661	1440
934.755	1104
934.850	1387
934.945	1308
935.039	1378
935.134	1072
935.228	820
935.323	558
935.417	1536
935.512	448
935.606	1418
935.701	923
935.795	1813
935.890	1441
935.984	2171
936.079	465
936.173	1245
936.267	1222
936.362	1684
936.456	1353
936.550	2243
936.644	852
936.738	833
936.833	934
936.927	2089
937.021	1862
937.115	1192
937.209	41
937.303	3092
937.397	482
937.491	1790
937.585	396
937.679	976
937.773	749
937.867	1797
937.961	893
938.055	738
938.149	1784
938.243	1670
938.337	663
938.430	833
938.524	924
938.618	2909
938.712	1544
938.805	2092
938.899	1049
938.993	1441
939.086	1635
939.180	3776
939.274	3466
939.367	1580
939.461	386
939.554	833
939.648	106
939.741	300
939.835	929
939.928	1289
940.022	715
940.115	1395
940.208	625
940.302	1285
940.395	677
940.488	171
940.582	946
940.675	808
940.768	29
940.861	1494
940.954	1182
941.048	1211
941.141	1497
941.234	3017
941.327	3169
941.420	3431
941.513	2560
941.606	899
941.699	1172
941.792	1434
941.885	946
941.978	1907
942.071	717
942.164	672
942.257	380
942.349	1278
942.442	118
942.535	742
942.628	573
942.721	977
942.813	-438
942.906	1412
942.999	160
943.091	952
943.184	475
943.277	931
943.369	1434
943.462	1370
943.554	735
943.647	-470
943.739	653
943.832	1432
943.924	319
944.017	775
944.109	653
944.201	1722
944.294	813
944.386	621
944.478	420
944.571	934
944.663	-47
944.755	575
944.847	504
944.940	1431
945.032	-217
945.124	1248
945.216	1057
945.308	899
945.400	532
945.492	1459
945.584	752
945.676	324
945.768	787
945.860	1523
945.952	-733
946.044	362
946.136	377
946.228	-45
946.320	138
946.412	512
946.503	-458
946.595	1753
946.687	166
946.779	221
946.870	204
946.962	470
947.054	454
947.145	1434
947.237	-102
947.329	1412
947.420	-122
947.512	1022
947.603	37
947.695	768
947.786	568
947.878	-63
947.969	295
948.061	1183
948.152	-82
948.243	380
948.335	342
948.426	359
948.517	-95
948.609	533
948.700	444
948.791	1159
948.882	-15
948.973	374
949.065	11
949.156	706
949.247	192
949.338	636
949.429	-68
949.520	736
949.611	-415
949.702	1102
949.793	450
949.884	892
949.975	87
950.066	857
950.157	-317
950.247	1183
950.338	-273
950.429	1329
950.520	1475
950.611	1227
950.701	621
950.792	1908
950.883	1226
950.973	1714
951.064	692
951.155	1011
951.245	696
951.336	1281
951.427	-230
951.517	1860
951.608	427
951.698	1252
951.788	284
951.879	539
951.969	177
952.060	749
952.150	325
952.240	1222
952.331	-1378
952.421	1814
952.511	-324
952.602	942
952.692	618
952.782	1645
952.872	-31
952.962	1291
953.052	556
953.143	437
953.233	938
953.323	1141
953.413	181
953.503	1922
953.593	-444
953.683	684
953.773	234
953.863	280
953.953	377
954.042	1083
954.132	226
954.222	1471
954.312	681
954.402	1077
954.492	1296
954.581	3270
954.671	968
954.761	15
954.850	1033
954.940	753
955.030	-421
955.119	746
955.209	931
955.298	415
955.388	36
955.477	1944
955.567	165
955.656	1527
955.746	1156
955.835	484
955.925	271
956.014	719
956.103	662
956.193	1022
956.282	1228
956.371	911
956.461	819
956.550	1647
956.639	509
956.728	1303
956.817	569
956.906	2175
956.995	736
957.085	1037
957.174	274
957.263	1102
957.352	750
957.441	933
957.530	1126
957.619	853
957.708	628
957.796	1155
957.885	1104
957.974	1111
958.063	1452
958.152	41
958.241	1463
958.329	1125
958.418	1199
958.507	1037
958.596	2386
958.684	1716
958.773	1644
958.861	2776
958.950	2325
959.039	2010
959.127	1069
959.216	2360
959.304	2233
959.393	2669
959.481	1250
959.570	2523
959.658	1435
959.746	2219
959.835	2871
959.923	4921
960.011	2229
960.100	2331
960.188	1690
960.276	1365
960.365	746
960.453	940
960.541	935
960.629	1849
960.717	897
960.805	818
960.893	1271
960.981	576
961.069	2031
961.158	229
961.245	745
961.333	560
961.421	490
961.509	1152
961.597	738
961.685	687
961.773	282
961.861	690
961.949	1244
962.036	636
962.124	1351
962.212	350
962.299	499
962.387	-44
962.475	596
962.562	551
962.650	945
962.738	1519
962.825	-682
962.913	1067
963.000	-41
963.088	786
963.175	473
963.263	1381
963.350	1279
963.438	1303
963.525	1466
963.612	5099
963.700	10176
963.787	16502
963.874	5561
963.962	1126
964.049	293
964.136	708
964.223	-55
964.310	1303
964.398	-474
964.485	820
964.572	809
964.659	2873
964.746	1777
964.833	1112
964.920	-208
965.007	896
965.094	22
965.181	1036
965.268	-119
965.355	568
965.441	27
965.528	56
965.615	693
965.702	150
965.789	-320
965.875	116
965.962	9
966.049	-189
966.136	347
966.222	-202
966.309	108
966.395	-707
966.482	192
966.569	175
966.655	-649
966.742	-511
966.828	775
966.915	733
967.001	-366
967.087	650
967.174	255
967.260	1104
967.347	1847
967.433	7589
967.519	9463
967.605	2535
967.692	-2
967.778	355
967.864	59
967.950	831
968.036	-107
968.123	-457
968.209	-727
968.295	-1132
968.381	730
968.467	1147
968.553	-1026
968.639	1761
968.725	262
968.811	1842
968.897	1913
968.983	795
969.069	-978
969.154	318
969.240	-737
969.326	-244
969.412	-731
969.497	-68
969.583	-1193
969.669	538
969.755	474
969.840	185
969.926	312
970.012	-562
970.097	1162
970.183	763
970.268	789
970.354	2296
970.439	3656
970.525	7077
970.610	409
970.696	712
970.781	-796
970.866	-499
970.952	224
971.037	-307
971.122	-620
971.208	546
971.293	-845
971.378	-1003
971.463	-1003
971.549	1079
971.634	-660
971.719	808
971.804	-204
971.889	574
971.974	-789
972.059	545
972.144	-387
972.229	-104
972.314	-1347
972.399	952
972.484	-651
972.569	726
972.654	381
972.739	3566
972.824	2074
972.908	-281
972.993	-1143
973.078	-98
973.163	-306
973.247	331
973.332	-1717
973.417	1116
973.501	-689
973.586	623
973.671	-277
973.755	-382
973.840	75
973.924	421
974.009	445
974.093	105
974.178	820
974.262	1659
974.346	1127
974.431	595
974.515	-1533
974.600	341
974.684	-368
974.768	-1286
974.852	95
974.937	-568
975.021	41
975.105	-242
975.189	-973
975.273	-296
975.358	-934
975.442	-46
975.526	-1193
975.610	-165
975.694	-1148
975.778	704
975.862	-849
975.946	-1824
976.030	1029
976.114	-722
976.198	-530
976.281	-749
976.365	-160
976.449	-506
976.533	-195
976.617	151
976.700	-338
976.784	392
976.868	-535
976.951	767
977.035	-89
977.119	383
977.202	-894
977.286	-325
977.369	-335
977.453	261
977.536	-316
977.620	-367
977.703	-326
977.787	-720
977.870	-539
977.953	1315
978.037	-802
978.120	1736
978.203	1366
978.287	2602
978.370	200
978.453	-527
978.536	-800
978.620	1477
978.703	1582
978.786	337
978.869	-1403
978.952	-1520
979.035	-25
979.118	-300
979.201	-1484
979.284	-19
979.367	-973
979.450	42
979.533	-1529
979.616	-280
979.699	-1366
979.782	-75
979.865	-324
979.948	-159
980.030	-987
980.113	-582
980.196	-1468
980.279	-395
980.361	-1286
980.444	-1037
980.526	-985
980.609	-641
980.692	-634
980.774	-732
980.857	-1928
980.939	89
981.022	-1436
981.104	-1164
981.187	-729
981.269	-236
981.352	-786
981.434	-1003
981.516	-1126
981.599	690
981.681	-1258
981.763	-251
981.846	-1464
981.928	-786
982.010	-863
982.092	-1582
982.174	-396
982.256	-885
982.339	-1262
982.421	-429
982.503	-801
982.585	-883
982.667	-501
982.749	-253
982.831	-1170
982.913	-1304
982.995	520
983.077	-1242
983.158	182
983.240	-1322
983.322	-642
983.404	-580
983.486	-1157
983.568	-439
983.649	-1270
983.731	146
983.813	-1084
983.894	-520
983.976	-1274
984.058	174
984.139	-604
984.221	-893
984.302	150
984.384	-65
984.465	-2120
984.547	-226
984.628	-1881
984.710	375
984.791	-1863
984.872	-54
984.954	-414
985.035	-458
985.116	-1412
985.198	-1510
985.279	151
985.360	-501
985.441	-1154
985.522	433
985.604	-1045
985.685	-2154
985.766	-26
985.847	1104
985.928	-1424
986.009	-191
986.090	-1102
986.171	783
986.252	-1427
986.333	410
986.414	-1704
986.495	83
986.576	-1077
986.656	-277
986.737	-981
986.818	-333
986.899	-2050
986.980	-262
987.060	-327
987.141	-905
987.222	-552
987.302	-480
987.383	-424
987.464	-742
987.544	-1199
987.625	-439
987.705	-1214
987.786	-379
987.866	-1240
987.947	-361
988.027	-1198
988.108	-940
988.188	-857
988.268	-730
988.349	-487
988.429	-877
988.509	-704
988.589	-296
988.670	-2865
988.750	407
988.830	-1302
988.910	-83
988.990	-612
989.070	323
989.151	-1291
989.231	-1448
989.311	-1265
989.391	-235
989.471	-614
989.551	-104
989.631	-1233
989.711	519
989.791	-1773
989.870	-520
989.950	-396
990.030	-1306
990.110	-873
990.190	-710
990.269	-1396
990.349	-783
990.429	-1498
990.509	-197
990.588	-1282
990.668	-660
990.747	-1191
990.827	-863
990.907	-108
990.986	-1338
991.066	-990
991.145	-518
991.225	-922
991.304	-695
991.383	-632
991.463	-457
991.542	-1157
991.622	-757
991.701	-1479
991.780	-1005
991.859	-1067
991.939	-256
992.018	-1666
992.097	114
992.176	-1004
992.256	-409
992.335	-2441
992.414	-264
992.493	-1902
992.572	-619
992.651	-392
992.730	-323
992.809	-1249
992.888	-1534
992.967	-1146
993.046	127
993.125	-1778
993.203	-575
993.282	-1164
993.361	-569
993.440	-1486
993.519	-848
993.597	-1206
993.676	-1261
993.755	-743
993.834	-25
993.912	-2092
993.991	199
994.069	-1025
994.148	-618
994.226	-1369
994.305	-276
994.384	-1412
994.462	287
994.540	-2100
994.619	-1356
994.697	-805
994.776	-108
994.854	-854
994.932	-1009
995.011	-629
995.089	9
995.167	-1129
995.245	506
995.324	-1027
995.402	347
995.480	-1607
995.558	-159
995.636	-2299
995.714	-704
995.792	-196
995.870	-452
995.948	-962
996.026	129
996.104	-1934
996.182	680
996.260	-862
996.338	-252
996.416	-1964
996.494	-1502
996.572	-946
996.649	-662
996.727	-2121
996.805	-17
996.883	-1902
996.960	-789
997.038	-872
997.116	144
997.193	-2151
997.271	-404
997.348	-982
997.426	-343
997.504	-2115
997.581	-239
997.658	-1114
997.736	-2157
997.813	-2100
997.891	522
997.968	-1805
998.046	-56
998.123	-380
998.200	256
998.277	-1786
998.355	-188
998.432	-2571
998.509	-785
998.586	-1094
998.663	-204
998.741	-681
998.818	-1022
998.895	-1966
998.972	-368
999.049	-1500
999.126	-1308
999.203	-1115
999.280	-707
999.357	-1613
999.434	-1458
999.511	-1595
999.587	-114
999.664	-868
999.741	362
999.818	-1170
999.895	-1443
999.971	-1446
1000.048	-1354
1000.125	-683
1000.202	-749
1000.278	-1310
1000.355	-919
1000.431	-806
1000.508	-1534
1000.584	-964
1000.661	-13
1000.738	-1876
1000.814	-630
1000.890	-795
1000.967	-1205
1001.043	-443
1001.120	-1295
1001.196	-1422
1001.272	-683
1001.349	-1124
1001.425	-555
1001.501	-1924
1001.577	-937
1001.654	-1698
1001.730	-536
1001.806	-1394
1001.882	-1425
1001.958	-470
1002.034	-1140
1002.110	-2029
1002.186	-1206
1002.262	-1915
1002.338	-1397
1002.414	-1366
1002.490	-1474
1002.566	-1134
1002.642	-1233
1002.718	-623
1002.794	-902
1002.870	-2127
1002.945	-1028
1003.021	-1239
1003.097	-1461
1003.173	-1361
1003.248	-1811
1003.324	-1077
1003.400	-1202
1003.475	-1725
1003.551	-739
1003.626	-2080
1003.702	-1162
1003.777	-942
1003.853	-1716
1003.928	-1625
1004.004	-430
1004.079	-1124
1004.155	-373
1004.230	-2795
1004.305	377
1004.381	-2383
1004.456	-1026
1004.531	-1476
1004.607	-1041
1004.682	-1849
1004.757	-960
1004.832	-1939
1004.907	-1646
1004.982	-1816
1005.057	-1261
1005.133	-1958
1005.208	-1864
1005.283	-2096
1005.358	-1101
1005.433	-1451
1005.508	-212
1005.583	-1989
1005.657	-1080
1005.732	-1142
1005.807	-1474
1005.882	-2201
1005.957	-1593
1006.032	-1154
1006.106	-1095
1006.181	-1759
1006.256	-1178
1006.331	-2269
1006.405	-1124
1006.480	-988
1006.554	-1403
1006.629	-2334
1006.704	-1374
1006.778	-1772
1006.853	-578
1006.927	-1767
1007.002	-1657
1007.076	-859
1007.150	-1268
1007.225	-2192
1007.299	-437
1007.373	-2974
1007.448	-1785
1007.522	-1841
1007.596	-839
1007.671	-1822
1007.745	-1962
1007.819	-2892
1007.893	-526
1007.967	-810
1008.041	-1971
1008.115	-536
1008.190	-1418
1008.264	-1652
1008.338	-1568
1008.412	-1505
1008.486	-1584
1008.560	-1799
1008.633	-2197
1008.707	-2449
1008.781	-921
1008.855	-1959
1008.929	-1936
1009.003	-2378
1009.076	-1957
1009.150	-1550
1009.224	-261
1009.298	-1525
1009.371	-1243
1009.445	-1269
1009.519	-1082
1009.592	-2702
1009.666	-1363
1009.739	-1882
1009.813	-1922
1009.886	-543
1009.960	-1798
1010.033	-1107
1010.107	-1236
1010.180	-2807
1010.253	-656
1010.327	-2755
1010.400	-1284
1010.473	-2570
1010.547	-395
1010.620	-2007
1010.693	-2092
1010.766	-2018
1010.840	-705
1010.913	-1664
1010.986	-1165
1011.059	-2080
1011.132	-1021
1011.205	-1533
1011.278	-1524
1011.351	-2158
1011.424	-1174
1011.497	-2324
1011.570	-1074
1011.643	-2471
1011.716	-1759
1011.789	-2517
1011.862	-1103
1011.934	-2109
1012.007	-2313
1012.080	-1460
1012.153	-1654
1012.225	-1617
1012.298	-2562
1012.371	-2043
1012.443	-930
1012.516	-2676
1012.588	-927
1012.661	-2035
1012.733	-2029
1012.806	-1202
1012.879	-2014
1012.951	-1957
1013.023	-1911
1013.096	-2720
1013.168	-2116
1013.241	-1729
1013.313	-1507
1013.385	-2185
1013.458	-1626
1013.530	-648
1013.602	-1506
1013.674	-2073
1013.746	-2311
1013.819	-2832
1013.891	-1120
1013.963	-2193
1014.035	-1351
1014.107	-1850
1014.179	-1296
1014.251	-1895
1014.323	-771
1014.395	-2389
1014.467	-1029
1014.539	-900
1014.611	-2007
1014.683	-2028
1014.754	-1545
1014.826	-2342
1014.898	-817
1014.970	-2891
1015.042	-1031
1015.113	-2403
1015.185	-1579
1015.257	-3099
1015.328	-933
1015.400	-2024
1015.471	-2121
1015.543	-3086
1015.615	-1653
1015.686	-2876
1015.757	-1071
1015.829	-1884
1015.901	-1917
1015.972	-1793
1016.043	-1346
1016.115	-2161
1016.186	-1706
1016.257	-2245
1016.328	-1277
1016.400	-1501
1016.471	-2315
1016.542	-1678
1016.613	-1481
1016.685	-1988
1016.756	-1178
1016.827	-3006
1016.898	-2278
1016.969	-943
1017.040	-856
1017.111	-2305
1017.182	-1093
1017.253	-1721
1017.324	-973
1017.395	-1775
1017.466	-1601
1017.537	-2422
1017.608	-1552
1017.678	-2000
1017.749	-1159
1017.820	-1389
1017.891	-2146
1017.961	-1839
1018.032	-1522
1018.103	-2109
1018.173	-2286
1018.244	-2153
1018.315	-1224
1018.385	-1915
1018.456	-1520
1018.526	-2651
1018.597	-746
1018.667	-2299
1018.738	-2182
1018.808	-1769
1018.878	-1536
1018.949	-1956
1019.019	-1152
1019.089	-2533
1019.160	-1049
1019.230	-1991
1019.300	-857
1019.371	-3519
1019.441	-406
1019.511	-2360
1019.581	-2377
1019.651	-2703
1019.721	-1133
1019.791	-1743
1019.861	-1721
1019.931	-1955
1020.001	-1207
1020.071	-2879
1020.141	-1829
1020.211	-2383
1020.281	-1561
1020.351	-1977
1020.421	-1523
1020.491	-826
1020.560	-2057
1020.630	-1933
1020.700	-1137
1020.770	-1907
1020.839	-1710
1020.909	-1872
1020.979	-1821
1021.048	-1839
1021.118	-1472
1021.187	-1503
1021.257	-1863
1021.326	-1716
1021.396	-1158
1021.465	-1746
1021.535	-2376
1021.604	-2170
1021.674	-992
1021.743	-2532
1021.812	-1832
1021.882	-1972
1021.951	-1898
1022.020	-2243
1022.089	-978
1022.159	-3208
1022.228	-1331
1022.297	-1846
1022.366	-967
1022.435	-1693
1022.504	-1692
1022.573	-1485
1022.642	-1340
1022.711	-2044
1022.781	-1848
1022.849	-1754
1022.918	-1843
1022.987	-1811
1023.056	-1406
1023.125	-1756
1023.194	-836
1023.263	-2062
1023.331	-1586
1023.400	-1668
1023.469	-1200
1023.538	-2075
1023.606	-856
1023.675	-2488
1023.744	-1742
1023.812	-2584
1023.881	-1721
1023.949	-1918
1024.018	-1790
1024.086	-3214
1024.155	-1585
1024.223	-1346
1024.292	-745
1024.360	-1728
1024.429	-945
1024.497	-1785
1024.565	-1988
1024.634	-1717
1024.702	-947
1024.770	-2240
1024.838	-2360
1024.907	-1244
1024.975	-1880
1025.043	-1571
1025.111	-1134
1025.179	-2824
1025.247	-2185
1025.315	-2266
1025.383	-2027
1025.451	-1380
1025.519	-1686
1025.587	-1625
1025.655	-947
1025.723	-2218
1025.791	-1239
1025.859	-1733
1025.927	-1101
1025.995	-1978
1026.062	-1262
1026.130	-2022
1026.198	-594
1026.266	-1978
1026.333	-805
1026.401	-1597
1026.469	-1788
1026.536	-1979
1026.604	-1864
1026.671	-2964
1026.739	-1132
1026.806	-1616
1026.874	-931
1026.941	-1587
1027.009	-1236
1027.076	-1570
1027.144	-1199
1027.211	-2474
1027.278	-1770
1027.345	-1844
1027.413	-1827
1027.480	-2463
1027.547	-739
1027.614	-1473
1027.682	-2028
1027.749	-1500
1027.816	-1245
1027.883	-2507
1027.950	-1262
1028.017	-1742
1028.084	-1095
1028.151	-1884
1028.218	-1141
1028.285	-2182
1028.352	-1753
1028.419	-2559
1028.486	-1218
1028.553	-1733
1028.619	-1292
1028.686	-1628
1028.753	-1362
1028.820	-1737
1028.886	-2185
1028.953	-2363
1029.020	-1569
1029.086	-2664
1029.153	-1403
1029.220	-2045
1029.286	-1312
1029.353	-2095
1029.419	-1888
1029.486	-2157
1029.552	-1934
1029.619	-1600
1029.685	-2231
1029.751	-1345
1029.818	-601
1029.884	-2252
1029.951	-582
1030.017	-1774
1030.083	-1387
1030.149	-1492
1030.216	-1909
1030.282	-1579
1030.348	-1129
1030.414	-1815
1030.480	-1234
1030.546	-2303
1030.612	-1376
1030.678	-1326
1030.744	-1256
1030.810	-1476
1030.876	-1139
1030.942	-1857
1031.008	-891
1031.074	-2910
1031.140	-1498
1031.206	-2441
1031.272	-1427
1031.337	-1989
1031.403	-547
1031.469	-1649
1031.534	-1725
1031.600	-1844
1031.666	-1707
1031.731	-2340
1031.797	-1611
1031.863	-1106
1031.928	-1381
1031.994	-2394
1032.059	-1781
1032.125	-2154
1032.190	-1969
1032.256	-1624
1032.321	-1485
1032.386	-1113
1032.452	-1151
1032.517	-2867
1032.582	-1329
1032.647	-2190
1032.713	-1019
1032.778	-2217
1032.843	-1846
1032.908	-2812
1032.974	-1764
1033.039	-1661
1033.104	-1230
1033.169	-2089
1033.234	-1181
1033.299	-1087
1033.364	-1035
1033.429	-1889
1033.494	-817
1033.559	-2579
1033.624	-901
1033.688	-1881
1033.753	-1529
1033.818	-2360
1033.883	-1391
1033.948	-2132
1034.013	-820
1034.077	-1969
1034.142	-1382
1034.207	-1648
1034.271	-936
1034.336	-603
1034.400	-861
1034.465	-685
1034.530	-810
1034.594	-2173
1034.658	-1746
1034.723	-2059
1034.787	-326
1034.852	-1918
1034.916	-1630
1034.981	-1114
1035.045	-1290
1035.109	-1856
1035.173	-1482
1035.238	-1955
1035.302	-1710
1035.366	-1723
1035.430	-1336
1035.495	-2268
1035.559	-1818
1035.623	-2628
1035.687	-1675
1035.751	-2023
1035.815	-827
1035.879	-1363
1035.943	-1999
1036.007	-2494
1036.071	-1139
1036.135	-1539
1036.198	-1889
1036.262	-1936
1036.326	-1233
1036.390	-1582
1036.454	-1324
1036.517	-1754
1036.581	-954
1036.645	-1405
1036.709	-266
1036.772	-2367
1036.836	-1801
1036.900	-1818
1036.963	-1579
1037.026	-2538
1037.090	-1849
1037.154	-2493
1037.217	-2701
1037.280	-2090
1037.344	-1430
1037.407	-2685
1037.471	-1456
1037.534	-2410
1037.597	-1523
1037.661	-2197
1037.724	-814
1037.787	-2365
1037.850	-1374
1037.913	-2577
1037.977	-1416
1038.040	-2133
1038.103	-1472
1038.166	-2745
1038.229	-1140
1038.292	-1948
1038.355	-1516
1038.418	-1995
1038.481	-689
1038.544	-1654
1038.607	-1633
1038.670	-1925
1038.732	-1313
1038.795	-2054
1038.858	-1998
1038.921	-2668
1038.984	-704
1039.046	-1885
1039.109	-1482
1039.172	-1542
1039.234	-1693
1039.297	-2019
1039.360	-1605
1039.422	-2123
1039.485	-2073
1039.547	-2911
1039.610	-1127
1039.672	-1746
1039.734	-1581
1039.797	-2215
1039.859	-2245
1039.922	-2712
1039.984	-2256
1040.046	-2448
1040.109	-1309
1040.171	-2233
1040.233	-1147
1040.295	-1951
1040.358	-2386
1040.420	-2031
1040.482	-2014
1040.544	-2544
1040.606	-1582
1040.668	-3135
1040.730	-2027
1040.792	-2332
1040.854	-1332
1040.916	-2266
1040.978	-1582
1041.040	-1825
1041.102	-1932
1041.164	-2116
1041.225	-2343
1041.287	-2579
1041.349	-2047
1041.411	-2307
1041.472	-1117
1041.534	-2465
1041.596	-2427
1041.657	-2252
1041.719	-2017
1041.781	-2872
1041.842	-2215
1041.904	-1788
1041.965	-1697
1042.027	-2703
1042.088	-2291
1042.150	-2476
1042.211	-2309
1042.272	-1955
1042.334	-1696
1042.395	-2809
1042.456	-2362
1042.518	-1534
1042.579	-972
1042.640	-1723
1042.701	-649
1042.763	-2570
1042.824	-1798
1042.885	-2334
1042.946	-1396
1043.007	-2165
1043.068	-1536
1043.129	-2729
1043.190	-2299
1043.251	-2397
1043.312	-1763
1043.373	-1654
1043.434	-1885
1043.495	-2687
1043.556	-1370
1043.616	-2260
1043.677	-2318
1043.738	-2112
1043.799	-2167
1043.859	-1718
1043.920	-901
1043.981	-2083
1044.041	-1849
1044.102	-2274
1044.162	-1455
1044.223	-2643
1044.284	-2114
1044.344	-2319
1044.405	-1200
1044.465	-2705
1044.525	-1346
1044.586	-2723
1044.646	-1402
1044.707	-2191
1044.767	-1838
1044.827	-1856
1044.887	-1734
1044.948	-1965
1045.008	-987
1045.068	-2292
1045.128	-1351
1045.188	-1794
1045.249	-1025
1045.309	-2522
1045.369	-1749
1045.429	-2251
1045.489	-1424
1045.549	-1592
1045.609	-1690
1045.669	-2272
1045.729	-2331
1045.789	-1901
1045.848	-1417
1045.908	-1439
1045.968	-1443
1046.028	-1997
1046.088	-1061
1046.147	-1128
1046.207	-1209
1046.267	-2855
1046.326	-125
1046.386	-1678
1046.446	-926
1046.505	-2251
1046.565	-871
1046.624	-1079
1046.684	93
1046.743	-1278
1046.803	-914
1046.862	-503
1046.922	0
