'Start Wavelength	183.907
'End Wavelength	1046.922
'Gate Delay	5.000
'Gate Width (ms)	1.050
'Laser Output Level	0.000
'X Position	0.000
'Y Position	0.000
'Z Position	0.000
'Grid Point Number	1.000
'Shot Number	100.000
183.907	-114.000
183.977	81.000
184.047	426
184.116	100
184.186	137
184.256	54
184.325	314
184.395	-559
184.465	86
184.534	69
184.604	-68
184.674	636
184.743	-468
184.813	458
184.883	16
184.952	714
185.022	210
185.092	104
185.161	-142
185.231	646
185.301	70
185.370	523
185.440	-666
185.509	-613
185.579	-54
185.649	416
185.718	942
185.788	1262
185.857	-1018
185.927	538
185.996	-1160
186.066	735
186.136	-185
186.205	-160
186.275	125
186.344	124
186.414	-716
186.483	-172
186.553	972
186.622	2278
186.692	-66
186.761	-228
186.831	724
186.900	-281
186.970	810
187.039	1209
187.109	1615
187.178	538
187.248	775
187.317	1192
187.387	102
187.456	1054
187.526	588
187.595	1587
187.664	115
187.734	1462
187.803	204
187.873	1303
187.942	1938
188.012	853
188.081	450
188.150	1120
188.220	970
188.289	1610
188.358	1010
188.428	733
188.497	-40
188.567	1147
188.636	182
188.705	656
188.775	276
188.844	-65
188.913	1424
188.983	247
189.052	224
189.121	265
189.191	-167
189.260	1344
189.329	1855
189.399	1502
189.468	64
189.537	1413
189.606	713
189.676	598
189.745	763
189.814	1322
189.883	-102
189.953	1145
190.022	1798
190.091	4185
190.161	6141
190.230	2796
190.299	669
190.368	-43
190.437	514
190.507	595
190.576	529
190.645	653
190.714	34
190.783	298
190.853	868
190.922	1099
190.991	1100
191.060	1944
191.129	905
191.198	1436
191.268	698
191.337	903
191.406	1366
191.475	870
191.544	-178
191.613	657
191.682	-686
191.752	116
191.821	544
191.890	774
191.959	578
192.028	16
192.097	344
192.166	1651
192.235	207
192.304	1101
192.373	-275
192.442	1103
192.511	638
192.580	374
192.650	-114
192.719	382
192.788	782
192.857	690
192.926	254
192.995	540
193.064	607
193.133	959
193.202	1748
193.271	1760
193.340	1817
193.409	1798
193.478	1900
193.547	1834
193.615	2980
193.684	3455
193.753	973
193.822	1561
193.891	882
193.960	1352
194.029	397
194.098	1653
194.167	55
194.236	934
194.305	614
194.374	534
194.443	248
194.512	352
194.580	539
194.649	1833
194.718	1554
194.787	961
194.856	476
194.925	1810
194.994	128
195.062	919
195.131	542
195.200	1321
195.269	1827
195.338	2079
195.407	865
195.475	1119
195.544	1054
195.613	2155
195.682	685
195.751	1517
195.819	1035
195.888	1597
195.957	1908
196.026	2400
196.094	2041
196.163	2999
196.232	1856
196.301	1626
196.369	1137
196.438	710
196.507	395
196.576	1609
196.644	1078
196.713	543
196.782	86
196.850	1681
196.919	564
196.988	1346
197.056	281
197.125	1090
197.194	512
197.262	413
197.331	700
197.400	1132
197.468	1011
197.537	1385
197.606	890
197.674	3045
197.743	6022
197.812	2993
197.880	6616
197.949	4488
198.017	4983
198.086	3116
198.155	1658
198.223	2298
198.292	7221
198.360	3021
198.429	997
198.497	1860
198.566	2840
198.635	7512
198.703	2120
198.772	1984
198.840	6594
198.909	9284
198.977	2206
199.046	1821
199.114	1288
199.183	1964
199.251	1283
199.320	589
199.388	897
199.457	622
199.525	1302
199.594	1010
199.662	638
199.731	359
199.799	419
199.867	1173
199.936	151
200.004	1445
200.073	1953
200.141	835
200.210	358
200.278	1580
200.346	636
200.415	1818
200.483	1566
200.552	1375
200.620	784
200.688	800
200.757	590
200.825	1415
200.893	1349
200.962	793
201.030	171
201.098	1271
201.167	1932
201.235	855
201.303	1507
201.372	1513
201.440	470
201.508	1664
201.577	1710
201.645	1288
201.713	639
201.781	835
201.850	1227
201.918	1346
201.986	848
202.055	1557
202.123	1068
202.191	700
202.259	533
202.327	863
202.396	945
202.464	1699
202.532	2046
202.600	9242
202.669	4569
202.737	1758
202.805	1264
202.873	1267
202.941	1083
203.009	1063
203.078	173
203.146	1430
203.214	1477
203.282	1265
203.350	1271
203.418	1045
203.487	1557
203.555	1654
203.623	792
203.691	1576
203.759	356
203.827	747
203.895	337
203.963	2456
204.031	727
204.099	1199
204.168	1514
204.236	2206
204.304	966
204.372	1880
204.440	905
204.508	1107
204.576	-70
204.644	265
204.712	692
204.780	1228
204.848	1233
204.916	1134
204.984	776
205.052	1673
205.120	1319
205.188	2033
205.256	490
205.324	811
205.392	647
205.460	2206
205.528	1552
205.596	686
205.664	426
205.732	1575
205.799	7099
205.867	13110
205.935	2713
206.003	2729
206.071	1532
206.139	1900
206.207	1901
206.275	1618
206.343	1488
206.411	1324
206.478	1090
206.546	1580
206.614	1305
206.682	1763
206.750	1177
206.818	2656
206.885	2278
206.953	476
207.021	1167
207.089	1213
207.157	264
207.225	1265
207.292	569
207.360	1572
207.428	1432
207.496	1572
207.563	1116
207.631	1721
207.699	412
207.767	1070
207.834	480
207.902	1835
207.970	1330
208.038	1290
208.105	929
208.173	1383
208.241	2377
208.309	2605
208.376	2255
208.444	6227
208.512	3275
208.579	1835
208.647	2084
208.715	2740
208.782	1690
208.850	2030
208.918	1313
208.985	1665
209.053	1856
209.120	2457
209.188	184
209.256	1682
209.323	1229
209.391	3277
209.459	2318
209.526	2008
209.594	1840
209.661	1661
209.729	1349
209.796	1950
209.864	1234
209.932	692
209.999	2152
210.067	2518
210.134	1999
210.202	2035
210.269	3575
210.337	3538
210.404	2173
210.472	2047
210.539	1602
210.607	2090
210.674	2979
210.742	2276
210.809	1482
210.877	3201
210.944	2980
211.012	1535
211.079	3659
211.146	2375
211.214	2247
211.281	3172
211.349	4031
211.416	2323
211.484	2376
211.551	2446
211.618	1399
211.686	2273
211.753	1577
211.821	2261
211.888	2364
211.955	2224
212.023	2274
212.090	2241
212.157	2224
212.225	3080
212.292	6252
212.359	13528
212.427	42154
212.494	19369
212.561	5942
212.629	4763
212.696	2968
212.763	3113
212.831	1486
212.898	3394
212.965	1322
213.032	2587
213.100	2334
213.167	3033
213.234	3337
213.301	2968
213.369	1645
213.436	2903
213.503	1615
213.570	1431
213.638	2248
213.705	2254
213.772	1061
213.839	4064
213.906	4886
213.973	3947
214.041	1750
214.108	2193
214.175	3249
214.242	2527
214.309	1687
214.376	2676
214.444	1473
214.511	2869
214.578	2392
214.645	2763
214.712	2662
214.779	3040
214.846	994
214.913	2998
214.980	2945
215.048	3608
215.115	4417
215.182	3717
215.249	2500
215.316	3064
215.383	2896
215.450	2714
215.517	2332
215.584	2523
215.651	1366
215.718	2923
215.785	3372
215.852	3307
215.919	4550
215.986	3628
216.053	2106
216.120	1552
216.187	2787
216.254	4202
216.321	2121
216.388	3186
216.455	3303
216.522	2908
216.589	3595
216.656	8144
216.722	9676
216.789	5101
216.856	4131
216.923	3048
216.990	3310
217.057	3547
217.124	4036
217.191	3547
217.258	4321
217.324	5421
217.391	5169
217.458	4348
217.525	2797
217.592	3766
217.659	2379
217.725	3810
217.792	6411
217.859	7135
217.926	2995
217.993	2701
218.059	2609
218.126	2301
218.193	2000
218.260	2028
218.327	1509
218.393	1738
218.460	2037
218.527	2018
218.594	2134
218.660	8355
218.727	8440
218.794	2507
218.860	2416
218.927	1705
218.994	1732
219.061	1617
219.127	2775
219.194	6795
219.261	2801
219.327	1076
219.394	2325
219.461	1082
219.527	1264
219.594	5548
219.661	3489
219.727	1477
219.794	1834
219.860	1536
219.927	2755
219.994	2731
220.060	9756
220.127	6614
220.193	3314
220.260	2873
220.326	3887
220.393	5503
220.460	8079
220.526	5629
220.593	3386
220.659	5069
220.726	4372
220.792	17227
220.859	12034
220.925	11075
220.992	14944
221.058	19555
221.125	24847
221.191	19019
221.258	6856
221.324	4523
221.391	3096
221.457	3039
221.524	2372
221.590	4419
221.657	22521
221.723	17557
221.789	13945
221.856	13387
221.922	5574
221.989	4632
222.055	2903
222.121	2586
222.188	4299
222.254	3923
222.321	3063
222.387	2713
222.453	1433
222.520	2531
222.586	2204
222.652	1911
222.719	1865
222.785	3638
222.851	1251
222.918	2125
222.984	1863
223.050	3303
223.116	1882
223.183	3909
223.249	632
223.315	1114
223.382	2563
223.448	1919
223.514	608
223.580	1004
223.647	687
223.713	1418
223.779	1171
223.845	2138
223.911	2060
223.978	706
224.044	1489
224.110	992
224.176	1598
224.242	1168
224.309	846
224.375	1618
224.441	1291
224.507	1600
224.573	737
224.639	2534
224.705	589
224.772	2126
224.838	982
224.904	2917
224.970	1766
225.036	2041
225.102	1636
225.168	2632
225.234	1899
225.300	2811
225.366	1408
225.432	1781
225.499	1777
225.565	3316
225.631	2302
225.697	1809
225.763	2260
225.829	3040
225.895	3493
225.961	7270
226.027	5661
226.093	3967
226.159	5885
226.225	6675
226.291	13546
226.357	24430
226.423	14418
226.489	8313
226.554	5021
226.620	4736
226.686	6412
226.752	11439
226.818	13876
226.884	35372
226.950	32144
227.016	10890
227.082	7081
227.148	5436
227.214	5748
227.279	7790
227.345	5438
227.411	4154
227.477	3725
227.543	9688
227.609	11721
227.674	8232
227.740	4157
227.806	4479
227.872	2765
227.938	3599
228.003	8427
228.069	3610
228.135	1465
228.201	2792
228.267	1434
228.332	3244
228.398	4385
228.464	4508
228.530	1353
228.595	2722
228.661	1876
228.727	6195
228.792	4400
228.858	2186
228.924	1605
228.990	4970
229.055	2983
229.121	5047
229.187	2057
229.252	4212
229.318	2895
229.384	3796
229.449	5028
229.515	1317
229.581	1176
229.646	3573
229.712	3194
229.777	10811
229.843	12485
229.909	6452
229.974	8045
230.040	7601
230.105	3800
230.171	4688
230.236	7480
230.302	11826
230.368	7844
230.433	4082
230.499	4679
230.564	7414
230.630	3475
230.695	2633
230.761	3052
230.826	1245
230.892	5368
230.957	4224
231.023	1400
231.088	1937
231.154	1637
231.219	3419
231.284	4270
231.350	5860
231.415	2044
231.481	2384
231.546	1600
231.612	2119
231.677	1241
231.742	648
231.808	2812
231.873	1576
231.939	505
232.004	5172
232.069	7113
232.135	2288
232.200	2264
232.265	3084
232.331	1413
232.396	1214
232.461	1199
232.527	1383
232.592	749
232.657	2297
232.723	6869
232.788	6647
232.853	2115
232.918	2316
232.984	1128
233.049	2377
233.114	6131
233.179	6912
233.245	10555
233.310	15155
233.375	3045
233.440	3464
233.506	2213
233.571	2169
233.636	2128
233.701	2891
233.766	7095
233.832	12762
233.897	3991
233.962	4198
234.027	5321
234.092	4124
234.157	4174
234.222	4138
234.288	7022
234.353	29019
234.418	25805
234.483	12344
234.548	6443
234.613	4980
234.678	4420
234.743	5942
234.808	27943
234.873	19009
234.938	5876
235.004	4264
235.069	3944
235.134	3624
235.199	3412
235.264	2802
235.329	1684
235.394	4153
235.459	5611
235.524	6039
235.589	3530
235.654	3007
235.719	2028
235.784	3717
235.849	4367
235.913	14572
235.978	16358
236.043	19123
236.108	6370
236.173	5761
236.238	6777
236.303	3611
236.368	2754
236.433	8597
236.498	17847
236.563	8946
236.627	11742
236.692	48378
236.757	39950
236.822	17019
236.887	14731
236.952	9477
237.017	7105
237.081	9292
237.146	9267
237.211	17453
237.276	44104
237.341	92490
237.405	45029
237.470	16710
237.535	15300
237.600	9157
237.664	6506
237.729	4875
237.794	5617
237.859	11588
237.923	11688
237.988	7958
238.053	11789
238.118	13563
238.182	36200
238.247	36923
238.312	15729
238.376	12151
238.441	8086
238.506	9155
238.570	3094
238.635	5402
238.700	3460
238.764	5409
238.829	14520
238.893	21852
238.958	8148
239.023	6790
239.087	4524
239.152	5765
239.216	2552
239.281	3736
239.346	3099
239.410	3919
239.475	4923
239.539	34725
239.604	33512
239.668	8060
239.733	5446
239.797	7007
239.862	17131
239.926	30802
239.991	13269
240.055	6296
240.120	3911
240.184	4977
240.249	3592
240.313	3914
240.378	5053
240.442	20152
240.507	38172
240.571	12497
240.635	15460
240.700	22648
240.764	6804
240.829	4885
240.893	2391
240.957	5368
241.022	18761
241.086	39051
241.151	18353
241.215	6239
241.279	8665
241.344	19220
241.408	8156
241.472	5049
241.537	5095
241.601	4822
241.665	2370
241.730	3879
241.794	5506
241.858	5304
241.922	3530
241.987	4392
242.051	2540
242.115	3732
242.179	4751
242.244	2925
242.308	4661
242.372	5422
242.436	7886
242.501	5124
242.565	2715
242.629	3764
242.693	3548
242.757	2357
242.822	3749
242.886	5042
242.950	4915
243.014	4928
243.078	5719
243.142	5748
243.206	4526
243.271	6466
243.335	5907
243.399	9580
243.463	35028
243.527	112778
243.591	36383
243.655	12887
243.719	7577
243.783	7555
243.847	11577
243.911	17301
243.975	19893
244.040	14418
244.104	8166
244.168	6098
244.232	8543
244.296	13582
244.360	14164
244.424	8777
244.488	7863
244.552	7129
244.615	3920
244.679	4923
244.743	6127
244.807	7270
244.871	4878
244.935	3911
244.999	3247
245.063	5049
245.127	5717
245.191	10240
245.255	10256
245.319	7288
245.383	5792
245.446	6663
245.510	3719
245.574	4741
245.638	5679
245.702	4724
245.766	17256
245.829	10494
245.893	6715
245.957	5243
246.021	6145
246.085	6092
246.149	8734
246.212	23180
246.276	39907
246.340	16812
246.404	9801
246.467	10801
246.531	17416
246.595	11151
246.659	9007
246.722	7413
246.786	9790
246.850	11743
246.913	15563
246.977	6335
247.041	6472
247.104	7841
247.168	6319
247.232	20495
247.295	53267
247.359	26359
247.423	9219
247.486	18947
247.550	11927
247.614	8675
247.677	10639
247.741	7992
247.804	5685
247.868	8516
247.932	17886
247.995	49570
248.059	17064
248.122	7619
248.186	10185
248.249	17262
248.313	77494
248.376	84457
248.440	53179
248.503	17936
248.567	13416
248.630	18871
248.694	25596
248.757	31380
248.821	87808
248.884	46040
248.948	40996
249.011	62770
249.075	100460
249.138	87381
249.202	29796
249.265	17471
249.328	26968
249.392	16689
249.455	12014
249.519	8909
249.582	11053
249.645	20010
249.709	14513
249.772	9268
249.835	8769
249.899	13538
249.962	10067
250.025	8940
250.089	27872
250.152	42328
250.215	17105
250.279	12870
250.342	13122
250.405	11984
250.468	10852
250.532	14589
250.595	22788
250.658	93061
250.721	175745
250.785	57495
250.848	28199
250.911	16761
250.974	14718
251.038	20542
251.101	51942
251.164	26003
251.227	22143
251.290	20877
251.354	29269
251.417	132045
251.480	145294
251.543	85293
251.606	257009
251.669	205044
251.732	69750
251.795	70517
251.859	72198
251.922	161037
251.985	98448
252.048	35797
252.111	26210
252.174	22279
252.237	38902
252.300	101750
252.363	97169
252.426	218689
252.489	97425
252.552	52181
252.615	35189
252.678	31141
252.741	74140
252.804	94456
252.867	219061
252.930	133884
252.993	74916
253.056	39808
253.119	32659
253.182	25890
253.245	35594
253.308	27263
253.371	25617
253.434	26919
253.497	26993
253.559	48069
253.622	34671
253.685	34820
253.748	35810
253.811	18545
253.874	24791
253.937	24728
254.000	15494
254.062	29246
254.125	52049
254.188	43877
254.251	38194
254.314	17154
254.376	29632
254.439	33969
254.502	26563
254.565	30522
254.628	57580
254.690	31396
254.753	16843
254.816	14535
254.878	17182
254.941	34802
255.004	39574
255.067	15761
255.129	13575
255.192	8318
255.255	7025
255.317	9816
255.380	6841
255.443	6413
255.505	6327
255.568	6675
255.631	7772
255.693	7411
255.756	6095
255.819	6135
255.881	4931
255.944	5336
256.006	5113
256.069	6329
256.132	4717
256.194	8919
256.257	31226
256.319	24941
256.382	21485
256.444	10073
256.507	7007
256.569	5754
256.632	6294
256.694	11745
256.757	22725
256.819	68940
256.882	28751
256.944	12738
257.007	10075
257.069	13672
257.132	11272
257.194	6771
257.257	6104
257.319	6323
257.381	7288
257.444	18126
257.506	80665
257.569	93552
257.631	58775
257.693	30850
257.756	15794
257.818	15997
257.880	8810
257.943	8141
258.005	6135
258.067	6528
258.130	7311
258.192	7970
258.254	20200
258.317	13233
258.379	8601
258.441	23897
258.503	25740
258.566	34362
258.628	52794
258.690	12669
258.753	10109
258.815	16996
258.877	9238
258.939	6648
259.001	5901
259.064	6503
259.126	9152
259.188	15942
259.250	8862
259.312	11607
259.375	34794
259.437	22622
259.499	8146
259.561	6539
259.623	7134
259.685	9460
259.747	9343
259.809	32969
259.872	70517
259.934	95421
259.996	99453
260.058	27705
260.120	11833
260.182	8836
260.244	6621
260.306	6133
260.368	6425
260.430	6353
260.492	20034
260.554	41339
260.616	27789
260.678	43629
260.740	73492
260.802	19598
260.864	11769
260.926	9647
260.988	8798
261.050	10608
261.112	30630
261.174	83061
261.236	62607
261.298	18198
261.359	28438
261.421	47924
261.483	12814
261.545	10751
261.607	6172
261.669	7408
261.731	16853
261.793	46342
261.854	18117
261.916	11836
261.978	11724
262.040	16079
262.102	10301
262.164	18119
262.225	14504
262.287	8011
262.349	19164
262.411	17295
262.472	8269
262.534	18155
262.596	48451
262.658	14542
262.719	7271
262.781	12619
262.843	43910
262.904	20329
262.966	11572
263.028	15006
263.090	69638
263.151	200330
263.213	67651
263.275	35719
263.336	15590
263.398	10796
263.459	7233
263.521	7979
263.583	17103
263.644	13796
263.706	6117
263.767	4017
263.829	5720
263.891	4395
263.952	3546
264.014	4389
264.075	12348
264.137	41566
264.198	15196
264.260	6378
264.321	5323
264.383	17690
264.444	56875
264.506	19222
264.567	9087
264.629	19737
264.690	53882
264.752	17379
264.813	8290
264.875	6465
264.936	7209
264.998	6493
265.059	3728
265.120	4752
265.182	7176
265.243	26066
265.305	30019
265.366	8629
265.427	5515
265.489	5210
265.550	3269
265.611	6080
265.673	6335
265.734	7042
265.795	4253
265.857	3153
265.918	3627
265.979	8756
266.040	48542
266.102	45996
266.163	14191
266.224	15409
266.286	7382
266.347	4919
266.408	5085
266.469	7475
266.530	5589
266.592	3516
266.653	10393
266.714	20015
266.775	6391
266.836	4279
266.898	3782
266.959	12645
267.020	8685
267.081	5261
267.142	3165
267.203	3550
267.264	2669
267.326	4373
267.387	3897
267.448	3507
267.509	3563
267.570	3711
267.631	2478
267.692	2668
267.753	3944
267.814	3607
267.875	9868
267.936	25293
267.997	17098
268.058	13136
268.119	5845
268.180	5368
268.241	3989
268.302	4622
268.363	2738
268.424	4429
268.485	6068
268.546	4775
268.607	3620
268.668	2728
268.729	3687
268.790	5322
268.851	6182
268.912	17314
268.972	19093
269.033	9165
269.094	4463
269.155	4319
269.216	2766
269.277	5623
269.338	3963
269.398	3998
269.459	4172
269.520	6882
269.581	9919
269.642	11779
269.702	7740
269.763	5822
269.824	3894
269.885	5767
269.945	10835
270.006	5056
270.067	4086
270.128	4250
270.188	3636
270.249	4137
270.310	3463
270.370	4553
270.431	4447
270.492	3618
270.553	3897
270.613	10834
270.674	23872
270.734	11246
270.795	5717
270.856	9075
270.916	7157
270.977	5331
271.038	6662
271.098	6119
271.159	10127
271.219	12195
271.280	4627
271.340	4800
271.401	6543
271.462	24231
271.522	12238
271.583	7373
271.643	7049
271.704	7005
271.764	7762
271.825	16367
271.885	64292
271.946	102515
272.006	27986
272.066	38475
272.127	82465
272.187	22919
272.248	11767
272.308	13848
272.369	52209
272.429	32116
272.489	20032
272.550	23033
272.610	17052
272.671	14501
272.731	16342
272.791	32452
272.852	13084
272.912	11198
272.972	6984
273.033	6823
273.093	13645
273.153	15054
273.214	9747
273.274	10465
273.334	40873
273.394	80365
273.455	27408
273.515	25835
273.575	65682
273.635	27533
273.696	33410
273.756	76789
273.816	30250
273.876	17034
273.936	38402
273.997	82567
274.057	21719
274.117	13892
274.177	19083
274.237	87664
274.297	86554
274.358	59407
274.418	58671
274.478	43268
274.538	17692
274.598	17370
274.658	62197
274.718	83662
274.778	31255
274.838	16076
274.898	34737
274.958	118997
275.018	87811
275.078	54415
275.138	20591
275.198	12888
275.258	9727
275.318	12327
275.378	19961
275.438	18932
275.498	15302
275.558	45699
275.618	99216
275.678	54584
275.738	29333
275.798	26766
275.858	18339
275.918	8565
275.978	8217
276.038	8202
276.098	6719
276.157	14125
276.217	39667
276.277	19790
276.337	12839
276.397	8434
276.457	9476
276.517	8735
276.576	6560
276.636	6832
276.696	9175
276.756	24683
276.815	20485
276.875	9674
276.935	11134
276.995	9454
277.055	6418
277.114	5982
277.174	10073
277.234	32888
277.293	15883
277.353	9415
277.413	6986
277.472	6746
277.532	7863
277.592	9217
277.651	26744
277.711	59473
277.771	20690
277.830	62446
277.890	56794
277.950	40022
278.009	124190
278.069	47235
278.128	37317
278.188	58333
278.248	25039
278.307	59655
278.367	41622
278.426	14124
278.486	10061
278.545	8248
278.605	7441
278.664	7002
278.724	9650
278.783	24873
278.843	76636
278.902	23305
278.962	12570
279.021	14868
279.081	22849
279.140	22522
279.199	13353
279.259	13158
279.318	14764
279.378	19523
279.437	36121
279.496	128465
279.556	366044
279.615	329816
279.675	88065
279.734	50379
279.793	68820
279.853	111490
279.912	40165
279.971	21859
280.031	19094
280.090	34508
280.149	66136
280.208	58481
280.268	250165
280.327	289884
280.386	71896
280.445	44768
280.505	41237
280.564	23145
280.623	19662
280.682	22136
280.742	32291
280.801	12937
280.860	9257
280.919	9927
280.978	8822
281.037	9661
281.097	8980
281.156	8085
281.215	6464
281.274	10915
281.333	43136
281.392	38299
281.451	8945
281.510	7889
281.569	6817
281.628	6532
281.688	6103
281.747	8305
281.806	8697
281.865	5881
281.924	4470
281.983	6279
282.042	3962
282.101	5339
282.160	3999
282.219	4828
282.278	5861
282.337	19038
282.396	15337
282.454	6279
282.513	8433
282.572	30097
282.631	19573
282.690	6119
282.749	5466
282.808	9023
282.867	8576
282.926	7751
282.985	4270
283.043	4272
283.102	5101
283.161	7908
283.220	19775
283.279	45226
283.338	13743
283.396	8531
283.455	7246
283.514	7822
283.573	10586
283.631	8327
283.690	6331
283.749	5082
283.808	11633
283.866	16262
283.925	5822
283.984	6728
284.043	7941
284.101	10588
284.160	7613
284.219	18047
284.277	11023
284.336	12440
284.395	41320
284.453	40232
284.512	12099
284.570	15561
284.629	13249
284.688	11086
284.746	11410
284.805	13885
284.863	16517
284.922	20611
284.981	21851
285.039	32270
285.098	60550
285.156	158171
285.215	445908
285.273	453665
285.332	185703
285.390	92750
285.449	57375
285.507	38488
285.566	28185
285.624	23407
285.683	16233
285.741	12615
285.799	11529
285.858	12233
285.916	9687
285.975	7617
286.033	7813
286.091	7016
286.150	6175
286.208	8151
286.267	11378
286.325	8597
286.383	11355
286.442	10394
286.500	6392
286.558	5385
286.616	5178
286.675	8140
286.733	7256
286.791	7005
286.850	8291
286.908	12204
286.966	16897
287.024	8014
287.083	6288
287.141	5112
287.199	6218
287.257	9286
287.315	6510
287.374	8063
287.432	17320
287.490	13086
287.548	7418
287.606	7494
287.664	6852
287.723	10618
287.781	18847
287.839	9150
287.897	9488
287.955	12296
288.013	20143
288.071	47737
288.129	171477
288.187	512794
288.245	245152
288.303	75069
288.361	44376
288.419	38397
288.477	26916
288.535	17252
288.593	12974
288.651	10221
288.709	7692
288.767	7020
288.825	6939
288.883	7028
288.941	7126
288.999	6592
289.057	6163
289.115	7308
289.173	8318
289.231	7171
289.289	7967
289.346	8083
289.404	7005
289.462	10621
289.520	11365
289.578	7118
289.636	4524
289.694	4711
289.751	4113
289.809	4286
289.867	4207
289.925	6095
289.983	7328
290.040	4576
290.098	3872
290.156	4996
290.214	6176
290.271	4921
290.329	4031
290.387	4028
290.444	3516
290.502	2610
290.560	4127
290.617	6031
290.675	5596
290.733	5280
290.790	5858
290.848	5179
290.906	8631
290.963	5900
291.021	6819
291.078	6242
291.136	8278
291.194	23124
291.251	54734
291.309	16813
291.366	6909
291.424	6268
291.481	6118
291.539	6355
291.596	6239
291.654	3882
291.711	3347
291.769	5103
291.826	11835
291.884	8043
291.941	3902
291.999	4687
292.056	5797
292.114	6821
292.171	3857
292.228	5198
292.286	6330
292.343	12949
292.401	18786
292.458	13727
292.515	8570
292.573	8107
292.630	7179
292.687	9456
292.745	7105
292.802	12438
292.859	35433
292.917	46286
292.974	26824
293.031	10614
293.089	8125
293.146	6548
293.203	5889
293.260	5916
293.318	9974
293.375	17519
293.432	9314
293.489	6627
293.546	6111
293.604	11372
293.661	30408
293.718	83589
293.775	46341
293.832	19997
293.889	13856
293.947	16056
294.004	11672
294.061	11655
294.118	19893
294.175	46449
294.232	71968
294.289	27293
294.346	12825
294.403	10662
294.460	11955
294.517	10393
294.574	7354
294.631	7336
294.688	10228
294.745	25731
294.802	94898
294.859	116612
294.916	43257
294.973	24534
295.030	16395
295.087	14541
295.144	11217
295.201	8811
295.258	8223
295.315	11293
295.372	30621
295.429	67299
295.486	29103
295.542	18486
295.599	47410
295.656	88528
295.713	51578
295.770	62178
295.827	25986
295.883	14071
295.940	12377
295.997	18217
296.054	17704
296.111	10174
296.167	6924
296.224	5882
296.281	5713
296.338	6610
296.394	6115
296.451	9690
296.508	23948
296.564	53054
296.621	37786
296.678	66588
296.734	110542
296.791	42069
296.848	20841
296.904	20189
296.961	34874
297.018	64074
297.074	56150
297.131	21795
297.187	15107
297.244	22741
297.301	65215
297.357	137295
297.414	48149
297.470	19394
297.527	14345
297.583	12088
297.640	10929
297.696	9321
297.753	7982
297.809	6359
297.866	5538
297.922	6134
297.979	6168
298.035	7725
298.092	13363
298.148	34799
298.204	36783
298.261	19475
298.317	32845
298.374	93487
298.430	56541
298.486	25893
298.543	18328
298.599	15640
298.656	13818
298.712	22511
298.768	54302
298.824	45139
298.881	15565
298.937	9954
298.993	8152
299.050	12830
299.106	10777
299.162	8220
299.218	9325
299.275	7867
299.331	9723
299.387	20139
299.443	69612
299.500	80932
299.556	29306
299.612	14850
299.668	13068
299.724	15474
299.780	16891
299.837	12269
299.893	16377
299.949	51273
300.005	67766
300.061	55853
300.117	110246
300.173	56436
300.229	22477
300.285	22381
300.341	25719
300.397	14964
300.453	9947
300.510	9078
300.566	9623
300.622	12152
300.678	28417
300.734	53763
300.790	53099
300.845	75620
300.901	44232
300.957	52574
301.013	43395
301.069	17527
301.125	13165
301.181	13358
301.237	9353
301.293	7974
301.349	6765
301.405	6558
301.461	5868
301.516	8025
301.572	8717
301.628	15245
301.684	15130
301.740	24405
301.796	35825
301.851	24009
301.907	36617
301.963	43566
302.019	70593
302.074	205751
302.130	211905
302.186	89599
302.242	36245
302.297	25449
302.353	23877
302.409	38037
302.464	36232
302.520	30059
302.576	65405
302.631	81805
302.687	42562
302.743	18482
302.798	12017
302.854	10201
302.910	9863
302.965	12470
303.021	21822
303.076	20209
303.132	22278
303.187	26775
303.243	15368
303.299	9166
303.354	7915
303.410	7058
303.465	6762
303.521	6992
303.576	8314
303.632	11494
303.687	20463
303.743	63720
303.798	59420
303.853	23085
303.909	12777
303.964	11637
304.020	13594
304.075	20931
304.130	17047
304.186	29703
304.241	31331
304.297	26580
304.352	15290
304.358	14814
304.407	10954
304.449	10339
304.463	10143
304.518	10435
304.539	10331
304.573	10165
304.629	11790
304.630	11962
304.684	20512
304.720	39207
304.739	48486
304.794	81338
304.811	69379
304.850	40390
304.902	19287
304.905	17965
304.960	12493
304.992	11432
305.015	10706
305.071	9716
305.083	9247
305.126	7575
305.173	7016
305.181	6936
305.236	6602
305.264	6993
305.292	7450
305.347	9983
305.354	9980
305.402	9747
305.445	9109
305.457	8982
305.512	11599
305.535	12139
305.567	12982
305.622	15518
305.626	16084
305.678	29636
305.716	53960
305.733	62355
305.788	78740
305.807	69539
305.843	54337
305.897	67424
305.898	67510
305.953	73785
305.988	49904
306.008	36985
306.063	22062
306.078	19431
306.118	13725
306.168	10617
306.173	10400
306.228	8525
306.259	7977
306.283	7582
306.338	7429
306.349	7717
306.393	8859
306.440	8705
306.448	8809
306.503	12200
306.530	14931
306.558	24123
306.613	59064
306.620	63599
306.668	78779
306.711	73856
306.723	70752
306.778	52286
306.801	39267
306.833	25750
306.888	14487
306.892	14019
306.943	10970
306.982	9809
306.997	9675
307.052	11057
307.072	11773
307.107	15975
307.162	26311
307.163	26472
307.217	47038
307.253	58276
307.272	59027
307.327	59977
307.343	53715
307.381	38941
307.434	28059
307.436	28934
307.491	63284
307.524	93808
307.546	96922
307.600	71399
307.614	60642
307.655	36014
307.704	20358
307.710	20487
307.765	29985
307.795	39866
307.819	51940
307.874	94026
307.885	95382
307.929	65308
307.975	28364
307.984	25880
308.038	25154
308.065	28795
308.093	48404
308.148	101254
308.156	115061
308.202	188740
308.246	244102
308.257	242145
308.312	124696
308.336	85789
308.366	62856
308.421	43383
308.426	41566
308.475	27006
308.517	19203
308.530	18014
308.585	16689
308.607	16359
308.639	18661
308.694	25796
308.697	26415
308.748	71147
308.787	116602
308.803	114268
308.857	80157
308.877	62111
308.912	43919
308.967	30101
308.967	29930
309.021	31125
309.058	33183
309.076	40183
309.130	70077
309.148	82790
309.185	163145
309.238	302243
309.239	303082
309.293	358047
309.328	320276
309.348	271656
309.402	115797
309.418	80656
309.457	53700
309.508	33521
309.511	32963
309.566	32586
309.598	33639
309.620	40943
309.674	63884
309.688	70228
309.729	65455
309.778	50565
309.783	49264
309.837	33746
309.868	26854
309.892	33150
309.946	51053
309.959	57014
310.001	77018
310.049	95397
310.055	92279
310.109	55468
310.139	33575
310.163	27612
310.218	20581
310.229	19557
310.272	18089
310.319	16680
310.326	16801
310.381	18491
310.409	18964
310.435	18509
310.489	17952
310.499	17925
310.543	20739
310.589	23321
310.598	23026
310.652	21705
310.679	20273
310.706	16707
310.760	9475
310.769	8410
310.814	7397
310.859	6697
310.868	6768
310.923	7399
310.948	7719
310.977	10283
311.031	15374
311.038	16105
311.085	15019
311.128	13136
311.139	12764
311.193	10986
311.218	10279
311.247	9380
311.301	7609
311.308	7380
311.356	7992
311.398	8799
311.410	8643
311.464	7741
311.488	7301
311.518	7199
311.572	6967
311.578	6963
311.626	10205
311.668	13109
311.680	14438
311.734	20324
311.758	22902
311.788	22241
311.842	20841
311.847	20658
311.896	25599
311.937	30083
311.950	29510
312.004	26710
312.027	25327
312.058	20483
312.112	11932
312.117	11074
312.165	10486
312.207	9986
312.297	18109
312.386	14688
312.476	11768
312.566	21515
312.656	10431
312.745	8311
312.835	10613
312.925	11321
313.015	14570
313.104	21452
313.194	8001
313.284	7714
313.374	9837
313.463	8344
313.553	8131
313.643	7099
313.732	6177
313.822	6641
313.912	8645
314.001	10610
314.091	12804
314.180	20721
314.270	14358
314.360	24301
314.449	15777
314.539	8882
314.628	8160
314.718	13165
314.808	25285
314.897	8604
314.987	7764
315.076	10685
315.166	19387
315.255	25098
315.345	17632
315.434	26163
315.524	20292
315.613	23448
315.703	21338
315.792	38162
315.881	141493
315.971	49031
316.060	45920
316.150	102742
316.239	111083
316.328	34961
316.418	9791
316.507	9278
316.597	13144
316.686	14886
316.775	38514
316.865	114996
316.954	18540
317.043	7844
317.133	7940
317.222	7830
317.311	8628
317.400	7504
317.490	12449
317.579	14622
317.668	13930
317.757	24104
317.847	64404
317.936	240285
318.025	76005
318.114	46753
318.203	26309
318.293	25495
318.382	47886
318.471	34807
318.560	54244
318.649	127657
318.738	28619
318.828	19126
318.917	22477
319.006	35880
319.095	109241
319.184	158438
319.273	72433
319.362	30256
319.451	13800
319.540	13582
319.629	24481
319.718	41751
319.807	26653
319.896	46385
319.985	190900
320.074	62527
320.163	24707
320.252	69436
320.341	36120
320.430	24410
320.519	23396
320.608	14687
320.697	13045
320.786	13298
320.875	15635
320.964	19249
321.053	27822
321.142	39061
321.230	42868
321.319	37719
321.408	81289
321.497	45771
321.586	38696
321.675	88327
321.764	75024
321.852	45152
321.941	45562
322.030	30468
322.119	39633
322.207	95020
322.296	135294
322.385	57333
322.474	45585
322.562	90811
322.651	57864
322.740	45682
322.829	83357
322.917	149046
323.006	55159
323.095	34824
323.183	43394
323.272	59067
323.361	91073
323.449	338995
323.538	113174
323.626	248936
323.715	152614
323.804	61230
323.892	237392
323.981	119720
324.069	39522
324.158	137196
324.246	125449
324.335	23706
324.424	27312
324.512	11171
324.601	12996
324.689	17731
324.778	35115
324.866	102910
324.954	25682
325.043	20431
325.131	58473
325.220	122232
325.308	144622
325.397	88741
325.485	48978
325.574	11259
325.662	8776
325.750	9528
325.839	8799
325.927	9656
326.015	17977
326.104	51194
326.192	82902
326.280	13184
326.369	12101
326.457	12698
326.545	21013
326.634	10359
326.722	7549
326.810	9128
326.898	7674
326.987	10788
327.075	26766
327.163	51928
327.251	26244
327.340	8396
327.428	9865
327.516	8693
327.604	13474
327.692	19204
327.781	28175
327.869	59146
327.957	25954
328.045	14013
328.133	9929
328.221	26461
328.309	13962
328.397	8468
328.485	9978
328.574	15254
328.662	47096
328.750	57521
328.838	30498
328.926	10441
329.014	7477
329.102	12834
329.190	38697
329.278	21318
329.366	5524
329.454	5803
329.542	6803
329.630	6223
329.718	6995
329.806	8720
329.893	9375
329.981	9160
330.069	6836
330.157	15587
330.245	39412
330.333	19731
330.421	7616
330.509	14392
330.597	51155
330.684	39515
330.772	20293
330.860	41391
330.948	46741
331.036	16280
331.123	6415
331.211	8139
331.299	14159
331.387	31736
331.475	60642
331.562	24781
331.650	9313
331.738	17275
331.825	33889
331.913	9427
332.001	9127
332.089	19158
332.176	58483
332.264	146955
332.352	102686
332.439	20180
332.527	13523
332.614	17021
332.702	30260
332.790	16508
332.877	57305
332.965	135865
333.052	23567
333.140	22444
333.228	55316
333.315	13809
333.403	19312
333.490	87894
333.578	61558
333.665	31269
333.753	17383
333.840	12244
333.928	21909
334.015	92079
334.103	99511
334.190	280504
334.278	63785
334.365	34601
334.452	18739
334.540	11959
334.627	25717
334.715	42919
334.802	78677
334.889	442231
334.977	385406
335.064	41337
335.151	17218
335.239	17556
335.326	24663
335.413	98338
335.501	132176
335.588	17587
335.675	11822
335.762	17970
335.850	33839
335.937	25508
336.024	78996
336.111	382919
336.199	138765
336.286	21474
336.373	9952
336.460	8244
336.547	9647
336.635	15388
336.722	10365
336.809	11720
336.896	19012
336.983	58322
337.070	146070
337.157	229042
337.245	264027
337.332	190162
337.419	23621
337.506	12854
337.593	16681
337.680	48430
337.767	147221
337.854	41496
337.941	58673
338.028	111146
338.115	31838
338.202	31394
338.289	70686
338.376	278617
338.463	74608
338.550	87380
338.637	92534
338.724	60771
338.811	107271
338.898	19269
338.984	9719
339.071	12942
339.158	11392
339.245	29786
339.332	23382
339.419	68325
339.506	64736
339.593	7237
339.679	6960
339.766	6521
339.853	10294
339.940	18369
340.027	7679
340.113	7455
340.200	12829
340.287	10913
340.374	10705
340.460	16146
340.547	8200
340.634	14779
340.720	52166
340.807	28659
340.894	6319
340.980	9905
341.067	6356
341.154	7713
341.240	10793
341.327	23803
341.414	6669
341.500	4853
341.587	8028
341.674	8117
341.760	16488
341.847	18543
341.933	6123
342.020	3475
342.106	4405
342.193	6596
342.279	13439
342.366	9011
342.452	15546
342.539	9426
342.625	21111
342.712	50953
342.798	21419
342.885	9401
342.971	4432
343.058	3964
343.144	4973
343.230	4105
343.317	4573
343.403	3796
343.490	3990
343.576	4568
343.662	5898
343.749	6951
343.835	10229
343.921	23587
344.008	123287
344.094	278887
344.180	56977
344.267	22318
344.353	76999
344.439	108283
344.525	32233
344.612	8899
344.698	8018
344.784	6348
344.870	4658
344.957	5307
345.043	9927
345.129	7255
345.215	16628
345.301	9007
345.387	5244
345.474	4447
345.560	6943
345.646	16669
345.732	8784
345.818	6301
345.904	5797
345.990	9760
346.076	18713
346.162	47687
346.249	12385
346.335	5778
346.421	8090
346.507	28250
346.593	99148
346.679	22719
346.765	9670
346.851	6419
346.937	6456
347.023	4981
347.108	6574
347.194	5610
347.280	5750
347.366	8997
347.452	29205
347.538	123919
347.624	82992
347.710	88748
347.796	19435
347.882	7028
347.967	6889
348.053	13874
348.139	8248
348.225	5281
348.311	5832
348.397	4531
348.482	6793
348.568	9141
348.654	4269
348.740	6761
348.825	6150
348.911	14517
348.997	60358
349.083	129796
349.168	27220
349.254	6481
349.340	6390
349.425	4221
349.511	8490
349.597	9281
349.682	17347
349.768	58306
349.854	26676
349.939	8155
350.025	6807
350.110	4360
350.196	2865
350.282	3043
350.367	6849
350.453	34221
350.538	32947
350.624	10062
350.709	9708
350.795	4456
350.880	5310
350.966	8114
351.051	29408
351.137	23869
351.222	6989
351.308	17237
351.393	48368
351.479	10487
351.564	4301
351.649	5056
351.735	4818
351.820	3104
351.906	4920
351.991	12374
352.076	35803
352.162	45466
352.247	9588
352.332	6318
352.418	9939
352.503	14901
352.588	67412
352.673	53809
352.759	12633
352.844	5722
352.929	7597
353.014	9949
353.100	7592
353.185	10907
353.270	19242
353.355	18916
353.441	7319
353.526	16616
353.611	22028
353.696	19629
353.781	11297
353.866	5304
353.952	6424
354.037	16148
354.122	38275
354.207	34371
354.292	12724
354.377	6009
354.462	5447
354.547	8294
354.632	8163
354.717	13162
354.802	12637
354.887	5900
354.972	4135
355.057	3892
355.142	3528
355.227	5608
355.312	10259
355.397	24216
355.482	59489
355.567	28676
355.652	21452
355.737	23938
355.822	71086
355.907	55485
355.991	10546
356.076	5107
356.161	6285
356.246	5454
356.331	6557
356.416	18716
356.501	132207
356.585	133261
356.670	16476
356.755	11487
356.840	17644
356.924	86011
357.009	328957
357.094	111779
357.179	22626
357.263	14712
357.348	17724
357.433	18283
357.517	11677
357.602	9525
357.687	8135
357.771	8937
357.856	12917
357.941	15473
358.025	67411
358.110	314540
358.195	131073
358.279	17633
358.364	12748
358.448	48116
358.533	124025
358.617	86492
358.702	90566
358.787	32241
358.871	17559
358.956	14481
359.040	5398
359.125	4039
359.209	4742
359.294	7037
359.378	9378
359.462	12915
359.547	13201
359.631	16398
359.716	5321
359.800	6882
359.885	13993
359.969	7489
360.053	5645
360.138	5368
360.222	8979
360.306	16913
360.391	13795
360.475	16100
360.559	35609
360.644	48708
360.728	37736
360.812	71169
360.896	199322
360.981	81080
361.065	42366
361.149	11077
361.233	10466
361.318	9381
361.402	11995
361.486	8788
361.570	5979
361.654	9337
361.739	27234
361.823	128670
361.907	195362
361.991	29683
362.075	15521
362.159	34692
362.243	24190
362.327	20261
362.411	25381
362.495	22255
362.580	9891
362.664	6174
362.748	4827
362.832	5818
362.916	9586
363.000	35371
363.084	139969
363.168	229721
363.252	48419
363.336	18476
363.420	28789
363.503	133190
363.587	149425
363.671	21715
363.755	13722
363.839	18659
363.923	8514
364.007	19212
364.091	32092
364.175	56392
364.258	204944
364.342	105015
364.426	71131
364.510	40147
364.594	26653
364.677	36003
364.761	172311
364.845	115112
364.929	32282
365.013	25725
365.096	22041
365.180	28551
365.264	53271
365.347	217825
365.431	87746
365.515	22768
365.598	8973
365.682	7712
365.766	23822
365.849	27820
365.933	15992
366.017	22430
366.100	16351
366.184	9467
366.267	11672
366.351	5627
366.435	3843
366.518	3342
366.602	3321
366.685	5713
366.769	7824
366.852	18358
366.936	29578
367.019	13397
367.103	15171
367.186	33284
367.270	8420
367.353	4053
367.436	5383
367.520	3770
367.603	6813
367.687	10927
367.770	21947
367.853	12280
367.937	45188
368.020	73687
368.104	16113
368.187	16624
368.270	21769
368.353	21542
368.437	64093
368.520	214392
368.603	86027
368.687	54597
368.770	94488
368.853	23371
368.936	27202
369.020	30256
369.103	9338
369.186	5452
369.269	6762
369.352	15744
369.436	24283
369.519	14654
369.602	6856
369.685	9195
369.768	8706
369.851	8338
369.934	4700
370.018	9358
370.101	19317
370.184	17207
370.267	13460
370.350	21395
370.433	34228
370.516	92496
370.599	133739
370.682	43926
370.765	49914
370.848	61878
370.931	124216
371.014	50216
371.097	10099
371.180	6726
371.263	3402
371.346	2346
371.429	4807
371.511	5246
371.594	11635
371.677	24300
371.760	31544
371.843	19964
371.926	104258
372.009	247561
372.091	69921
372.174	55752
372.257	128224
372.340	44982
372.423	43697
372.505	54460
372.588	20499
372.671	35961
372.754	119595
372.836	56312
372.919	61286
373.002	120398
373.085	29555
373.167	18131
373.250	47556
373.332	113134
373.415	157006
373.498	344349
373.580	116227
373.663	200061
373.746	252093
373.828	47599
373.911	22090
373.993	26558
374.076	122220
374.159	127715
374.241	44292
374.324	98558
374.406	60904
374.489	96714
374.571	280560
374.654	100557
374.736	51500
374.819	176321
374.901	242576
374.983	244807
375.066	38259
375.148	18663
375.231	96630
375.313	183147
375.395	60810
375.478	13379
375.560	8957
375.643	13752
375.725	56408
375.807	239187
375.890	255872
375.972	170833
376.054	77243
376.136	180672
376.219	62634
376.301	62558
376.383	182043
376.465	61947
376.548	37829
376.630	48167
376.712	147590
376.794	61123
376.877	8837
376.959	5729
377.041	9454
377.123	27426
377.205	31208
377.287	4813
377.369	4913
377.452	5660
377.534	5360
377.616	6120
377.698	4423
377.780	3413
377.862	5509
377.944	5910
378.026	2448
378.108	3851
378.190	4124
378.272	4151
378.354	2896
378.436	2516
378.518	12992
378.600	52012
378.682	34751
378.764	64187
378.846	47726
378.928	16739
379.010	18940
379.091	8997
379.173	4528
379.255	4990
379.337	8572
379.419	29871
379.501	93042
379.583	36691
379.664	11196
379.746	22509
379.828	61450
379.910	82582
379.991	71511
380.073	12911
380.155	9596
380.237	6604
380.318	4806
380.400	5464
380.482	15266
380.564	22193
380.645	21539
380.727	18430
380.809	11706
380.890	7831
380.972	5284
381.053	4938
381.135	8368
381.217	20743
381.298	65573
381.380	32267
381.461	31986
381.543	148545
381.624	173854
381.706	29552
381.787	17971
381.869	18613
381.951	63951
382.032	266655
382.113	150470
382.195	30382
382.276	19023
382.358	41873
382.439	128782
382.521	146440
382.602	241590
382.684	94192
382.765	175989
382.846	164750
382.928	198422
383.009	99499
383.090	67360
383.172	280963
383.253	432238
383.334	151890
383.416	200080
383.497	90812
383.578	32739
383.659	63387
383.741	238514
383.822	661710
383.903	308478
383.984	121585
384.066	228521
384.147	132405
384.228	26389
384.309	20187
384.390	13496
384.471	9402
384.553	11844
384.634	20064
384.715	18211
384.796	8378
384.877	12063
384.958	55977
385.039	65974
385.120	20678
385.201	11022
385.282	18732
385.363	21860
385.444	14857
385.525	25893
385.606	103909
385.687	85502
385.768	23137
385.849	29026
385.930	116577
386.011	204729
386.092	47798
386.173	11358
386.254	11987
386.335	11598
386.416	9910
386.496	38990
386.577	65168
386.658	30696
386.739	18422
386.820	21861
386.901	18505
386.981	13498
387.062	7184
387.143	13893
387.224	61635
387.304	58954
387.385	22565
387.466	18322
387.547	26052
387.627	12562
387.708	24089
387.789	112215
387.869	139614
387.950	35066
388.031	7758
388.111	10223
388.192	39516
388.273	61496
388.353	29496
388.434	11177
388.514	23966
388.595	122788
388.676	147901
388.756	59519
388.837	56183
388.917	32515
388.998	7859
389.078	8605
389.159	6856
389.239	4722
389.320	12364
389.400	9484
389.480	28273
389.561	71792
389.641	30920
389.722	12350
389.802	19245
389.883	29836
389.963	90836
390.043	82367
390.124	34441
390.204	25496
390.284	71898
390.365	46935
390.445	82782
390.525	172068
390.605	118615
390.686	31217
390.766	11184
390.846	7101
390.927	5589
391.007	6426
391.087	9729
391.167	10649
391.247	10637
391.328	35817
391.408	42468
391.488	21210
391.568	6031
391.648	9631
391.728	12440
391.808	12233
391.888	14053
391.969	34639
392.049	56837
392.129	30639
392.209	33642
392.289	77011
392.369	46154
392.449	54462
392.529	31266
392.609	21643
392.689	27086
392.769	79189
392.849	66540
392.929	55575
393.009	131789
393.089	96095
393.169	93121
393.248	312320
393.328	1200902
393.408	1231624
393.488	305636
393.568	81025
393.648	39086
393.728	24352
393.807	18140
393.887	15463
393.967	12969
394.047	12577
394.127	13983
394.206	20349
394.286	68637
394.366	346154
394.446	338344
394.525	56800
394.605	14341
394.685	21602
394.764	67648
394.844	123016
394.924	77814
395.003	17804
395.083	10691
395.163	10166
395.242	9610
395.322	9034
395.402	6500
395.481	12255
395.561	46261
395.640	128724
395.720	82341
395.799	143082
395.879	99504
395.958	28721
396.038	92194
396.117	451994
396.197	457297
396.276	113282
396.356	48589
396.435	48635
396.515	31242
396.594	35882
396.673	76644
396.753	330631
396.832	1076199
396.912	730371
396.991	151522
397.070	40314
397.150	21720
397.229	16256
397.308	16613
397.388	23059
397.467	13006
397.546	8984
397.625	5972
397.705	10369
397.784	10294
397.863	6427
397.942	5708
398.022	8177
398.101	44361
398.180	134183
398.259	67142
398.338	16480
398.417	9149
398.497	7642
398.576	7957
398.655	3960
398.734	4803
398.813	7116
398.892	39523
398.971	146445
399.050	65761
399.129	7314
399.208	3678
399.287	5156
399.366	2955
399.445	4246
399.524	4592
399.603	3592
399.682	11125
399.761	37130
399.840	151708
399.919	112078
399.998	13727
400.077	3542
400.156	2810
400.235	7813
400.313	5675
400.392	8246
400.471	32137
400.550	50722
400.629	13865
400.708	8011
400.786	10471
400.865	35406
400.944	33941
401.023	13082
401.102	2943
401.180	4689
401.259	6666
401.338	8376
401.416	9875
401.495	8095
401.574	8688
401.652	5906
401.731	9353
401.810	8233
401.888	3532
401.967	2141
402.046	3207
402.124	7795
402.203	12268
402.281	6184
402.360	9987
402.438	41943
402.517	28299
402.596	10370
402.674	10406
402.753	5906
402.831	5911
402.910	5913
402.988	21680
403.066	71026
403.145	35506
403.223	19936
403.302	48198
403.380	34100
403.459	32716
403.537	14370
403.615	7292
403.694	1229
403.772	2734
403.850	1410
403.929	1677
404.007	3222
404.085	7414
404.164	7380
404.242	2937
404.320	3914
404.398	7491
404.477	32786
404.555	181057
404.633	149770
404.711	18024
404.789	4734
404.868	3229
404.946	1699
405.024	1256
405.102	2059
405.180	1088
405.258	1417
405.336	3718
405.415	4420
405.493	13262
405.571	9181
405.649	2262
405.727	3209
405.805	8616
405.883	6466
405.961	7939
406.039	12883
406.117	5429
406.195	7592
406.273	36835
406.351	150558
406.429	86212
406.507	18380
406.585	5877
406.663	4738
406.740	5828
406.818	6055
406.896	4059
406.974	4550
407.052	11959
407.130	83837
407.208	114365
407.285	18878
407.363	3376
407.441	3286
407.519	3007
407.596	3627
407.674	8970
407.752	16284
407.830	32251
407.907	21512
407.985	6108
408.063	2924
408.141	1764
408.218	10512
408.296	8359
408.373	4295
408.451	3614
408.529	3923
408.606	1395
408.684	1253
408.762	302
408.839	1005
408.917	837
408.994	1342
409.072	633
409.149	920
409.227	4809
409.304	4534
409.382	3028
409.459	3532
409.537	6650
409.614	5223
409.692	2224
409.769	3524
409.846	7678
409.924	10083
410.001	6217
410.079	4144
410.156	3500
410.233	2975
410.311	2130
410.388	1778
410.465	3845
410.543	3593
410.620	2716
410.697	3315
410.775	3670
410.852	1822
410.929	4831
411.006	7134
411.083	3662
411.161	12326
411.238	14376
411.315	8304
411.392	2718
411.469	5045
411.547	5787
411.624	1602
411.701	2175
411.778	4033
411.855	10565
411.932	5347
412.009	3112
412.086	2215
412.163	4740
412.240	6758
412.317	9200
412.394	7595
412.471	2465
412.548	1843
412.625	2628
412.702	5489
412.779	11976
412.856	6270
412.933	2498
413.010	1701
413.087	4792
413.164	29022
413.241	39963
413.318	9025
413.395	5666
413.471	9095
413.548	3767
413.625	2805
413.702	5923
413.779	4497
413.855	565
413.932	7
414.009	675
414.086	1258
414.162	657
414.239	5630
414.316	30357
414.393	64255
414.469	19843
414.546	2637
414.623	1267
414.699	2066
414.776	1972
414.853	1245
414.929	3064
415.006	3340
415.082	6340
415.159	4221
415.236	2080
415.312	2492
415.389	6228
415.465	8649
415.542	3466
415.618	2111
415.695	5756
415.771	4096
415.848	4136
415.924	4158
416.000	3803
416.077	2007
416.153	461
416.230	-425
416.306	1976
416.383	4498
416.459	2411
416.535	585
416.612	924
416.688	1805
416.764	1505
416.841	1372
416.917	2206
416.993	2069
417.069	4187
417.146	6436
417.222	7072
417.298	3158
417.374	1775
417.451	3429
417.527	3665
417.603	4407
417.679	2811
417.755	1896
417.831	105
417.908	1685
417.984	505
418.060	1192
418.136	7392
418.212	10414
418.288	3410
418.364	2681
418.440	2142
418.516	6389
418.592	12437
418.668	16895
418.744	18607
418.820	13299
418.896	4101
418.972	662
419.048	1883
419.124	8732
419.200	5775
419.276	1387
419.352	148
419.428	578
419.504	2686
419.579	3317
419.655	1513
419.731	2338
419.807	12309
419.883	24538
419.959	14832
420.034	3848
420.110	9050
420.186	39022
420.262	27724
420.337	5698
420.413	3566
420.489	1613
420.565	1450
420.640	584
420.716	1468
420.792	254
420.867	1953
420.943	1833
421.019	4652
421.094	3118
421.170	1397
421.245	728
421.321	1685
421.397	1927
421.472	2880
421.548	6036
421.623	5114
421.699	3438
421.774	3942
421.850	2999
421.925	7462
422.001	5875
422.076	3342
422.152	4002
422.227	8132
422.302	8311
422.378	12583
422.453	23801
422.529	63123
422.604	242618
422.679	470070
422.755	241194
422.830	57666
422.905	20463
422.981	10403
423.056	7275
423.131	5454
423.207	4136
423.282	5287
423.357	12339
423.432	6904
423.508	7262
423.583	18752
423.658	13404
423.733	5535
423.808	8301
423.883	6485
423.959	4462
424.034	3199
424.109	2466
424.184	358
424.259	1316
424.334	1325
424.409	358
424.484	904
424.559	2422
424.634	2225
424.709	4430
424.784	5697
424.859	3044
424.934	6604
425.009	26630
425.084	43300
425.159	14756
425.234	1811
425.309	541
425.384	1117
425.459	838
425.534	2243
425.609	4044
425.683	1904
425.758	1116
425.833	2252
425.908	3930
425.983	16913
426.058	48381
426.132	20048
426.207	4896
426.282	12213
426.357	11497
426.431	2279
426.506	2630
426.581	2890
426.655	2580
426.730	1394
426.805	2183
426.879	3031
426.954	2284
427.029	9063
427.103	47108
427.178	120470
427.253	49968
427.327	6928
427.402	9200
427.476	17734
427.551	5499
427.625	5341
427.700	5634
427.774	2514
427.849	5874
427.923	2482
427.998	1900
428.072	4725
428.147	10590
428.221	35313
428.296	88714
428.370	38938
428.444	8622
428.519	15451
428.593	33613
428.667	26298
428.742	33420
428.816	27822
428.890	71676
428.965	87882
429.039	38725
429.113	38720
429.188	11856
429.262	2827
429.336	7885
429.410	26405
429.485	17492
429.559	26848
429.633	20083
429.707	5001
429.781	16475
429.855	89999
429.930	116076
430.004	93042
430.078	147844
430.152	108465
430.226	130202
430.300	115558
430.374	17220
430.448	8893
430.522	43231
430.596	128966
430.670	65374
430.744	114136
430.818	162687
430.892	33010
430.966	5432
431.040	3367
431.114	1092
431.188	2035
431.262	4877
431.336	5321
431.410	14688
431.484	40930
431.557	21650
431.631	1655
431.705	2696
431.779	16291
431.853	75249
431.927	47136
432.000	5844
432.074	2911
432.148	6956
432.222	5120
432.295	2422
432.369	2085
432.443	6990
432.516	52044
432.590	127967
432.664	44798
432.737	5087
432.811	671
432.885	43
432.958	1171
433.032	1036
433.106	453
433.179	238
433.253	19
433.326	595
433.400	-141
433.473	783
433.547	286
433.620	1230
433.694	4526
433.767	8885
433.841	4926
433.914	900
433.988	679
434.061	939
434.134	1140
434.208	-549
434.281	-88
434.355	638
434.428	1558
434.501	364
434.575	754
434.648	828
434.721	432
434.795	-18
434.868	-199
434.941	-193
435.014	-287
435.088	187
435.161	1685
435.234	4940
435.307	5223
435.381	2246
435.454	2354
435.527	3333
435.600	2628
435.673	1880
435.746	-262
435.819	569
435.892	909
435.966	801
436.039	1071
436.112	1239
436.185	242
436.258	-525
436.331	-1526
436.404	415
436.477	483
436.550	-100
436.623	237
436.696	11
436.769	2620
436.842	838
436.915	2852
436.987	4822
437.060	800
437.133	-323
437.206	936
437.279	743
437.352	555
437.425	-398
437.498	1169
437.570	4594
437.643	4114
437.716	641
437.789	69
437.861	5479
437.934	16773
438.007	6460
438.080	928
438.152	1497
438.225	7622
438.298	66339
438.370	186296
438.443	72958
438.516	17289
438.588	3563
438.661	526
438.734	1106
438.806	2102
438.879	2588
438.951	3672
439.024	8113
439.096	2132
439.169	1182
439.241	122
439.314	1337
439.386	5871
439.459	15138
439.531	24072
439.604	6904
439.676	715
439.749	-383
439.821	88
439.893	1096
439.966	3277
440.038	3967
440.110	3034
440.183	924
440.255	74
440.327	3094
440.400	26621
440.472	112107
440.544	68610
440.617	9100
440.689	5898
440.761	9005
440.833	13203
440.905	8088
440.978	1375
441.050	93
441.122	1347
441.194	310
441.266	137
441.338	74
441.411	3790
441.483	29884
441.555	43032
441.627	10570
441.699	9196
441.771	11124
441.843	2943
441.915	233
441.987	67
442.059	698
442.131	2788
442.203	6686
442.275	6849
442.347	5190
442.419	5465
442.491	29347
442.563	73318
442.635	40529
442.706	35275
442.778	22964
442.850	3404
442.922	1714
442.994	3498
443.066	6578
443.137	4090
443.209	2135
443.281	4092
443.353	12149
443.425	44613
443.496	141806
443.568	132757
443.640	48554
443.711	10493
443.783	3934
443.855	3325
443.926	965
443.998	2837
444.070	5219
444.141	4266
444.213	5601
444.285	7720
444.356	12837
444.428	13359
444.499	3558
444.571	738
444.642	379
444.714	1234
444.785	4336
444.857	9558
444.928	29082
445.000	14332
445.071	19201
445.143	18820
445.214	7804
445.285	16347
445.357	50398
445.428	110219
445.500	243145
445.571	155823
445.642	68419
445.714	40377
445.785	41257
445.856	8947
445.928	6876
445.999	5874
446.070	5061
446.141	4189
446.213	5771
446.284	3846
446.355	6215
446.426	2907
446.497	3063
446.569	8452
446.640	10572
446.711	6006
446.782	4449
446.853	13916
446.924	9339
446.995	3277
447.066	4141
447.138	10707
447.209	3955
447.280	-262
447.351	-635
447.422	832
447.493	3888
447.564	4053
447.635	5299
447.706	1827
447.777	160
447.847	457
447.918	379
447.989	4756
448.060	6602
448.131	18723
448.202	13154
448.273	6771
448.344	2720
448.414	1234
448.485	844
448.556	766
448.627	548
448.698	724
448.768	-535
448.839	2109
448.910	8797
448.981	6103
449.051	1661
449.122	210
449.193	54
449.263	867
449.334	418
449.405	1718
449.475	6725
449.546	5968
449.616	10898
449.687	6678
449.758	789
449.828	549
449.899	1246
449.969	288
450.040	1180
450.110	7774
450.181	9055
450.251	296
450.322	530
450.392	2009
450.463	418
450.533	308
450.604	159
450.674	725
450.744	1410
450.815	1332
450.885	349
450.955	408
451.026	169
451.096	932
451.166	3143
451.237	11223
451.307	27504
451.377	6451
451.447	821
451.518	567
451.588	996
451.658	1240
451.728	5028
451.799	30232
451.869	28479
451.939	5000
452.009	727
452.079	270
452.149	1907
452.219	7395
452.289	35475
452.360	18973
452.430	3305
452.500	2812
452.570	3924
452.640	6195
452.710	22618
452.780	31692
452.850	15537
452.920	15098
452.990	5207
453.060	2569
453.129	4114
453.199	7921
453.269	35242
453.339	67659
453.409	100130
453.479	115542
453.549	155588
453.619	165233
453.688	49778
453.758	7898
453.828	2892
453.898	2366
453.968	2303
454.037	985
454.087	1279
454.107	1383
454.168	817
454.177	713
454.247	809
454.249	850
454.316	1583
454.330	1805
454.386	2549
454.411	7719
454.456	15943
454.492	18931
454.525	21627
454.574	9951
454.595	4913
454.655	1810
454.665	1346
454.734	2527
454.736	2739
454.804	9180
454.817	13560
454.873	30579
454.898	32931
454.943	36465
454.979	27205
455.013	19134
455.060	9112
455.082	5067
455.141	6156
455.152	6088
455.221	21041
455.222	21315
455.291	36176
455.303	32385
455.360	14466
455.384	15162
455.430	15776
455.465	16770
455.499	17394
455.546	24324
455.569	27075
455.627	15009
455.638	12940
455.707	1856
455.708	1873
455.777	1483
455.789	1514
455.846	1493
455.869	1419
455.916	1213
455.950	1741
455.985	2261
456.031	2156
456.054	2047
456.112	2023
456.124	2064
456.193	1778
456.193	1754
456.262	2949
456.274	3494
456.332	5920
456.355	7540
456.401	9954
456.436	7295
456.470	4706
456.516	2024
456.540	865
456.597	993
456.609	986
456.678	427
456.678	409
456.747	982
456.759	827
456.817	278
456.840	629
456.886	1154
456.920	1027
456.955	1110
457.001	1961
457.024	2669
457.082	3396
457.093	3482
457.162	9349
457.163	9395
457.232	15730
457.243	14110
457.301	5341
457.324	3676
457.370	1625
457.405	1819
457.439	2159
457.485	1972
457.508	1773
457.566	2173
457.577	2312
457.646	2631
457.647	2658
457.715	5318
457.727	5957
457.784	9972
457.808	12216
457.853	14442
457.889	16781
457.922	16602
457.969	11645
457.991	12141
458.050	15547
458.060	16097
458.129	25785
458.130	26080
458.198	24337
458.211	21819
458.267	12321
458.292	8464
458.336	5769
458.372	5682
458.405	7501
458.453	10983
458.474	14122
458.533	26076
458.543	26932
458.611	42389
458.614	42612
458.680	26376
458.694	20930
458.749	10438
458.775	7418
458.818	4157
458.855	3463
458.887	3252
458.936	3470
458.955	3433
459.016	3642
459.024	3664
459.093	3167
459.097	3181
459.162	3535
459.177	3711
459.230	4102
459.257	4367
459.299	5021
459.338	5355
459.368	5509
459.418	5884
459.437	5469
459.499	3857
459.505	3833
459.574	3477
459.579	3433
459.643	2784
459.659	2817
459.711	2932
459.740	3006
459.780	3318
459.820	3615
459.849	3838
459.900	4522
459.917	4539
459.981	4863
459.986	4829
460.054	3099
460.061	2965
460.123	3059
460.141	3330
460.191	4584
460.222	5201
460.260	5137
460.302	5536
460.328	5598
460.382	4473
460.397	4245
460.462	3664
460.465	3682
460.534	4825
460.543	4940
460.602	7758
460.623	8847
460.671	12195
460.703	15244
460.739	14377
460.783	12078
460.808	10200
460.864	4614
460.876	4405
460.944	4657
460.945	4645
461.013	3960
461.024	3862
461.081	4002
461.104	4302
461.150	4549
461.184	4404
461.218	4106
461.264	3592
461.286	3705
461.345	4190
461.355	4207
461.423	4395
461.425	4398
461.491	4527
461.505	4644
461.559	9905
461.585	12389
461.628	20785
461.665	29651
461.696	34457
461.745	46636
461.764	42299
461.825	12845
461.832	11838
461.901	6357
461.905	6307
461.969	5723
461.985	5352
462.037	5449
462.065	5614
462.105	6063
462.145	6562
462.173	10267
462.225	17582
462.241	19296
462.305	29128
462.310	28563
462.378	17188
462.385	15317
462.446	6940
462.465	5216
462.514	4777
462.545	5019
462.582	4909
462.625	4508
462.650	4539
462.705	4656
462.718	4836
462.785	6292
462.786	6369
462.854	10409
462.865	11210
462.922	15022
462.945	16577
462.990	12530
463.025	7980
463.058	6578
463.104	5415
463.126	5079
463.184	4486
463.194	4591
463.262	5230
463.264	5261
463.330	5343
463.344	5313
463.398	6564
463.424	7186
463.466	7215
463.504	7247
463.533	7162
463.583	6914
463.601	7078
463.663	7566
463.669	7805
463.737	10807
463.743	11108
463.805	19630
463.823	22048
463.873	33935
463.903	41707
463.940	45886
463.982	51833
464.008	42610
464.062	17307
464.076	15354
464.142	6483
464.144	6403
464.211	5841
464.221	5773
464.279	5874
464.301	6004
464.347	6973
464.381	7616
464.414	8744
464.461	10314
464.482	11118
464.540	13767
464.550	13100
464.617	7031
464.620	6828
464.685	7942
464.699	8216
464.753	9411
464.779	10023
464.820	10495
464.859	10759
464.888	10843
464.938	11211
464.956	11843
465.018	14021
465.023	13771
465.091	10049
465.098	9641
465.158	8353
465.177	7957
465.226	8244
465.257	8457
465.293	8859
465.336	9343
465.361	10111
465.416	11842
465.428	13021
465.495	19335
465.496	19476
465.563	36875
465.575	39935
465.631	50062
465.654	54633
465.698	34774
465.734	16456
465.765	12996
465.813	8450
465.833	8083
465.893	7678
465.900	7729
465.968	8090
465.972	8098
466.035	7788
466.052	7686
466.102	7836
466.131	7901
466.170	8450
466.210	8983
466.237	8854
466.290	8628
466.304	8803
466.369	9385
466.372	9424
466.439	10155
466.449	10224
466.506	10874
466.528	11103
466.573	17241
466.607	21845
466.641	34984
466.687	53213
466.708	59373
466.766	76680
466.775	71071
466.842	27316
466.845	25187
466.909	14553
466.925	12144
466.977	11872
467.004	11758
467.044	12293
467.083	12806
467.111	13370
467.163	14343
467.178	14323
467.242	14117
467.245	14162
467.312	14563
467.321	14591
467.379	15391
467.400	15635
467.446	16943
467.480	17832
467.559	17067
467.638	12171
467.717	11721
467.796	14965
467.875	16209
467.955	15316
468.034	23527
468.113	63623
468.192	93094
468.271	29052
468.350	13647
468.429	16244
468.508	17345
468.588	15171
468.667	11942
468.746	12741
468.825	12415
468.904	11065
468.983	14562
469.062	26766
469.141	33393
469.220	14272
469.299	11943
469.378	12543
469.456	13507
469.535	12699
469.614	12998
469.693	13418
469.772	21028
469.851	29031
469.930	23050
470.009	12140
470.088	12116
470.166	13727
470.245	19855
470.324	23101
470.403	16066
470.482	12749
470.560	11406
470.639	13020
470.718	13907
470.797	12356
470.875	15342
470.954	22435
471.033	26387
471.111	12271
471.190	10605
471.269	10189
471.347	9513
471.426	11666
471.505	13779
471.583	13880
471.662	11704
471.740	11229
471.819	11051
471.898	10036
471.976	10957
472.055	10518
472.133	13119
472.212	19765
472.290	21501
472.369	13663
472.447	10774
472.526	9517
472.604	11002
472.683	10897
472.761	11753
472.839	11004
472.918	10900
472.996	10707
473.075	13822
473.153	14086
473.231	10562
473.310	14082
473.388	13902
473.466	11399
473.545	11265
473.623	15617
473.701	16462
473.780	10974
473.858	9327
473.936	11455
474.014	9901
474.093	12827
474.171	21167
474.249	32393
474.327	25623
474.405	9620
474.484	9904
474.562	8709
474.640	10203
474.718	12205
474.796	11358
474.874	9719
474.952	8563
475.030	8399
475.108	9980
475.187	10450
475.265	10983
475.343	14750
475.421	16615
475.499	9942
475.577	11518
475.655	16792
475.733	38733
475.811	71075
475.889	66606
475.966	50937
476.044	12338
476.122	13772
476.200	17151
476.278	14533
476.356	12505
476.434	12692
476.512	14997
476.590	19139
476.667	16914
476.745	11188
476.823	11275
476.901	13954
476.979	13636
477.056	12957
477.134	12347
477.212	12608
477.290	11620
477.367	10976
477.445	11545
477.523	10948
477.601	11904
477.678	12661
477.756	15939
477.834	19529
477.911	12426
477.989	11980
478.066	12203
478.144	15462
478.222	15262
478.299	19295
478.377	18572
478.454	11362
478.532	10772
478.609	11539
478.687	12406
478.764	9869
478.842	10587
478.919	12273
478.997	12815
479.074	11332
479.152	15391
479.229	19905
479.307	13820
479.384	8387
479.461	9691
479.539	11422
479.616	14725
479.694	12958
479.771	13358
479.848	15355
479.926	20392
480.003	25995
480.080	11032
480.157	10987
480.235	11035
480.312	10226
480.389	13646
480.467	26794
480.544	35330
480.621	16482
480.698	14440
480.775	15964
480.853	18114
480.930	13749
481.007	13772
481.084	15479
481.161	17194
481.238	16885
481.315	13150
481.392	11756
481.470	12034
481.547	11497
481.624	11976
481.701	12582
481.778	13711
481.855	14630
481.932	23042
482.009	40735
482.086	37125
482.163	14660
482.240	16774
482.317	24631
482.393	20092
482.470	13051
482.547	15106
482.624	12760
482.701	14138
482.778	13728
482.855	9909
482.932	9836
483.009	11739
483.085	12185
483.162	14419
483.239	15608
483.316	11596
483.393	12169
483.469	12568
483.546	14811
483.623	16490
483.699	12631
483.776	12753
483.853	13593
483.930	18683
484.006	58081
484.083	105290
484.160	49594
484.236	37027
484.313	30439
484.389	24857
484.466	22789
484.543	20217
484.619	21363
484.696	25427
484.772	27153
484.849	31985
484.925	23894
485.002	20835
485.078	23563
485.155	24748
485.231	20554
485.308	20731
485.384	21654
485.461	27678
485.537	57378
485.614	80054
485.690	28793
485.766	20629
485.843	20004
485.919	27900
485.995	29698
486.072	18587
486.148	18303
486.224	17708
486.301	19635
486.377	26204
486.453	26031
486.530	22448
486.606	26236
486.682	28146
486.758	44763
486.835	61130
486.911	42158
486.987	72224
487.063	75825
487.139	62916
487.215	45178
487.292	24634
487.368	21080
487.444	25297
487.520	32245
487.596	28827
487.672	39012
487.748	102365
487.824	152756
487.900	50748
487.976	24541
488.052	26283
488.128	33198
488.204	27641
488.280	22693
488.356	25039
488.432	67922
488.508	119234
488.584	44853
488.660	20039
488.736	18484
488.812	19040
488.888	23417
488.964	28405
489.039	57471
489.115	92683
489.191	60346
489.267	20755
489.343	21066
489.418	16294
489.494	15112
489.570	13692
489.646	18107
489.722	16519
489.797	17179
489.873	30046
489.949	83909
490.024	89991
490.100	19544
490.176	16771
490.251	19853
490.327	24501
490.403	17207
490.478	14847
490.554	13637
490.629	12853
490.705	12582
490.781	16596
490.856	16410
490.932	17724
491.007	17752
491.083	17248
491.158	17156
491.234	22460
491.309	62642
491.385	83051
491.460	21948
491.536	20473
491.611	15611
491.686	17284
491.762	20711
491.837	39412
491.913	70959
491.988	103241
492.063	123141
492.139	50262
492.214	38173
492.289	13658
492.365	13724
492.440	16337
492.515	18416
492.590	19736
492.666	14203
492.741	20110
492.816	38537
492.891	26402
492.967	12447
493.042	11847
493.117	11951
493.192	12651
493.267	17787
493.342	45510
493.418	60677
493.493	15705
493.568	11658
493.643	11956
493.718	16894
493.793	29603
493.868	31747
493.943	16553
494.018	12357
494.093	12768
494.168	13625
494.243	10484
494.318	10523
494.393	11512
494.468	11354
494.543	9353
494.618	12262
494.693	12260
494.768	12848
494.842	13624
494.917	9739
494.992	10287
495.067	9241
495.142	9500
495.217	10483
495.292	10919
495.366	13718
495.441	18389
495.516	24834
495.591	28307
495.665	80869
495.740	201563
495.815	99239
495.890	22749
495.964	17814
496.039	19123
496.114	18329
496.188	17446
496.263	17857
496.338	17804
496.412	20586
496.487	24698
496.561	22830
496.636	24005
496.710	18910
496.785	21303
496.860	27747
496.934	20666
497.009	19323
497.083	18536
497.158	17894
497.232	23325
497.307	30229
497.381	22943
497.455	27679
497.530	42306
497.604	28396
497.679	25152
497.753	42667
497.827	60424
497.902	44049
497.976	45613
498.050	96641
498.125	422707
498.199	580387
498.273	91123
498.348	42981
498.422	32767
498.496	28845
498.570	29042
498.645	23547
498.719	24595
498.793	32189
498.867	53392
498.941	75256
499.016	167347
499.090	516029
499.164	288813
499.238	26814
499.312	20231
499.386	22048
499.460	23798
499.534	23674
499.609	27346
499.683	45418
499.757	49636
499.831	72275
499.905	324704
499.979	425737
500.053	76146
500.127	67155
500.201	36025
500.275	25593
500.349	23702
500.422	26752
500.496	34341
500.570	62598
500.644	176144
500.718	404334
500.792	145781
500.866	27812
500.940	34914
501.013	33466
501.087	25672
501.161	38856
501.235	54042
501.309	123753
501.382	350534
501.456	409152
501.530	83200
501.603	134688
501.677	79049
501.751	22044
501.825	26288
501.898	45184
501.972	150215
502.046	141982
502.119	28348
502.193	58439
502.266	166562
502.340	120976
502.413	69787
502.487	166991
502.561	119368
502.634	39018
502.708	20378
502.781	17513
502.855	15218
502.928	14462
503.002	14292
503.075	14593
503.149	17633
503.222	18137
503.295	19695
503.369	24287
503.442	31040
503.516	99750
503.589	305511
503.662	259837
503.736	69508
503.809	134253
503.882	144622
503.956	142451
504.029	179582
504.102	78208
504.175	92608
504.249	34492
504.322	24881
504.395	27026
504.468	17308
504.542	18271
504.615	13643
504.688	12680
504.761	11019
504.834	18106
504.907	17290
504.980	25365
505.053	17249
505.127	15454
505.200	23268
505.273	30270
505.346	22332
505.419	14817
505.492	13919
505.565	10596
505.638	10981
505.711	11539
505.784	11331
505.857	11755
505.930	13943
506.003	11705
506.076	15616
506.149	19839
506.221	29141
506.294	22383
506.367	48864
506.440	192530
506.513	160998
506.586	31689
506.659	21083
506.731	12821
506.804	14713
506.877	20534
506.950	19010
507.022	12362
507.095	17283
507.168	27339
507.241	14720
507.313	10003
507.386	10819
507.459	17191
507.531	11632
507.604	9471
507.677	11595
507.749	8495
507.822	12258
507.894	18264
507.967	22575
508.040	13522
508.112	12505
508.185	12896
508.257	11497
508.330	17220
508.402	12258
508.475	13192
508.547	15965
508.620	14556
508.692	28991
508.765	21326
508.837	9314
508.909	11057
508.982	10806
509.054	12710
509.127	11073
509.199	9797
509.271	9220
509.344	9458
509.416	8723
509.488	9054
509.560	10312
509.633	10619
509.705	12395
509.777	12984
509.849	15661
509.922	11582
509.994	9988
510.066	10724
510.138	11129
510.210	17059
510.283	15385
510.355	14070
510.427	13022
510.499	11355
510.571	11834
510.643	11735
510.715	16974
510.787	14432
510.859	13394
510.931	15928
511.003	18458
511.076	17213
511.148	11166
511.219	11043
511.291	23087
511.363	40169
511.435	14290
511.507	9672
511.579	11974
511.651	10824
511.723	10377
511.795	10454
511.867	11069
511.939	14500
512.010	40283
512.082	45985
512.154	12508
512.226	12278
512.298	14339
512.369	18795
512.441	17297
512.513	16685
512.585	11514
512.656	14666
512.728	16226
512.800	12914
512.871	12500
512.943	13826
513.015	9817
513.086	11252
513.158	12135
513.230	12407
513.301	18463
513.373	23919
513.444	13277
513.516	11012
513.588	10413
513.659	11763
513.731	15418
513.802	12834
513.874	23904
513.945	43210
514.016	17879
514.088	11741
514.159	11899
514.231	16640
514.302	17957
514.374	14883
514.445	15092
514.516	42941
514.588	44251
514.659	18417
514.730	41363
514.802	35771
514.873	14057
514.944	14569
515.016	12874
515.087	14392
515.158	22876
515.229	47501
515.301	17456
515.372	16414
515.443	12343
515.514	10285
515.585	8693
515.656	11334
515.728	11049
515.799	9298
515.870	10998
515.941	11741
516.012	11224
516.083	14127
516.154	14844
516.225	21560
516.296	21426
516.367	17325
516.438	19970
516.509	24389
516.580	30983
516.651	86298
516.722	335247
516.793	175668
516.864	41620
516.935	42265
517.006	46614
517.077	57390
517.148	101825
517.219	368862
517.289	625984
517.360	264056
517.431	140600
517.502	27461
517.573	24294
517.643	22350
517.714	22651
517.785	24691
517.856	25637
517.926	31952
517.997	35380
518.068	43010
518.138	54254
518.209	68617
518.280	229706
518.350	939428
518.421	388290
518.492	48953
518.562	32670
518.633	35389
518.703	30670
518.774	45301
518.845	103802
518.915	113816
518.986	41778
519.056	33060
519.127	46372
519.197	70091
519.268	199934
519.338	210970
519.408	43363
519.479	32930
519.549	27253
519.620	19858
519.690	15742
519.760	16610
519.831	16702
519.901	18085
519.971	15239
520.042	17516
520.112	23190
520.182	23032
520.253	22023
520.323	17752
520.393	15697
520.463	21005
520.534	15667
520.604	32259
520.674	24662
520.744	24694
520.814	32910
520.885	32435
520.955	57990
521.025	256547
521.095	170863
521.165	26288
521.235	20318
521.305	18118
521.375	14688
521.445	15134
521.515	18109
521.585	21077
521.655	19309
521.725	17848
521.795	18639
521.865	13771
521.935	27653
522.005	31217
522.075	15077
522.145	17307
522.215	18499
522.285	33114
522.355	41707
522.424	89550
522.494	95152
522.564	34406
522.634	37906
522.704	98159
522.774	48331
522.843	16904
522.913	15264
522.983	18913
523.053	14971
523.122	17240
523.192	18389
523.262	51050
523.331	60574
523.401	18705
523.471	11931
523.540	13921
523.610	11822
523.680	11961
523.749	13358
523.819	17914
523.888	23912
523.958	13230
524.027	14232
524.097	17842
524.166	15058
524.236	14500
524.305	16667
524.375	13359
524.444	12423
524.514	15837
524.583	16085
524.653	21037
524.722	26478
524.791	17522
524.861	15576
524.930	12375
524.999	13291
525.069	18992
525.138	19305
525.207	25393
525.277	19155
525.346	14571
525.415	14767
525.484	14475
525.554	19972
525.623	22055
525.692	15482
525.761	18053
525.830	17425
525.900	19982
525.969	28461
526.038	41127
526.107	62970
526.176	183361
526.245	158653
526.314	57996
526.383	101655
526.452	130162
526.522	217699
526.591	248467
526.660	84448
526.729	44851
526.797	43363
526.867	69597
526.935	283698
527.004	546491
527.073	306895
527.142	36369
527.211	20419
527.280	17496
527.349	19070
527.418	11907
527.487	14008
527.555	11267
527.624	12102
527.693	9975
527.762	11986
527.831	10799
527.899	12216
527.968	12970
528.037	11143
528.106	13955
528.174	23302
528.243	24147
528.312	31896
528.380	46966
528.449	17555
528.518	13851
528.586	9530
528.655	10782
528.723	10326
528.792	10338
528.861	12047
528.929	12389
528.998	12224
529.066	9790
529.135	9855
529.203	9330
529.272	8825
529.340	11096
529.409	11357
529.477	10891
529.545	15306
529.614	21540
529.682	17122
529.751	29937
529.819	23195
529.887	18509
529.956	9752
530.024	13184
530.092	9560
530.161	10610
530.229	15947
530.297	11453
530.365	10865
530.434	8772
530.502	8832
530.570	8854
530.638	8328
530.707	10019
530.775	13353
530.843	10216
530.911	10307
530.979	9959
531.047	9586
531.115	11596
531.183	10259
531.252	10678
531.320	10591
531.388	10596
531.456	10911
531.524	8870
531.592	10405
531.660	13683
531.728	9763
531.796	9508
531.864	9685
531.932	10450
532.000	10197
532.067	10446
532.135	11478
532.203	12444
532.271	12349
532.339	17771
532.407	45378
532.475	32229
532.542	16938
532.610	16826
532.678	18632
532.746	62471
532.814	188167
532.881	60950
532.949	14931
533.017	11828
533.084	10991
533.152	10875
533.220	11333
533.287	11742
533.355	10098
533.423	9832
533.490	9651
533.558	10180
533.625	11014
533.693	13140
533.761	12759
533.828	12962
533.896	10266
533.963	17609
534.031	21219
534.098	28805
534.166	18905
534.233	11604
534.300	11467
534.368	12049
534.435	12252
534.503	12270
534.570	11885
534.637	12503
534.705	13759
534.772	16156
534.840	21137
534.907	81912
534.974	114297
535.041	21025
535.109	22282
535.176	15556
535.243	10365
535.310	11307
535.378	10998
535.445	10417
535.512	9909
535.579	10904
535.646	10774
535.714	11558
535.781	12762
535.848	12453
535.915	13746
535.982	11374
536.049	12170
536.116	13132
536.183	12009
536.250	12928
536.317	11958
536.384	13912
536.451	19385
536.518	21175
536.585	15098
536.652	19902
536.719	25362
536.786	21968
536.853	16170
536.920	23713
536.987	39616
537.053	29951
537.120	85501
537.187	94448
537.254	16862
537.321	13524
537.388	14312
537.454	12771
537.521	11997
537.588	11575
537.654	13743
537.721	13643
537.788	13844
537.855	11658
537.921	12653
537.988	12732
538.055	12498
538.121	13638
538.188	13743
538.254	17073
538.321	34298
538.388	24980
538.454	14124
538.521	13424
538.587	11394
538.654	10665
538.720	11525
538.787	12296
538.853	13392
538.920	18518
538.986	19965
539.053	16824
539.119	15400
539.185	14897
539.252	16309
539.318	20414
539.385	18610
539.451	14629
539.517	15984
539.583	17444
539.650	30097
539.716	79728
539.782	30608
539.849	13512
539.915	13625
539.981	13043
540.047	17122
540.114	15444
540.180	15971
540.246	13553
540.312	18349
540.378	32844
540.444	37301
540.510	30311
540.576	78526
540.643	37129
540.709	13005
540.775	13439
540.841	13709
540.907	19047
540.973	32310
541.039	21783
541.105	23370
541.171	15627
541.237	13730
541.303	16134
541.369	16109
541.435	17594
541.500	30456
541.566	23378
541.632	13824
541.698	12356
541.764	13059
541.830	12628
541.896	12490
541.961	14543
542.027	13104
542.093	13963
542.159	13354
542.224	14238
542.290	18822
542.356	27275
542.421	39473
542.487	20361
542.553	14315
542.618	17974
542.684	15371
542.750	14505
542.815	18004
542.881	24013
542.947	71604
543.012	62090
543.078	14916
543.143	13227
543.209	14613
543.274	15327
543.340	15802
543.405	26591
543.471	45586
543.536	17664
543.602	14231
543.667	13987
543.732	13987
543.798	12594
543.863	14623
543.928	12038
543.994	11920
544.059	13402
544.124	12264
544.190	11943
544.255	12904
544.320	13585
544.386	13017
544.451	17619
544.516	21007
544.581	18396
544.646	41939
544.712	77256
544.777	24179
544.842	21695
544.907	25383
544.972	21319
545.037	20060
545.102	21618
545.168	21811
545.233	23464
545.298	23554
545.363	26848
545.428	26854
545.493	33820
545.558	62658
545.623	38350
545.688	23066
545.753	22112
545.818	20760
545.883	22458
545.947	21226
546.012	24212
546.077	27788
546.142	23676
546.207	21393
546.272	25921
546.337	27975
546.401	23123
546.466	21713
546.531	21842
546.596	24364
546.661	24087
546.725	23808
546.790	22088
546.855	24518
546.919	23545
546.984	26110
547.049	27915
547.113	34494
547.178	32929
547.243	34296
547.307	38161
547.372	43194
547.436	52013
547.501	39458
547.565	38989
547.630	39851
547.695	41458
547.759	52131
547.823	50639
547.888	36542
547.952	36254
548.017	37543
548.081	41353
548.146	56910
548.210	54953
548.274	41309
548.339	37920
548.403	36638
548.468	32596
548.532	34947
548.596	35796
548.660	35831
548.725	38580
548.789	46383
548.853	51930
548.917	40631
548.982	50530
549.046	61108
549.110	37695
549.174	33228
549.238	35519
549.303	37076
549.367	39682
549.431	36764
549.495	35582
549.559	36026
549.623	39841
549.687	44862
549.751	50505
549.815	51287
549.879	49758
549.943	46175
550.007	49899
550.071	50985
550.135	50444
550.199	46333
550.263	43924
550.327	44889
550.391	61802
550.455	53214
550.519	48227
550.582	50048
550.646	57194
550.710	61293
550.774	55221
550.838	55401
550.901	57283
550.965	59814
551.029	62242
551.093	68616
551.156	79244
551.220	128400
551.284	178379
551.347	91044
551.411	135065
551.475	193233
551.538	72412
551.602	54046
551.666	51322
551.729	47287
551.793	47180
551.856	46160
551.920	43671
551.983	46178
552.047	45355
552.110	44770
552.174	44782
552.237	44681
552.301	43419
552.364	41635
552.428	42732
552.491	42555
552.554	42749
552.618	43074
552.681	45776
552.745	45378
552.808	57206
552.871	66346
552.934	50021
552.998	44503
553.061	47412
553.124	44697
553.187	41119
553.251	42914
553.314	44249
553.377	42128
553.440	45244
553.503	53975
553.567	58467
553.630	44686
553.693	42498
553.756	44693
553.819	41970
553.882	42140
553.945	41957
554.008	39302
554.071	40104
554.134	41309
554.197	40047
554.260	37410
554.323	40376
554.386	41107
554.449	40267
554.512	41738
554.575	38339
554.638	40196
554.701	40745
554.764	39217
554.827	37647
554.889	37096
554.952	34036
555.015	34180
555.078	33596
555.141	35960
555.203	34539
555.266	34104
555.329	35395
555.391	32604
555.454	33111
555.517	33566
555.580	32324
555.642	29550
555.705	31066
555.768	30620
555.830	31634
555.893	28636
555.955	28921
556.018	28833
556.080	30112
556.143	28942
556.206	29320
556.268	32009
556.330	31536
556.393	30011
556.455	30151
556.518	43326
556.580	51464
556.643	28378
556.705	27050
556.767	25219
556.830	27566
556.892	27989
556.955	34697
557.017	30503
557.079	26251
557.142	25350
557.204	26877
557.266	38876
557.328	40038
557.391	24705
557.453	23635
557.515	24643
557.577	28358
557.639	28289
557.701	23851
557.764	23049
557.826	25779
557.888	28776
557.950	28140
558.012	27199
558.074	32877
558.136	59073
558.198	137971
558.260	59923
558.322	32643
558.384	32867
558.446	35053
558.508	39479
558.570	48825
558.632	62901
558.694	87101
558.756	90536
558.818	257354
558.880	692863
558.942	219212
559.003	148258
559.065	81113
559.127	38617
559.189	39181
559.251	42861
559.312	53100
559.374	114912
559.436	416444
559.498	218783
559.559	44079
559.621	38052
559.683	41995
559.744	67198
559.806	199633
559.868	302766
559.929	70719
559.991	44212
560.052	56383
560.114	135579
560.176	92652
560.237	79188
560.299	131251
560.360	40884
560.422	28683
560.483	26789
560.545	25056
560.606	25234
560.667	24302
560.729	23719
560.790	22400
560.852	23301
560.913	23496
560.974	21398
561.036	22571
561.097	23101
561.158	23146
561.220	23807
561.281	22252
561.342	22627
561.403	24694
561.465	27472
561.526	46967
561.587	64499
561.648	27977
561.709	23698
561.771	23894
561.832	22422
561.893	22511
561.954	21581
562.015	20860
562.076	21445
562.137	21505
562.198	21685
562.259	21830
562.320	21346
562.381	22645
562.442	29371
562.503	25455
562.564	21290
562.625	21002
562.686	21105
562.747	23400
562.808	22232
562.869	22751
562.930	30933
562.991	29298
563.051	26869
563.112	24990
563.173	21875
563.234	21446
563.294	21747
563.355	20907
563.416	22440
563.477	21287
563.537	22873
563.598	24962
563.659	23301
563.720	23179
563.780	24039
563.841	23818
563.901	22915
563.962	22316
564.023	23316
564.083	23353
564.144	23804
564.204	23991
564.265	23335
564.325	27243
564.386	54114
564.446	62750
564.507	24625
564.567	21744
564.628	21883
564.688	21461
564.749	21004
564.809	25679
564.869	33782
564.930	24339
564.990	19576
565.050	19405
565.111	18425
565.171	18800
565.231	19494
565.292	19804
565.352	17574
565.412	19901
565.472	20170
565.532	20450
565.593	20630
565.653	18598
565.713	19953
565.773	21324
565.833	22476
565.893	27025
565.953	20477
566.013	19063
566.074	21466
566.134	28617
566.194	50793
566.254	56022
566.314	34543
566.374	22264
566.434	20988
566.494	21693
566.554	20047
566.614	19696
566.673	19136
566.733	20764
566.793	21742
566.853	22723
566.913	21157
566.973	22195
567.033	22539
567.092	23989
567.152	22528
567.212	23309
567.272	22301
567.331	25118
567.391	23127
567.451	24689
567.511	33914
567.570	41451
567.630	21862
567.690	19686
567.749	19752
567.809	20477
567.868	21675
567.928	23351
567.988	27465
568.047	26248
568.107	25086
568.166	28800
568.226	39925
568.285	52740
568.345	39352
568.404	31581
568.464	29059
568.523	27033
568.582	28052
568.642	29599
568.701	35928
568.761	51341
568.820	82122
568.879	72797
568.939	56177
568.998	41073
569.057	28507
569.116	25342
569.176	22023
569.235	20308
569.294	20028
569.353	19116
569.413	20163
569.472	21356
569.531	18809
569.590	18191
569.649	17534
569.708	16943
569.767	19579
569.827	23150
569.886	20887
569.945	18297
570.004	18499
570.063	18298
570.122	18213
570.181	20380
570.240	25116
570.299	25650
570.358	23238
570.417	18884
570.475	18614
570.534	18588
570.593	18498
570.652	19454
570.711	19883
570.770	19487
570.829	22185
570.887	19009
570.946	19518
571.005	18043
571.064	16946
571.122	19701
571.181	22976
571.240	19893
571.299	17021
571.357	19652
571.416	20280
571.475	23060
571.533	27258
571.592	19250
571.650	21868
571.709	17219
571.768	17222
571.826	17179
571.885	15688
571.943	15489
572.002	17297
572.060	18646
572.119	15113
572.177	15939
572.236	14565
572.294	14483
572.352	14181
572.411	15164
572.469	15945
572.528	15468
572.586	14570
572.644	17519
572.703	22251
572.761	18778
572.819	16192
572.877	15215
572.936	13500
572.994	14354
573.052	14918
573.110	15594
573.169	15621
573.227	13006
573.285	14556
573.343	14399
573.401	14390
573.459	15115
573.517	14211
573.576	15233
573.634	15022
573.692	15692
573.750	15254
573.808	14654
573.866	15798
573.924	22839
573.982	23223
574.040	17011
574.098	14023
574.155	14233
574.213	12836
574.271	13347
574.329	13927
574.387	13457
574.445	13631
574.503	13981
574.560	11916
574.618	12495
574.676	12470
574.734	12208
574.792	12964
574.849	11970
574.907	10751
574.965	11528
575.022	11919
575.080	11647
575.138	12154
575.195	12924
575.253	12965
575.311	14508
575.368	11828
575.426	11253
575.483	13209
575.541	12225
575.598	12256
575.656	13064
575.713	14548
575.771	11547
575.828	12487
575.886	12763
575.943	14075
576.001	14149
576.058	14443
576.115	15449
576.173	18723
576.230	22039
576.287	21255
576.345	17883
576.402	16190
576.459	15660
576.517	15128
576.574	18635
576.631	21016
576.688	16581
576.746	13859
576.803	14868
576.860	14137
576.917	14302
576.974	14601
577.031	14996
577.089	14065
577.146	14782
577.203	15436
577.260	15601
577.317	17472
577.374	21563
577.431	19634
577.488	14649
577.545	13178
577.602	13835
577.659	13563
577.716	13030
577.773	12831
577.830	12066
577.886	12948
577.943	12786
578.000	12316
578.057	14281
578.114	13826
578.171	12558
578.227	13071
578.284	12272
578.341	13273
578.398	13832
578.454	15422
578.511	17737
578.568	23040
578.625	18368
578.681	14293
578.738	12450
578.794	12923
578.851	12274
578.908	13144
578.964	12807
579.021	13508
579.077	12976
579.134	11704
579.190	12346
579.247	10998
579.303	11888
579.360	11148
579.416	11347
579.473	11386
579.529	11545
579.586	10907
579.642	11292
579.698	13036
579.755	12785
579.811	12180
579.867	12939
579.924	10080
579.980	11279
580.036	11895
580.093	12002
580.149	12490
580.205	12849
580.261	12332
580.317	14039
580.374	15095
580.430	19657
580.486	17866
580.542	13907
580.598	12790
580.619	12589
580.654	12255
580.692	12247
580.710	12271
580.765	11766
580.767	11765
580.823	13291
580.838	13121
580.879	12752
580.911	12176
580.935	11757
580.984	11681
580.991	11695
581.047	13115
581.057	13138
581.103	13274
581.130	13386
581.159	13564
581.203	13625
581.215	13646
581.270	14780
581.276	14640
581.326	13473
581.349	13438
581.382	13396
581.422	13365
581.438	13376
581.494	15283
581.494	15253
581.550	13504
581.567	13489
581.606	13464
581.640	13858
581.661	14095
581.713	13491
581.717	13465
581.773	12966
581.786	12803
581.829	12221
581.859	12726
581.885	13229
581.932	13109
581.940	13090
581.996	13033
582.004	13061
582.052	13209
582.077	12550
582.107	11860
582.150	12990
582.163	13328
582.219	12977
582.223	12968
582.274	12921
582.296	12731
582.330	12418
582.368	13908
582.386	14652
582.441	12591
582.441	12592
582.497	12003
582.514	12021
582.552	12296
582.587	12149
582.608	12050
582.659	12101
582.663	12095
582.719	11645
582.732	11606
582.774	11705
582.805	12386
582.830	12842
582.877	12652
582.885	12655
582.941	12080
582.950	12117
582.996	12079
583.023	12144
583.052	12464
583.095	12609
583.107	12557
583.162	11782
583.168	11790
583.218	12018
583.240	12094
583.273	12171
583.313	11692
583.328	11553
583.384	12163
583.385	12185
583.439	12570
583.458	12124
583.494	11283
583.531	11102
583.549	11110
583.603	11471
583.605	11473
583.660	11212
583.676	11255
583.715	11456
583.748	11894
583.770	12137
583.820	12490
583.825	12518
583.881	11693
583.893	11676
583.936	11714
583.965	11583
583.991	11404
584.038	11414
584.046	11460
584.101	12271
584.110	12243
584.156	11789
584.183	11313
584.211	10887
584.255	11097
584.266	11119
584.321	10986
584.328	10949
584.376	10877
584.400	11225
584.431	11406
584.472	10850
584.486	10733
584.541	11050
584.545	11056
584.596	11063
584.617	11236
584.651	11716
584.689	12346
584.706	12493
584.761	12048
584.762	12053
584.816	11989
584.834	11989
584.871	12051
584.906	12337
584.926	12419
584.978	12095
584.980	12099
585.035	13240
585.051	13628
585.090	14209
585.123	14499
585.145	14734
585.195	15019
585.200	15080
585.254	15984
585.267	16503
585.309	17620
585.340	18503
585.364	19475
585.412	20253
585.419	20277
585.473	21812
585.484	22197
585.528	25214
585.556	29408
585.583	36205
585.628	53313
585.637	59069
585.692	120150
585.700	131849
585.747	176721
585.772	141268
585.801	85261
585.845	34117
585.856	26699
585.910	18893
585.917	18320
585.965	16714
585.989	16296
586.019	15896
586.061	15560
586.074	15580
586.128	15673
586.133	15724
586.183	16060
586.205	16442
586.237	16914
586.277	17438
586.292	17512
586.346	15996
586.349	15998
586.401	16340
586.421	16864
586.455	17932
586.493	19367
586.509	20778
586.564	27262
586.565	27699
586.618	47515
586.637	47986
586.672	41283
586.709	26697
586.727	20873
586.781	18002
586.781	17980
586.835	15716
586.853	15578
586.889	15311
586.925	14828
586.944	14747
586.996	15174
586.998	15177
587.052	16080
587.068	16153
587.106	15931
587.140	15419
587.161	15188
587.212	15555
587.215	15556
587.269	15845
587.284	16084
587.323	16619
587.356	16586
587.377	16740
587.427	17484
587.431	17483
587.485	16950
587.499	16937
587.539	17322
587.571	18128
587.593	18649
587.643	19023
587.648	19015
587.702	19888
587.715	20132
587.755	20864
587.786	20981
587.810	20865
587.858	20618
587.864	20750
587.917	22705
587.930	23386
587.971	25154
588.001	26576
588.025	27444
588.073	27921
588.079	28083
588.133	30087
588.145	30862
588.187	33352
588.217	35135
588.241	37133
588.288	42099
588.295	42876
588.348	49525
588.360	51295
588.402	57895
588.431	62787
588.456	66884
588.503	76647
588.510	78302
588.564	93851
588.575	97589
588.617	112239
588.646	123581
588.671	136708
588.718	166679
588.725	174423
588.778	250311
588.789	271121
588.832	438263
588.861	578294
588.886	783403
588.932	1228034
588.939	1258734
588.993	1375268
589.004	1360718
589.047	894696
589.075	571024
589.100	417836
589.147	221363
589.154	209852
589.207	158681
589.218	150677
589.261	143756
589.290	143438
589.314	149998
589.361	170332
589.368	179442
589.421	271199
589.433	296704
589.475	520384
589.504	708331
589.528	886255
589.576	1215896
589.582	1183612
589.635	697115
589.647	588490
589.689	305738
589.718	154419
589.742	122270
589.790	78340
589.795	76125
589.849	62246
589.861	60469
589.902	57683
589.932	53650
589.955	48146
590.004	35629
590.009	34853
590.062	30551
590.075	29524
590.115	27761
590.146	26988
590.168	26015
590.218	23814
590.222	23781
590.275	24283
590.289	24458
590.328	24300
590.360	23682
590.381	22778
590.431	21273
590.435	21193
590.488	20409
590.503	20197
590.541	20348
590.574	20772
590.594	20367
590.645	19209
590.647	19185
590.700	19379
590.716	19358
590.753	18612
590.787	18351
590.806	18093
590.859	17207
590.859	17171
590.912	16905
590.930	16842
590.965	16917
591.001	16957
591.018	16774
591.071	16581
591.072	16606
591.124	17043
591.143	17289
591.177	17192
591.214	17011
591.230	17350
591.283	18701
591.285	18772
591.336	19061
591.356	19304
591.389	19542
591.427	19591
591.442	18949
591.495	16607
591.498	16473
591.547	16435
591.569	16458
591.600	16180
591.640	15808
591.653	15884
591.706	16404
591.711	16494
591.759	17467
591.782	18061
591.811	19077
591.853	20633
591.864	20075
591.917	16887
591.924	16509
591.969	16969
591.995	17257
592.022	17063
592.066	16948
592.075	17384
592.127	20177
592.137	20778
592.180	22085
592.208	22840
592.233	20896
592.279	17065
592.285	16922
592.338	16310
592.350	16198
592.390	16081
592.421	16093
592.443	16039
592.491	16009
592.495	16014
592.548	16572
592.562	16773
592.600	16140
592.633	15642
592.653	15308
592.704	14472
592.705	14577
592.775	15842
592.846	15591
592.916	16937
592.987	18744
593.058	18298
593.128	15895
593.199	14705
593.270	15788
593.341	14686
593.411	15493
593.482	16051
593.553	16539
593.623	14952
593.694	15859
593.764	16855
593.835	15618
593.906	15147
593.976	16303
594.047	16828
594.117	20890
594.188	19632
594.258	15858
594.329	15633
594.399	16773
594.470	14798
594.540	15998
594.611	15831
594.681	16330
594.751	17155
594.822	19184
594.892	18901
594.963	18986
595.033	18161
595.103	19149
595.174	21601
595.244	29242
595.314	33408
595.384	20076
595.455	18736
595.525	20390
595.595	18856
595.665	20213
595.736	19823
595.806	19140
595.876	18493
595.946	19037
596.016	18828
596.087	19933
596.157	19216
596.227	19568
596.297	21455
596.367	22607
596.437	25009
596.507	31743
596.577	34281
596.647	24028
596.717	22567
596.787	23227
596.857	22839
596.927	23241
596.997	22658
597.067	22694
597.137	22846
597.207	23577
597.277	23957
597.347	23532
597.417	21638
597.487	23434
597.557	23770
597.626	24104
597.696	25401
597.766	28990
597.836	34316
597.906	23969
597.975	21457
598.045	19896
598.115	21650
598.185	23215
598.254	25614
598.324	28276
598.394	27023
598.464	27684
598.533	25157
598.603	24087
598.672	24589
598.742	23787
598.812	23675
598.881	23660
598.951	24869
599.020	23749
599.090	24278
599.159	25764
599.229	23809
599.299	22826
599.368	24128
599.437	23600
599.507	22481
599.576	22440
599.646	22941
599.715	21708
599.785	22706
599.854	23014
599.924	24454
599.993	22094
600.062	21397
600.132	21490
600.201	22815
600.270	27116
600.340	26066
600.409	24319
600.478	24548
600.547	25926
600.617	24124
600.686	20313
600.755	19774
600.824	20020
600.894	19216
600.963	18589
601.032	17723
601.101	17364
601.170	16405
601.239	16811
601.308	18094
601.378	16523
601.447	16606
601.516	16830
601.585	18365
601.654	18594
601.723	16183
601.792	17541
601.861	17214
601.930	20710
601.999	20590
602.068	18940
602.137	19381
602.206	19023
602.275	19452
602.343	22542
602.412	21773
602.481	18687
602.550	18627
602.619	19350
602.688	18876
602.756	18646
602.825	18500
602.894	18118
602.963	17815
603.032	19970
603.100	19086
603.169	18518
603.238	19647
603.307	20156
603.375	19368
603.444	19037
603.513	19783
603.581	19644
603.650	20015
603.719	20079
603.787	20354
603.856	21119
603.924	21486
603.993	22153
604.061	21753
604.130	23855
604.198	23275
604.267	24281
604.335	22876
604.404	23774
604.472	24039
604.541	23692
604.609	23978
604.678	23969
604.746	24079
604.815	25272
604.883	25478
604.951	25910
605.020	25035
605.088	25704
605.156	26350
605.225	26370
605.293	25862
605.361	27774
605.429	26981
605.498	29307
605.566	29442
605.634	30221
605.702	31786
605.771	32056
605.839	31357
605.907	30859
605.975	29990
606.043	29130
606.111	29138
606.180	29958
606.248	28925
606.316	30352
606.384	29921
606.452	34915
606.520	36455
606.588	32288
606.656	30354
606.724	30389
606.792	29012
606.860	25882
606.928	23951
606.996	23465
607.064	22852
607.132	23598
607.200	25673
607.267	25568
607.335	25956
607.403	26523
607.471	25294
607.539	25687
607.607	24551
607.674	22966
607.742	23875
607.810	24390
607.878	23055
607.946	22976
608.013	24077
608.081	25247
608.149	24871
608.216	24466
608.284	25274
608.352	25380
608.419	26440
608.487	31377
608.555	26386
608.622	26497
608.690	26152
608.757	29546
608.825	29692
608.893	29880
608.960	31958
609.028	33875
609.095	33314
609.163	27298
609.230	25034
609.298	23249
609.365	23855
609.432	24999
609.500	26081
609.567	31486
609.635	34987
609.702	34821
609.769	34267
609.837	29889
609.904	24870
609.971	24527
610.039	30770
610.106	41715
610.173	82333
610.241	187922
610.308	87655
610.375	32434
610.442	24412
610.509	23433
610.577	24384
610.644	25148
610.711	25593
610.778	26509
610.845	26661
610.912	28059
610.980	29890
611.047	30513
611.114	30006
611.181	28518
611.248	27175
611.315	30970
611.382	29483
611.449	31052
611.516	31817
611.583	31473
611.650	30756
611.717	32582
611.784	33404
611.851	36841
611.918	41538
611.984	49894
612.051	79580
612.118	176244
612.185	450364
612.252	224381
612.319	50535
612.386	42198
612.452	37807
612.519	38190
612.586	41847
612.653	38014
612.719	35986
612.786	35722
612.853	31313
612.919	31233
612.986	31931
613.053	30098
613.120	27414
613.186	27987
613.253	28321
613.319	29341
613.386	27196
613.453	30068
613.519	32309
613.586	35174
613.652	42652
613.719	37471
613.785	33063
613.852	29564
613.918	27892
613.985	28935
614.051	30045
614.118	34731
614.184	32162
614.250	27653
614.317	28505
614.383	29533
614.449	27839
614.516	29163
614.582	29149
614.648	27988
614.715	28083
614.781	27821
614.847	27447
614.914	28487
614.980	27558
615.046	27418
615.112	27736
615.179	28210
615.245	28593
615.311	29538
615.377	33639
615.443	33456
615.509	30125
615.575	31161
615.642	30869
615.708	34000
615.774	35100
615.840	39723
615.906	44852
615.972	61610
616.038	107270
616.104	239573
616.170	597608
616.236	416028
616.302	80657
616.368	58934
616.434	40893
616.500	39749
616.565	43787
616.631	53922
616.697	41773
616.763	45458
616.829	73521
616.895	131571
616.961	109413
617.026	44736
617.092	31785
617.158	30539
617.224	30163
617.289	28146
617.355	27426
617.421	27082
617.487	27617
617.552	25867
617.618	24616
617.684	25204
617.749	26742
617.815	23778
617.880	23455
617.946	25194
618.012	24529
618.077	25187
618.143	23688
618.208	23649
618.274	26261
618.339	26070
618.405	21967
618.470	24061
618.536	22478
618.601	24754
618.667	22635
618.732	21165
618.798	20453
618.863	20553
618.928	20221
618.994	23039
619.059	23716
619.124	29929
619.190	24509
619.255	20292
619.320	20171
619.386	21620
619.451	19051
619.516	19244
619.581	20110
619.647	20794
619.712	18966
619.777	19288
619.842	19518
619.907	20806
619.972	20036
620.038	20665
620.103	18684
620.168	19319
620.233	18805
620.298	18522
620.363	18782
620.428	20464
620.493	20419
620.558	20480
620.623	19894
620.688	20058
620.753	19234
620.818	20161
620.883	20309
620.948	20839
621.013	19540
621.078	21311
621.143	19848
621.207	23464
621.272	21500
621.337	22856
621.402	24182
621.467	28917
621.532	27258
621.596	24213
621.661	22594
621.726	20896
621.791	21207
621.855	23299
621.920	23363
621.985	24968
622.049	26650
622.114	24417
622.179	22894
622.243	24661
622.308	22899
622.373	26631
622.437	24417
622.502	22724
622.566	22397
622.631	21586
622.695	23503
622.760	23730
622.824	22684
622.889	23453
622.953	24412
623.018	35375
623.082	30731
623.147	24338
623.211	23486
623.276	24195
623.340	20671
623.404	21207
623.469	20689
623.533	21568
623.597	20942
623.662	21237
623.726	19196
623.790	19665
623.854	19522
623.919	19601
623.983	19182
624.047	19707
624.111	19431
624.176	20159
624.240	20896
624.304	23236
624.368	19656
624.432	19763
624.496	21798
624.560	24294
624.625	23477
624.689	21310
624.753	21523
624.817	20775
624.881	19760
624.945	18895
625.009	18283
625.073	20016
625.137	20614
625.201	25707
625.265	23721
625.329	20657
625.393	21195
625.456	21767
625.520	21280
625.584	24083
625.648	28181
625.712	40361
625.776	76529
625.839	79157
625.903	32570
625.967	21886
626.031	35614
626.095	47806
626.158	21955
626.222	14722
626.286	15180
626.349	14238
626.413	13326
626.477	16600
626.540	14811
626.604	14496
626.668	15251
626.731	14495
626.795	14928
626.858	15082
626.922	13685
626.986	14146
627.049	11752
627.113	14201
627.176	13052
627.240	12874
627.303	13715
627.366	13549
627.430	13973
627.493	13712
627.557	12925
627.620	14448
627.684	13344
627.747	14727
627.810	12172
627.874	13380
627.937	11021
628.000	15152
628.064	12559
628.127	10370
628.190	11858
628.253	12851
628.317	10580
628.380	10718
628.443	11060
628.506	11544
628.569	10340
628.632	10184
628.696	10690
628.759	9967
628.822	9537
628.885	9445
628.948	9830
629.011	10303
629.074	10684
629.137	10152
629.200	9352
629.263	12324
629.326	7708
629.389	9192
629.452	10151
629.515	10053
629.578	9440
629.641	10124
629.704	9670
629.767	10262
629.830	9027
629.892	8818
629.955	9160
630.018	12442
630.081	10638
630.144	15029
630.207	9139
630.269	11733
630.332	10731
630.395	9050
630.458	8685
630.520	7824
630.583	8891
630.646	8574
630.708	7526
630.771	8192
630.834	9337
630.896	8783
630.959	8670
631.021	8175
631.084	8507
631.146	9814
631.209	10843
631.272	8074
631.334	8218
631.397	8965
631.459	8374
631.522	10231
631.584	9225
631.646	10709
631.709	11296
631.771	13407
631.834	10622
631.896	8991
631.958	8065
632.021	9255
632.083	6760
632.145	9697
632.208	8015
632.270	9045
632.332	6696
632.395	7674
632.457	8754
632.519	7992
632.581	8860
632.643	6841
632.706	8200
632.768	6698
632.830	8068
632.892	7725
632.954	7202
633.016	8973
633.078	7495
633.141	7556
633.203	7779
633.265	8071
633.327	6498
633.389	6979
633.451	9429
633.513	10634
633.575	10388
633.637	10531
633.698	8469
633.760	8079
633.822	8329
633.884	8532
633.946	8458
634.008	7963
634.070	8638
634.132	9936
634.193	9665
634.255	11829
634.317	9958
634.379	11389
634.441	9822
634.502	7872
634.564	9340
634.626	9620
634.687	9260
634.749	7854
634.811	8034
634.873	6270
634.934	7217
634.996	7788
635.057	6563
635.119	6387
635.181	6576
635.242	8221
635.304	4973
635.365	9146
635.427	6900
635.488	7624
635.550	6610
635.611	8105
635.673	5088
635.734	8958
635.796	6987
635.857	10418
635.918	7803
635.980	11034
636.041	9498
636.102	11644
636.164	11190
636.225	11852
636.286	8093
636.348	9874
636.409	7679
636.470	7094
636.531	7506
636.593	7788
636.654	7940
636.715	6476
636.776	6233
636.838	6305
636.899	6604
636.960	5907
637.021	5904
637.082	6374
637.143	6726
637.204	4962
637.265	5115
637.326	6831
637.387	5692
637.448	4749
637.509	6174
637.570	5286
637.631	6929
637.692	4282
637.753	4075
637.814	4573
637.875	4404
637.936	5991
637.997	5262
638.058	5494
638.119	5793
638.179	6029
638.240	4664
638.301	5186
638.362	4843
638.423	5704
638.483	5255
638.544	4076
638.605	5223
638.666	4431
638.726	5042
638.787	5964
638.848	3987
638.908	4916
638.969	5398
639.030	5498
639.090	3675
639.151	4506
639.211	6260
639.272	7964
639.332	13301
639.393	6924
639.453	4400
639.514	5665
639.574	4466
639.635	4611
639.695	5346
639.756	4750
639.816	5823
639.877	6833
639.937	13583
639.997	16404
640.058	4444
640.118	4237
640.178	4974
640.239	4642
640.299	4498
640.359	3865
640.420	4273
640.480	4924
640.540	6092
640.600	5043
640.661	5871
640.721	5002
640.781	7758
640.841	3222
640.901	5548
640.961	5319
641.021	5961
641.082	6520
641.142	10370
641.202	7277
641.262	3455
641.322	5725
641.382	2853
641.442	5206
641.502	3842
641.562	5690
641.622	3207
641.682	5687
641.742	5093
641.802	6368
641.861	5857
641.921	6200
641.981	7035
642.041	6600
642.101	7017
642.161	3885
642.221	3988
642.280	4317
642.340	4597
642.400	3120
642.460	4783
642.519	4568
642.579	3481
642.639	5285
642.698	2362
642.758	6625
642.818	3917
642.877	3355
642.937	5127
642.997	7239
643.056	8233
643.116	3709
643.175	5668
643.235	3699
643.294	5081
643.354	5227
643.414	5901
643.473	7538
643.532	8444
643.592	13172
643.651	21636
643.711	40366
643.770	81334
643.830	205291
643.889	398189
643.948	72162
644.008	12830
644.067	8398
644.126	5722
644.186	6385
644.245	6254
644.304	3140
644.363	6438
644.423	3272
644.482	4685
644.541	4996
644.600	3056
644.659	5669
644.719	6526
644.778	10937
644.837	17025
644.896	36521
644.955	76952
645.014	21574
645.073	6668
645.132	5361
645.191	4833
645.250	4552
645.309	6061
645.368	5363
645.427	5520
645.486	8827
645.545	15008
645.604	5416
645.663	4571
645.722	4786
645.781	5067
645.840	5570
645.898	7672
645.957	12182
646.016	17040
646.075	34163
646.134	69418
646.192	194867
646.251	251809
646.310	29689
646.369	8281
646.427	7613
646.486	3911
646.545	5378
646.603	4634
646.662	4596
646.721	4682
646.779	3648
646.838	3595
646.896	5744
646.955	6654
647.014	11758
647.072	17501
647.131	48757
647.189	19444
647.248	4145
647.306	4548
647.365	4083
647.423	1526
647.481	4009
647.540	2778
647.598	3037
647.657	3082
647.715	4400
647.773	2926
647.832	3531
647.890	1829
647.948	2451
648.007	3756
648.065	3336
648.123	2811
648.181	4292
648.240	4140
648.298	1823
648.356	2761
648.414	4339
648.472	3998
648.531	4924
648.589	2547
648.647	3307
648.705	2793
648.763	3239
648.821	3257
648.879	3337
648.937	3721
648.995	4844
649.053	6463
649.111	8647
649.169	14391
649.227	25271
649.285	54813
649.343	149125
649.401	61312
649.459	20126
649.516	11162
649.574	4352
649.632	7181
649.690	7013
649.748	6651
649.806	6975
649.863	13212
649.921	33675
649.979	18797
650.037	4478
650.094	1720
650.152	3368
650.210	1898
650.268	3731
650.325	3154
650.383	1988
650.440	1631
650.498	2596
650.556	2248
650.613	1312
650.671	2835
650.728	2387
650.786	2753
650.843	3536
650.901	1029
650.958	2679
651.016	1749
651.073	1812
651.131	1121
651.188	1866
651.246	2450
651.303	1488
651.360	3583
651.418	1627
651.475	1928
651.532	1637
651.590	2126
651.647	1740
651.704	1996
651.762	2042
651.819	1968
651.876	2229
651.933	1465
651.990	2547
652.048	1123
652.105	2033
652.162	3264
652.219	918
652.276	2195
652.333	1963
652.390	674
652.448	2723
652.505	1788
652.562	1529
652.619	2391
652.676	2651
652.733	1986
652.790	1754
652.847	1161
652.904	2256
652.961	-7
653.017	1482
653.074	1316
653.131	2221
653.188	1155
653.245	2061
653.302	1042
653.359	1656
653.415	1325
653.472	1767
653.529	2684
653.586	1249
653.642	832
653.699	2842
653.756	1005
653.813	2221
653.869	1762
653.926	889
653.983	803
654.039	2421
654.096	1338
654.152	2698
654.209	193
654.266	1855
654.322	1370
654.379	3292
654.435	3477
654.492	3785
654.548	3593
654.605	6375
654.661	2642
654.717	2301
654.774	2196
654.830	2370
654.887	2561
654.943	1854
655.000	1378
655.056	2355
655.112	2264
655.168	1640
655.225	2328
655.281	2687
655.337	3163
655.394	6335
655.450	4318
655.506	3739
655.562	5308
655.618	5751
655.675	1746
655.731	2213
655.787	1607
655.843	2894
655.899	1101
655.955	3070
656.011	2709
656.067	1638
656.123	2166
656.179	2652
656.235	3982
656.291	1430
656.347	3612
656.403	1782
656.459	2609
656.515	3067
656.571	2819
656.627	2839
656.683	1585
656.739	2680
656.795	2319
656.850	2119
656.906	3147
656.962	3205
657.018	734
657.074	2106
657.129	1930
657.185	3141
657.241	3555
657.297	3105
657.352	1558
657.408	1591
657.464	2470
657.519	2364
657.575	1486
657.630	1860
657.686	1681
657.742	1083
657.797	1941
657.853	1604
657.908	2632
657.964	1151
658.019	1106
658.075	2176
658.130	1867
658.186	800
658.241	2021
658.297	507
658.352	1495
658.407	2209
658.463	903
658.518	1921
658.573	1599
658.629	1094
658.684	493
658.739	1892
658.795	819
658.850	1458
658.905	901
658.960	1201
659.016	915
659.071	1837
659.126	1225
659.181	2514
659.236	4988
659.291	4926
659.346	2050
659.401	2406
659.457	1647
659.512	1806
659.567	2207
659.622	1768
659.677	796
659.732	1236
659.787	1992
659.842	2587
659.897	2250
659.952	2217
660.007	2479
660.061	1265
660.116	945
660.171	488
660.226	1301
660.281	2418
660.336	118
660.391	1893
660.445	887
660.500	1533
660.555	1480
660.610	1926
660.664	1623
660.719	1810
660.774	1889
660.828	2565
660.883	1416
660.938	1303
660.992	662
661.047	2203
661.101	726
661.156	801
661.211	1296
661.265	1947
661.320	566
661.374	2309
661.429	1218
661.483	1601
661.538	464
661.592	1270
661.647	1377
661.701	1303
661.755	1429
661.810	1023
661.864	1808
661.919	1560
661.973	1381
662.027	1824
662.081	712
662.136	1406
662.190	1809
662.244	2031
662.299	1399
662.353	1839
662.407	831
662.461	1851
662.515	1047
662.569	1789
662.624	2221
662.678	1105
662.732	987
662.786	1650
662.840	1992
662.894	2123
662.948	1751
663.002	2046
663.056	819
663.110	2043
663.164	740
663.218	1024
663.272	2026
663.326	1871
663.380	1887
663.434	2097
663.488	1467
663.542	1406
663.595	1256
663.649	1868
663.703	1558
663.757	1884
663.811	1544
663.864	1108
663.918	932
663.972	1861
664.026	1097
664.079	1026
664.133	925
664.187	1360
664.240	1144
664.294	2268
664.348	1814
664.401	1649
664.455	931
664.508	1253
664.562	1519
664.615	1975
664.669	808
664.722	1381
664.776	1039
664.829	1969
664.883	958
664.936	1364
664.990	1448
665.043	1472
665.097	996
665.150	2737
665.203	1061
665.257	1804
665.310	1770
665.363	1357
665.417	1040
665.470	1707
665.523	1810
665.576	2417
665.630	2371
665.683	1603
665.736	1488
665.789	2422
665.842	993
665.895	1868
665.949	1976
666.002	2343
666.055	1545
666.108	2445
666.161	1047
666.214	2054
666.267	1920
666.320	2965
666.373	1631
666.426	1674
666.479	1491
666.532	2968
666.585	2334
666.638	3279
666.691	1933
666.744	2525
666.796	2204
666.849	2025
666.902	1375
666.955	1615
667.008	1342
667.060	1712
667.113	918
667.166	1162
667.219	655
667.271	1323
667.324	1440
667.377	1851
667.430	1237
667.482	1454
667.535	1185
667.587	2086
667.640	1728
667.693	2625
667.745	4420
667.798	4920
667.850	2079
667.903	1577
667.955	1855
668.008	1500
668.060	2326
668.113	2917
668.165	2077
668.218	2001
668.270	1205
668.322	1728
668.375	949
668.427	2459
668.479	1124
668.532	1756
668.584	1200
668.636	2102
668.689	2060
668.741	1973
668.793	1832
668.845	2078
668.898	1240
668.950	1212
669.002	1672
669.054	1705
669.106	1555
669.158	1651
669.211	2265
669.263	1192
669.315	2199
669.367	2059
669.419	1176
669.471	3165
669.523	1598
669.575	3100
669.627	1600
669.679	995
669.731	2443
669.783	1976
669.835	2182
669.886	1759
669.938	1482
669.990	1942
670.042	625
670.094	1970
670.146	936
670.197	1729
670.249	1911
670.301	2111
670.353	2394
670.404	2799
670.456	1800
670.508	3504
670.560	5224
670.611	7978
670.663	12479
670.715	33508
670.766	47907
670.818	13209
670.869	3419
670.921	2046
670.972	2221
671.024	1950
671.075	1708
671.127	1484
671.178	980
671.230	1562
671.281	2190
671.333	1784
671.384	1819
671.436	2685
671.487	3603
671.538	4346
671.590	5647
671.641	7924
671.692	13643
671.744	23610
671.795	12835
671.846	4200
671.897	3573
671.949	3870
672.000	1823
672.051	2381
672.102	2768
672.153	3029
672.204	2426
672.256	2671
672.307	2288
672.358	2320
672.409	1802
672.460	2066
672.511	1173
672.562	2203
672.613	1539
672.664	2241
672.715	1322
672.766	2185
672.817	1669
672.868	1651
672.919	1607
672.970	1265
673.021	1693
673.071	1389
673.122	2221
673.173	1276
673.224	1142
673.275	1798
673.326	1561
673.376	1403
673.427	1267
673.478	1158
673.528	2417
673.579	1380
673.630	1829
673.680	2317
673.731	2181
673.782	1076
673.832	1541
673.883	1688
673.934	1206
673.984	1363
674.035	956
674.085	2760
674.136	2124
674.186	2606
674.237	2278
674.287	4137
674.338	2365
674.388	2141
674.438	1789
674.489	1997
674.539	1557
674.589	2203
674.640	1450
674.690	1867
674.740	1599
674.791	2272
674.841	1859
674.891	2077
674.942	1538
674.992	1653
675.042	1776
675.092	1278
675.142	1420
675.193	1456
675.243	1265
675.293	2034
675.343	1342
675.393	1573
675.443	1603
675.493	1433
675.543	670
675.593	2150
675.643	1666
675.693	1684
675.743	1667
675.793	1722
675.843	1118
675.893	1398
675.943	1482
675.993	1490
676.043	1574
676.093	2044
676.142	1431
676.192	1966
676.242	741
676.292	1166
676.341	1491
676.391	2342
676.441	712
676.491	1994
676.540	1207
676.590	1377
676.640	941
676.689	1265
676.739	-39
676.789	802
676.838	1025
676.888	1772
676.937	402
676.987	1545
677.037	250
677.086	314
677.136	790
677.185	1164
677.235	589
677.284	1214
677.333	1539
677.383	1003
677.432	-39
677.482	1393
677.531	1022
677.580	1567
677.630	185
677.679	347
677.728	1197
677.778	982
677.827	882
677.876	1141
677.925	1264
677.975	865
678.024	828
678.073	1012
678.122	1226
678.171	1100
678.220	951
678.269	2282
678.319	1747
678.368	1842
678.417	765
678.466	2186
678.515	1581
678.564	2614
678.613	1529
678.662	1512
678.711	1510
678.760	1379
678.809	590
678.857	1383
678.906	1187
678.955	1880
679.004	1862
679.053	1215
679.102	817
679.151	1456
679.199	1303
679.248	1504
679.297	1093
679.346	992
679.394	1407
679.443	739
679.492	1319
679.540	1905
679.589	1623
679.638	1883
679.686	591
679.735	1913
679.784	322
679.832	2146
679.881	898
679.929	2029
679.978	1318
680.026	794
680.075	1331
680.123	1208
680.172	857
680.220	962
680.268	878
680.317	839
680.365	705
680.414	841
680.462	755
680.510	1382
680.559	43
680.607	804
680.655	406
680.703	344
680.752	-54
680.800	1582
680.848	1093
680.896	949
680.945	433
680.993	767
681.041	724
681.089	894
681.137	-176
681.185	984
681.233	823
681.258	566
681.281	311
681.329	535
681.377	397
681.380	441
681.425	1047
681.473	1742
681.502	1090
681.521	611
681.569	1651
681.617	463
681.624	615
681.665	1531
681.713	1060
681.745	1080
681.761	1063
681.809	472
681.857	2393
681.867	1840
681.904	-101
681.952	1288
681.989	891
682.000	747
682.048	981
682.096	610
682.111	793
682.143	1162
682.191	671
682.233	1863
682.239	2030
682.286	434
682.334	1561
682.354	1176
682.382	645
682.430	1528
682.476	938
682.477	913
682.525	1344
682.572	987
682.598	1223
682.620	1453
682.667	1161
682.715	2245
682.720	2175
682.763	1336
682.810	1708
682.841	1315
682.857	1131
682.905	805
682.952	1680
682.963	1722
683.000	1731
683.047	1143
683.085	1829
683.095	2000
683.142	1287
683.190	1936
683.206	1637
683.237	1134
683.284	2227
683.328	1502
683.332	1431
683.379	1425
683.426	1076
683.449	1417
683.473	1725
683.521	776
683.568	1567
683.571	1508
683.615	676
683.662	1581
683.693	1577
683.709	1552
683.757	1616
683.804	1381
683.814	1417
683.851	1501
683.898	1675
683.936	1500
683.945	1457
683.992	1944
684.039	2245
684.057	2302
684.086	2371
684.133	1743
684.179	1570
684.180	1551
684.227	2251
684.274	1915
684.300	2100
684.321	2275
684.368	1876
684.415	2339
684.422	2244
684.462	1509
684.509	2405
684.543	1860
684.556	1696
684.603	1532
684.649	1508
684.665	1682
684.696	2069
684.743	2238
684.786	2981
684.790	3030
684.837	1491
684.883	2654
684.908	2740
684.930	2806
684.977	2828
685.023	1940
685.029	2033
685.070	2663
685.117	1778
685.150	2618
685.164	2958
685.210	2918
685.257	3419
685.272	3258
685.303	2874
685.350	2304
685.393	2581
685.396	2610
685.443	3132
685.490	3392
685.514	3391
685.536	3211
685.583	3506
685.629	3031
685.636	2947
685.675	2595
685.722	3307
685.757	3133
685.768	3062
685.815	3047
685.861	3445
685.878	3206
685.908	2838
685.954	2751
686.000	3783
686.000	3798
686.047	3067
686.093	3829
686.121	4178
686.139	4305
686.185	3747
686.232	3116
686.242	3062
686.278	2903
686.324	3022
686.363	3181
686.370	3223
686.416	3005
686.463	3298
686.484	3243
686.509	3158
686.555	3005
686.601	3012
686.606	3041
686.647	3229
686.693	2918
686.727	2992
686.739	3066
686.785	2326
686.831	3410
686.848	3186
686.877	2691
686.923	3249
686.969	2686
686.969	2683
687.015	2872
687.061	2715
687.090	2883
687.107	2924
687.153	2869
687.199	3684
687.211	3350
687.245	2578
687.291	3512
687.332	3473
687.336	3458
687.382	3248
687.428	3237
687.453	3348
687.474	3370
687.520	2962
687.565	3121
687.574	3047
687.611	2919
687.657	2990
687.695	3068
687.702	3121
687.748	3152
687.794	3982
687.816	3925
687.839	3583
687.885	3337
687.931	2680
687.937	2639
687.976	2841
688.022	3357
688.058	3427
688.067	3381
688.113	3364
688.158	3187
688.179	3180
688.204	3369
688.249	3681
688.295	3744
688.300	3802
688.340	4039
688.386	4193
688.421	4026
688.431	4003
688.477	4020
688.522	4323
688.542	4539
688.567	4687
688.613	4262
688.658	3839
688.663	3772
688.703	3444
688.749	4165
688.784	3781
688.794	3618
688.839	3898
688.884	3661
688.905	3620
688.930	3778
688.975	3256
689.020	3989
689.026	3955
689.065	3629
689.110	3569
689.146	3577
689.155	3576
689.201	3767
689.246	3738
689.267	4079
689.291	4500
689.336	3946
689.381	4035
689.388	4013
689.426	3877
689.471	4062
689.509	3752
689.516	3703
689.561	3982
689.606	3975
689.630	4028
689.651	4081
689.696	3715
689.741	4088
689.750	4065
689.785	4037
689.830	4113
689.871	3851
689.875	3814
689.920	4023
689.965	3641
689.992	3666
690.010	3823
690.054	3859
690.099	4139
690.112	4162
690.144	3960
690.189	4100
690.233	3320
690.233	3323
690.278	3859
690.323	3700
690.354	4010
690.367	4154
690.412	4102
690.457	3959
690.474	4054
690.501	4008
690.546	3901
690.590	3757
690.595	3723
690.635	3849
690.680	3769
690.716	4040
690.724	4074
690.769	3905
690.813	4704
690.836	4150
690.857	3702
690.902	4004
690.946	3683
690.957	3822
690.991	4506
691.035	4497
691.077	4976
691.080	5003
691.124	5070
691.168	5376
691.198	5331
691.213	5183
691.257	5477
691.301	4522
691.318	4421
691.346	4424
691.390	4271
691.434	4567
691.439	4543
691.478	4408
691.522	4681
691.559	4374
691.567	4396
691.611	4948
691.655	5435
691.680	5614
691.699	5462
691.743	5044
691.787	4803
691.800	4662
691.831	4803
691.875	5275
691.919	5175
691.921	5178
691.964	5139
692.008	5159
692.041	4803
692.052	4784
692.096	4971
692.139	5234
692.162	5233
692.183	5085
692.227	4884
692.271	4277
692.282	4333
692.315	4832
692.359	4986
692.402	5134
692.403	5144
692.447	4868
692.490	4903
692.523	4928
692.534	4998
692.578	5149
692.622	5501
692.643	5644
692.666	5526
692.709	4784
692.753	4688
692.763	4548
692.797	4568
692.840	4819
692.884	4758
692.884	4769
692.928	5276
692.971	5002
693.004	5022
693.015	5017
693.059	5177
693.102	4940
693.124	4889
693.146	4907
693.189	4943
693.233	5028
693.245	4979
693.276	4927
693.320	5240
693.363	5045
693.365	5028
693.407	4827
693.450	5077
693.485	4881
693.493	4911
693.537	5250
693.580	5398
693.605	5639
693.624	5693
693.667	5413
693.710	5606
693.725	5478
693.753	5639
693.797	6388
693.840	6784
693.845	6836
693.883	6596
693.926	6016
693.966	5567
693.970	5549
694.013	5261
694.056	5304
694.086	5086
694.099	5135
694.142	5428
694.185	5578
694.206	5659
694.229	5824
694.272	5907
694.315	6587
694.326	6546
694.358	6230
694.401	6290
694.444	5983
694.446	5968
694.487	6322
694.530	6607
694.566	6768
694.573	6715
694.616	6180
694.659	5964
694.686	5551
694.702	5445
694.745	5331
694.787	5118
694.806	5149
694.830	5281
694.873	5183
694.916	5204
694.926	5140
694.959	5222
695.002	5712
695.044	5763
695.046	5772
695.087	6030
695.130	5630
695.166	5718
695.172	5784
695.215	5772
695.258	5952
695.286	5980
695.301	5864
695.343	5687
695.386	5213
695.406	5021
695.428	4987
695.471	4852
695.514	4903
695.526	4797
695.556	4875
695.599	5611
695.641	5901
695.646	5924
695.684	5805
695.726	5495
695.766	5434
695.769	5436
695.811	5107
695.854	4806
695.886	4572
695.896	4642
695.938	4840
695.981	4939
696.005	5182
696.023	5413
696.065	5629
696.108	6036
696.125	6114
696.150	6087
696.192	6180
696.235	6114
696.245	6073
696.277	5919
696.319	5759
696.361	5805
696.365	5771
696.404	5985
696.446	6351
696.485	6596
696.488	6600
696.530	6417
696.572	6236
696.604	6085
696.614	6099
696.656	6146
696.698	6058
696.724	6074
696.740	6052
696.783	5727
696.825	5631
696.844	5560
696.867	5760
696.909	5921
696.951	6234
696.964	6336
696.992	6292
697.034	6089
697.076	5867
697.083	5818
697.118	5962
697.160	6105
697.202	6202
697.203	6189
697.244	6387
697.286	6561
697.323	6604
697.327	6616
697.369	6617
697.411	6494
697.442	6530
697.453	6582
697.494	6540
697.536	6607
697.562	6631
697.578	6734
697.620	6959
697.661	7098
697.682	7198
697.703	7380
697.744	7653
697.786	7975
697.801	8016
697.828	8172
697.869	8505
697.911	8788
697.921	8834
697.952	8457
697.994	7934
698.035	7420
698.040	7336
698.077	7142
698.118	6889
698.160	6601
698.160	6578
698.201	6692
698.243	6743
698.279	6788
698.284	6816
698.325	6902
698.367	6958
698.399	6976
698.408	6923
698.449	6616
698.491	6301
698.518	6048
698.532	6203
698.573	6639
698.614	7108
698.638	7338
698.656	7407
698.697	7535
698.738	7641
698.757	7675
698.779	7579
698.820	7355
698.862	7143
698.877	7039
698.903	7242
698.944	7535
698.985	7841
698.996	7905
699.026	7783
699.067	7580
699.116	7320
699.235	6756
699.354	6998
699.474	7202
699.593	7898
699.713	7528
699.832	7866
699.951	8610
700.070	9011
700.190	6483
700.309	8078
700.428	8207
700.547	7626
700.667	7141
700.786	8037
700.905	6954
701.024	7482
701.143	6762
701.262	5432
701.381	6239
701.500	7981
701.619	8021
701.738	6943
701.857	6169
701.976	6634
702.095	5877
702.214	7542
702.333	7781
702.452	6714
702.571	6377
702.690	6615
702.809	5676
702.928	5644
703.047	6547
703.165	5957
703.284	5444
703.403	6860
703.522	7489
703.640	7207
703.759	8392
703.878	9674
703.997	6412
704.115	6401
704.234	6008
704.353	5296
704.471	5721
704.590	4849
704.708	5269
704.827	5423
704.946	5492
705.064	5869
705.183	5292
705.301	7038
705.420	9639
705.538	8525
705.656	6767
705.775	6435
705.893	6979
706.012	7419
706.130	7241
706.249	7761
706.367	5917
706.485	8075
706.604	7064
706.722	7369
706.840	8495
706.958	7388
707.077	6881
707.195	6215
707.313	6982
707.431	6250
707.549	6716
707.668	6464
707.786	7264
707.904	7174
708.022	6449
708.140	5749
708.258	7122
708.376	6686
708.494	6491
708.612	7906
708.730	10069
708.848	8790
708.966	9621
709.084	9016
709.202	7452
709.320	8182
709.438	7933
709.556	7528
709.674	7189
709.791	8684
709.909	7543
710.027	7051
710.145	7312
710.263	8066
710.380	7805
710.498	8456
710.616	7794
710.733	7765
710.851	7847
710.969	8081
711.086	7593
711.204	7456
711.322	7588
711.439	6863
711.557	8002
711.674	6713
711.792	6079
711.909	7677
712.027	6572
712.144	7296
712.262	6862
712.379	8579
712.497	11588
712.614	10748
712.732	8225
712.849	9669
712.966	10847
713.084	13888
713.201	9711
713.318	10320
713.436	9584
713.553	8989
713.670	9947
713.787	10999
713.905	10088
714.022	8990
714.139	9427
714.256	12461
714.373	14643
714.490	24515
714.608	65520
714.725	276083
714.842	219850
714.959	18015
715.076	11111
715.193	10028
715.310	8625
715.427	8927
715.544	8888
715.661	8619
715.778	8075
715.895	8413
716.011	7831
716.128	8366
716.245	8988
716.362	11887
716.479	10190
716.596	9041
716.713	7321
716.829	7865
716.946	7836
717.063	6950
717.180	7266
717.296	7398
717.413	7024
717.530	7701
717.646	7441
717.763	7116
717.880	5593
717.996	7802
718.113	7371
718.229	7498
718.346	5941
718.462	7221
718.579	11151
718.695	18879
718.812	10462
718.928	9572
719.045	6051
719.161	5325
719.277	6291
719.394	6305
719.510	7008
719.626	6901
719.743	8992
719.859	11814
719.975	17981
720.092	72783
720.208	136388
720.324	15134
720.440	8175
720.557	9795
720.673	14676
720.789	17749
720.905	26682
721.021	8744
721.137	6048
721.253	6610
721.369	6042
721.486	7183
721.602	9013
721.718	5805
721.834	4130
721.950	6090
722.066	5650
722.181	5368
722.297	5950
722.413	5308
722.529	5713
722.645	5675
722.761	5359
722.877	5447
722.993	5209
723.108	6651
723.224	5403
723.340	4872
723.456	5610
723.571	4958
723.687	5034
723.803	4300
723.918	4975
724.034	5413
724.150	4410
724.265	6989
724.381	12766
724.497	11873
724.612	5020
724.728	3992
724.843	4069
724.959	6566
725.074	11806
725.190	10629
725.305	5632
725.421	4510
725.536	3995
725.651	4384
725.767	4363
725.882	4395
725.997	4268
726.113	4777
726.228	3865
726.343	2992
726.459	3364
726.574	4393
726.689	3371
726.804	4394
726.920	3906
727.035	3997
727.150	3872
727.265	4054
727.380	4985
727.495	4392
727.610	3849
727.725	4036
727.841	3809
727.956	3864
728.071	4979
728.186	3620
728.301	3840
728.416	4172
728.531	4023
728.645	3458
728.760	5745
728.875	7130
728.990	5542
729.105	4956
729.220	5006
729.335	4520
729.449	3964
729.564	3510
729.679	2723
729.794	3554
729.908	3923
730.023	3288
730.138	3462
730.253	3591
730.367	3382
730.482	3091
730.596	3538
730.711	4313
730.826	3531
730.940	3639
731.055	3328
731.169	2526
731.284	3262
731.398	3377
731.513	3899
731.627	2613
731.742	4977
731.856	3730
731.970	3305
732.085	4262
732.199	5516
732.313	9274
732.428	24550
732.542	78623
732.656	36091
732.771	6216
732.885	4479
732.999	4177
733.113	3414
733.227	4379
733.342	3905
733.456	3025
733.570	2526
733.684	2303
733.798	3344
733.912	3109
734.026	3048
734.140	3347
734.254	4513
734.368	7007
734.482	6321
734.596	3613
734.710	2723
734.824	3327
734.938	2043
735.052	3591
735.166	4056
735.280	4402
735.393	1737
735.507	2744
735.621	3975
735.735	7482
735.849	3325
735.962	3273
736.076	2890
736.190	4340
736.303	4938
736.417	4897
736.531	2784
736.644	2485
736.758	2089
736.872	2445
736.985	2709
737.099	2254
737.212	1671
737.326	2746
737.439	2825
737.553	2372
737.666	2798
737.780	1681
737.893	1919
738.007	2726
738.120	1870
738.233	2257
738.347	2304
738.460	2954
738.573	2745
738.687	2015
738.800	3512
738.913	5013
739.026	3149
739.140	3079
739.253	2159
739.366	2831
739.479	1895
739.592	1869
739.705	2331
739.818	1813
739.932	2228
740.045	3011
740.158	2745
740.271	2878
740.384	2546
740.497	3016
740.610	4056
740.723	3768
740.836	4587
740.949	4442
741.062	5137
741.174	5165
741.287	2273
741.400	3700
741.513	4561
741.626	5005
741.739	3505
741.851	3296
741.964	2123
742.077	2806
742.189	3159
742.302	6190
742.415	4360
742.527	3002
742.640	2773
742.753	2494
742.865	1854
742.978	1845
743.090	1785
743.203	2046
743.316	1774
743.428	1308
743.541	2674
743.653	2220
743.766	2348
743.878	2551
743.990	2977
744.103	3974
744.215	4878
744.327	3375
744.440	3967
744.552	6971
744.664	2384
744.777	1765
744.889	1123
745.001	3143
745.113	1058
745.226	2146
745.338	2449
745.450	1766
745.562	1096
745.674	2552
745.786	1610
745.898	2029
746.010	1535
746.122	1974
746.234	1353
746.347	1709
746.459	2228
746.570	1794
746.682	3236
746.794	5928
746.906	3254
747.018	1755
747.130	1434
747.242	906
747.354	1329
747.466	2523
747.577	1078
747.689	2209
747.801	951
747.913	1110
748.024	1073
748.136	983
748.248	1237
748.359	2025
748.471	1800
748.583	1060
748.694	1563
748.806	2206
748.918	1319
749.029	2103
749.141	2996
749.252	2358
749.364	2257
749.475	7041
749.587	3901
749.698	1498
749.809	1713
749.921	549
750.032	1145
750.144	294
750.255	839
750.366	1252
750.478	1189
750.589	2122
750.700	1012
750.811	2320
750.923	3662
751.034	9247
751.145	7593
751.256	1210
751.367	982
751.479	1396
751.590	1569
751.701	2329
751.812	287
751.923	995
752.034	1462
752.145	1539
752.256	1213
752.367	1326
752.478	952
752.589	979
752.700	1567
752.811	781
752.922	538
753.032	1855
753.143	1591
753.254	379
753.365	1695
753.476	1483
753.586	1196
753.697	974
753.808	866
753.919	1361
754.029	250
754.140	1227
754.251	460
754.361	478
754.472	1474
754.582	1440
754.693	1775
754.804	1422
754.914	342
755.025	926
755.135	850
755.246	1547
755.356	-30
755.466	1340
755.577	1551
755.687	797
755.798	405
755.908	1644
756.018	248
756.129	757
756.239	852
756.349	1037
756.460	1605
756.570	2053
756.680	1082
756.790	1360
756.900	1610
757.011	1106
757.121	326
757.231	912
757.341	1035
757.451	563
757.561	167
757.671	683
757.781	-367
757.891	1178
758.001	1109
758.111	1443
758.221	1752
758.331	1393
758.441	1774
758.551	3294
758.661	2421
758.771	1045
758.880	345
758.990	751
759.100	412
759.210	1637
759.320	722
759.429	1416
759.539	1233
759.649	1796
759.758	1554
759.868	1525
759.978	474
760.087	1378
760.197	1577
760.307	1585
760.416	317
760.526	1154
760.635	2063
760.745	1694
760.854	2056
760.964	1980
761.073	1155
761.182	1855
761.292	1324
761.401	1878
761.511	758
761.620	1066
761.729	1538
761.839	1360
761.948	1531
762.057	1220
762.166	1495
762.276	-118
762.385	2489
762.494	1426
762.603	481
762.712	2031
762.822	-458
762.931	1111
763.040	171
763.149	1089
763.258	505
763.367	845
763.476	1638
763.585	1243
763.694	871
763.803	1177
763.912	1532
764.021	1426
764.130	1775
764.238	938
764.347	920
764.456	664
764.565	780
764.674	1287
764.783	84
764.891	111
765.000	1592
765.109	2474
765.217	1013
765.326	1530
765.435	2677
765.543	1981
765.652	1513
765.761	2350
765.869	3640
765.978	5312
766.086	11163
766.195	21309
766.303	69338
766.412	247797
766.520	150175
766.629	17274
766.737	6001
766.846	4641
766.954	2555
767.062	3789
767.171	1535
767.279	2529
767.387	1432
767.496	2130
767.604	1751
767.712	1774
767.820	1196
767.928	2248
768.037	1516
768.145	1459
768.253	2100
768.361	1573
768.469	1166
768.577	1955
768.685	2125
768.793	824
768.901	969
769.009	2460
769.117	1327
769.225	1996
769.333	2706
769.441	4902
769.549	8179
769.657	22762
769.765	93612
769.873	185151
769.981	30191
770.088	4872
770.196	2765
770.304	2645
770.412	2515
770.519	2189
770.627	1763
770.735	1877
770.842	1748
770.950	2091
771.058	1167
771.165	2260
771.273	465
771.380	2245
771.488	1604
771.595	1831
771.703	1113
771.810	2437
771.918	738
772.025	1882
772.133	1641
772.240	918
772.348	1736
772.455	1766
772.562	1457
772.670	740
772.777	1938
772.884	790
772.991	1517
773.099	1828
773.206	1092
773.313	1272
773.420	1215
773.528	374
773.635	979
773.742	2248
773.849	1979
773.956	1748
774.063	1185
774.170	1151
774.277	1974
774.384	1121
774.491	1377
774.598	1730
774.705	1529
774.812	3041
774.919	1528
775.026	1710
775.133	1445
775.239	1789
775.346	956
775.453	1478
775.560	731
775.667	2295
775.773	852
775.880	1892
775.987	784
776.093	1699
776.200	1218
776.307	1885
776.413	1800
776.520	1240
776.627	1875
776.733	1364
776.840	329
776.946	3816
777.053	3799
777.159	12042
777.266	4183
777.372	10335
777.478	6225
777.585	3643
777.691	1481
777.798	1201
777.904	2073
778.010	3433
778.117	2293
778.223	1603
778.329	1088
778.435	1597
778.542	2047
778.648	1233
778.754	798
778.860	1134
778.966	739
779.072	698
779.178	1050
779.284	1555
779.391	70
779.497	77
779.603	2098
779.708	-100
779.815	1500
779.920	1810
780.026	953
780.132	254
780.238	635
780.344	888
780.450	1077
780.556	1220
780.661	480
780.767	1398
780.873	699
780.979	1591
781.085	470
781.190	923
781.296	567
781.402	454
781.507	193
781.613	1022
781.719	-289
781.824	693
781.930	1634
782.035	462
782.141	978
782.246	900
782.352	130
782.457	576
782.563	554
782.668	865
782.773	326
782.879	849
782.984	1029
783.090	2083
783.195	3790
783.300	1975
783.405	1173
783.511	326
783.616	649
783.721	940
783.826	687
783.932	1125
784.037	384
784.142	658
784.247	683
784.352	971
784.457	744
784.562	1056
784.667	949
784.772	436
784.877	-165
784.982	1777
785.087	507
785.192	1181
785.297	757
785.402	749
785.507	214
785.611	12
785.716	609
785.821	456
785.926	-117
786.031	539
786.135	-128
786.240	758
786.345	-583
786.450	1301
786.554	-359
786.659	389
786.763	-1521
786.868	939
786.973	605
787.077	738
787.182	-180
787.286	548
787.391	1014
787.495	-10
787.600	415
787.704	96
787.809	466
787.913	501
788.017	357
788.122	230
788.226	280
788.330	-312
788.435	-299
788.539	1037
788.643	-23
788.747	423
788.852	102
788.956	392
789.060	189
789.164	32
789.268	-533
789.372	769
789.476	304
789.580	37
789.684	-497
789.788	706
789.892	-288
789.996	-158
790.100	-5
790.204	540
790.308	-90
790.412	54
790.516	-380
790.620	-125
790.724	80
790.828	917
790.931	-480
791.035	1502
791.139	-410
791.242	-495
791.346	825
791.450	564
791.554	486
791.657	-270
791.761	1337
791.864	1280
791.968	-277
792.072	484
792.175	22
792.279	-163
792.382	366
792.486	1314
792.589	-239
792.693	1239
792.796	-191
792.899	783
793.003	591
793.106	-599
793.209	-236
793.313	1068
793.416	-470
793.519	1667
793.623	1884
793.726	3288
793.829	650
793.932	467
794.035	-1236
794.138	820
794.242	1324
794.345	593
794.448	1199
794.551	2328
794.654	2891
794.757	1314
794.860	615
794.963	591
795.066	-564
795.169	1330
795.272	-723
795.375	298
795.477	-616
795.580	1049
795.683	-1350
795.786	327
795.889	-333
795.991	1192
796.094	920
796.197	-761
796.300	821
796.402	-230
796.505	-586
796.608	-657
796.710	296
796.813	980
796.915	-585
797.018	187
797.120	164
797.223	-786
797.326	477
797.428	-511
797.530	-135
797.633	526
797.735	1453
797.838	482
797.940	1079
798.042	-1459
798.145	-703
798.247	1056
798.349	-836
798.452	458
798.554	-532
798.656	-1446
798.758	1406
798.860	334
798.962	37
799.065	754
799.167	-1065
799.269	1243
799.371	869
799.473	1689
799.575	-555
799.677	663
799.779	1724
799.881	1887
799.983	1175
800.085	177
800.187	582
800.289	-980
800.390	254
800.492	707
800.594	1178
800.696	-703
800.798	275
800.899	-148
801.001	-765
801.103	-376
801.205	-600
801.306	256
801.408	-1368
801.509	-400
801.611	-236
801.713	208
801.814	-421
801.916	126
802.017	-740
802.119	-314
802.220	-223
802.322	-1023
802.423	2224
802.525	-1371
802.626	-8
802.727	299
802.829	381
802.930	-1863
803.031	587
803.133	760
803.234	351
803.335	297
803.436	-513
803.538	291
803.639	-943
803.740	376
803.841	-537
803.942	350
804.043	312
804.144	-94
804.245	119
804.346	-1105
804.447	-22
804.548	1871
804.649	1781
804.750	182
804.851	-182
804.952	49
805.053	-117
805.154	-711
805.255	-165
805.355	-229
805.456	-995
805.557	-726
805.658	-580
805.758	392
805.859	73
805.960	-557
806.061	-1293
806.161	-67
806.262	-181
806.362	-205
806.463	-1146
806.564	-131
806.664	-201
806.765	654
806.865	-621
806.966	-516
807.066	-922
807.166	-74
807.267	118
807.367	-129
807.468	151
807.568	-1806
807.668	-371
807.769	879
807.869	-672
807.969	383
808.069	318
808.170	337
808.270	-884
808.370	206
808.470	849
808.570	-462
808.670	-136
808.770	-46
808.870	-527
808.970	100
809.070	-1513
809.170	-667
809.271	447
809.370	-177
809.470	815
809.570	-503
809.670	-368
809.770	40
809.870	-255
809.970	-350
810.070	-995
810.169	-86
810.269	-1748
810.369	823
810.469	-266
810.568	-1036
810.668	-1139
810.768	-994
810.867	-351
810.967	-755
811.066	-1448
811.166	-364
811.265	322
811.365	-1346
811.464	-1060
811.564	-698
811.663	-811
811.763	-1242
811.862	-728
811.962	-591
812.061	-1151
812.160	-236
812.260	-658
812.359	-621
812.458	-823
812.557	-126
812.657	-267
812.756	-250
812.855	-933
812.954	-1080
813.053	-410
813.153	546
813.252	-1621
813.351	-81
813.450	-722
813.549	-1668
813.648	-255
813.747	-1026
813.846	-342
813.945	-986
814.044	-585
814.143	-326
814.242	-88
814.341	-1466
814.439	-96
814.538	-88
814.637	-510
814.736	-762
814.835	-361
814.933	-953
815.032	-478
815.131	-55
815.229	-479
815.328	-63
815.427	-992
815.525	501
815.624	-215
815.722	-687
815.821	-231
815.919	234
816.018	-707
816.116	1431
816.215	118
816.313	-746
816.412	-685
816.510	189
816.609	1899
816.707	486
816.805	-321
816.904	206
817.002	156
817.100	693
817.198	837
817.296	-316
817.395	-815
817.493	535
817.591	784
817.689	1984
817.787	1079
817.885	3779
817.983	7977
818.081	19689
818.179	50319
818.277	130156
818.375	89353
818.473	19741
818.571	7077
818.669	4621
818.767	3988
818.865	5045
818.963	5633
819.061	9265
819.158	17247
819.256	41928
819.354	108134
819.452	241104
819.549	118159
819.647	25856
819.745	10017
819.842	6975
819.940	3767
820.038	2633
820.135	1352
820.233	2166
820.330	447
820.428	541
820.525	1781
820.623	536
820.720	122
820.818	936
820.915	854
821.012	1290
821.110	-969
821.207	1349
821.304	-725
821.402	1313
821.499	1088
821.596	3693
821.693	1580
821.791	560
821.888	1148
821.985	4550
822.082	2438
822.179	1010
822.276	1242
822.373	255
822.470	-203
822.567	61
822.664	-924
822.761	305
822.858	-1812
822.955	-287
823.052	-497
823.149	-624
823.246	-554
823.343	-615
823.440	250
823.536	-292
823.633	-648
823.730	-600
823.827	-658
823.923	-654
824.020	1002
824.117	430
824.213	-77
824.310	182
824.407	-685
824.503	449
824.600	-1030
824.696	7
824.793	214
824.889	-146
824.986	-952
825.082	-683
825.179	387
825.275	-552
825.371	-1176
825.468	-398
825.564	-1549
825.660	94
825.757	-420
825.853	380
825.949	-1075
826.045	-264
826.142	-1089
826.238	-1146
826.334	-362
826.430	-662
826.526	-840
826.622	-196
826.718	-429
826.814	-1082
826.910	434
827.006	-558
827.102	-1496
827.198	153
827.294	-602
827.390	-428
827.486	358
827.582	-1761
827.678	-1482
827.774	628
827.869	-2071
827.965	-131
828.061	-1296
828.157	-642
828.252	-832
828.348	-975
828.444	69
828.539	-919
828.635	-347
828.731	378
828.826	-1410
828.922	-598
829.017	-1205
829.113	761
829.208	-701
829.304	-405
829.399	801
829.495	-1010
829.590	638
829.685	-451
829.781	-229
829.876	-450
829.971	-677
830.066	-701
830.162	-1117
830.257	175
830.352	-1246
830.447	135
830.543	-1164
830.638	-603
830.733	579
830.828	-1001
830.923	-28
831.018	-677
831.113	40
831.208	-1923
831.303	-760
831.398	-778
831.493	-1443
831.588	-139
831.683	-1436
831.778	-516
831.873	-1060
831.967	342
832.062	-2031
832.157	-196
832.252	758
832.346	-1250
832.441	-338
832.536	368
832.631	2770
832.725	2151
832.820	-677
832.914	-1561
833.009	-1170
833.104	-454
833.198	426
833.293	-1125
833.387	-128
833.482	-148
833.576	-719
833.670	-603
833.765	-1393
833.859	-75
833.954	168
834.048	118
834.142	42
834.237	-1866
834.331	-1327
834.425	-607
834.519	-1237
834.613	150
834.708	-669
834.802	-167
834.896	-2012
834.990	-563
835.084	-208
835.178	-1089
835.272	-1518
835.366	-1397
835.460	-865
835.554	-804
835.648	-417
835.742	-1135
835.836	-1118
835.930	-1644
836.024	-474
836.117	235
836.211	-1628
836.305	-658
836.399	-2
836.493	-1433
836.586	118
836.680	-1143
836.774	-707
836.867	318
836.961	-1373
837.055	-1048
837.148	-624
837.242	-303
837.335	-1052
837.429	-97
837.522	-1145
837.616	-534
837.709	543
837.803	-850
837.896	-429
837.989	-1031
838.083	174
838.176	729
838.269	-277
838.363	-378
838.456	-908
838.549	1049
838.642	-371
838.735	2983
838.829	547
838.922	-1538
839.015	-933
839.108	-1269
839.201	-483
839.294	-1310
839.387	-1155
839.480	-1769
839.573	117
839.666	-586
839.759	-1023
839.852	-1147
839.945	-1438
840.038	-1006
840.131	-1007
840.223	-684
840.316	-327
840.409	-362
840.502	-2294
840.594	-66
840.687	-1636
840.780	-87
840.873	-719
840.965	-537
841.058	-461
841.150	1036
841.243	-2034
841.336	-671
841.428	-849
841.521	-474
841.613	-1316
841.706	-693
841.798	-1561
841.890	-1190
841.983	-1895
842.075	-951
842.167	-1441
842.260	-90
842.352	-432
842.444	-739
842.537	703
842.629	1509
842.721	-1507
842.813	-847
842.905	-1696
842.997	-229
843.090	-927
843.182	807
843.274	352
843.366	4286
843.458	6522
843.550	3496
843.642	-636
843.734	-68
843.826	-1142
843.918	-174
844.009	-667
844.101	-1624
844.193	-974
844.285	-1161
844.377	-392
844.469	1484
844.560	1656
844.652	1047
844.744	-165
844.835	-238
844.927	-1024
845.019	-690
845.110	-759
845.202	-1067
845.293	-1034
845.385	-425
845.476	-738
845.568	-426
845.659	-1497
845.751	-528
845.842	-761
845.934	-1260
846.025	-1984
846.116	-622
846.208	-733
846.299	-778
846.390	-1117
846.482	-740
846.573	-432
846.664	-327
846.755	-744
846.846	678
846.937	-2424
847.029	-681
847.120	-1124
847.211	-1335
847.302	297
847.393	-1678
847.484	-940
847.575	-708
847.666	-1457
847.757	-1418
847.847	-1038
847.938	95
848.029	-1297
848.120	-707
848.211	-1174
848.302	-790
848.392	-992
848.483	-727
848.574	-1631
848.664	-1154
848.755	-1193
848.846	-1318
848.936	-1462
849.027	-589
849.118	-441
849.208	-1409
849.299	257
849.389	3000
849.480	6160
849.570	13643
849.661	30052
849.751	46786
849.841	13091
849.932	2026
850.022	-294
850.112	75
850.203	-278
850.293	-959
850.383	-868
850.474	-787
850.564	-1700
850.654	-396
850.744	-935
850.834	-1093
850.924	-1453
851.014	-196
851.104	-1350
851.194	-567
851.284	-663
851.374	-251
851.464	-588
851.554	-904
851.644	-259
851.734	310
851.824	-251
851.914	-458
852.004	-759
852.094	-802
852.183	-1529
852.273	-1109
852.363	-786
852.452	-493
852.542	-260
852.632	-986
852.721	-43
852.811	-951
852.901	-412
852.990	271
853.080	164
853.169	-186
853.259	-902
853.348	67
853.438	516
853.527	1695
853.617	3479
853.706	9222
853.795	17132
853.885	45253
853.974	87054
854.063	168689
854.152	239336
854.242	76548
854.331	10603
854.420	4786
854.509	1752
854.598	1804
854.687	1363
854.777	1535
854.866	809
854.955	1148
855.044	-756
855.133	-652
855.222	-530
855.311	-699
855.400	-163
855.488	-63
855.577	-1295
855.666	-316
855.755	-828
855.844	-1080
855.933	-907
856.021	495
856.110	-402
856.199	-936
856.288	-1577
856.376	-186
856.465	-1709
856.554	-191
856.642	-1264
856.731	-635
856.819	-562
856.908	-1249
856.996	-1426
857.085	-561
857.173	-1719
857.262	-503
857.350	-1056
857.438	-321
857.527	-1379
857.615	-1213
857.703	-338
857.792	-717
857.880	-1176
857.968	-1135
858.056	-1145
858.145	-333
858.233	-899
858.321	-1238
858.409	-734
858.497	-1160
858.585	-1215
858.673	-460
858.761	-1952
858.849	-1233
858.937	-1668
859.025	-283
859.113	-1305
859.201	-821
859.289	-612
859.377	-720
859.465	-1191
859.552	-1065
859.640	-1492
859.728	-878
859.816	-1436
859.903	-971
859.991	-1521
860.079	-1747
860.166	-1535
860.254	-943
860.342	-604
860.429	-1007
860.517	-2084
860.604	-202
860.692	-833
860.779	-1440
860.867	-763
860.954	-1455
861.042	-1213
861.129	-961
861.216	-514
861.304	-1309
861.391	-1295
861.478	-1123
861.565	-1669
861.653	-557
861.740	-1290
861.827	-677
861.914	-1456
862.001	-647
862.089	-1283
862.176	-1204
862.263	-1990
862.350	-158
862.437	-1562
862.524	-1820
862.611	-1649
862.698	224
862.785	-84
862.871	-528
862.958	-1154
863.045	-1508
863.132	-1592
863.219	-1228
863.306	-2411
863.392	-995
863.479	-1495
863.566	-1182
863.652	-1274
863.739	-1156
863.826	-960
863.912	-789
863.999	-2095
864.086	-932
864.172	-2494
864.259	-697
864.345	-1443
864.432	-788
864.518	-854
864.604	-924
864.691	-1393
864.777	-285
864.863	-407
864.950	-170
865.036	-761
865.122	-614
865.209	170
865.295	697
865.381	526
865.467	1307
865.553	1840
865.639	3279
865.726	8467
865.812	21055
865.898	42926
865.984	64258
866.070	126588
866.156	122740
866.242	25932
866.328	5158
866.414	1934
866.499	1245
866.585	-136
866.671	309
866.757	570
866.843	907
866.928	-545
867.014	99
867.100	-135
867.186	-66
867.271	-355
867.357	975
867.442	178
867.528	-513
867.614	-121
867.699	653
867.785	648
867.870	845
867.956	2538
868.041	1000
868.127	519
868.212	658
868.297	645
868.383	465
868.468	615
868.553	1841
868.639	1380
868.724	3647
868.809	2945
868.894	-647
868.979	-501
869.065	-341
869.150	-1909
869.235	-510
869.320	-831
869.405	-926
869.490	-557
869.575	-1011
869.660	-1016
869.745	-1024
869.830	-1760
869.915	-1546
870.000	-1437
870.085	-742
870.169	-1446
870.254	-210
870.339	-1270
870.424	-1334
870.509	-958
870.593	-330
870.678	-1809
870.763	-719
870.847	-835
870.932	-480
871.016	-921
871.101	-263
871.186	-635
871.270	-771
871.355	-1422
871.439	-446
871.523	-801
871.608	-1241
871.692	-1274
871.777	662
871.861	-712
871.945	-1570
872.030	-1249
872.114	-859
872.198	-1721
872.282	-1382
872.367	-1591
872.451	-1490
872.535	-920
872.619	-1129
872.703	-1476
872.787	-1529
872.871	-1577
872.955	-1104
873.039	-1462
873.123	-1204
873.207	-470
873.291	-817
873.375	-1643
873.459	-1027
873.543	-1751
873.627	-665
873.711	-1586
873.794	-578
873.878	-718
873.962	-1195
874.045	-1196
874.129	-1447
874.137	-1404
874.213	-979
874.245	-1203
874.296	-1570
874.352	-1517
874.380	-1490
874.460	-981
874.464	-961
874.547	-1130
874.568	-872
874.631	-128
874.676	-622
874.714	-1004
874.784	-1063
874.798	-1089
874.881	-728
874.892	-745
874.965	-819
874.999	-804
875.048	-813
875.107	-1071
875.131	-1155
875.215	-999
875.215	-999
875.298	-841
875.323	-861
875.381	-868
875.430	-638
875.465	-483
875.538	-705
875.548	-744
875.631	-1629
875.646	-1591
875.714	-1399
875.753	-1089
875.798	-685
875.861	-805
875.881	-866
875.964	-319
875.968	-380
876.047	-1427
876.076	-1197
876.130	-763
876.183	-604
876.213	-496
876.291	-292
876.296	-283
876.379	-108
876.398	-259
876.462	-771
876.506	-895
876.545	-961
876.613	-605
876.628	-547
876.711	-800
876.721	-747
876.794	-316
876.828	-623
876.877	-1072
876.935	-634
876.960	-424
877.043	-592
877.043	-592
877.125	-343
877.150	-101
877.208	424
877.258	383
877.291	272
877.365	-141
877.374	-165
877.456	-845
877.472	-721
877.539	-203
877.579	-120
877.622	-149
877.687	-606
877.704	-683
877.787	-583
877.794	-576
877.869	-598
877.901	-459
877.952	-191
878.008	-798
878.034	-1050
878.115	-499
878.117	-489
878.199	-160
878.222	-52
878.282	326
878.329	90
878.364	-165
878.437	-546
878.447	-599
878.529	-1024
878.544	-880
878.611	-135
878.651	-276
878.694	-335
878.758	-598
878.776	-701
878.858	-934
878.865	-893
878.941	-499
878.972	-615
879.023	-749
879.078	-755
879.105	-635
879.185	277
879.187	288
879.269	494
879.292	204
879.351	-499
879.399	-591
879.433	-657
879.506	-537
879.516	-479
879.598	-907
879.613	-857
879.680	-624
879.720	-156
879.762	217
879.827	-728
879.844	-1002
879.926	-210
879.933	-203
880.007	120
880.040	98
880.089	146
880.147	907
880.171	1174
880.253	1701
880.254	1705
880.335	2862
880.360	3312
880.417	4551
880.467	7113
880.499	8904
880.574	9849
880.580	9675
880.662	2850
880.680	2081
880.744	457
880.787	120
880.825	-12
880.893	-45
880.907	-26
880.989	-616
881.000	-596
881.070	-330
881.106	-431
881.152	-419
881.213	-158
881.233	-259
881.315	-896
881.319	-914
881.396	-218
881.426	-51
881.478	-146
881.532	-11
881.559	98
881.639	-334
881.641	-342
881.722	-205
881.745	-272
881.803	-268
881.852	-3
881.885	79
881.958	37
881.966	47
882.047	89
882.064	-57
882.129	-173
882.171	484
882.210	779
882.277	723
882.291	708
882.372	443
882.383	326
882.454	73
882.489	303
882.535	332
882.596	112
882.616	36
882.697	260
882.702	243
882.778	324
882.808	226
882.859	-329
882.914	-686
882.940	-563
883.020	10
883.021	13
883.102	-563
883.127	-609
883.183	-274
883.233	-286
883.264	-332
883.339	297
883.345	342
883.426	-278
883.445	-271
883.507	-92
883.551	-166
883.587	-460
883.657	-534
883.668	-430
883.749	106
883.763	198
883.830	186
883.869	96
883.910	-30
883.975	-294
883.991	-265
884.072	-269
884.081	-249
884.152	-220
884.187	-106
884.233	181
884.292	172
884.314	66
884.394	18
884.398	7
884.475	-26
884.504	-43
884.555	89
884.610	-80
884.636	-319
884.716	-527
884.716	-522
884.797	-198
884.821	-230
884.877	59
884.927	655
884.958	663
885.033	58
885.038	24
885.118	-231
885.139	-305
885.199	-377
885.244	-523
885.279	-258
885.350	353
885.359	371
885.439	506
885.456	492
885.520	38
885.561	-125
885.600	-14
885.667	-116
885.680	-135
885.760	124
885.773	116
885.840	672
885.878	1042
885.920	876
885.984	124
886.000	53
886.080	523
886.089	529
886.160	481
886.195	453
886.240	265
886.300	-7
886.320	-7
886.400	-18
886.406	-28
886.480	-30
886.511	41
886.560	407
886.616	624
886.640	794
886.720	1462
886.722	1468
886.800	999
886.827	820
886.879	785
886.932	809
886.959	1012
887.038	1304
887.039	1308
887.119	824
887.143	730
887.198	513
887.248	242
887.278	287
887.354	208
887.358	229
887.437	759
887.459	877
887.517	925
887.564	747
887.596	646
887.669	771
887.676	820
887.755	1188
887.774	1292
887.835	551
887.880	-111
887.914	127
887.985	657
887.994	665
888.073	628
888.090	643
888.153	1000
888.195	1131
888.232	842
888.300	391
888.311	451
888.391	753
888.405	808
888.470	393
888.510	104
888.549	406
888.615	994
888.628	939
888.708	493
888.720	403
888.787	305
888.825	309
888.866	449
888.930	602
888.945	607
889.024	615
889.035	617
889.103	820
889.140	890
889.182	1018
889.245	1183
889.261	1153
889.340	1006
889.349	985
889.419	1101
889.454	1126
889.498	1021
889.559	863
889.577	755
889.656	274
889.664	224
889.735	596
889.768	766
889.814	808
889.873	857
889.978	1265
890.083	1110
890.187	1117
890.292	1388
890.397	459
890.501	1308
890.606	388
890.710	1121
890.815	1789
890.919	490
891.024	318
891.128	1466
891.233	822
891.337	1089
891.442	548
891.546	874
891.650	-27
891.755	631
891.859	1567
891.963	1033
892.068	514
892.172	1005
892.276	211
892.380	900
892.484	763
892.589	717
892.693	1198
892.797	911
892.901	-47
893.005	918
893.109	1916
893.213	1362
893.317	654
893.421	965
893.525	931
893.629	783
893.733	383
893.837	-78
893.941	1107
894.045	961
894.148	234
894.252	152
894.356	844
894.460	1708
894.564	-177
894.667	640
894.771	393
894.875	550
894.978	1171
895.082	572
895.186	1017
895.289	234
895.393	782
895.496	1039
895.600	699
895.703	399
895.807	338
895.910	231
896.014	241
896.117	445
896.221	1211
896.324	1086
896.427	869
896.531	517
896.634	438
896.737	844
896.840	1114
896.944	642
897.047	-36
897.150	1303
897.253	716
897.356	943
897.460	-6
897.563	1041
897.666	459
897.769	342
897.872	546
897.975	183
898.078	516
898.181	448
898.284	787
898.387	255
898.490	343
898.593	329
898.695	459
898.798	1230
898.901	1581
899.004	467
899.107	548
899.209	474
899.312	619
899.415	881
899.518	445
899.620	-309
899.723	312
899.826	1333
899.928	1301
900.031	724
900.133	386
900.236	436
900.338	347
900.441	-34
900.543	137
900.646	771
900.748	372
900.851	1236
900.953	611
901.055	237
901.158	-47
901.260	744
901.362	697
901.465	499
901.567	399
901.669	647
901.771	406
901.873	260
901.976	188
902.078	380
902.180	105
902.282	130
902.384	254
902.486	617
902.588	796
902.690	996
902.792	-298
902.894	470
902.996	-49
903.098	127
903.200	-323
903.302	535
903.404	236
903.505	167
903.607	137
903.709	1362
903.811	892
903.913	890
904.014	430
904.116	1
904.218	-582
904.319	914
904.421	726
904.523	568
904.624	797
904.726	654
904.827	447
904.929	870
905.030	-6
905.132	460
905.233	172
905.335	493
905.436	380
905.537	566
905.639	434
905.740	-32
905.841	387
905.943	374
906.044	406
906.145	865
906.247	515
906.348	471
906.449	1095
906.550	246
906.651	364
906.752	228
906.854	-836
906.955	824
907.056	168
907.157	367
907.258	347
907.359	707
907.460	459
907.561	453
907.662	863
907.762	540
907.863	464
907.964	496
908.065	-160
908.166	10
908.267	837
908.367	456
908.468	-488
908.569	767
908.670	669
908.770	1417
908.871	736
908.971	1319
909.072	545
909.173	778
909.273	141
909.374	-175
909.474	702
909.575	169
909.675	35
909.776	354
909.876	67
909.977	109
910.077	750
910.177	227
910.278	355
910.378	204
910.478	528
910.579	366
910.679	177
910.779	696
910.879	200
910.980	499
911.080	638
911.180	6
911.280	-241
911.380	84
911.480	647
911.580	-396
911.680	-107
911.780	14
911.880	57
911.980	752
912.080	313
912.180	656
912.280	895
912.380	264
912.480	529
912.580	286
912.679	990
912.779	907
912.879	-592
912.979	490
913.078	-165
913.178	174
913.278	555
913.377	414
913.477	-53
913.577	638
913.676	536
913.776	-5
913.875	-582
913.975	433
914.074	148
914.174	667
914.273	-330
914.373	537
914.472	-144
914.572	-161
914.671	0
914.770	329
914.870	571
914.969	334
915.068	-239
915.167	-52
915.267	627
915.366	834
915.465	-484
915.564	613
915.663	746
915.763	429
915.862	-209
915.961	176
916.060	25
916.159	211
916.258	-1102
916.357	547
916.456	438
916.555	213
916.654	-492
916.752	735
916.851	480
916.950	697
917.049	-5
917.148	-230
917.247	383
917.345	193
917.444	-556
917.543	43
917.642	127
917.740	-354
917.839	373
917.937	629
918.036	1089
918.135	1198
918.233	609
918.332	816
918.430	119
918.529	-424
918.627	6
918.726	269
918.824	-48
918.923	-11
919.021	-536
919.119	291
919.218	45
919.316	-154
919.414	-273
919.512	1302
919.611	437
919.709	604
919.807	161
919.905	-356
920.003	955
920.102	824
920.200	-212
920.298	11
920.396	-283
920.494	43
920.592	888
920.690	281
920.788	-11
920.886	480
920.984	631
921.082	-229
921.180	534
921.277	159
921.375	399
921.473	156
921.571	669
921.669	175
921.766	-144
921.864	897
921.962	1152
922.060	307
922.157	748
922.255	573
922.352	1025
922.450	1968
922.548	310
922.645	877
922.743	546
922.840	1558
922.938	1751
923.035	1574
923.133	1287
923.230	1494
923.327	2055
923.425	1810
923.522	1741
923.619	1396
923.717	1771
923.814	2282
923.911	1335
924.008	2686
924.106	1570
924.203	1537
924.300	1884
924.397	1327
924.494	1749
924.591	2262
924.688	1526
924.786	2220
924.883	1285
924.979	1532
925.077	1931
925.173	1874
925.270	1280
925.367	1631
925.464	1642
925.561	1877
925.658	2298
925.755	2517
925.852	2172
925.948	1817
926.045	2414
926.142	1375
926.239	1369
926.335	1712
926.432	1643
926.529	1689
926.625	2043
926.722	682
926.818	1280
926.915	1685
927.011	990
927.108	876
927.204	1170
927.301	1097
927.397	1959
927.494	1286
927.590	1093
927.687	1143
927.783	2022
927.879	1525
927.976	908
928.072	1145
928.168	1376
928.264	1409
928.361	1713
928.457	1924
928.553	1503
928.649	1504
928.745	1828
928.841	1247
928.937	1212
929.033	1748
929.129	819
929.225	1178
929.321	954
929.417	917
929.513	1028
929.609	814
929.705	609
929.801	588
929.897	695
929.993	572
930.089	1334
930.184	969
930.280	2132
930.376	1285
930.471	1461
930.567	312
930.663	1607
930.758	1041
930.854	611
930.950	718
931.045	219
931.141	1626
931.236	1399
931.332	-22
931.427	639
931.523	1378
931.618	869
931.714	456
931.809	901
931.905	1432
932.000	298
932.095	835
932.191	1317
932.286	1280
932.381	779
932.476	-203
932.572	387
932.667	894
932.762	1161
932.857	1554
932.952	738
933.047	609
933.142	799
933.237	1303
933.332	1022
933.427	1119
933.522	694
933.617	57
933.712	960
933.807	905
933.902	322
933.997	1089
934.092	577
934.187	1126
934.282	472
934.376	688
934.471	371
934.566	398
934.661	94
934.755	1227
934.850	1095
934.945	695
935.039	217
935.134	762
935.228	516
935.323	1061
935.417	740
935.512	946
935.606	214
935.701	487
935.795	940
935.890	29
935.984	732
936.079	197
936.173	453
936.267	-98
936.362	720
936.456	977
936.550	482
936.644	682
936.738	483
936.833	1130
936.927	578
937.021	211
937.115	829
937.209	-311
937.303	1112
937.397	-68
937.491	281
937.585	918
937.679	1702
937.773	-73
937.867	103
937.961	809
938.055	406
938.149	139
938.243	-395
938.337	-448
938.430	238
938.524	1032
938.618	629
938.712	918
938.805	581
938.899	726
938.993	645
939.086	-426
939.180	524
939.274	955
939.367	1746
939.461	635
939.554	117
939.648	260
939.741	901
939.835	98
939.928	1108
940.022	877
940.115	700
940.208	1150
940.302	985
940.395	290
940.488	116
940.582	843
940.675	-296
940.768	168
940.861	-460
940.954	949
941.048	-702
941.141	407
941.234	-143
941.327	1672
941.420	1873
941.513	843
941.606	331
941.699	542
941.792	523
941.885	-743
941.978	543
942.071	60
942.164	-645
942.257	152
942.349	-235
942.442	280
942.535	-1
942.628	966
942.721	1353
942.813	-264
942.906	800
942.999	495
943.091	123
943.184	25
943.277	-87
943.369	-360
943.462	-87
943.554	496
943.647	-354
943.739	1013
943.832	49
943.924	-130
944.017	-44
944.109	-1133
944.201	303
944.294	171
944.386	-76
944.478	915
944.571	-166
944.663	201
944.755	480
944.847	-77
944.940	15
945.032	-924
945.124	-130
945.216	1651
945.308	-385
945.400	319
945.492	133
945.584	199
945.676	783
945.768	-256
945.860	472
945.952	-248
946.044	120
946.136	248
946.228	352
946.320	-333
946.412	-634
946.503	212
946.595	544
946.687	461
946.779	-280
946.870	79
946.962	-829
947.054	414
947.145	508
947.237	-718
947.329	-484
947.420	11
947.512	815
947.603	-58
947.695	375
947.786	-805
947.878	-604
947.969	949
948.061	-115
948.152	-470
948.243	-135
948.335	219
948.426	-131
948.517	-664
948.609	308
948.700	-107
948.791	-1349
948.882	-257
948.973	-229
949.065	-312
949.156	-508
949.247	-1487
949.338	-391
949.429	-429
949.520	-150
949.611	-738
949.702	559
949.793	90
949.884	57
949.975	260
950.066	-331
950.157	-882
950.247	-145
950.338	-822
950.429	-244
950.520	79
950.611	186
950.701	256
950.792	592
950.883	507
950.973	135
951.064	333
951.155	-608
951.245	-312
951.336	226
951.427	-899
951.517	336
951.608	333
951.698	-501
951.788	-34
951.879	-186
951.969	103
952.060	-288
952.150	-649
952.240	714
952.331	-1421
952.421	227
952.511	102
952.602	-783
952.692	-186
952.782	176
952.872	-137
952.962	-696
953.052	-525
953.143	-1010
953.233	-513
953.323	-30
953.413	-947
953.503	-1023
953.593	139
953.683	-687
953.773	-946
953.863	-986
953.953	-754
954.042	-627
954.132	-315
954.222	-404
954.312	-689
954.402	-977
954.492	1224
954.581	1935
954.671	-169
954.761	-573
954.850	740
954.940	-551
955.030	497
955.119	-834
955.209	777
955.298	-1444
955.388	-109
955.477	-119
955.567	-923
955.656	155
955.746	-287
955.835	-386
955.925	-25
956.014	-332
956.103	-255
956.193	-159
956.282	-174
956.371	-959
956.461	-1020
956.550	291
956.639	-900
956.728	-194
956.817	421
956.906	-357
956.995	680
957.085	-1103
957.174	436
957.263	-402
957.352	-597
957.441	-815
957.530	157
957.619	-1015
957.708	-466
957.796	-550
957.885	-340
957.974	-438
958.063	129
958.152	-1675
958.241	-252
958.329	-887
958.418	-631
958.507	-224
958.596	639
958.684	-825
958.773	786
958.861	-754
958.950	202
959.039	-37
959.127	-807
959.216	23
959.304	-656
959.393	-670
959.481	-239
959.570	709
959.658	65
959.746	58
959.835	1369
959.923	1171
960.011	277
960.100	-52
960.188	598
960.276	-799
960.365	-310
960.453	-959
960.541	-1362
960.629	-55
960.717	-262
960.805	-1588
960.893	-217
960.981	-1214
961.069	1049
961.158	-1294
961.245	-373
961.333	-196
961.421	-352
961.509	-188
961.597	-487
961.685	-396
961.773	-48
961.861	-1325
961.949	-157
962.036	-1512
962.124	-449
962.212	-977
962.299	-384
962.387	-892
962.475	-259
962.562	-298
962.650	703
962.738	165
962.825	-1360
962.913	-229
963.000	-291
963.088	-224
963.175	-549
963.263	-164
963.350	206
963.438	310
963.525	817
963.612	2863
963.700	7034
963.787	9979
963.874	2691
963.962	-435
964.049	-66
964.136	-591
964.223	-340
964.310	-940
964.398	-208
964.485	-201
964.572	639
964.659	1329
964.746	1054
964.833	-751
964.920	-1158
965.007	-841
965.094	344
965.181	-234
965.268	-950
965.355	-1476
965.441	-25
965.528	-1336
965.615	86
965.702	-171
965.789	-252
965.875	-818
965.962	-229
966.049	-991
966.136	-141
966.222	-1385
966.309	-69
966.395	-1072
966.482	-497
966.569	-1348
966.655	9
966.742	-753
966.828	263
966.915	-552
967.001	521
967.087	-1293
967.174	-641
967.260	529
967.347	1655
967.433	5279
967.519	5168
967.605	583
967.692	-220
967.778	-831
967.864	-548
967.950	-568
968.036	-1261
968.123	-613
968.209	-930
968.295	-1612
968.381	550
968.467	-450
968.553	-1113
968.639	159
968.725	-323
968.811	1426
968.897	0
968.983	-307
969.069	-1701
969.154	-245
969.240	68
969.326	-847
969.412	-669
969.497	-1229
969.583	-453
969.669	-98
969.755	-491
969.840	-1257
969.926	-668
970.012	-796
970.097	92
970.183	340
970.268	-171
970.354	997
970.439	2717
970.525	3522
970.610	-617
970.696	64
970.781	407
970.866	-1243
970.952	775
971.037	-1596
971.122	-681
971.208	-1097
971.293	-558
971.378	-1284
971.463	-630
971.549	-236
971.634	-430
971.719	-99
971.804	-1040
971.889	492
971.974	-559
972.059	-691
972.144	-287
972.229	-818
972.314	-299
972.399	-146
972.484	-374
972.569	-296
972.654	-753
972.739	2121
972.824	917
972.908	-230
972.993	-1206
973.078	-999
973.163	-1146
973.247	118
973.332	-1423
973.417	-65
973.501	-1046
973.586	-652
973.671	-306
973.755	-1179
973.840	-132
973.924	-204
974.009	-521
974.093	-488
974.178	1684
974.262	1530
974.346	328
974.431	-454
974.515	-615
974.600	-400
974.684	-497
974.768	-1174
974.852	-343
974.937	-1493
975.021	-526
975.105	-557
975.189	-156
975.273	-520
975.358	-944
975.442	-1414
975.526	-273
975.610	-1610
975.694	-1510
975.778	-139
975.862	-738
975.946	-2567
976.030	644
976.114	-994
976.198	-1376
976.281	-863
976.365	-313
976.449	-955
976.533	-681
976.617	-1352
976.700	177
976.784	-243
976.868	-476
976.951	659
977.035	-59
977.119	-667
977.202	-741
977.286	-391
977.369	-1187
977.453	-365
977.536	-554
977.620	-1817
977.703	-290
977.787	-2356
977.870	-63
977.953	-465
978.037	-1797
978.120	136
978.203	791
978.287	1146
978.370	-454
978.453	-1206
978.536	-1070
978.620	1355
978.703	202
978.786	-1093
978.869	-1610
978.952	-2186
979.035	736
979.118	409
979.201	-876
979.284	-989
979.367	-477
979.450	-363
979.533	-895
979.616	-1219
979.699	-862
979.782	-208
979.865	-547
979.948	-272
980.030	-982
980.113	-1472
980.196	-1662
980.279	-254
980.361	-1086
980.444	-962
980.526	-66
980.609	52
980.692	-395
980.774	-845
980.857	-1385
980.939	-74
981.022	-732
981.104	-854
981.187	-504
981.269	20
981.352	-758
981.434	-1219
981.516	-779
981.599	-40
981.681	-486
981.763	-749
981.846	-1170
981.928	-1200
982.010	-614
982.092	-1465
982.174	76
982.256	-1299
982.339	-630
982.421	-939
982.503	-729
982.585	-1816
982.667	-589
982.749	-382
982.831	-397
982.913	-1408
982.995	108
983.077	-1151
983.158	-200
983.240	-1678
983.322	-281
983.404	21
983.486	-679
983.568	-719
983.649	-436
983.731	-545
983.813	-803
983.894	-490
983.976	-1198
984.058	-766
984.139	353
984.221	-778
984.302	-564
984.384	-639
984.465	-1196
984.547	-852
984.628	-709
984.710	-542
984.791	-658
984.872	-183
984.954	-1220
985.035	-415
985.116	-1824
985.198	-1650
985.279	-263
985.360	-1053
985.441	-1307
985.522	35
985.604	-194
985.685	-1871
985.766	63
985.847	264
985.928	-1097
986.009	-643
986.090	-808
986.171	-485
986.252	-272
986.333	-573
986.414	-1092
986.495	-431
986.576	-816
986.656	-843
986.737	-1086
986.818	-338
986.899	-1457
986.980	-1045
987.060	-260
987.141	-1358
987.222	-497
987.302	-1159
987.383	-693
987.464	-1207
987.544	-84
987.625	-143
987.705	290
987.786	-631
987.866	-962
987.947	-873
988.027	-883
988.108	-258
988.188	-439
988.268	518
988.349	-615
988.429	-1198
988.509	-347
988.589	-625
988.670	-1746
988.750	198
988.830	-730
988.910	-990
988.990	-630
989.070	-1696
989.151	-491
989.231	-1291
989.311	-615
989.391	-793
989.471	-1815
989.551	-734
989.631	-1549
989.711	298
989.791	-998
989.870	-1777
989.950	308
990.030	-1522
990.110	-233
990.190	-100
990.269	77
990.349	-1009
990.429	-674
990.509	-540
990.588	-1133
990.668	-391
990.747	-212
990.827	-973
990.907	-307
990.986	-1078
991.066	51
991.145	-1217
991.225	102
991.304	-1406
991.383	-338
991.463	-1160
991.542	68
991.622	-1307
991.701	-794
991.780	-875
991.859	-1176
991.939	-1057
992.018	-77
992.097	-641
992.176	-112
992.256	84
992.335	-1822
992.414	270
992.493	-910
992.572	-667
992.651	86
992.730	-903
992.809	-714
992.888	-1679
992.967	-858
993.046	-400
993.125	-1311
993.203	-1105
993.282	-856
993.361	-654
993.440	-28
993.519	-2070
993.597	-1111
993.676	-1288
993.755	-224
993.834	-658
993.912	-1667
993.991	-194
994.069	-1157
994.148	-643
994.226	-592
994.305	-576
994.384	-1342
994.462	376
994.540	-1781
994.619	-746
994.697	-401
994.776	-1073
994.854	-898
994.932	-1566
995.011	-618
995.089	-1932
995.167	-597
995.245	-931
995.324	-1041
995.402	-553
995.480	-1542
995.558	-492
995.636	-2391
995.714	-975
995.792	-17
995.870	-1685
995.948	-676
996.026	-132
996.104	-2025
996.182	481
996.260	-1157
996.338	-1037
996.416	-2215
996.494	-1473
996.572	78
996.649	-616
996.727	-1701
996.805	-1559
996.883	-1245
996.960	-1524
997.038	-1427
997.116	-1021
997.193	-1513
997.271	-562
997.348	-1482
997.426	-1048
997.504	-1501
997.581	-813
997.658	-679
997.736	-1960
997.813	-1594
997.891	-546
997.968	-927
998.046	-1409
998.123	-794
998.200	-1029
998.277	-1971
998.355	-460
998.432	-1906
998.509	-966
998.586	-641
998.663	-1020
998.741	-1034
998.818	-1011
998.895	-59
998.972	-722
999.049	-1403
999.126	-1920
999.203	-261
999.280	-594
999.357	-1433
999.434	-860
999.511	-431
999.587	-78
999.664	-1933
999.741	-1136
999.818	206
999.895	-1281
999.971	-1236
1000.048	-2069
1000.125	-1393
1000.202	-804
1000.278	-1291
1000.355	-1125
1000.431	-1030
1000.508	-1483
1000.584	-1309
1000.661	-1289
1000.738	-1196
1000.814	-950
1000.890	-351
1000.967	-1256
1001.043	-939
1001.120	-1850
1001.196	-267
1001.272	-1842
1001.349	-1091
1001.425	110
1001.501	-922
1001.577	-1229
1001.654	-1066
1001.730	-1376
1001.806	-764
1001.882	-2431
1001.958	-658
1002.034	-499
1002.110	-1116
1002.186	-1723
1002.262	-1296
1002.338	-1928
1002.414	-447
1002.490	-624
1002.566	-1376
1002.642	-1349
1002.718	-61
1002.794	-992
1002.870	-1661
1002.945	-828
1003.021	-1345
1003.097	-828
1003.173	-1176
1003.248	-1237
1003.324	-1684
1003.400	-1353
1003.475	-1907
1003.551	-1390
1003.626	-1212
1003.702	-2118
1003.777	-779
1003.853	-1638
1003.928	-647
1004.004	-1585
1004.079	-936
1004.155	-1747
1004.230	-2480
1004.305	-647
1004.381	-1581
1004.456	-1731
1004.531	-734
1004.607	-1562
1004.682	-897
1004.757	-1034
1004.832	-1252
1004.907	-1829
1004.982	-1838
1005.057	-1026
1005.133	-832
1005.208	-1339
1005.283	-1123
1005.358	-846
1005.433	-2047
1005.508	-1703
1005.583	-1639
1005.657	-2291
1005.732	-582
1005.807	-1839
1005.882	-1743
1005.957	-878
1006.032	-154
1006.106	-1742
1006.181	-1527
1006.256	-1098
1006.331	-1970
1006.405	-1215
1006.480	-1406
1006.554	-1723
1006.629	-1368
1006.704	-1669
1006.778	-677
1006.853	-1108
1006.927	-1371
1007.002	-1983
1007.076	-998
1007.150	-1823
1007.225	-985
1007.299	-1235
1007.373	-2231
1007.448	-1257
1007.522	-138
1007.596	-1483
1007.671	-2149
1007.745	-1446
1007.819	-2229
1007.893	-1923
1007.967	-1334
1008.041	-1841
1008.115	-720
1008.190	-2148
1008.264	-995
1008.338	-1932
1008.412	-1576
1008.486	-1385
1008.560	-1410
1008.633	-2137
1008.707	-944
1008.781	-1277
1008.855	-934
1008.929	-1944
1009.003	-1484
1009.076	-1161
1009.150	-1005
1009.224	-987
1009.298	-634
1009.371	-1369
1009.445	-634
1009.519	-343
1009.592	-2118
1009.666	-507
1009.739	-1305
1009.813	-1755
1009.886	-1238
1009.960	-2311
1010.033	-1298
1010.107	-777
1010.180	-2736
1010.253	-1256
1010.327	-1631
1010.400	-1656
1010.473	-2405
1010.547	-861
1010.620	-2295
1010.693	-1272
1010.766	-1721
1010.840	-1922
1010.913	-1465
1010.986	-1951
1011.059	-1099
1011.132	-1878
1011.205	-1429
1011.278	-1406
1011.351	-1722
1011.424	-1734
1011.497	-1583
1011.570	-1979
1011.643	-1775
1011.716	-2124
1011.789	-1895
1011.862	-965
1011.934	-890
1012.007	-3177
1012.080	-1391
1012.153	-1205
1012.225	-1031
1012.298	-2820
1012.371	-2700
1012.443	-954
1012.516	-2295
1012.588	-1645
1012.661	-1719
1012.733	-2130
1012.806	-932
1012.879	-2500
1012.951	-1900
1013.023	-1396
1013.096	-1541
1013.168	-1760
1013.241	-2071
1013.313	-2126
1013.385	-1804
1013.458	-1933
1013.530	-614
1013.602	-2563
1013.674	-1900
1013.746	-2326
1013.819	-1860
1013.891	-1722
1013.963	-2357
1014.035	-2234
1014.107	-1933
1014.179	-1650
1014.251	-2601
1014.323	-1620
1014.395	-1339
1014.467	-1728
1014.539	-1508
1014.611	-2257
1014.683	-749
1014.754	-1629
1014.826	-2421
1014.898	-2314
1014.970	-2558
1015.042	-1079
1015.113	-1910
1015.185	-1124
1015.257	-1917
1015.328	-2093
1015.400	-2545
1015.471	-1929
1015.543	-2023
1015.615	-1235
1015.686	-2389
1015.757	-1190
1015.829	-1519
1015.901	-2136
1015.972	-903
1016.043	-1930
1016.115	-2196
1016.186	-1467
1016.257	-1789
1016.328	-1582
1016.400	-932
1016.471	-2288
1016.542	-1913
1016.613	-1651
1016.685	-1642
1016.756	-1727
1016.827	-1300
1016.898	-2270
1016.969	-1123
1017.040	-2583
1017.111	-1566
1017.182	-1967
1017.253	-1408
1017.324	-2202
1017.395	-1714
1017.466	-1758
1017.537	-1547
1017.608	-1242
1017.678	-1954
1017.749	-2217
1017.820	-1525
1017.891	-1809
1017.961	-2163
1018.032	-2028
1018.103	-1347
1018.173	-1916
1018.244	-2272
1018.315	-1661
1018.385	-1489
1018.456	-2401
1018.526	-1376
1018.597	-1830
1018.667	-1734
1018.738	-1737
1018.808	-993
1018.878	-2019
1018.949	-1463
1019.019	-977
1019.089	-1825
1019.160	-2105
1019.230	-2472
1019.300	-2041
1019.371	-1521
1019.441	-1386
1019.511	-1504
1019.581	-1826
1019.651	-2486
1019.721	-1700
1019.791	-2356
1019.861	-2407
1019.931	-1553
1020.001	-2834
1020.071	-1583
1020.141	-2062
1020.211	-1673
1020.281	-2628
1020.351	-2231
1020.421	-1630
1020.491	-1234
1020.560	-2769
1020.630	-1578
1020.700	-2095
1020.770	-1491
1020.839	-2365
1020.909	-1834
1020.979	-1681
1021.048	-2019
1021.118	-1664
1021.187	-2344
1021.257	-2055
1021.326	-1864
1021.396	-1580
1021.465	-1677
1021.535	-1529
1021.604	-2052
1021.674	-1732
1021.743	-1999
1021.812	-1740
1021.882	-1875
1021.951	-2318
1022.020	-1632
1022.089	-1981
1022.159	-1986
1022.228	-1372
1022.297	-1832
1022.366	-2568
1022.435	-1861
1022.504	-1497
1022.573	-2300
1022.642	-2639
1022.711	-1505
1022.781	-2277
1022.849	-1892
1022.918	-2037
1022.987	-1336
1023.056	-3158
1023.125	-1814
1023.194	-2226
1023.263	-1276
1023.331	-1501
1023.400	-2459
1023.469	-2726
1023.538	-2090
1023.606	-2453
1023.675	-1054
1023.744	-2775
1023.812	-2721
1023.881	-1879
1023.949	-1753
1024.018	-2370
1024.086	-2328
1024.155	-1503
1024.223	-2492
1024.292	-1982
1024.360	-1269
1024.429	-1339
1024.497	-1955
1024.565	-1761
1024.634	-2143
1024.702	-2143
1024.770	-2410
1024.838	-2412
1024.907	-2075
1024.975	-1419
1025.043	-1759
1025.111	-2849
1025.179	-1620
1025.247	-2382
1025.315	-1736
1025.383	-2230
1025.451	-2440
1025.519	-2490
1025.587	-2219
1025.655	-2573
1025.723	-1916
1025.791	-2081
1025.859	-1888
1025.927	-950
1025.995	-1929
1026.062	-1813
1026.130	-860
1026.198	-1961
1026.266	-2029
1026.333	-1770
1026.401	-1788
1026.469	-1810
1026.536	-1737
1026.604	-2509
1026.671	-1353
1026.739	-1958
1026.806	-2251
1026.874	-2265
1026.941	-2344
1027.009	-1887
1027.076	-2031
1027.144	-2718
1027.211	-1984
1027.278	-2771
1027.345	-2497
1027.413	-1939
1027.480	-2320
1027.547	-2192
1027.614	-1920
1027.682	-1997
1027.749	-2144
1027.816	-2145
1027.883	-2295
1027.950	-1544
1028.017	-2397
1028.084	-2354
1028.151	-1967
1028.218	-1836
1028.285	-1830
1028.352	-2185
1028.419	-1666
1028.486	-2171
1028.553	-1948
1028.619	-1773
1028.686	-2405
1028.753	-1875
1028.820	-2847
1028.886	-2290
1028.953	-1961
1029.020	-1656
1029.086	-2099
1029.153	-2526
1029.220	-1460
1029.286	-1970
1029.353	-2376
1029.419	-2525
1029.486	-2342
1029.552	-1706
1029.619	-1293
1029.685	-1832
1029.751	-1762
1029.818	-1295
1029.884	-1706
1029.951	-978
1030.017	-1519
1030.083	-1856
1030.149	-2042
1030.216	-1978
1030.282	-2226
1030.348	-2328
1030.414	-2162
1030.480	-2044
1030.546	-2007
1030.612	-1948
1030.678	-1962
1030.744	-1470
1030.810	-2216
1030.876	-1638
1030.942	-1992
1031.008	-1509
1031.074	-2482
1031.140	-1969
1031.206	-1804
1031.272	-2435
1031.337	-1192
1031.403	-1345
1031.469	-1994
1031.534	-2401
1031.600	-1598
1031.666	-1478
1031.731	-2390
1031.797	-1615
1031.863	-2048
1031.928	-2479
1031.994	-2075
1032.059	-1493
1032.125	-2462
1032.190	-2240
1032.256	-1694
1032.321	-2399
1032.386	-2742
1032.452	-1582
1032.517	-1786
1032.582	-1838
1032.647	-1545
1032.713	-2462
1032.778	-1261
1032.843	-2658
1032.908	-1785
1032.974	-2004
1033.039	-2099
1033.104	-1673
1033.169	-2523
1033.234	-1138
1033.299	-2388
1033.364	-2134
1033.429	-1164
1033.494	-924
1033.559	-1169
1033.624	-1620
1033.688	-2045
1033.753	-2404
1033.818	-1770
1033.883	-2023
1033.948	-1301
1034.013	-1695
1034.077	-2109
1034.142	-1121
1034.207	-603
1034.271	-868
1034.336	-439
1034.400	-504
1034.465	-1617
1034.530	-1363
1034.594	-1947
1034.658	-2142
1034.723	-1895
1034.787	-1318
1034.852	-1400
1034.916	-2467
1034.981	-2283
1035.045	-1641
1035.109	-1947
1035.173	-1690
1035.238	-1346
1035.302	-979
1035.366	-2037
1035.430	-2304
1035.495	-2214
1035.559	-1863
1035.623	-1398
1035.687	-2260
1035.751	-1790
1035.815	-1776
1035.879	-2481
1035.943	-2043
1036.007	-2211
1036.071	-1754
1036.135	-1472
1036.198	-1756
1036.262	-1784
1036.326	-1611
1036.390	-1931
1036.454	-1072
1036.517	-722
1036.581	-1524
1036.645	-1563
1036.709	-1003
1036.772	-2077
1036.836	-1395
1036.900	-1433
1036.963	-1839
1037.026	-1782
1037.090	-2043
1037.154	-2701
1037.217	-1685
1037.280	-2421
1037.344	-2444
1037.407	-1337
1037.471	-1436
1037.534	-1759
1037.597	-1780
1037.661	-1310
1037.724	-1928
1037.787	-2145
1037.850	-2353
1037.913	-1241
1037.977	-1384
1038.040	-2115
1038.103	-1960
1038.166	-1711
1038.229	-2013
1038.292	-2032
1038.355	-1917
1038.418	-1175
1038.481	-2131
1038.544	-2392
1038.607	-1700
1038.670	-2236
1038.732	-2304
1038.795	-2112
1038.858	-1710
1038.921	-1615
1038.984	-1832
1039.046	-2346
1039.109	-2288
1039.172	-1683
1039.234	-1742
1039.297	-1733
1039.360	-1886
1039.422	-1924
1039.485	-2148
1039.547	-2875
1039.610	-1951
1039.672	-1856
1039.734	-1739
1039.797	-1792
1039.859	-2210
1039.922	-1823
1039.984	-1502
1040.046	-1849
1040.109	-2669
1040.171	-1886
1040.233	-1373
1040.295	-2205
1040.358	-2499
1040.420	-2014
1040.482	-2080
1040.544	-2629
1040.606	-2403
1040.668	-2055
1040.730	-2996
1040.792	-2038
1040.854	-2152
1040.916	-2157
1040.978	-2280
1041.040	-1698
1041.102	-2719
1041.164	-2477
1041.225	-2671
1041.287	-3000
1041.349	-1845
1041.411	-2065
1041.472	-2415
1041.534	-1352
1041.596	-2793
1041.657	-2230
1041.719	-1760
1041.781	-2769
1041.842	-2088
1041.904	-2004
1041.965	-2520
1042.027	-2089
1042.088	-2296
1042.150	-2805
1042.211	-2242
1042.272	-1945
1042.334	-1651
1042.395	-2342
1042.456	-2025
1042.518	-1947
1042.579	-2030
1042.640	-2553
1042.701	-2109
1042.763	-3276
1042.824	-2710
1042.885	-1961
1042.946	-2361
1043.007	-2181
1043.068	-2351
1043.129	-2394
1043.190	-2213
1043.251	-1046
1043.312	-2476
1043.373	-2285
1043.434	-1753
1043.495	-1609
1043.556	-1094
1043.616	-1745
1043.677	-2131
1043.738	-1528
1043.799	-1461
1043.859	-1934
1043.920	-2231
1043.981	-2104
1044.041	-2035
1044.102	-1870
1044.162	-1250
1044.223	-1822
1044.284	-2550
1044.344	-2473
1044.405	-2475
1044.465	-1963
1044.525	-2545
1044.586	-3097
1044.646	-1753
1044.707	-1456
1044.767	-2298
1044.827	-1377
1044.887	-2574
1044.948	-2262
1045.008	-2111
1045.068	-1914
1045.128	-2373
1045.188	-2025
1045.249	-1684
1045.309	-1921
1045.369	-1652
1045.429	-2193
1045.489	-1925
1045.549	-2305
1045.609	-2073
1045.669	-1485
1045.729	-1952
1045.789	-2257
1045.848	-1071
1045.908	-2228
1045.968	-1801
1046.028	-1051
1046.088	-1986
1046.147	-1322
1046.207	-1443
1046.267	-1674
1046.326	-2503
1046.386	-2198
1046.446	-1398
1046.505	-1510
1046.565	-1283
1046.624	-1240
1046.684	-930
1046.743	-635
1046.803	-793
1046.862	-737
1046.922	0
