'Start Wavelength	183.907
'End Wavelength	1046.922
'Gate Delay	5.000
'Gate Width (ms)	1.050
'Laser Output Level	0.000
'X Position	0.000
'Y Position	0.000
'Z Position	0.000
'Grid Point Number	1.000
'Shot Number	100.000
183.907	323.000
183.977	-548.000
184.047	-32
184.116	995
184.186	38
184.256	127
184.325	-521
184.395	-484
184.465	130
184.534	301
184.604	39
184.674	-371
184.743	-55
184.813	496
184.883	206
184.952	348
185.022	179
185.092	116
185.161	-38
185.231	506
185.301	167
185.370	617
185.440	73
185.509	578
185.579	112
185.649	229
185.718	188
185.788	694
185.857	284
185.927	-679
185.996	307
186.066	97
186.136	827
186.205	610
186.275	208
186.344	768
186.414	41
186.483	-476
186.553	711
186.622	437
186.692	-100
186.761	486
186.831	489
186.900	400
186.970	653
187.039	62
187.109	761
187.178	-283
187.248	-36
187.317	393
187.387	225
187.456	118
187.526	569
187.595	566
187.664	118
187.734	620
187.803	1027
187.873	916
187.942	391
188.012	431
188.081	1325
188.150	663
188.220	838
188.289	290
188.358	366
188.428	1489
188.497	309
188.567	474
188.636	733
188.705	583
188.775	-540
188.844	-189
188.913	1028
188.983	455
189.052	322
189.121	612
189.191	-38
189.260	314
189.329	-139
189.399	403
189.468	711
189.537	903
189.606	1285
189.676	1271
189.745	999
189.814	828
189.883	773
189.953	678
190.022	713
190.091	1223
190.161	1234
190.230	751
190.299	520
190.368	567
190.437	613
190.507	380
190.576	355
190.645	275
190.714	-151
190.783	-61
190.853	1509
190.922	1094
190.991	83
191.060	859
191.129	-28
191.198	187
191.268	438
191.337	658
191.406	1536
191.475	268
191.544	465
191.613	1001
191.682	678
191.752	301
191.821	-51
191.890	1328
191.959	806
192.028	425
192.097	-348
192.166	419
192.235	-27
192.304	1101
192.373	34
192.442	796
192.511	624
192.580	-131
192.650	610
192.719	109
192.788	1133
192.857	153
192.926	251
192.995	249
193.064	1103
193.133	2310
193.202	1472
193.271	2141
193.340	1642
193.409	1771
193.478	1213
193.547	2901
193.615	2220
193.684	2246
193.753	1638
193.822	1552
193.891	1101
193.960	1252
194.029	933
194.098	1632
194.167	-30
194.236	842
194.305	334
194.374	518
194.443	1288
194.512	1071
194.580	270
194.649	1422
194.718	937
194.787	1045
194.856	454
194.925	478
194.994	458
195.062	708
195.131	481
195.200	1520
195.269	1691
195.338	967
195.407	725
195.475	1313
195.544	1687
195.613	918
195.682	742
195.751	1570
195.819	1294
195.888	1289
195.957	2386
196.026	1206
196.094	1890
196.163	1877
196.232	962
196.301	1586
196.369	2004
196.438	1424
196.507	1243
196.576	1535
196.644	927
196.713	1037
196.782	1161
196.850	1247
196.919	875
196.988	1739
197.056	570
197.125	1576
197.194	1451
197.262	440
197.331	1084
197.400	1134
197.468	1118
197.537	831
197.606	1011
197.674	2408
197.743	3130
197.812	1625
197.880	2343
197.949	2033
198.017	1323
198.086	1680
198.155	2297
198.223	1747
198.292	2654
198.360	2525
198.429	706
198.497	1269
198.566	2345
198.635	3366
198.703	2360
198.772	2409
198.840	3420
198.909	3354
198.977	1492
199.046	1750
199.114	2005
199.183	2275
199.251	1767
199.320	1553
199.388	1259
199.457	1612
199.525	886
199.594	1218
199.662	1398
199.731	1825
199.799	1718
199.867	1047
199.936	1229
200.004	1502
200.073	1752
200.141	1003
200.210	287
200.278	1435
200.346	1230
200.415	1551
200.483	1673
200.552	2325
200.620	1581
200.688	1516
200.757	1389
200.825	1365
200.893	1558
200.962	1528
201.030	1155
201.098	1338
201.167	1654
201.235	2010
201.303	1534
201.372	1872
201.440	1290
201.508	1917
201.577	1215
201.645	1855
201.713	1143
201.781	1580
201.850	1629
201.918	1023
201.986	1212
202.055	1506
202.123	1848
202.191	2484
202.259	2130
202.327	1017
202.396	1484
202.464	1990
202.532	2014
202.600	3987
202.669	2222
202.737	886
202.805	1212
202.873	2529
202.941	1504
203.009	2028
203.078	1225
203.146	1598
203.214	1766
203.282	1200
203.350	1988
203.418	1723
203.487	1702
203.555	1902
203.623	2155
203.691	1449
203.759	1330
203.827	1588
203.895	1244
203.963	1725
204.031	1479
204.099	1966
204.168	1660
204.236	2463
204.304	1767
204.372	1774
204.440	2106
204.508	1679
204.576	1748
204.644	1463
204.712	1096
204.780	1604
204.848	2714
204.916	2016
204.984	2196
205.052	2887
205.120	1756
205.188	2222
205.256	1982
205.324	2188
205.392	2325
205.460	2350
205.528	1821
205.596	2397
205.664	2599
205.732	2077
205.799	4199
205.867	6919
205.935	2425
206.003	3261
206.071	2284
206.139	1820
206.207	2171
206.275	2037
206.343	2209
206.411	2291
206.478	2124
206.546	2434
206.614	1324
206.682	2681
206.750	1877
206.818	2785
206.885	2757
206.953	1969
207.021	2911
207.089	2555
207.157	1909
207.225	2605
207.292	2190
207.360	2855
207.428	2888
207.496	1893
207.563	2429
207.631	1806
207.699	1554
207.767	2374
207.834	1999
207.902	3509
207.970	2613
208.038	2356
208.105	2485
208.173	3292
208.241	3327
208.309	4768
208.376	3278
208.444	4947
208.512	3424
208.579	1789
208.647	2728
208.715	4525
208.782	2607
208.850	3485
208.918	2847
208.985	2718
209.053	2932
209.120	3603
209.188	2641
209.256	3220
209.323	2889
209.391	3904
209.459	4165
209.526	3716
209.594	2478
209.661	2712
209.729	3589
209.796	3324
209.864	3426
209.932	2383
209.999	4744
210.067	3302
210.134	3243
210.202	3552
210.269	4720
210.337	4036
210.404	2978
210.472	4378
210.539	3225
210.607	3503
210.674	2805
210.742	3697
210.809	3366
210.877	4328
210.944	4321
211.012	3388
211.079	4056
211.146	2730
211.214	3711
211.281	3507
211.349	4646
211.416	4573
211.484	4262
211.551	3977
211.618	4166
211.686	3825
211.753	3656
211.821	4432
211.888	3696
211.955	4289
212.023	3997
212.090	5022
212.157	4089
212.225	5143
212.292	6807
212.359	9626
212.427	18450
212.494	10977
212.561	6428
212.629	5506
212.696	4657
212.763	3978
212.831	3958
212.898	4725
212.965	3519
213.032	4640
213.100	4347
213.167	4788
213.234	4903
213.301	4903
213.369	4599
213.436	4200
213.503	4113
213.570	5133
213.638	4382
213.705	4377
213.772	4019
213.839	4626
213.906	6041
213.973	4849
214.041	4764
214.108	4777
214.175	5210
214.242	5035
214.309	4790
214.376	5357
214.444	3817
214.511	5657
214.578	5068
214.645	4968
214.712	5703
214.779	5373
214.846	4657
214.913	6162
214.980	6508
215.048	6037
215.115	5798
215.182	5255
215.249	4968
215.316	5093
215.383	4748
215.450	5213
215.517	4150
215.584	4555
215.651	4379
215.718	5374
215.785	5385
215.852	4384
215.919	5684
215.986	5506
216.053	4133
216.120	4434
216.187	5516
216.254	5568
216.321	5471
216.388	5666
216.455	5603
216.522	5707
216.589	6662
216.656	8096
216.722	8697
216.789	7968
216.856	7121
216.923	6792
216.990	6845
217.057	7474
217.124	7396
217.191	7635
217.258	8262
217.324	9448
217.391	9814
217.458	8120
217.525	7151
217.592	6013
217.659	5432
217.725	6168
217.792	7101
217.859	7739
217.926	5175
217.993	5741
218.059	5782
218.126	5258
218.193	4936
218.260	5263
218.327	4839
218.393	4868
218.460	3987
218.527	3476
218.594	4492
218.660	6927
218.727	7388
218.794	4345
218.860	5123
218.927	4351
218.994	3871
219.061	4176
219.127	4628
219.194	6812
219.261	4764
219.327	4204
219.394	4989
219.461	3755
219.527	4645
219.594	5598
219.661	4517
219.727	3326
219.794	4873
219.860	4389
219.927	5250
219.994	6730
220.060	9434
220.127	6795
220.193	7630
220.260	7810
220.326	11026
220.393	14264
220.460	15350
220.526	12202
220.593	9487
220.659	11252
220.726	10350
220.792	17043
220.859	17651
220.925	21126
220.992	22957
221.058	21122
221.125	19508
221.191	15782
221.258	9579
221.324	8083
221.391	7528
221.457	6092
221.524	6479
221.590	8206
221.657	15912
221.723	13061
221.789	10693
221.856	11005
221.922	7076
221.989	6649
222.055	5571
222.121	5151
222.188	7930
222.254	6813
222.321	5393
222.387	4747
222.453	4396
222.520	4726
222.586	4348
222.652	4504
222.719	3431
222.785	4828
222.851	4980
222.918	3846
222.984	4718
223.050	5277
223.116	3584
223.183	5529
223.249	4071
223.315	4050
223.382	4655
223.448	3283
223.514	3490
223.580	3958
223.647	3147
223.713	3965
223.779	4414
223.845	4820
223.911	5109
223.978	3260
224.044	4725
224.110	4275
224.176	4527
224.242	5135
224.309	2806
224.375	4686
224.441	4086
224.507	4636
224.573	3120
224.639	4350
224.705	2492
224.772	4157
224.838	3938
224.904	4773
224.970	3356
225.036	4854
225.102	4530
225.168	4770
225.234	4426
225.300	3876
225.366	4020
225.432	4695
225.499	4687
225.565	4665
225.631	4939
225.697	5967
225.763	6631
225.829	7654
225.895	7535
225.961	10023
226.027	10008
226.093	9935
226.159	12504
226.225	18048
226.291	31242
226.357	39576
226.423	26129
226.489	16963
226.554	12975
226.620	13555
226.686	15668
226.752	21641
226.818	32122
226.884	47462
226.950	42303
227.016	24432
227.082	15666
227.148	12545
227.214	10772
227.279	10216
227.345	9394
227.411	8089
227.477	7310
227.543	9863
227.609	10605
227.674	9259
227.740	7487
227.806	7653
227.872	6099
227.938	7198
228.003	9047
228.069	6641
228.135	5601
228.201	5329
228.267	5349
228.332	6365
228.398	6792
228.464	5631
228.530	5226
228.595	5263
228.661	4592
228.727	6389
228.792	7969
228.858	5556
228.924	3772
228.990	7614
229.055	5846
229.121	6532
229.187	4670
229.252	5419
229.318	4352
229.384	5106
229.449	6384
229.515	2507
229.581	3223
229.646	5387
229.712	5382
229.777	10749
229.843	9893
229.909	9829
229.974	9031
230.040	9778
230.105	8327
230.171	7676
230.236	10578
230.302	13173
230.368	10905
230.433	7614
230.499	7878
230.564	9481
230.630	6464
230.695	6628
230.761	6484
230.826	5537
230.892	9075
230.957	5988
231.023	6547
231.088	6430
231.154	6351
231.219	6623
231.284	7802
231.350	8432
231.415	6194
231.481	5412
231.546	4908
231.612	5960
231.677	5338
231.742	4395
231.808	7431
231.873	4157
231.939	4261
232.004	8299
232.069	8398
232.135	5975
232.200	5443
232.265	5810
232.331	5047
232.396	5281
232.461	4780
232.527	4150
232.592	4353
232.657	4845
232.723	5772
232.788	5964
232.853	5121
232.918	4945
232.984	4344
233.049	3961
233.114	4688
233.179	6004
233.245	7155
233.310	8630
233.375	4638
233.440	5101
233.506	4593
233.571	4931
233.636	4814
233.701	5019
233.766	6480
233.832	7331
233.897	4750
233.962	4840
234.027	7342
234.092	5902
234.157	5358
234.222	6478
234.288	7862
234.353	14324
234.418	12556
234.483	10711
234.548	9977
234.613	9575
234.678	9324
234.743	8127
234.808	15124
234.873	11219
234.938	8987
235.004	7200
235.069	7543
235.134	7545
235.199	7579
235.264	7948
235.329	5705
235.394	7145
235.459	8255
235.524	7465
235.589	8308
235.654	6483
235.719	5618
235.784	7005
235.849	7080
235.913	10216
235.978	9889
236.043	10260
236.108	7657
236.173	8043
236.238	8605
236.303	8110
236.368	8376
236.433	11411
236.498	14640
236.563	16383
236.627	30301
236.692	68294
236.757	63332
236.822	30019
236.887	20255
236.952	18667
237.017	16047
237.081	19389
237.146	24211
237.211	43922
237.276	69481
237.341	84927
237.405	57962
237.470	29043
237.535	19275
237.600	14975
237.664	13147
237.729	11226
237.794	14217
237.859	28571
237.923	17538
237.988	11746
238.053	12538
238.118	10697
238.182	20103
238.247	19279
238.312	9975
238.376	9920
238.441	7484
238.506	9025
238.570	6150
238.635	8826
238.700	7604
238.764	6193
238.829	11288
238.893	11445
238.958	10512
239.023	10238
239.087	7768
239.152	7674
239.216	6500
239.281	7441
239.346	6754
239.410	6660
239.475	6489
239.539	17792
239.604	13183
239.668	8248
239.733	6266
239.797	7458
239.862	11531
239.926	15539
239.991	8560
240.055	7021
240.120	6841
240.184	7382
240.249	5884
240.313	6754
240.378	6543
240.442	11701
240.507	16563
240.571	8691
240.635	9138
240.700	11700
240.764	6244
240.829	5567
240.893	4676
240.957	7201
241.022	11871
241.086	16346
241.151	9232
241.215	5120
241.279	8155
241.344	9764
241.408	9596
241.472	9569
241.537	11108
241.601	9837
241.665	7805
241.730	9724
241.794	10157
241.858	9068
241.922	9031
241.987	9385
242.051	8129
242.115	8702
242.179	8789
242.244	8922
242.308	8858
242.372	9480
242.436	9466
242.501	9629
242.565	8099
242.629	7742
242.693	8391
242.757	8393
242.822	7974
242.886	8145
242.950	8754
243.014	7710
243.078	9752
243.142	9497
243.206	9370
243.271	10852
243.335	10889
243.399	15491
243.463	37921
243.527	86576
243.591	29742
243.655	15500
243.719	10198
243.783	12724
243.847	16580
243.911	19728
243.975	20877
244.040	15243
244.104	11742
244.168	10209
244.232	11052
244.296	15753
244.360	18321
244.424	10271
244.488	7963
244.552	7920
244.615	6762
244.679	7675
244.743	9602
244.807	8980
244.871	7205
244.935	7384
244.999	5965
245.063	8142
245.127	9256
245.191	13473
245.255	13486
245.319	10763
245.383	8429
245.446	9526
245.510	6242
245.574	7465
245.638	8439
245.702	6382
245.766	16764
245.829	11460
245.893	8626
245.957	9512
246.021	11243
246.085	9935
246.149	10958
246.212	22851
246.276	31432
246.340	15615
246.404	11837
246.467	11206
246.531	16396
246.595	12179
246.659	10916
246.722	9546
246.786	12780
246.850	13347
246.913	16007
246.977	8719
247.041	8713
247.104	10117
247.168	10229
247.232	21212
247.295	39944
247.359	21007
247.423	11113
247.486	18584
247.550	13196
247.614	9779
247.677	12875
247.741	9766
247.804	9828
247.868	11437
247.932	19395
247.995	38075
248.059	15454
248.122	11361
248.186	13665
248.249	22774
248.313	59897
248.376	61794
248.440	41220
248.503	18119
248.567	16188
248.630	21826
248.694	28275
248.757	36045
248.821	67015
248.884	43047
248.948	38533
249.011	51755
249.075	73649
249.138	62445
249.202	28499
249.265	18765
249.328	20085
249.392	17548
249.455	16643
249.519	14299
249.582	16408
249.645	24913
249.709	19206
249.772	15680
249.835	15148
249.899	14399
249.962	14252
250.025	13477
250.089	28606
250.152	34886
250.215	18603
250.279	16053
250.342	15562
250.405	16677
250.468	15524
250.532	21849
250.595	30992
250.658	86417
250.721	123518
250.785	53220
250.848	29918
250.911	19837
250.974	18658
251.038	26393
251.101	43761
251.164	25383
251.227	28123
251.290	26998
251.354	40310
251.417	116558
251.480	115183
251.543	93785
251.606	179524
251.669	147506
251.732	71878
251.795	65803
251.859	67951
251.922	128640
251.985	78377
252.048	38226
252.111	29551
252.174	27257
252.237	43885
252.300	81628
252.363	89706
252.426	149172
252.489	70760
252.552	38254
252.615	27452
252.678	31534
252.741	63905
252.804	87456
252.867	157931
252.930	99390
252.993	54490
253.056	32472
253.119	25553
253.182	20846
253.245	35063
253.308	25701
253.371	21938
253.434	21012
253.497	20815
253.559	37443
253.622	25915
253.685	29012
253.748	28039
253.811	15612
253.874	18956
253.937	17509
254.000	15558
254.062	26841
254.125	38851
254.188	37271
254.251	28981
254.314	16098
254.376	26724
254.439	28468
254.502	22431
254.565	26627
254.628	45447
254.690	25045
254.753	14198
254.816	12844
254.878	14804
254.941	28524
255.004	27193
255.067	13570
255.129	13020
255.192	9646
255.255	8438
255.317	10879
255.380	8130
255.443	8002
255.505	7480
255.568	7208
255.631	7440
255.693	8086
255.756	6403
255.819	7752
255.881	6459
255.944	7162
256.006	7449
256.069	8079
256.132	7631
256.194	9086
256.257	15767
256.319	12819
256.382	12881
256.444	11997
256.507	12180
256.569	11472
256.632	14364
256.694	21084
256.757	50928
256.819	127055
256.882	57749
256.944	25363
257.007	19178
257.069	18273
257.132	14163
257.194	15497
257.257	14789
257.319	15852
257.381	20293
257.444	42171
257.506	136875
257.569	146116
257.631	62180
257.693	36535
257.756	19443
257.818	15837
257.880	13113
257.943	12740
258.005	11543
258.067	11487
258.130	11122
258.192	12658
258.254	16871
258.317	12584
258.379	11207
258.441	24115
258.503	21516
258.566	20940
258.628	23452
258.690	10672
258.753	12506
258.815	18701
258.877	12875
258.939	11158
259.001	10141
259.064	10873
259.126	10533
259.188	12668
259.250	11596
259.312	13752
259.375	20152
259.437	15113
259.499	10958
259.561	9810
259.623	11248
259.685	11187
259.747	11101
259.809	20703
259.872	30064
259.934	49760
259.996	48487
260.058	17093
260.120	9648
260.182	9376
260.244	8667
260.306	8485
260.368	9414
260.430	9209
260.492	19711
260.554	27170
260.616	14679
260.678	31100
260.740	31366
260.802	12288
260.864	11078
260.926	9679
260.988	11405
261.050	11282
261.112	27425
261.174	44894
261.236	25883
261.298	13544
261.359	15962
261.421	19746
261.483	8960
261.545	10366
261.607	7090
261.669	9094
261.731	10778
261.793	23691
261.854	14386
261.916	11227
261.978	10954
262.040	11666
262.102	8674
262.164	11074
262.225	8438
262.287	8428
262.349	19519
262.411	14681
262.472	8664
262.534	10638
262.596	17611
262.658	9308
262.719	7194
262.781	10454
262.843	17740
262.904	11765
262.966	10530
263.028	13915
263.090	48992
263.151	112406
263.213	38522
263.275	24914
263.336	10677
263.398	8915
263.459	7979
263.521	8035
263.583	19024
263.644	12689
263.706	7695
263.767	5516
263.829	5904
263.891	5832
263.952	5690
264.014	6125
264.075	14846
264.137	30920
264.198	13750
264.260	8002
264.321	7296
264.383	19282
264.444	43681
264.506	14661
264.567	11283
264.629	20635
264.690	38423
264.752	14996
264.813	10279
264.875	8153
264.936	8809
264.998	8265
265.059	8138
265.120	10739
265.182	16797
265.243	74610
265.305	71144
265.366	20632
265.427	11442
265.489	9173
265.550	7389
265.611	9455
265.673	9470
265.734	8513
265.795	8593
265.857	8974
265.918	11575
265.979	25149
266.040	109898
266.102	90564
266.163	28802
266.224	20457
266.286	11467
266.347	8287
266.408	8967
266.469	9389
266.530	8442
266.592	7981
266.653	13773
266.714	18664
266.775	8776
266.836	6726
266.898	6387
266.959	12006
267.020	8665
267.081	8019
267.142	6860
267.203	7019
267.264	6748
267.326	8541
267.387	5644
267.448	6010
267.509	7333
267.570	6570
267.631	5593
267.692	6874
267.753	7380
267.814	7413
267.875	14611
267.936	26885
267.997	19020
268.058	16421
268.119	10029
268.180	9134
268.241	7083
268.302	6665
268.363	6913
268.424	6751
268.485	7274
268.546	6309
268.607	4877
268.668	6412
268.729	5895
268.790	6393
268.851	7408
268.912	17763
268.972	18737
269.033	10146
269.094	6680
269.155	6677
269.216	6107
269.277	6612
269.338	6195
269.398	6841
269.459	7556
269.520	10383
269.581	11854
269.642	12617
269.702	10155
269.763	9653
269.824	7885
269.885	10375
269.945	13540
270.006	8421
270.067	5228
270.128	7431
270.188	5624
270.249	5957
270.310	6072
270.370	6793
270.431	5953
270.492	6585
270.553	7149
270.613	12317
270.674	21536
270.734	10697
270.795	7222
270.856	10509
270.916	7761
270.977	6288
271.038	8268
271.098	7880
271.159	12556
271.219	10683
271.280	6819
271.340	5981
271.401	7017
271.462	10638
271.522	8983
271.583	7196
271.643	8235
271.704	8076
271.764	10490
271.825	20364
271.885	56864
271.946	69331
272.006	26135
272.066	35829
272.127	53125
272.187	18498
272.248	11598
272.308	13719
272.369	39405
272.429	21084
272.489	18072
272.550	17480
272.610	18403
272.671	13630
272.731	12660
272.791	14924
272.852	11332
272.912	9816
272.972	6919
273.033	6970
273.093	9608
273.153	11370
273.214	9080
273.274	11020
273.334	33669
273.394	52652
273.455	21634
273.515	22366
273.575	46817
273.635	18765
273.696	24977
273.756	46645
273.816	19853
273.876	11986
273.936	19121
273.997	26791
274.057	11232
274.117	11252
274.177	17566
274.237	67185
274.297	46669
274.358	29099
274.418	41450
274.478	30490
274.538	12890
274.598	10043
274.658	21673
274.718	25299
274.778	13530
274.838	10352
274.898	16855
274.958	32442
275.018	46695
275.078	30077
275.138	12924
275.198	8826
275.258	7716
275.318	9131
275.378	16408
275.438	17364
275.498	11305
275.558	21076
275.618	40695
275.678	32814
275.738	23523
275.798	18716
275.858	11693
275.918	7216
275.978	9197
276.038	8288
276.098	7797
276.157	15784
276.217	36512
276.277	16049
276.337	13179
276.397	7747
276.457	8696
276.517	7122
276.576	6395
276.636	6862
276.696	10542
276.756	23519
276.815	15848
276.875	8379
276.935	9889
276.995	8430
277.055	6097
277.114	6710
277.174	10049
277.234	29480
277.293	13409
277.353	8670
277.413	6445
277.472	7666
277.532	7388
277.592	9027
277.651	24617
277.711	33766
277.771	14855
277.830	47928
277.890	33908
277.950	29565
278.009	69128
278.069	26463
278.128	29990
278.188	34718
278.248	18450
278.307	41123
278.367	22300
278.426	10258
278.486	8383
278.545	7144
278.605	7423
278.664	7480
278.724	9243
278.783	21926
278.843	46692
278.902	16255
278.962	10791
279.021	11759
279.081	10664
279.140	12710
279.199	12542
279.259	13503
279.318	12258
279.378	16300
279.437	25877
279.496	73973
279.556	153941
279.615	99860
279.675	33352
279.734	23849
279.793	35610
279.853	55871
279.912	24393
279.971	15416
280.031	15251
280.090	27880
280.149	41994
280.208	29519
280.268	109725
280.327	89352
280.386	26445
280.445	26326
280.505	21927
280.564	12600
280.623	11368
280.682	19107
280.742	25224
280.801	9920
280.860	7975
280.919	8230
280.978	7085
281.037	6171
281.097	5802
281.156	7984
281.215	6296
281.274	9477
281.333	34934
281.392	22220
281.451	7546
281.510	7213
281.569	5277
281.628	5417
281.688	4920
281.747	6650
281.806	6547
281.865	5818
281.924	5206
281.983	5913
282.042	3730
282.101	4485
282.160	5412
282.219	5307
282.278	6805
282.337	19989
282.396	12376
282.454	7062
282.513	8905
282.572	29048
282.631	14384
282.690	7095
282.749	4711
282.808	6796
282.867	7447
282.926	6520
282.985	5305
283.043	4682
283.102	5184
283.161	6719
283.220	15866
283.279	29063
283.338	10932
283.396	7520
283.455	7155
283.514	8110
283.573	11264
283.631	8204
283.690	6211
283.749	7000
283.808	14196
283.866	14561
283.925	7344
283.984	6947
284.043	9749
284.101	9193
284.160	7366
284.219	9654
284.277	8503
284.336	13234
284.395	37308
284.453	27155
284.512	12302
284.570	15996
284.629	13419
284.688	12313
284.746	13268
284.805	15359
284.863	18692
284.922	23504
284.981	29495
285.039	43969
285.098	70218
285.156	153219
285.215	233916
285.273	237550
285.332	155016
285.390	83780
285.449	50881
285.507	34914
285.566	26212
285.624	21471
285.683	17434
285.741	15725
285.799	13180
285.858	12413
285.916	11638
285.975	9418
286.033	9064
286.091	8063
286.150	6609
286.208	7299
286.267	7794
286.325	8592
286.383	12258
286.442	10795
286.500	5949
286.558	6129
286.616	5555
286.675	8289
286.733	7121
286.791	6747
286.850	7494
286.908	10451
286.966	14800
287.024	7650
287.083	6621
287.141	5438
287.199	6569
287.257	8931
287.315	7801
287.374	9984
287.432	19169
287.490	12742
287.548	8149
287.606	6456
287.664	7383
287.723	9948
287.781	12485
287.839	10746
287.897	12998
287.955	17569
288.013	25258
288.071	47949
288.129	152339
288.187	297281
288.245	156117
288.303	60625
288.361	33708
288.419	22833
288.477	17019
288.535	13373
288.593	12599
288.651	10170
288.709	9358
288.767	8454
288.825	7549
288.883	6324
288.941	7197
288.999	6886
289.057	6347
289.115	5366
289.173	4736
289.231	5523
289.289	5908
289.346	5380
289.404	7016
289.462	9640
289.520	9370
289.578	5841
289.636	4133
289.694	4207
289.751	4754
289.809	4296
289.867	4972
289.925	6536
289.983	7889
290.040	5488
290.098	4119
290.156	5743
290.214	6699
290.271	4570
290.329	4097
290.387	4232
290.444	4670
290.502	3629
290.560	4376
290.617	5029
290.675	5385
290.733	4523
290.790	4786
290.848	4834
290.906	4811
290.963	5574
291.021	5695
291.078	5902
291.136	5965
291.194	19645
291.251	33373
291.309	11623
291.366	5663
291.424	4549
291.481	5383
291.539	5398
291.596	5086
291.654	4436
291.711	4346
291.769	5781
291.826	9780
291.884	6502
291.941	4188
291.999	4664
292.056	5331
292.114	5794
292.171	3814
292.228	5037
292.286	5541
292.343	9130
292.401	11843
292.458	7579
292.515	5683
292.573	7961
292.630	7066
292.687	5923
292.745	5868
292.802	9594
292.859	21893
292.917	31476
292.974	17100
293.031	7814
293.089	5584
293.146	5281
293.203	4505
293.260	5305
293.318	6755
293.375	10447
293.432	6412
293.489	6849
293.546	6373
293.604	7823
293.661	20888
293.718	49273
293.775	25991
293.832	12617
293.889	9255
293.947	9907
294.004	8461
294.061	8783
294.118	16954
294.175	35815
294.232	43382
294.289	18458
294.346	12294
294.403	12274
294.460	7853
294.517	7326
294.574	6922
294.631	7629
294.688	9039
294.745	18281
294.802	61360
294.859	66500
294.916	24919
294.973	13597
295.030	10904
295.087	9840
295.144	8228
295.201	7853
295.258	7768
295.315	9685
295.372	23559
295.429	39701
295.486	19257
295.542	13643
295.599	35535
295.656	52549
295.713	35625
295.770	39485
295.827	17384
295.883	9985
295.940	8869
295.997	13124
296.054	11427
296.111	8528
296.167	6744
296.224	6080
296.281	6430
296.338	6806
296.394	7381
296.451	8762
296.508	20478
296.564	34936
296.621	24860
296.678	49398
296.734	63208
296.791	27355
296.848	15192
296.904	15957
296.961	28764
297.018	45983
297.074	33073
297.131	16263
297.187	12374
297.244	14795
297.301	46448
297.357	70162
297.414	26914
297.470	12826
297.527	10658
297.583	8079
297.640	8667
297.696	7315
297.753	5994
297.809	5736
297.866	4688
297.922	6367
297.979	5176
298.035	7426
298.092	10818
298.148	29186
298.204	24723
298.261	14108
298.317	24750
298.374	55934
298.430	30441
298.486	15343
298.543	10825
298.599	11815
298.656	14271
298.712	22197
298.768	49718
298.824	34340
298.881	14491
298.937	9576
298.993	8445
299.050	10110
299.106	8283
299.162	8968
299.218	8624
299.275	7617
299.331	8677
299.387	15253
299.443	48139
299.500	44101
299.556	18820
299.612	11956
299.668	9995
299.724	9918
299.780	10385
299.837	9219
299.893	14340
299.949	41399
300.005	41829
300.061	40020
300.117	61660
300.173	31613
300.229	15961
300.285	17692
300.341	19053
300.397	11840
300.453	8206
300.510	8029
300.566	8067
300.622	8426
300.678	18606
300.734	34037
300.790	36589
300.845	44418
300.901	27306
300.957	36095
301.013	28473
301.069	12511
301.125	10568
301.181	10769
301.237	7520
301.293	6385
301.349	6301
301.405	6825
301.461	8147
301.516	11633
301.572	9990
301.628	14658
301.684	12726
301.740	21371
301.796	30761
301.851	22205
301.907	33097
301.963	32065
302.019	50669
302.074	122463
302.130	118087
302.186	59001
302.242	26945
302.297	18062
302.353	16847
302.409	30073
302.464	25625
302.520	22436
302.576	47692
302.631	51910
302.687	30430
302.743	16173
302.798	10257
302.854	9238
302.910	9525
302.965	11332
303.021	16957
303.076	16890
303.132	20344
303.187	22947
303.243	13190
303.299	9309
303.354	7860
303.410	8271
303.465	8118
303.521	8146
303.576	7636
303.632	9679
303.687	16509
303.743	42082
303.798	34785
303.853	15942
303.909	10874
303.964	9936
304.020	13999
304.075	17617
304.130	17458
304.186	27758
304.241	29169
304.297	23484
304.352	13732
304.358	13315
304.407	9933
304.449	9726
304.463	9661
304.518	9956
304.539	9387
304.573	8501
304.629	9443
304.630	9511
304.684	13109
304.720	27087
304.739	33927
304.794	45390
304.811	38852
304.850	23407
304.902	13235
304.905	12604
304.960	10397
304.992	10384
305.015	10275
305.071	9754
305.083	9377
305.126	8038
305.173	6766
305.181	6585
305.236	6775
305.264	6979
305.292	7194
305.347	7586
305.354	7901
305.402	9903
305.445	10976
305.457	11239
305.512	12533
305.535	12401
305.567	12531
305.622	13378
305.626	13802
305.678	23838
305.716	43832
305.733	50364
305.788	48969
305.807	42471
305.843	32824
305.897	43833
305.898	43923
305.953	40529
305.988	27626
306.008	21111
306.063	15167
306.078	13875
306.118	10760
306.168	7536
306.173	7275
306.228	7402
306.259	7296
306.283	7312
306.338	7158
306.349	7367
306.393	8168
306.440	9174
306.448	9384
306.503	10089
306.530	10728
306.558	13179
306.613	24808
306.620	26252
306.668	34809
306.711	44958
306.723	45670
306.778	32894
306.801	25259
306.833	17668
306.888	10140
306.892	9842
306.943	7856
306.982	7270
306.997	7087
307.052	7239
307.072	7527
307.107	8681
307.162	10970
307.163	11003
307.217	14626
307.253	17162
307.272	17511
307.327	17076
307.343	16079
307.381	15265
307.434	14595
307.436	14917
307.491	27352
307.524	39231
307.546	41480
307.600	37974
307.614	33820
307.655	22869
307.704	15165
307.710	15081
307.765	18439
307.795	22802
307.819	25615
307.874	34373
307.885	34382
307.929	31913
307.975	31672
307.984	34009
308.038	53231
308.065	66158
308.093	103467
308.148	199575
308.156	217255
308.202	272788
308.246	296431
308.257	288108
308.312	181708
308.336	136090
308.366	104715
308.421	64263
308.426	60689
308.475	40548
308.517	30364
308.530	28432
308.585	23758
308.607	22514
308.639	22829
308.694	24658
308.697	24902
308.748	35501
308.787	46564
308.803	46389
308.857	36800
308.877	33044
308.912	32656
308.967	36203
308.967	36283
309.021	51580
309.058	63796
309.076	81962
309.130	144776
309.148	169082
309.185	249470
309.238	379511
309.239	380108
309.293	365930
309.328	333490
309.348	297666
309.402	173255
309.418	139931
309.457	102013
309.508	64365
309.511	63232
309.566	50476
309.598	45073
309.620	44735
309.674	46607
309.688	47519
309.729	44373
309.778	37953
309.783	37531
309.837	32824
309.868	30585
309.892	38011
309.946	58343
309.959	64263
310.001	72524
310.049	76674
310.055	74042
310.109	44348
310.139	27627
310.163	22599
310.218	15290
310.229	14110
310.272	12134
310.319	10386
310.326	10204
310.381	9435
310.409	8993
310.435	8800
310.489	8742
310.499	8732
310.543	9140
310.589	9508
310.598	9448
310.652	9485
310.679	9313
310.706	8443
310.760	6484
310.769	6221
310.814	5842
310.859	5393
310.868	5482
310.923	6289
310.948	6615
310.977	6874
311.031	7437
311.038	7533
311.085	7109
311.128	6395
311.139	6423
311.193	6860
311.218	6998
311.247	6854
311.301	6522
311.308	6483
311.356	6486
311.398	6562
311.410	6522
311.464	6301
311.488	6158
311.518	6319
311.572	6635
311.578	6686
311.626	8656
311.668	10314
311.680	10301
311.734	10094
311.758	10002
311.788	9858
311.842	9597
311.847	9558
311.896	13311
311.937	16694
311.950	16088
312.004	13195
312.027	11882
312.058	10247
312.112	7396
312.117	7111
312.165	7540
312.207	7913
312.297	11851
312.386	7243
312.476	9210
312.566	14640
312.656	6629
312.745	6522
312.835	7393
312.925	8410
313.015	6922
313.104	6500
313.194	5773
313.284	6253
313.374	9687
313.463	7534
313.553	5489
313.643	5290
313.732	4948
313.822	5239
313.912	6957
314.001	6762
314.091	9328
314.180	11483
314.270	9311
314.360	10019
314.449	7861
314.539	6090
314.628	5904
314.718	7401
314.808	7759
314.897	5994
314.987	5986
315.076	8372
315.166	9199
315.255	8442
315.345	8741
315.434	8308
315.524	7802
315.613	8340
315.703	10930
315.792	11487
315.881	11701
315.971	9183
316.060	16947
316.150	22179
316.239	20137
316.328	8446
316.418	5896
316.507	6080
316.597	8681
316.686	8067
316.775	14529
316.865	20573
316.954	5853
317.043	5568
317.133	5797
317.222	5635
317.311	5513
317.400	4452
317.490	8830
317.579	8214
317.668	6304
317.757	9656
317.847	13835
317.936	22014
318.025	20094
318.114	12063
318.203	10938
318.293	23114
318.382	39843
318.471	29298
318.560	51235
318.649	79534
318.738	14071
318.828	12193
318.917	11728
319.006	16402
319.095	40982
319.184	106449
319.273	45139
319.362	20698
319.451	9231
319.540	9434
319.629	24630
319.718	28635
319.807	16295
319.896	48045
319.985	123518
320.074	32573
320.163	12196
320.252	17211
320.341	17050
320.430	14555
320.519	17573
320.608	9240
320.697	9367
320.786	9209
320.875	10738
320.964	13350
321.053	22341
321.142	31728
321.230	27783
321.319	28219
321.408	54840
321.497	20364
321.586	21470
321.675	25157
321.764	22667
321.852	18616
321.941	32869
322.030	17661
322.119	29589
322.207	54574
322.296	32871
322.385	19856
322.474	27386
322.562	69507
322.651	27426
322.740	26197
322.829	31706
322.917	30700
323.006	19376
323.095	16773
323.183	13895
323.272	21603
323.361	44604
323.449	89148
323.538	31265
323.626	72206
323.715	30929
323.804	23061
323.892	62878
323.981	26799
324.069	13745
324.158	38554
324.246	23968
324.335	15194
324.424	19248
324.512	9165
324.601	13820
324.689	34672
324.778	48099
324.866	21725
324.954	7615
325.043	9856
325.131	17373
325.220	27300
325.308	25513
325.397	23044
325.485	10854
325.574	5787
325.662	5757
325.750	7211
325.839	6836
325.927	5829
326.015	8436
326.104	12741
326.192	13169
326.280	6160
326.369	6468
326.457	10620
326.545	17020
326.634	7841
326.722	4250
326.810	5876
326.898	5981
326.987	8096
327.075	16502
327.163	14302
327.251	8837
327.340	23822
327.428	24832
327.516	6025
327.604	6531
327.692	6388
327.781	8445
327.869	12469
327.957	8613
328.045	7866
328.133	5130
328.221	7079
328.309	5899
328.397	6288
328.485	8116
328.574	14268
328.662	36870
328.750	17621
328.838	7956
328.926	6583
329.014	6920
329.102	12226
329.190	27441
329.278	14225
329.366	6426
329.454	6819
329.542	7509
329.630	7557
329.718	9324
329.806	12673
329.893	16103
329.981	23916
330.069	53997
330.157	205103
330.245	379157
330.333	180135
330.421	41433
330.509	27418
330.597	53184
330.684	28792
330.772	14606
330.860	18984
330.948	23705
331.036	9877
331.123	5680
331.211	7138
331.299	9138
331.387	25323
331.475	30216
331.562	9506
331.650	6303
331.738	6699
331.825	8686
331.913	4733
332.001	5842
332.089	8539
332.176	16445
332.264	35009
332.352	20804
332.439	9616
332.527	7513
332.614	6200
332.702	7690
332.790	6157
332.877	18281
332.965	26016
333.052	7936
333.140	10488
333.228	15631
333.315	7302
333.403	7984
333.490	20515
333.578	14796
333.665	18770
333.753	10282
333.840	6439
333.928	10365
334.015	22638
334.103	51156
334.190	113806
334.278	22565
334.365	9880
334.452	6774
334.540	6907
334.627	8456
334.715	11651
334.802	29487
334.889	126341
334.977	79257
335.064	11288
335.151	7441
335.239	10267
335.326	17722
335.413	81193
335.501	70224
335.588	10363
335.675	8359
335.762	12978
335.850	18089
335.937	12051
336.024	41599
336.111	121336
336.199	33805
336.286	8733
336.373	5848
336.460	4723
336.547	5714
336.635	7582
336.722	6828
336.809	7456
336.896	13842
336.983	49998
337.070	106152
337.157	123069
337.245	82528
337.332	38439
337.419	8381
337.506	6942
337.593	10144
337.680	45123
337.767	87342
337.854	25869
337.941	28195
338.028	25836
338.115	9644
338.202	15481
338.289	32326
338.376	70071
338.463	24381
338.550	66599
338.637	47039
338.724	19555
338.811	18552
338.898	6617
338.984	6186
339.071	8384
339.158	10908
339.245	23516
339.332	13428
339.419	18903
339.506	12039
339.593	3629
339.679	5880
339.766	4498
339.853	9580
339.940	15403
340.027	6015
340.113	6839
340.200	8532
340.287	6398
340.374	10156
340.460	13644
340.547	6160
340.634	15849
340.720	44931
340.807	19445
340.894	5219
340.980	4929
341.067	5959
341.154	7305
341.240	12370
341.327	19198
341.414	8631
341.500	8734
341.587	6013
341.674	6264
341.760	15907
341.847	15244
341.933	5897
342.020	3424
342.106	3697
342.193	7422
342.279	11199
342.366	10333
342.452	14238
342.539	9118
342.625	24295
342.712	45388
342.798	17200
342.885	7109
342.971	2914
343.058	3507
343.144	3953
343.230	5358
343.317	5028
343.403	4739
343.490	3661
343.576	3334
343.662	5233
343.749	6292
343.835	8953
343.921	21974
344.008	119075
344.094	178342
344.180	33989
344.267	19983
344.353	63922
344.439	47864
344.525	22254
344.612	15767
344.698	16810
344.784	9275
344.870	5892
344.957	6020
345.043	8332
345.129	7773
345.215	14589
345.301	7523
345.387	4333
345.474	3849
345.560	5010
345.646	5370
345.732	5427
345.818	7002
345.904	6273
345.990	5466
346.076	7919
346.162	10925
346.249	5602
346.335	4358
346.421	6549
346.507	35214
346.593	75080
346.679	14772
346.765	5441
346.851	5541
346.937	5249
347.023	5000
347.108	5661
347.194	5300
347.280	5620
347.366	8199
347.452	33115
347.538	95968
347.624	68296
347.710	44707
347.796	8383
347.882	5678
347.967	5545
348.053	7757
348.139	5574
348.225	5030
348.311	4532
348.397	4287
348.482	7394
348.568	6518
348.654	3271
348.740	4618
348.825	3309
348.911	13118
348.997	58320
349.083	73686
349.168	11754
349.254	6713
349.340	6345
349.425	4327
349.511	7377
349.597	9647
349.682	21647
349.768	56707
349.854	19784
349.939	6725
350.025	4806
350.110	5874
350.196	3961
350.282	2892
350.367	4290
350.453	8535
350.538	7958
350.624	7667
350.709	7485
350.795	4228
350.880	5356
350.966	6406
351.051	8468
351.137	5700
351.222	6137
351.308	24100
351.393	43180
351.479	11071
351.564	4928
351.649	4893
351.735	4239
351.820	3473
351.906	5067
351.991	9561
352.076	38164
352.162	38745
352.247	7982
352.332	8095
352.418	13932
352.503	22430
352.588	73380
352.673	42669
352.759	11207
352.844	5914
352.929	8686
353.014	8473
353.100	7381
353.185	11277
353.270	17944
353.355	13507
353.441	5674
353.526	7056
353.611	15968
353.696	14674
353.781	10240
353.866	4927
353.952	6949
354.037	17615
354.122	31493
354.207	26952
354.292	9825
354.377	6013
354.462	5617
354.547	6562
354.632	8121
354.717	11027
354.802	10903
354.887	4985
354.972	4263
355.057	4416
355.142	4081
355.227	6959
355.312	12197
355.397	27187
355.482	50245
355.567	20653
355.652	19784
355.737	24470
355.822	72337
355.907	40484
355.991	7662
356.076	4954
356.161	5464
356.246	4769
356.331	7281
356.416	25056
356.501	120352
356.585	84691
356.670	13773
356.755	11859
356.840	20626
356.924	99968
357.009	226968
357.094	67803
357.179	18749
357.263	11493
357.348	13556
357.433	13409
357.517	11751
357.602	10188
357.687	9634
357.771	22187
357.856	59406
357.941	33026
358.025	86434
358.110	234820
358.195	86909
358.279	16899
358.364	15787
358.448	58257
358.533	118765
358.617	82622
358.702	79227
358.787	25320
358.871	17815
358.956	13188
359.040	5407
359.125	5064
359.209	8889
359.294	33871
359.378	41740
359.462	14427
359.547	8685
359.631	5881
359.716	4404
359.800	6535
359.885	9403
359.969	6263
360.053	6235
360.138	6636
360.222	10239
360.306	16693
360.391	14208
360.475	38248
360.559	59240
360.644	46916
360.728	31621
360.812	79212
360.896	144255
360.981	59772
361.065	27327
361.149	10037
361.233	9184
361.318	7731
361.402	8282
361.486	7232
361.570	6829
361.654	9803
361.739	30166
361.823	121418
361.907	131022
361.991	22826
362.075	18342
362.159	30565
362.243	20428
362.327	16288
362.411	13501
362.495	9947
362.580	7327
362.664	6217
362.748	5521
362.832	7312
362.916	10819
363.000	33561
363.084	117490
363.168	148813
363.252	32745
363.336	15449
363.420	29124
363.503	104904
363.587	87710
363.671	15884
363.755	12543
363.839	16487
363.923	8476
364.007	19994
364.091	19776
364.175	49349
364.258	141540
364.342	61724
364.426	33151
364.510	18997
364.594	21738
364.677	44306
364.761	143842
364.845	75915
364.929	30042
365.013	21777
365.096	21330
365.180	23272
365.264	57669
365.347	141742
365.431	50145
365.515	13789
365.598	6159
365.682	8276
365.766	17574
365.849	18096
365.933	9097
366.017	13694
366.100	9350
366.184	4219
366.267	5946
366.351	4954
366.435	4464
366.518	3598
366.602	3859
366.685	5200
366.769	6486
366.852	15844
366.936	20767
367.019	11663
367.103	13572
367.186	19679
367.270	6243
367.353	3577
367.436	5541
367.520	4402
367.603	6719
367.687	11522
367.770	18159
367.853	14321
367.937	51166
368.020	60389
368.104	13736
368.187	16849
368.270	21851
368.353	20055
368.437	28343
368.520	48197
368.603	30614
368.687	60986
368.770	78081
368.853	19316
368.936	22172
369.020	20537
369.103	7490
369.186	5818
369.269	7620
369.352	14974
369.436	17982
369.519	11370
369.602	4865
369.685	8107
369.768	6854
369.851	6079
369.934	4955
370.018	9168
370.101	16084
370.184	13504
370.267	11468
370.350	20617
370.433	34575
370.516	81136
370.599	67252
370.682	23059
370.765	48522
370.848	67983
370.931	103872
371.014	34637
371.097	8217
371.180	6041
371.263	4598
371.346	3515
371.429	5323
371.511	6242
371.594	12202
371.677	20203
371.760	23022
371.843	25637
371.926	116053
372.009	182770
372.091	55192
372.174	53268
372.257	97777
372.340	32941
372.423	34219
372.505	34317
372.588	16858
372.671	46180
372.754	105363
372.836	45718
372.919	56254
373.002	79322
373.085	21509
373.167	21559
373.250	56610
373.332	107615
373.415	163783
373.498	246987
373.580	88540
373.663	135450
373.746	138888
373.828	33057
373.911	17721
373.993	29476
374.076	92097
374.159	66020
374.241	39569
374.324	91843
374.406	55219
374.489	108370
374.571	211714
374.654	74477
374.736	59476
374.819	149256
374.901	204897
374.983	163858
375.066	28210
375.148	21153
375.231	86054
375.313	119310
375.395	37511
375.478	9014
375.560	7943
375.643	13454
375.725	62463
375.807	175395
375.890	109764
375.972	42470
376.054	30273
376.136	37559
376.219	20491
376.301	69516
376.383	137927
376.465	46155
376.548	33258
376.630	56017
376.712	123268
376.794	43327
376.877	7216
376.959	4723
377.041	8848
377.123	20621
377.205	18866
377.287	4563
377.369	5369
377.452	4730
377.534	4629
377.616	5363
377.698	4760
377.780	3532
377.862	5478
377.944	6170
378.026	2995
378.108	4456
378.190	4214
378.272	4309
378.354	2888
378.436	4217
378.518	14199
378.600	37132
378.682	33997
378.764	66452
378.846	40609
378.928	14940
379.010	18553
379.091	9852
379.173	5520
379.255	4889
379.337	10530
379.419	41817
379.501	85268
379.583	28954
379.664	11783
379.746	26413
379.828	68385
379.910	85499
379.991	61030
380.073	11353
380.155	7644
380.237	6510
380.318	5128
380.400	6467
380.482	14822
380.564	19766
380.645	19269
380.727	16426
380.809	11037
380.890	7006
380.972	4450
381.053	6165
381.135	9372
381.217	29402
381.298	61617
381.380	27875
381.461	40192
381.543	140934
381.624	127089
381.706	23995
381.787	14631
381.869	20249
381.951	80271
382.032	201939
382.113	101873
382.195	23988
382.276	20376
382.358	53773
382.439	118166
382.521	139955
382.602	175437
382.684	93064
382.765	164974
382.846	149427
382.928	142750
383.009	76571
383.090	99308
383.172	272444
383.253	285414
383.334	135564
383.416	164000
383.497	72032
383.578	41805
383.659	92079
383.741	293306
383.822	483743
383.903	215820
383.984	136202
384.066	207539
384.147	106749
384.228	24516
384.309	17862
384.390	13076
384.471	10683
384.553	12275
384.634	16159
384.715	15726
384.796	9084
384.877	19529
384.958	64285
385.039	60933
385.120	21331
385.201	12248
385.282	15421
385.363	15305
385.444	13194
385.525	35488
385.606	95751
385.687	64883
385.768	20155
385.849	33248
385.930	118724
386.011	151444
386.092	36556
386.173	10833
386.254	9648
386.335	10559
386.416	14896
386.496	47115
386.577	57994
386.658	21788
386.739	14798
386.820	14459
386.901	11121
386.981	10247
387.062	7743
387.143	22364
387.224	63899
387.304	48103
387.385	18547
387.466	13593
387.547	16920
387.627	11593
387.708	35612
387.789	120061
387.869	116985
387.950	27865
388.031	6997
388.111	10911
388.192	25462
388.273	31463
388.353	17000
388.434	12290
388.514	35492
388.595	115857
388.676	121098
388.756	57461
388.837	56949
388.917	28405
388.998	7687
389.078	8294
389.159	7380
389.239	6772
389.320	12640
389.400	10392
389.480	33348
389.561	65131
389.641	27157
389.722	14069
389.802	20007
389.883	38696
389.963	79348
390.043	42798
390.124	15728
390.204	32472
390.284	70900
390.365	45791
390.445	87177
390.525	182533
390.605	128147
390.686	35623
390.766	12661
390.846	8589
390.927	6014
391.007	6747
391.087	8695
391.167	8632
391.247	6623
391.328	13269
391.408	19686
391.488	12683
391.568	4981
391.648	9099
391.728	12084
391.808	12291
391.888	16637
391.969	43412
392.049	54149
392.129	25075
392.209	38200
392.289	74311
392.369	39381
392.449	35876
392.529	20533
392.609	15682
392.689	29194
392.769	74654
392.849	51811
392.929	51864
393.009	103177
393.089	57736
393.169	38779
393.248	157232
393.328	488881
393.408	392815
393.488	78936
393.568	25060
393.648	15825
393.728	12454
393.807	11575
393.887	12894
393.967	14437
394.047	20168
394.127	28123
394.206	66126
394.286	252943
394.366	663125
394.446	576109
394.525	170979
394.605	54384
394.685	41536
394.764	71862
394.844	97833
394.924	55646
395.003	19949
395.083	15156
395.163	13932
395.242	13297
395.322	14109
395.402	11293
395.481	18656
395.561	54486
395.640	102377
395.720	80490
395.799	126347
395.879	99268
395.958	109523
396.038	370820
396.117	836042
396.197	750166
396.276	293334
396.356	110436
396.435	67881
396.515	41046
396.594	34713
396.673	52651
396.753	187845
396.832	437792
396.912	273678
396.991	66503
397.070	21093
397.150	12488
397.229	10959
397.308	11426
397.388	13786
397.467	9891
397.546	6839
397.625	5522
397.705	10809
397.784	9732
397.863	6148
397.942	5362
398.022	9718
398.101	45801
398.180	95659
398.259	41569
398.338	12409
398.417	7601
398.497	6333
398.576	6728
398.655	3569
398.734	5495
398.813	9361
398.892	47039
398.971	104734
399.050	40306
399.129	6166
399.208	4505
399.287	5251
399.366	3621
399.445	4406
399.524	4702
399.603	4198
399.682	12902
399.761	45304
399.840	117904
399.919	69943
399.998	9706
400.077	3404
400.156	2755
400.235	7428
400.313	5078
400.392	9896
400.471	39251
400.550	45179
400.629	12003
400.708	7141
400.786	10486
400.865	25187
400.944	22886
401.023	10033
401.102	2558
401.180	2917
401.259	5066
401.338	5825
401.416	7765
401.495	5806
401.574	6049
401.652	5441
401.731	7697
401.810	5322
401.888	3559
401.967	2616
402.046	5191
402.124	7963
402.203	8282
402.281	6665
402.360	12580
402.438	31022
402.517	17488
402.596	6978
402.674	5928
402.753	4651
402.831	4176
402.910	8653
402.988	30866
403.066	68995
403.145	33393
403.223	30128
403.302	58325
403.380	41092
403.459	35764
403.537	13887
403.615	6383
403.694	1967
403.772	3432
403.850	3056
403.929	2747
404.007	3982
404.085	9222
404.164	9444
404.242	9006
404.320	35556
404.398	92593
404.477	113921
404.555	182619
404.633	130541
404.711	65794
404.789	37017
404.868	10983
404.946	4334
405.024	3705
405.102	3475
405.180	2925
405.258	2026
405.336	3812
405.415	4637
405.493	11284
405.571	8159
405.649	2995
405.727	3192
405.805	7311
405.883	6487
405.961	7425
406.039	7902
406.117	4126
406.195	11747
406.273	56986
406.351	138468
406.429	65846
406.507	12906
406.585	5271
406.663	5958
406.740	6689
406.818	5022
406.896	3462
406.974	5357
407.052	22190
407.130	92826
407.208	96209
407.285	17771
407.363	3973
407.441	4030
407.519	3975
407.596	5794
407.674	15868
407.752	33827
407.830	32614
407.907	14536
407.985	5225
408.063	3660
408.141	3408
408.218	9046
408.296	6658
408.373	4654
408.451	5106
408.529	4665
408.606	1753
408.684	2002
408.762	1151
408.839	892
408.917	2055
408.994	2005
409.072	1626
409.149	1981
409.227	4667
409.304	3983
409.382	2445
409.459	2506
409.537	4513
409.614	4136
409.692	2677
409.769	2880
409.846	4271
409.924	8291
410.001	5055
410.079	3634
410.156	4853
410.233	5347
410.311	3718
410.388	3234
410.465	5145
410.543	4547
410.620	3536
410.697	3590
410.775	4313
410.852	1842
410.929	5715
411.006	6687
411.083	5319
411.161	13235
411.238	12747
411.315	5669
411.392	3386
411.469	6545
411.547	6612
411.624	2668
411.701	2446
411.778	5379
411.855	9401
411.932	4348
412.009	2523
412.086	3831
412.163	4605
412.240	5949
412.317	7835
412.394	5929
412.471	2995
412.548	2684
412.625	3370
412.702	6166
412.779	10234
412.856	7876
412.933	3599
413.010	3556
413.087	10524
413.164	35740
413.241	38270
413.318	9034
413.395	8664
413.471	9165
413.548	4780
413.625	3514
413.702	5073
413.779	3764
413.855	1478
413.932	2200
414.009	1333
414.086	1762
414.162	3051
414.239	9293
414.316	38554
414.393	63047
414.469	18843
414.546	2978
414.623	2306
414.699	3028
414.776	2837
414.853	2371
414.929	4213
415.006	3558
415.082	4611
415.159	3727
415.236	3411
415.312	3966
415.389	7945
415.465	8164
415.542	4699
415.618	3757
415.695	5962
415.771	4424
415.848	3738
415.924	4194
416.000	3091
416.077	2850
416.153	1331
416.230	594
416.306	1894
416.383	1849
416.459	2678
416.535	1637
416.612	1776
416.688	2373
416.764	2095
416.841	970
416.917	2316
416.993	3169
417.069	4559
417.146	8927
417.222	12714
417.298	5364
417.374	2751
417.451	3929
417.527	4940
417.603	5014
417.679	2902
417.755	3672
417.831	1874
417.908	1781
417.984	1921
418.060	1448
418.136	9425
418.212	8763
418.288	3868
418.364	1883
418.440	2827
418.516	6006
418.592	10130
418.668	16488
418.744	20356
418.820	12563
418.896	3718
418.972	1339
419.048	3745
419.124	9503
419.200	5957
419.276	2517
419.352	1140
419.428	1752
419.504	3057
419.579	3177
419.655	3206
419.731	4492
419.807	14791
419.883	23660
419.959	14003
420.034	5402
420.110	15607
420.186	43432
420.262	26080
420.337	5895
420.413	3915
420.489	2397
420.565	2653
420.640	1877
420.716	3045
420.792	1265
420.867	3213
420.943	1848
421.019	5736
421.094	4131
421.170	2559
421.245	1481
421.321	2459
421.397	2849
421.472	7643
421.548	14898
421.623	9696
421.699	4679
421.774	4350
421.850	3939
421.925	7627
422.001	5898
422.076	5312
422.152	6149
422.227	9485
422.302	10344
422.378	13717
422.453	26388
422.529	80125
422.604	263453
422.679	402334
422.755	195700
422.830	49720
422.905	18379
422.981	11079
423.056	6254
423.131	5793
423.207	4865
423.282	6490
423.357	12520
423.432	8447
423.508	10631
423.583	19443
423.658	12314
423.733	5260
423.808	6548
423.883	6440
423.959	5266
424.034	3625
424.109	3035
424.184	1806
424.259	1638
424.334	2141
424.409	1677
424.484	2952
424.559	3081
424.634	2624
424.709	4506
424.784	5239
424.859	3860
424.934	8729
425.009	33235
425.084	44729
425.159	13327
425.234	2860
425.309	3867
425.384	18414
425.459	23759
425.534	6597
425.609	2628
425.683	2822
425.758	1991
425.833	2873
425.908	6471
425.983	23319
426.058	45333
426.132	17387
426.207	5686
426.282	9272
426.357	6590
426.431	2503
426.506	2082
426.581	3022
426.655	2596
426.730	2612
426.805	2224
426.879	3480
426.954	3234
427.029	13570
427.103	62941
427.178	112797
427.253	38686
427.327	7172
427.402	15026
427.476	29566
427.551	11877
427.625	4593
427.700	4230
427.774	2487
427.849	4259
427.923	2066
427.998	2421
428.072	3552
428.147	10274
428.221	33443
428.296	56689
428.370	21003
428.444	6158
428.519	12709
428.593	22914
428.667	18937
428.742	22113
428.816	22722
428.890	56450
428.965	62588
429.039	28847
429.113	23615
429.188	7549
429.262	2694
429.336	10120
429.410	22411
429.485	15126
429.559	19473
429.633	11940
429.707	5628
429.781	19224
429.855	67229
429.930	72397
430.004	66266
430.078	104063
430.152	80667
430.226	96767
430.300	69072
430.374	9652
430.448	11039
430.522	48433
430.596	98924
430.670	56041
430.744	106458
430.818	117825
430.892	21266
430.966	5009
431.040	2303
431.114	1640
431.188	1854
431.262	1793
431.336	2329
431.410	13997
431.484	27658
431.557	13059
431.631	2465
431.705	2918
431.779	16355
431.853	48163
431.927	23134
432.000	3703
432.074	2377
432.148	4573
432.222	2717
432.295	1844
432.369	2086
432.443	11759
432.516	63812
432.590	108797
432.664	31321
432.737	4306
432.811	1822
432.885	1842
432.958	1910
433.032	797
433.106	1198
433.179	1766
433.253	1421
433.326	1008
433.400	849
433.473	1378
433.547	-35
433.620	2170
433.694	5029
433.767	4967
433.841	1993
433.914	1591
433.988	1414
434.061	2030
434.134	1091
434.208	257
434.281	167
434.355	1546
434.428	2224
434.501	1739
434.575	1533
434.648	2659
434.721	881
434.795	938
434.868	441
434.941	316
435.014	936
435.088	1109
435.161	3026
435.234	5063
435.307	5446
435.381	2446
435.454	1304
435.527	2092
435.600	1586
435.673	1377
435.746	1103
435.819	553
435.892	1046
435.966	1769
436.039	1674
436.112	1530
436.185	420
436.258	-63
436.331	507
436.404	-161
436.477	591
436.550	407
436.623	631
436.696	1434
436.769	1535
436.842	1627
436.915	2420
436.987	3274
437.060	1510
437.133	674
437.206	841
437.279	1587
437.352	1254
437.425	1649
437.498	2636
437.570	5912
437.643	5082
437.716	884
437.789	2298
437.861	7789
437.934	15316
438.007	6127
438.080	915
438.152	2878
438.225	13933
438.298	83607
438.370	148071
438.443	49174
438.516	13385
438.588	2653
438.661	1396
438.734	1686
438.806	2330
438.879	3255
438.951	5385
439.024	7422
439.096	2128
439.169	1472
439.241	1042
439.314	1396
439.386	4193
439.459	6717
439.531	8603
439.604	2681
439.676	1247
439.749	1130
439.821	575
439.893	1964
439.966	1682
440.038	2889
440.110	2753
440.183	1936
440.255	1563
440.327	5913
440.400	37570
440.472	101085
440.544	45528
440.617	6136
440.689	7456
440.761	9277
440.833	12595
440.905	6590
440.978	1138
441.050	717
441.122	1062
441.194	1288
441.266	1503
441.338	2325
441.411	7377
441.483	34995
441.555	35191
441.627	7680
441.699	6268
441.771	5022
441.843	1117
441.915	570
441.987	1013
442.059	1242
442.131	2486
442.203	5078
442.275	5474
442.347	3585
442.419	5042
442.491	21480
442.563	32628
442.635	17926
442.706	25207
442.778	14410
442.850	2661
442.922	1171
442.994	3600
443.066	4322
443.137	3397
443.209	1551
443.281	3720
443.353	9383
443.425	34866
443.496	76384
443.568	50790
443.640	14597
443.711	4101
443.783	2241
443.855	1137
443.926	1227
443.998	1513
444.070	2610
444.141	3064
444.213	4680
444.285	5446
444.356	4360
444.428	2770
444.499	1124
444.571	501
444.642	-59
444.714	1957
444.785	4187
444.857	8331
444.928	17770
445.000	7562
445.071	12296
445.143	10688
445.214	6365
445.285	14088
445.357	35815
445.428	80843
445.500	123348
445.571	63253
445.642	24885
445.714	24224
445.785	24113
445.856	5995
445.928	6518
445.999	4949
446.070	4220
446.141	4528
446.213	4753
446.284	2372
446.355	3208
446.426	1907
446.497	2291
446.569	5890
446.640	7333
446.711	4587
446.782	1449
446.853	3223
446.924	3167
446.995	2191
447.066	3378
447.138	6601
447.209	2118
447.280	887
447.351	636
447.422	275
447.493	3036
447.564	3177
447.635	3431
447.706	1137
447.777	294
447.847	-45
447.918	1190
447.989	3941
448.060	5645
448.131	13309
448.202	8660
448.273	5339
448.344	2211
448.414	1893
448.485	606
448.556	701
448.627	975
448.698	1649
448.768	1421
448.839	1932
448.910	5963
448.981	4272
449.051	1195
449.122	660
449.193	784
449.263	992
449.334	1329
449.405	2801
449.475	7411
449.546	4846
449.616	6840
449.687	5102
449.758	2161
449.828	1915
449.899	1576
449.969	1064
450.040	1287
450.110	2775
450.181	2226
450.251	1268
450.322	1382
450.392	1982
450.463	1380
450.533	562
450.604	1965
450.674	1148
450.744	1160
450.815	466
450.885	809
450.955	1076
451.026	1045
451.096	40
451.166	2483
451.237	9448
451.307	17089
451.377	4410
451.447	1156
451.518	1300
451.588	1660
451.658	2236
451.728	5970
451.799	21936
451.869	17521
451.939	2747
452.009	1500
452.079	527
452.149	2087
452.219	7481
452.289	24384
452.360	11014
452.430	2135
452.500	1647
452.570	2541
452.640	5110
452.710	13717
452.780	17680
452.850	11385
452.920	8904
452.990	3100
453.060	3006
453.129	4504
453.199	6941
453.269	40346
453.339	54402
453.409	68511
453.479	93282
453.549	119454
453.619	108333
453.688	28074
453.758	4486
453.828	2359
453.898	2248
453.968	632
454.037	2136
454.087	1577
454.107	1333
454.168	742
454.177	637
454.247	481
454.249	520
454.316	905
454.330	1461
454.386	3350
454.411	6838
454.456	12497
454.492	12630
454.525	12792
454.574	6618
454.595	3961
454.655	1824
454.665	1493
454.734	3427
454.736	3581
454.804	6931
454.817	9890
454.873	21591
454.898	20070
454.943	17120
454.979	10732
455.013	5240
455.060	3352
455.082	2653
455.141	5416
455.152	5888
455.221	19719
455.222	19938
455.291	28424
455.303	29639
455.360	34304
455.384	43475
455.430	58069
455.465	40702
455.499	24879
455.546	20921
455.569	18886
455.627	9764
455.638	8189
455.707	1842
455.708	1861
455.777	1203
455.789	1262
455.846	1544
455.869	1546
455.916	1417
455.950	1564
455.985	1752
456.031	1895
456.054	1872
456.112	1280
456.124	1198
456.193	847
456.193	823
456.262	1790
456.274	1987
456.332	2870
456.355	3009
456.401	3065
456.436	2186
456.470	1360
456.516	1299
456.540	1233
456.597	771
456.609	681
456.678	1293
456.678	1277
456.747	197
456.759	229
456.817	857
456.840	896
456.886	609
456.920	571
456.955	776
457.001	1709
457.024	2112
457.082	2562
457.093	2637
457.162	3560
457.163	3579
457.232	3120
457.243	2866
457.301	1934
457.324	1786
457.370	1509
457.405	1609
457.439	1812
457.485	1802
457.508	1725
457.566	1964
457.577	2030
457.646	2573
457.647	2590
457.715	2936
457.727	3094
457.784	3603
457.808	4232
457.853	5265
457.889	5678
457.922	5999
457.969	5816
457.991	5737
458.050	5893
458.060	5929
458.129	8087
458.130	8128
458.198	7205
458.211	6554
458.267	3884
458.292	3414
458.336	3246
458.372	3211
458.405	3698
458.453	4388
458.474	4777
458.533	7451
458.543	7790
458.611	12573
458.614	12615
458.680	8100
458.694	6714
458.749	4006
458.775	3485
458.818	2341
458.855	2309
458.887	2653
458.936	2837
458.955	2861
459.016	2763
459.024	2779
459.093	3016
459.097	3055
459.162	3127
459.177	3149
459.230	4019
459.257	4462
459.299	4555
459.338	4769
459.368	4955
459.418	5823
459.437	5626
459.499	3186
459.505	3157
459.574	3917
459.579	3936
459.643	2677
459.659	2573
459.711	2862
459.740	2987
459.780	3340
459.820	3814
459.849	4159
459.900	4537
459.917	4435
459.981	4857
459.986	4896
460.054	4198
460.061	4203
460.123	4410
460.141	4521
460.191	5279
460.222	5686
460.260	5769
460.302	6138
460.328	6064
460.382	5577
460.397	5513
460.462	4787
460.465	4940
460.534	9203
460.543	9748
460.602	19649
460.623	24070
460.671	33992
460.703	44218
460.739	41086
460.783	27130
460.808	21422
460.864	6600
460.876	5306
460.944	4432
460.945	4417
461.013	4914
461.024	4919
461.081	4697
461.104	4738
461.150	4609
461.184	4333
461.218	4188
461.264	4109
461.286	4190
461.345	4317
461.355	4310
461.423	4604
461.425	4603
461.491	5779
461.505	6080
461.559	10668
461.585	13051
461.628	17620
461.665	22863
461.696	24613
461.745	28684
461.764	26062
461.825	8093
461.832	7504
461.901	6219
461.905	6268
461.969	5216
461.985	4903
462.037	5768
462.065	6283
462.105	7209
462.145	8071
462.173	9876
462.225	13565
462.241	14643
462.305	20783
462.310	20309
462.378	10419
462.385	9052
462.446	5988
462.465	5676
462.514	5977
462.545	6351
462.582	6225
462.625	5955
462.650	5789
462.705	5322
462.718	5678
462.785	7786
462.786	7809
462.854	8845
462.865	9093
462.922	11134
462.945	11980
462.990	9165
463.025	6132
463.058	6036
463.104	6321
463.126	5860
463.184	4949
463.194	5125
463.262	6275
463.264	6316
463.330	6508
463.344	6521
463.398	7315
463.424	7671
463.466	7028
463.504	6504
463.533	7096
463.583	7920
463.601	7858
463.663	7484
463.669	7667
463.737	10205
463.743	10420
463.805	16703
463.823	18477
463.873	24481
463.903	28908
463.940	29770
463.982	30502
464.008	25060
464.062	10580
464.076	9856
464.142	7162
464.144	7139
464.211	7197
464.221	7233
464.279	7464
464.301	7502
464.347	8222
464.381	8782
464.414	9317
464.461	10084
464.482	10641
464.540	12309
464.550	12166
464.617	10554
464.620	10487
464.685	11172
464.699	11317
464.753	12117
464.779	12589
464.820	13451
464.859	14098
464.888	13519
464.938	12538
464.956	13162
465.018	15436
465.023	15280
465.091	12564
465.098	12286
465.158	12462
465.177	12530
465.226	12387
465.257	12227
465.293	12779
465.336	13412
465.361	13944
465.416	15026
465.428	16386
465.495	23915
465.496	24004
465.563	31854
465.575	33335
465.631	38551
465.654	40739
465.698	27457
465.734	15230
465.765	14506
465.813	14100
465.833	14053
465.893	14206
465.900	14213
465.968	14024
465.972	13989
466.035	14663
466.052	14797
466.102	15430
466.131	15815
466.170	15860
466.210	15768
466.237	16141
466.290	16771
466.304	16909
466.369	17431
466.372	17501
466.439	18688
466.449	18819
466.506	20061
466.528	20472
466.573	27664
466.607	33045
466.641	39977
466.687	49517
466.708	52930
466.766	62540
466.775	58510
466.842	26668
466.845	25119
466.909	22336
466.925	21732
466.977	21480
467.004	21311
467.044	22258
467.083	23111
467.111	23916
467.163	25349
467.178	25516
467.242	25953
467.245	25935
467.312	24597
467.321	24378
467.379	24305
467.400	24205
467.446	25101
467.480	25665
467.559	23673
467.638	21239
467.717	20821
467.796	20759
467.875	22025
467.955	22470
468.034	35019
468.113	53598
468.192	73433
468.271	21555
468.350	17705
468.429	16782
468.508	16823
468.588	16155
468.667	16363
468.746	16920
468.825	17104
468.904	15249
468.983	19507
469.062	24751
469.141	28474
469.220	14857
469.299	15879
469.378	16031
469.456	19551
469.535	17352
469.614	17549
469.693	16793
469.772	21867
469.851	26359
469.930	18650
470.009	14536
470.088	13932
470.166	15081
470.245	16873
470.324	16896
470.403	16154
470.482	14163
470.560	15016
470.639	14126
470.718	16892
470.797	13865
470.875	17794
470.954	21032
471.033	22867
471.111	11777
471.190	11547
471.269	11241
471.347	12001
471.426	12968
471.505	15136
471.583	15184
471.662	14318
471.740	13785
471.819	13528
471.898	12883
471.976	13474
472.055	12932
472.133	14900
472.212	18504
472.290	17671
472.369	13804
472.447	14122
472.526	11449
472.604	13201
472.683	12362
472.761	13713
472.839	12529
472.918	12566
472.996	12500
473.075	14945
473.153	13619
473.231	12320
473.310	14367
473.388	13589
473.466	13687
473.545	15639
473.623	17025
473.701	15982
473.780	12224
473.858	12476
473.936	14142
474.014	12480
474.093	14866
474.171	19669
474.249	25122
474.327	17738
474.405	11046
474.484	13649
474.562	11826
474.640	13033
474.718	13999
474.796	14507
474.874	15073
474.952	14717
475.030	15554
475.108	17119
475.187	17897
475.265	19855
475.343	21250
475.421	22440
475.499	15863
475.577	16220
475.655	20814
475.733	33601
475.811	52872
475.889	44246
475.966	28910
476.044	12935
476.122	14305
476.200	16854
476.278	14284
476.356	12192
476.434	12824
476.512	15136
476.590	15684
476.667	15709
476.745	10543
476.823	12615
476.901	12022
476.979	14412
477.056	12647
477.134	12778
477.212	13026
477.290	12949
477.367	10516
477.445	10525
477.523	11550
477.601	11403
477.678	11125
477.756	14988
477.834	14707
477.911	12241
477.989	11941
478.066	11392
478.144	13418
478.222	14491
478.299	16254
478.377	16648
478.454	10837
478.532	11942
478.609	11907
478.687	12844
478.764	10890
478.842	12131
478.919	12026
478.997	12043
479.074	9976
479.152	14132
479.229	15619
479.307	11522
479.384	9270
479.461	10695
479.539	11406
479.616	13829
479.694	10739
479.771	12368
479.848	13265
479.926	16411
480.003	17812
480.080	11035
480.157	10284
480.235	10235
480.312	10205
480.389	13142
480.467	18264
480.544	22321
480.621	13056
480.698	12584
480.775	14431
480.853	13305
480.930	12078
481.007	13707
481.084	13840
481.161	15657
481.238	13886
481.315	11280
481.392	10608
481.470	11793
481.547	12060
481.624	10787
481.701	10618
481.778	11941
481.855	13737
481.932	22478
482.009	29080
482.086	20249
482.163	11661
482.240	15975
482.317	20498
482.393	16849
482.470	12168
482.547	12676
482.624	11108
482.701	12577
482.778	11337
482.855	11054
482.932	10253
483.009	9973
483.085	12067
483.162	14996
483.239	13466
483.316	10492
483.393	10447
483.469	11892
483.546	12814
483.623	13375
483.699	10729
483.776	12433
483.853	13587
483.930	21290
484.006	47955
484.083	76373
484.160	38985
484.236	52629
484.313	39469
484.389	30980
484.466	29481
484.543	27097
484.619	26664
484.696	28817
484.772	29877
484.849	31558
484.925	24901
485.002	26180
485.078	28623
485.155	28441
485.231	24174
485.308	25177
485.384	26329
485.461	33204
485.537	48438
485.614	56996
485.690	25298
485.766	24567
485.843	26449
485.919	31927
485.995	31666
486.072	22714
486.148	22570
486.224	22859
486.301	24768
486.377	28479
486.453	28578
486.530	28331
486.606	33378
486.682	38088
486.758	44083
486.835	50383
486.911	42108
486.987	61521
487.063	59530
487.139	65983
487.215	47243
487.292	29442
487.368	25598
487.444	28922
487.520	32503
487.596	29634
487.672	32667
487.748	46434
487.824	57201
487.900	37060
487.976	27758
488.052	31212
488.128	35785
488.204	29288
488.280	25213
488.356	33451
488.432	60470
488.508	83074
488.584	30728
488.660	22651
488.736	23553
488.812	23204
488.888	27496
488.964	38361
489.039	65203
489.115	89362
489.191	59179
489.267	24977
489.343	23409
489.418	21464
489.494	20611
489.570	20020
489.646	22610
489.722	20610
489.797	22215
489.873	37161
489.949	63415
490.024	54991
490.100	20810
490.176	22278
490.251	24305
490.327	28376
490.403	21093
490.478	20131
490.554	17433
490.629	18905
490.705	19253
490.781	21077
490.856	21062
490.932	23519
491.007	20783
491.083	21390
491.158	19882
491.234	30508
491.309	53110
491.385	52298
491.460	22699
491.536	23450
491.611	19867
491.686	21511
491.762	26361
491.837	44700
491.913	73948
491.988	97675
492.063	112865
492.139	43373
492.214	27735
492.289	18097
492.365	16816
492.440	20931
492.515	19989
492.590	20701
492.666	17764
492.741	24873
492.816	32121
492.891	20882
492.967	17128
493.042	17847
493.117	17241
493.192	20497
493.267	41711
493.342	107457
493.418	130557
493.493	25458
493.568	16881
493.643	17129
493.718	20773
493.793	28026
493.868	27810
493.943	19765
494.018	17263
494.093	16011
494.168	17804
494.243	16510
494.318	15437
494.393	15773
494.468	15782
494.543	16093
494.618	16229
494.693	17115
494.768	16363
494.842	18062
494.917	16188
494.992	17763
495.067	16270
495.142	16906
495.217	18324
495.292	17713
495.366	20107
495.441	23884
495.516	27037
495.591	38283
495.665	99217
495.740	187236
495.815	90719
495.890	29194
495.964	23518
496.039	27412
496.114	25330
496.188	27595
496.263	27362
496.338	27268
496.412	29252
496.487	32482
496.561	32413
496.636	35361
496.710	31170
496.785	34839
496.860	38543
496.934	35646
497.009	35553
497.083	37505
497.158	38954
497.232	44173
497.307	50657
497.381	50136
497.455	57186
497.530	66310
497.604	58478
497.679	65660
497.753	80472
497.827	95706
497.902	92332
497.976	105081
498.050	194797
498.125	454451
498.199	432597
498.273	118096
498.348	106518
498.422	97813
498.496	92862
498.570	88089
498.645	79292
498.719	75589
498.793	76110
498.867	84043
498.941	106664
499.016	235195
499.090	456805
499.164	173790
499.238	52036
499.312	46515
499.386	49382
499.460	45279
499.534	40796
499.609	44120
499.683	51945
499.757	53592
499.831	113762
499.905	313036
499.979	282353
500.053	57029
500.127	54996
500.201	39590
500.275	30633
500.349	29830
500.422	30087
500.496	40276
500.570	75163
500.644	192320
500.718	308390
500.792	72159
500.866	30643
500.940	33217
501.013	29292
501.087	27576
501.161	41065
501.235	53691
501.309	122544
501.382	287587
501.456	240522
501.530	64848
501.603	95983
501.677	41392
501.751	19504
501.825	25494
501.898	50772
501.972	115835
502.046	74897
502.119	25676
502.193	61897
502.266	123112
502.340	64974
502.413	63939
502.487	110139
502.561	60550
502.634	24999
502.708	19802
502.781	17276
502.855	17404
502.928	15038
503.002	16125
503.075	14829
503.149	17417
503.222	17100
503.295	18029
503.369	19650
503.442	31730
503.516	97328
503.589	216662
503.662	138429
503.736	51469
503.809	98422
503.882	90828
503.956	117330
504.029	101939
504.102	39345
504.175	37215
504.249	20976
504.322	21642
504.395	20242
504.468	16274
504.542	14864
504.615	13440
504.688	13047
504.761	11948
504.834	16627
504.907	18675
504.980	24569
505.053	16959
505.127	18767
505.200	24453
505.273	22371
505.346	15784
505.419	11028
505.492	13486
505.565	11157
505.638	11562
505.711	11945
505.784	11676
505.857	9963
505.930	13812
506.003	11031
506.076	15161
506.149	15182
506.221	19415
506.294	20273
506.367	59229
506.440	153645
506.513	81915
506.586	21797
506.659	14389
506.731	12706
506.804	15611
506.877	18516
506.950	15734
507.022	13363
507.095	15862
507.168	19059
507.241	13155
507.313	10705
507.386	12066
507.459	14667
507.531	11182
507.604	10629
507.677	10863
507.749	9140
507.822	14985
507.894	24478
507.967	30246
508.040	17252
508.112	17191
508.185	16104
508.257	15711
508.330	21331
508.402	16139
508.475	15357
508.547	16969
508.620	17716
508.692	24659
508.765	18017
508.837	13379
508.909	13541
508.982	13154
509.054	14226
509.127	13322
509.199	12377
509.271	12535
509.344	12170
509.416	13181
509.488	13053
509.560	14455
509.633	13485
509.705	15614
509.777	16274
509.849	19820
509.922	15838
509.994	14848
510.066	15256
510.138	16627
510.210	28503
510.283	25307
510.355	21054
510.427	19804
510.499	18770
510.571	17952
510.643	19003
510.715	26372
510.787	20753
510.859	20050
510.931	20450
511.003	25455
511.076	23040
511.148	16840
511.219	17154
511.291	27794
511.363	29759
511.435	17218
511.507	15476
511.579	16843
511.651	16278
511.723	15474
511.795	15239
511.867	15586
511.939	20477
512.010	33856
512.082	27053
512.154	15583
512.226	16367
512.298	22963
512.369	29213
512.441	24366
512.513	22294
512.585	18433
512.656	20158
512.728	21233
512.800	16771
512.871	17549
512.943	16173
513.015	15351
513.086	15758
513.158	17919
513.230	17036
513.301	22199
513.373	22816
513.444	17941
513.516	15581
513.588	15884
513.659	15933
513.731	18425
513.802	17385
513.874	31387
513.945	46120
514.016	21816
514.088	16271
514.159	17373
514.231	21718
514.302	27782
514.374	22734
514.445	22680
514.516	41698
514.588	30843
514.659	25581
514.730	39859
514.802	33775
514.873	34450
514.944	42427
515.016	38938
515.087	35740
515.158	40707
515.229	49386
515.301	44147
515.372	58953
515.443	54795
515.514	43535
515.585	31656
515.656	26652
515.728	23076
515.799	19922
515.870	20496
515.941	19047
516.012	20017
516.083	23758
516.154	23526
516.225	25485
516.296	24580
516.367	22096
516.438	21876
516.509	24732
516.580	37774
516.651	104184
516.722	277615
516.793	142156
516.864	38918
516.935	34536
517.006	35584
517.077	49198
517.148	109364
517.219	308435
517.289	450576
517.360	208474
517.431	72641
517.502	24505
517.573	24240
517.643	24228
517.714	25894
517.785	26606
517.856	26071
517.926	30024
517.997	30400
518.068	29756
518.138	39267
518.209	63522
518.280	239678
518.350	663800
518.421	281189
518.492	45051
518.562	29729
518.633	27614
518.703	26023
518.774	32131
518.845	42681
518.915	38104
518.986	27439
519.056	29361
519.127	46599
519.197	80401
519.268	184956
519.338	112252
519.408	32260
519.479	32858
519.549	24723
519.620	20099
519.690	17816
519.760	16808
519.831	17887
519.901	18353
519.971	17514
520.042	17173
520.112	20338
520.182	22135
520.253	24021
520.323	20254
520.393	32736
520.463	49401
520.534	36249
520.604	68000
520.674	31206
520.744	31804
520.814	75836
520.885	64421
520.955	75938
521.025	213176
521.095	80040
521.165	20359
521.235	19515
521.305	16617
521.375	15247
521.445	16777
521.515	18843
521.585	23528
521.655	20338
521.725	20291
521.795	19213
521.865	14632
521.935	25330
522.005	20110
522.075	14806
522.145	17176
522.215	17620
522.285	25409
522.355	33501
522.424	57607
522.494	48941
522.564	26164
522.634	47314
522.704	113471
522.774	44524
522.843	17237
522.913	16377
522.983	17868
523.053	15655
523.122	15917
523.192	23064
523.262	59322
523.331	57300
523.401	18498
523.471	14528
523.540	13955
523.610	11661
523.680	11872
523.749	12927
523.819	17031
523.888	16534
523.958	12475
524.027	14215
524.097	14879
524.166	12868
524.236	13082
524.305	16655
524.375	11887
524.444	11181
524.514	15178
524.583	14773
524.653	17162
524.722	19613
524.791	13475
524.861	13658
524.930	11910
524.999	13851
525.069	19015
525.138	16328
525.207	18066
525.277	15217
525.346	12546
525.415	14047
525.484	13942
525.554	16585
525.623	15135
525.692	14742
525.761	14151
525.830	14345
525.900	13569
525.969	18820
526.038	23023
526.107	33949
526.176	71691
526.245	58350
526.314	34670
526.383	53937
526.452	58517
526.522	97513
526.591	103763
526.660	58429
526.729	30087
526.797	32667
526.867	85640
526.935	312082
527.004	305581
527.073	133268
527.142	24806
527.211	17931
527.280	17742
527.349	17305
527.418	11517
527.487	13450
527.555	11308
527.624	12223
527.693	10377
527.762	12450
527.831	10251
527.899	11951
527.968	11101
528.037	10640
528.106	14572
528.174	22641
528.243	20830
528.312	27577
528.380	32897
528.449	14914
528.518	11972
528.586	9143
528.655	11714
528.723	10833
528.792	10980
528.861	11522
528.929	9840
528.998	12301
529.066	9811
529.135	10653
529.203	9569
529.272	10515
529.340	11870
529.409	12891
529.477	10561
529.545	14864
529.614	18477
529.682	19099
529.751	20484
529.819	22024
529.887	15212
529.956	12007
530.024	13139
530.092	11489
530.161	13434
530.229	18140
530.297	12375
530.365	12263
530.434	11805
530.502	10830
530.570	11069
530.638	10212
530.707	11510
530.775	13579
530.843	10569
530.911	11409
530.979	10842
531.047	11047
531.115	11256
531.183	11555
531.252	11806
531.320	12488
531.388	9949
531.456	11782
531.524	8829
531.592	11876
531.660	13499
531.728	12014
531.796	11162
531.864	12560
531.932	12547
532.000	12844
532.067	13112
532.135	14678
532.203	16110
532.271	16381
532.339	27459
532.407	51904
532.475	34191
532.542	21107
532.610	20153
532.678	29466
532.746	114071
532.814	223705
532.881	55204
532.949	18769
533.017	14713
533.084	13956
533.152	13059
533.220	13740
533.287	14426
533.355	13998
533.423	13553
533.490	12927
533.558	12990
533.625	14532
533.693	15002
533.761	14686
533.828	15843
533.896	15463
533.963	27026
534.031	33341
534.098	42763
534.166	23966
534.233	17274
534.300	19673
534.368	19626
534.435	18245
534.503	18200
534.570	21289
534.637	16766
534.705	16394
534.772	16638
534.840	21496
534.907	45293
534.974	46166
535.041	18502
535.109	18102
535.176	14095
535.243	14015
535.310	14641
535.378	12990
535.445	12220
535.512	11541
535.579	12886
535.646	12429
535.714	13903
535.781	18383
535.848	16096
535.915	18482
535.982	18149
536.049	18476
536.116	20043
536.183	18609
536.250	18557
536.317	17231
536.384	18747
536.451	22931
536.518	21784
536.585	18828
536.652	22705
536.719	25410
536.786	19923
536.853	19464
536.920	25299
536.987	31873
537.053	37914
537.120	133852
537.187	95116
537.254	16496
537.321	14059
537.388	15046
537.454	13192
537.521	11561
537.588	12335
537.654	15143
537.721	15663
537.788	15623
537.855	12208
537.921	13499
537.988	12575
538.055	13592
538.121	12310
538.188	15503
538.254	20733
538.321	30444
538.388	19683
538.454	14961
538.521	12984
538.587	11374
538.654	11785
538.720	12075
538.787	13343
538.853	13609
538.920	15846
538.986	17301
539.053	14659
539.119	15554
539.185	14024
539.252	17489
539.318	20793
539.385	19937
539.451	16650
539.517	18131
539.583	21399
539.650	46885
539.716	96825
539.782	26647
539.849	13460
539.915	15625
539.981	14412
540.047	16332
540.114	15790
540.180	17084
540.246	13959
540.312	21261
540.378	31797
540.444	30577
540.510	45572
540.576	107417
540.643	32173
540.709	14533
540.775	14339
540.841	15230
540.907	21253
540.973	34259
541.039	24296
541.105	20160
541.171	15350
541.237	14539
541.303	15659
541.369	17703
541.435	20373
541.500	27179
541.566	17811
541.632	13105
541.698	12517
541.764	14294
541.830	12739
541.896	13639
541.961	13675
542.027	14659
542.093	13402
542.159	15692
542.224	16142
542.290	23970
542.356	31070
542.421	29247
542.487	19614
542.553	17602
542.618	18699
542.684	15406
542.750	14459
542.815	19246
542.881	33526
542.947	102395
543.012	62916
543.078	16251
543.143	15538
543.209	15922
543.274	15516
543.340	20201
543.405	42325
543.471	57051
543.536	18109
543.602	15848
543.667	13347
543.732	15229
543.798	13570
543.863	15724
543.928	13386
543.994	13403
544.059	14382
544.124	14429
544.190	12667
544.255	15506
544.320	14850
544.386	15393
544.451	19078
544.516	20368
544.581	23863
544.646	69893
544.712	89149
544.777	22466
544.842	18833
544.907	21010
544.972	17792
545.037	17324
545.102	19362
545.168	18889
545.233	19146
545.298	21022
545.363	23145
545.428	24762
545.493	41454
545.558	78236
545.623	32756
545.688	19101
545.753	18797
545.818	17667
545.883	18548
545.947	19129
546.012	20216
546.077	21096
546.142	19803
546.207	19550
546.272	21790
546.337	21874
546.401	19822
546.466	19612
546.531	17684
546.596	19814
546.661	19934
546.725	19341
546.790	16996
546.855	18761
546.919	16586
546.984	19200
547.049	18776
547.113	23160
547.178	19567
547.243	22556
547.307	23537
547.372	26707
547.436	28177
547.501	21267
547.565	21552
547.630	25609
547.695	25370
547.759	28490
547.823	25204
547.888	20861
547.952	19638
548.017	22327
548.081	26286
548.146	33518
548.210	28378
548.274	21136
548.339	20541
548.403	20391
548.468	18217
548.532	19193
548.596	19983
548.660	20175
548.725	22101
548.789	25471
548.853	26465
548.917	23379
548.982	31207
549.046	31541
549.110	21151
549.174	20199
549.238	20917
549.303	19778
549.367	22130
549.431	21000
549.495	19615
549.559	19991
549.623	20997
549.687	25933
549.751	33503
549.815	25180
549.879	23881
549.943	22655
550.007	25056
550.071	26285
550.135	31184
550.199	26287
550.263	23790
550.327	27501
550.391	33934
550.455	25373
550.519	24272
550.582	25593
550.646	33974
550.710	34758
550.774	25785
550.838	26280
550.901	26721
550.965	27640
551.029	28929
551.093	33239
551.156	42694
551.220	74860
551.284	68212
551.347	43697
551.411	90834
551.475	83783
551.538	30005
551.602	25800
551.666	24861
551.729	23638
551.793	24217
551.856	25686
551.920	26419
551.983	25518
552.047	23691
552.110	23461
552.174	23784
552.237	24509
552.301	22793
552.364	23318
552.428	23441
552.491	23635
552.554	23820
552.618	24752
552.681	26741
552.745	27142
552.808	31934
552.871	37120
552.934	31910
552.998	28095
553.061	30478
553.124	28680
553.187	27695
553.251	31200
553.314	32861
553.377	35800
553.440	61587
553.503	200051
553.567	265986
553.630	51951
553.693	27836
553.756	26135
553.819	23554
553.882	23455
553.945	22568
554.008	22292
554.071	21154
554.134	22981
554.197	20950
554.260	21294
554.323	23110
554.386	22436
554.449	21604
554.512	21749
554.575	20296
554.638	21715
554.701	20753
554.764	21108
554.827	21167
554.889	20263
554.952	19094
555.015	20217
555.078	19695
555.141	20200
555.203	18837
555.266	20970
555.329	20229
555.391	20017
555.454	20337
555.517	21094
555.580	19786
555.642	19463
555.705	17935
555.768	19737
555.830	19546
555.893	19258
555.955	19690
556.018	19728
556.080	18828
556.143	19263
556.206	19150
556.268	20859
556.330	20126
556.393	20407
556.455	21754
556.518	31321
556.580	27958
556.643	18820
556.705	18297
556.767	18709
556.830	19081
556.892	21938
556.955	28373
557.017	23101
557.079	18885
557.142	19740
557.204	22715
557.266	36140
557.328	31003
557.391	19097
557.453	17154
557.515	19642
557.577	21072
557.639	22828
557.701	18259
557.764	18494
557.826	17869
557.888	19760
557.950	18827
558.012	20127
558.074	23082
558.136	39224
558.198	64867
558.260	32316
558.322	21524
558.384	22879
558.446	24273
558.508	25962
558.570	30018
558.632	48042
558.694	61451
558.756	61659
558.818	167052
558.880	325398
558.942	100193
559.003	71235
559.065	39073
559.127	25165
559.189	25095
559.251	26888
559.312	34639
559.374	77847
559.436	198718
559.498	89912
559.559	27516
559.621	25475
559.683	28042
559.744	47241
559.806	110383
559.868	128895
559.929	36701
559.991	28870
560.052	36419
560.114	68412
560.176	46568
560.237	49756
560.299	63370
560.360	26424
560.422	21209
560.483	22783
560.545	20622
560.606	20250
560.667	19814
560.729	19939
560.790	19044
560.852	19518
560.913	19751
560.974	20286
561.036	20062
561.097	20584
561.158	20552
561.220	20952
561.281	19940
561.342	21532
561.403	22752
561.465	28406
561.526	54594
561.587	59036
561.648	26062
561.709	21343
561.771	21397
561.832	20982
561.893	19798
561.954	20598
562.015	19951
562.076	20800
562.137	20124
562.198	21005
562.259	19688
562.320	20769
562.381	23308
562.442	29310
562.503	24666
562.564	21637
562.625	20658
562.686	21609
562.747	23554
562.808	23457
562.869	22942
562.930	26859
562.991	24726
563.051	23390
563.112	21981
563.173	22585
563.234	21509
563.294	22450
563.355	21121
563.416	22383
563.477	22416
563.537	21473
563.598	23974
563.659	23502
563.720	23689
563.780	23799
563.841	23859
563.901	23496
563.962	23434
564.023	23562
564.083	24389
564.144	24658
564.204	23567
564.265	25866
564.325	30471
564.386	48609
564.446	39008
564.507	25454
564.567	24263
564.628	26296
564.688	25570
564.749	27705
564.809	29884
564.869	32447
564.930	27681
564.990	27583
565.050	26678
565.111	28562
565.171	27763
565.231	29486
565.292	30013
565.352	28772
565.412	30659
565.472	31895
565.532	32353
565.593	32732
565.653	33353
565.713	35051
565.773	36720
565.833	38944
565.893	44124
565.953	38919
566.013	40326
566.074	44069
566.134	49868
566.194	62544
566.254	62634
566.314	55772
566.374	50901
566.434	54638
566.494	55626
566.554	58595
566.614	61079
566.673	65626
566.733	68865
566.793	73503
566.853	75257
566.913	77524
566.973	78408
567.033	78533
567.092	78640
567.152	79168
567.212	82033
567.272	84364
567.331	87746
567.391	90648
567.451	93589
567.511	98455
567.570	94355
567.630	83157
567.690	82053
567.749	83647
567.809	89972
567.868	98227
567.928	109813
567.988	126457
568.047	145714
568.107	175795
568.166	222771
568.226	290264
568.285	358103
568.345	371051
568.404	356650
568.464	344495
568.523	337452
568.582	339935
568.642	358076
568.701	403592
568.761	487179
568.820	602100
568.879	629117
568.939	595217
568.998	529434
569.057	465019
569.116	406039
569.176	350201
569.235	306666
569.294	267984
569.353	236315
569.413	208351
569.472	185072
569.531	165905
569.590	149680
569.649	134463
569.708	123042
569.767	115401
569.827	110099
569.886	97968
569.945	88723
570.004	82001
570.063	75474
570.122	73727
570.181	70115
570.240	67801
570.299	65538
570.358	63203
570.417	54834
570.475	51680
570.534	50035
570.593	48894
570.652	48076
570.711	47618
570.770	43420
570.829	44441
570.887	42757
570.946	41334
571.005	35875
571.064	35938
571.122	36614
571.181	37349
571.240	34802
571.299	32963
571.357	34538
571.416	34383
571.475	35024
571.533	34142
571.592	32101
571.650	31439
571.709	29187
571.768	27419
571.826	28022
571.885	27771
571.943	26828
572.002	27918
572.060	26516
572.119	26182
572.177	25755
572.236	25201
572.294	23506
572.352	24854
572.411	23446
572.469	23649
572.528	23894
572.586	24956
572.644	27545
572.703	31728
572.761	25481
572.819	23693
572.877	22614
572.936	22114
572.994	22081
573.052	22295
573.110	22369
573.169	22581
573.227	21271
573.285	21175
573.343	21409
573.401	21129
573.459	20971
573.517	21080
573.576	20292
573.634	21210
573.692	22083
573.750	21286
573.808	20256
573.866	21561
573.924	25654
573.982	24679
574.040	20917
574.098	19371
574.155	19016
574.213	20004
574.271	18274
574.329	19994
574.387	19425
574.445	20031
574.503	19238
574.560	18189
574.618	18920
574.676	18277
574.734	18896
574.792	19974
574.849	18447
574.907	18590
574.965	18079
575.022	18263
575.080	17908
575.138	19263
575.195	19168
575.253	19522
575.311	20396
575.368	19432
575.426	18837
575.483	19824
575.541	18557
575.598	18687
575.656	19025
575.713	19112
575.771	18514
575.828	18691
575.886	18483
575.943	19820
576.001	18999
576.058	19133
576.115	20608
576.173	22031
576.230	23035
576.287	24557
576.345	21776
576.402	19935
576.459	20045
576.517	20045
576.574	21403
576.631	22765
576.688	20671
576.746	20225
576.803	19557
576.860	19897
576.917	19877
576.974	20268
577.031	19919
577.089	21565
577.146	21129
577.203	20483
577.260	21218
577.317	22493
577.374	22554
577.431	22665
577.488	20568
577.545	21886
577.602	21527
577.659	22147
577.716	23228
577.773	24732
577.830	23670
577.886	23531
577.943	21950
578.000	22575
578.057	23680
578.114	25159
578.171	26760
578.227	31600
578.284	32950
578.341	33989
578.398	30231
578.454	30893
578.511	29979
578.568	28141
578.625	25417
578.681	24942
578.738	23537
578.794	24049
578.851	22844
578.908	23808
578.964	22902
579.021	23602
579.077	23077
579.134	23124
579.190	23032
579.247	23112
579.303	21729
579.360	22102
579.416	21587
579.473	22825
579.529	22067
579.586	23578
579.642	23743
579.698	24798
579.755	23906
579.811	26477
579.867	25370
579.924	26244
579.980	27598
580.036	30639
580.093	35216
580.149	42968
580.205	46593
580.261	45835
580.317	42075
580.374	39901
580.430	36792
580.486	34690
580.542	32911
580.598	30457
580.619	30254
580.654	29931
580.692	29375
580.710	29150
580.765	28022
580.767	28015
580.823	27966
580.838	27775
580.879	27371
580.911	27416
580.935	27481
580.984	26519
580.991	26429
581.047	27808
581.057	27807
581.103	27867
581.130	28901
581.159	30055
581.203	30825
581.215	31052
581.270	31060
581.276	30914
581.326	29771
581.349	29540
581.382	29224
581.422	29296
581.438	29354
581.494	29411
581.494	29390
581.550	29162
581.567	28955
581.606	28584
581.640	28693
581.661	28792
581.713	27441
581.717	27352
581.773	27631
581.786	27707
581.829	27960
581.859	27466
581.885	27091
581.932	27460
581.940	27538
581.996	27675
582.004	27773
582.052	28330
582.077	27959
582.107	27625
582.150	28760
582.163	29115
582.219	29045
582.223	29122
582.274	30136
582.296	30194
582.330	30309
582.368	30182
582.386	30199
582.441	29523
582.441	29528
582.497	31267
582.514	31464
582.552	32238
582.587	33323
582.608	33824
582.659	31855
582.663	31708
582.719	32422
582.732	32195
582.774	31689
582.805	32060
582.830	32332
582.877	33624
582.885	33835
582.941	33394
582.950	33521
582.996	34356
583.023	35746
583.052	37378
583.095	38269
583.107	38545
583.162	42614
583.168	42704
583.218	43251
583.240	43648
583.273	43889
583.313	42218
583.328	41665
583.384	41287
583.385	41264
583.439	40231
583.458	40275
583.494	40595
583.531	39512
583.549	38912
583.603	38984
583.605	38989
583.660	39117
583.676	39090
583.715	39012
583.748	39482
583.770	39937
583.820	40786
583.825	40803
583.881	39966
583.893	39903
583.936	40268
583.965	41038
583.991	41488
584.038	41917
584.046	42033
584.101	41888
584.110	42017
584.156	42380
584.183	42542
584.211	42850
584.255	43650
584.266	43834
584.321	44217
584.328	44248
584.376	44580
584.400	45038
584.431	45468
584.472	45871
584.486	46088
584.541	46545
584.545	46629
584.596	47779
584.617	47847
584.651	48287
584.689	49692
584.706	50101
584.761	50435
584.762	50444
584.816	51543
584.834	52014
584.871	52953
584.906	53900
584.926	54335
584.978	54253
584.980	54256
585.035	56808
585.051	57164
585.090	58423
585.123	59259
585.145	59566
585.195	60529
585.200	60718
585.254	64251
585.267	65335
585.309	69215
585.340	70963
585.364	71360
585.412	70112
585.419	69869
585.473	70230
585.484	70341
585.528	72936
585.556	76643
585.583	81050
585.628	88380
585.637	91121
585.692	116971
585.700	120656
585.747	134751
585.772	129194
585.801	112405
585.845	90971
585.856	88078
585.910	84038
585.917	83638
585.965	83790
585.989	84759
586.019	86165
586.061	87320
586.074	87809
586.128	90436
586.133	90587
586.183	92433
586.205	93915
586.237	96118
586.277	98217
586.292	99000
586.346	102230
586.349	102379
586.401	104569
586.421	105870
586.455	109189
586.493	112892
586.509	115831
586.564	128092
586.565	128498
586.618	149386
586.637	150780
586.672	141198
586.709	132852
586.727	131190
586.781	132655
586.781	132679
586.835	136683
586.853	138662
586.889	142243
586.925	145391
586.944	147861
586.996	155138
586.998	155304
587.052	160556
587.068	162578
587.106	168765
587.140	174051
587.161	177530
587.212	186476
587.215	186967
587.269	197687
587.284	200257
587.323	206256
587.356	212159
587.377	217249
587.427	230579
587.431	231531
587.485	243470
587.499	247213
587.539	260797
587.571	271082
587.593	278094
587.643	295917
587.648	297794
587.702	317919
587.715	323113
587.755	342901
587.786	358409
587.810	369679
587.858	393765
587.864	397246
587.917	433858
587.930	442087
587.971	472572
588.001	495696
588.025	515475
588.073	557220
588.079	563631
588.133	621687
588.145	635019
588.187	688956
588.217	728075
588.241	766438
588.288	844243
588.295	856461
588.348	960097
588.360	982377
588.402	1086836
588.431	1161228
588.456	1233166
588.503	1374279
588.510	1400494
588.564	1609172
588.575	1651412
588.617	1850864
588.646	1983802
588.671	2112936
588.718	2340398
588.725	2372629
588.778	2574501
588.789	2602906
588.832	2552220
588.861	2483362
588.886	2270648
588.932	1822723
588.939	1796126
588.993	1672509
589.004	1672345
589.047	2216262
589.075	2556758
589.100	2658538
589.147	2783668
589.154	2774071
589.207	2623121
589.218	2584934
589.261	2489052
589.290	2420738
589.314	2434249
589.361	2461844
589.368	2481400
589.421	2602301
589.433	2616306
589.475	2518060
589.504	2408705
589.528	2205625
589.576	1827291
589.582	1863947
589.635	2299024
589.647	2382633
589.689	2493992
589.718	2524682
589.742	2374394
589.790	2032314
589.795	1999906
589.849	1660399
589.861	1580644
589.902	1394972
589.932	1256080
589.955	1175119
590.004	1006710
590.009	995307
590.062	868310
590.075	837214
590.115	763662
590.146	707380
590.168	678390
590.218	614616
590.222	610146
590.275	550278
590.289	534528
590.328	501311
590.360	475062
590.381	459246
590.431	422128
590.435	420506
590.488	389870
590.503	381514
590.541	362300
590.574	345501
590.594	336917
590.645	315407
590.647	314839
590.700	295824
590.716	290231
590.753	278073
590.787	266406
590.806	261658
590.859	248406
590.859	248311
590.912	234237
590.930	229413
590.965	222803
591.001	216374
591.018	213431
591.071	203732
591.072	203512
591.124	195265
591.143	192332
591.177	187200
591.214	181086
591.230	179139
591.283	172806
591.285	172435
591.336	167483
591.356	165320
591.389	161479
591.427	156733
591.442	155388
591.495	149815
591.498	149303
591.547	143785
591.569	141213
591.600	139365
591.640	136533
591.653	135510
591.706	130991
591.711	130386
591.759	128983
591.782	128267
591.811	127946
591.853	126919
591.864	125681
591.917	119030
591.924	117941
591.969	114485
591.995	112470
592.022	111692
592.066	109983
592.075	110232
592.127	111375
592.137	111484
592.180	112188
592.208	112310
592.233	108292
592.279	100397
592.285	100208
592.338	97909
592.350	97283
592.390	95498
592.421	94015
592.443	93239
592.491	91234
592.495	91229
592.548	89874
592.562	89402
592.600	87712
592.633	86093
592.653	85625
592.704	83713
592.705	84167
592.775	82866
592.846	82712
592.916	80410
592.987	79259
593.058	77431
593.128	74386
593.199	71326
593.270	70366
593.341	69265
593.411	67233
593.482	67003
593.553	64760
593.623	61819
593.694	63282
593.764	63560
593.835	62489
593.906	59384
593.976	60138
594.047	59544
594.117	62591
594.188	61234
594.258	54489
594.329	53375
594.399	53264
594.470	52337
594.540	51992
594.611	50604
594.681	50951
594.751	50240
594.822	50482
594.892	49842
594.963	50212
595.033	49348
595.103	50044
595.174	51211
595.244	60216
595.314	68839
595.384	47705
595.455	43879
595.525	44757
595.595	45894
595.665	44238
595.736	43833
595.806	43606
595.876	41411
595.946	42679
596.016	41127
596.087	41756
596.157	41621
596.227	41021
596.297	41751
596.367	42801
596.437	44252
596.507	52999
596.577	57943
596.647	44249
596.717	39088
596.787	40275
596.857	39726
596.927	40817
596.997	38978
597.067	40811
597.137	44540
597.207	41560
597.277	38859
597.347	38261
597.417	37898
597.487	38543
597.557	39184
597.626	39714
597.696	40243
597.766	45345
597.836	54108
597.906	39755
597.975	36414
598.045	35715
598.115	34331
598.185	35526
598.254	36432
598.324	36965
598.394	36816
598.464	37176
598.533	35740
598.603	34906
598.672	35098
598.742	35065
598.812	34905
598.881	34988
598.951	33675
599.020	34055
599.090	33464
599.159	33229
599.229	32561
599.299	31470
599.368	32631
599.437	32365
599.507	32758
599.576	33494
599.646	35771
599.715	37285
599.785	32830
599.854	33267
599.924	35421
599.993	33145
600.062	31434
600.132	31191
600.201	32143
600.270	34088
600.340	33164
600.409	31775
600.478	31731
600.547	31765
600.617	31473
600.686	30621
600.755	31025
600.824	30051
600.894	29835
600.963	28605
601.032	28029
601.101	28944
601.170	27735
601.239	28348
601.308	29767
601.378	28933
601.447	28373
601.516	27390
601.585	28836
601.654	30393
601.723	30049
601.792	29327
601.861	31190
601.930	35481
601.999	32872
602.068	28708
602.137	28621
602.206	29749
602.275	29723
602.343	31333
602.412	30599
602.481	28051
602.550	28213
602.619	27690
602.688	28273
602.756	28212
602.825	27828
602.894	27657
602.963	26934
603.032	28004
603.100	27678
603.169	28085
603.238	28308
603.307	27316
603.375	27248
603.444	28205
603.513	26256
603.581	27039
603.650	27933
603.719	26032
603.787	26024
603.856	27117
603.924	26983
603.993	27519
604.061	26121
604.130	28212
604.198	26659
604.267	26764
604.335	26803
604.404	26589
604.472	27419
604.541	27349
604.609	27564
604.678	27388
604.746	27917
604.815	28285
604.883	27552
604.951	27844
605.020	27843
605.088	27628
605.156	26807
605.225	27177
605.293	26296
605.361	28241
605.429	27352
605.498	28784
605.566	28209
605.634	29044
605.702	28985
605.771	28598
605.839	28010
605.907	27561
605.975	28796
606.043	28547
606.111	27200
606.180	30728
606.248	34503
606.316	36246
606.384	29825
606.452	32996
606.520	31663
606.588	26373
606.656	24120
606.724	24677
606.792	23369
606.860	23463
606.928	20964
606.996	21723
607.064	21347
607.132	22039
607.200	22460
607.267	22338
607.335	22357
607.403	23675
607.471	21415
607.539	22124
607.607	22150
607.674	21759
607.742	22495
607.810	22433
607.878	21022
607.946	21542
608.013	21710
608.081	23337
608.149	22593
608.216	21533
608.284	23691
608.352	21640
608.419	23182
608.487	30783
608.555	23617
608.622	21594
608.690	22618
608.757	23810
608.825	24335
608.893	24406
608.960	27030
609.028	30024
609.095	33546
609.163	23785
609.230	22150
609.298	22252
609.365	20648
609.432	21888
609.500	22416
609.567	24724
609.635	25956
609.702	26498
609.769	27299
609.837	28388
609.904	26336
609.971	27973
610.039	36864
610.106	47321
610.173	76154
610.241	154320
610.308	161180
610.375	90803
610.442	36877
610.509	27264
610.577	24991
610.644	23172
610.711	22159
610.778	23843
610.845	23004
610.912	25607
610.980	29481
611.047	40969
611.114	30707
611.181	22737
611.248	21506
611.315	23943
611.382	22227
611.449	22971
611.516	24195
611.583	22716
611.650	23022
611.717	24599
611.784	25062
611.851	29468
611.918	34512
611.984	40049
612.051	55757
612.118	100576
612.185	234662
612.252	153841
612.319	41117
612.386	30269
612.452	27905
612.519	29036
612.586	35145
612.653	29263
612.719	26278
612.786	23463
612.853	22473
612.919	21684
612.986	22383
613.053	21528
613.120	20742
613.186	19839
613.253	22339
613.319	21707
613.386	21272
613.453	22472
613.519	24418
613.586	27863
613.652	35032
613.719	29949
613.785	27708
613.852	23922
613.918	23357
613.985	29158
614.051	39743
614.118	78671
614.184	70877
614.250	26561
614.317	23331
614.383	21189
614.449	20827
614.516	22304
614.582	22681
614.648	20929
614.715	21374
614.781	21620
614.847	23058
614.914	24418
614.980	24422
615.046	25612
615.112	27489
615.179	33320
615.245	40828
615.311	58961
615.377	100911
615.443	127665
615.509	75494
615.575	48185
615.642	39414
615.708	42221
615.774	46631
615.840	61163
615.906	83407
615.972	129642
616.038	239747
616.104	327259
616.170	406067
616.236	314388
616.302	86138
616.368	53309
616.434	40317
616.500	36719
616.565	34516
616.631	38225
616.697	33853
616.763	35137
616.829	43300
616.895	63506
616.961	64352
617.026	36967
617.092	25596
617.158	25592
617.224	23447
617.289	22626
617.355	22141
617.421	22296
617.487	24199
617.552	21307
617.618	19826
617.684	20338
617.749	22056
617.815	20669
617.880	18480
617.946	20378
618.012	20574
618.077	19995
618.143	20313
618.208	20502
618.274	20596
618.339	22284
618.405	18820
618.470	20682
618.536	20553
618.601	23329
618.667	19827
618.732	21279
618.798	19060
618.863	20096
618.928	19578
618.994	21667
619.059	24061
619.124	29458
619.190	23118
619.255	18204
619.320	20227
619.386	19597
619.451	18476
619.516	18928
619.581	18358
619.647	19005
619.712	17964
619.777	18794
619.842	19387
619.907	20701
619.972	18992
620.038	19420
620.103	18156
620.168	16979
620.233	18180
620.298	16936
620.363	17718
620.428	18786
620.493	18364
620.558	18195
620.623	18826
620.688	18210
620.753	17206
620.818	18080
620.883	18623
620.948	18316
621.013	19040
621.078	18448
621.143	17913
621.207	22735
621.272	20627
621.337	22178
621.402	23207
621.467	26916
621.532	27518
621.596	23954
621.661	22173
621.726	20793
621.791	20114
621.855	22341
621.920	23249
621.985	23424
622.049	26765
622.114	25205
622.179	23154
622.243	23919
622.308	21960
622.373	23523
622.437	21479
622.502	22388
622.566	21942
622.631	21106
622.695	22892
622.760	22376
622.824	21537
622.889	22752
622.953	23249
623.018	32428
623.082	30740
623.147	21884
623.211	21751
623.276	22071
623.340	20441
623.404	19821
623.469	20299
623.533	20761
623.597	20195
623.662	19721
623.726	20062
623.790	18406
623.854	18285
623.919	20039
623.983	19452
624.047	20144
624.111	19349
624.176	20413
624.240	20720
624.304	23097
624.368	20074
624.432	19680
624.496	20809
624.560	20880
624.625	22114
624.689	20752
624.753	18546
624.817	18943
624.881	19149
624.945	19241
625.009	19815
625.073	20025
625.137	20442
625.201	24282
625.265	24023
625.329	19738
625.393	20421
625.456	21332
625.520	22771
625.584	26456
625.648	31435
625.712	45827
625.776	89994
625.839	101055
625.903	43451
625.967	24953
626.031	39103
626.095	56750
626.158	23727
626.222	16930
626.286	17840
626.349	16708
626.413	15279
626.477	18189
626.540	15956
626.604	15184
626.668	17263
626.731	15691
626.795	16614
626.858	16484
626.922	14748
626.986	15724
627.049	12930
627.113	16049
627.176	14755
627.240	15855
627.303	15253
627.366	14538
627.430	15615
627.493	15274
627.557	14659
627.620	16546
627.684	14271
627.747	15318
627.810	12616
627.874	14726
627.937	12987
628.000	16532
628.064	15159
628.127	12670
628.190	14593
628.253	14274
628.317	12750
628.380	13865
628.443	13145
628.506	13690
628.569	13392
628.632	12308
628.696	13309
628.759	12508
628.822	11903
628.885	12938
628.948	13310
629.011	13326
629.074	13258
629.137	12320
629.200	10697
629.263	15724
629.326	11046
629.389	12009
629.452	13536
629.515	13210
629.578	12972
629.641	13566
629.704	11597
629.767	13223
629.830	12160
629.892	12075
629.955	10638
630.018	14478
630.081	12856
630.144	15731
630.207	12130
630.269	14718
630.332	13785
630.395	12936
630.458	11215
630.520	10439
630.583	12552
630.646	11443
630.708	11123
630.771	10791
630.834	11847
630.896	10191
630.959	11140
631.021	10593
631.084	11334
631.146	12960
631.209	15109
631.272	11181
631.334	10848
631.397	11491
631.459	9906
631.522	12050
631.584	10971
631.646	12439
631.709	12481
631.771	14971
631.834	11598
631.896	12055
631.958	8837
632.021	10679
632.083	9949
632.145	10890
632.208	10225
632.270	12039
632.332	10148
632.395	9537
632.457	11320
632.519	10197
632.581	11249
632.643	9370
632.706	10243
632.768	8285
632.830	10064
632.892	9897
632.954	9707
633.016	10818
633.078	9534
633.141	9097
633.203	9736
633.265	10223
633.327	9743
633.389	9508
633.451	12029
633.513	13020
633.575	12661
633.637	12063
633.698	10491
633.760	10751
633.822	10968
633.884	10238
633.946	10161
634.008	10577
634.070	11069
634.132	14345
634.193	12089
634.255	11077
634.317	9257
634.379	11193
634.441	9982
634.502	10489
634.564	9985
634.626	9082
634.687	9855
634.749	9459
634.811	9133
634.873	8706
634.934	9664
634.996	9837
635.057	7886
635.119	8219
635.181	9258
635.242	9176
635.304	7447
635.365	11360
635.427	8204
635.488	9383
635.550	8247
635.611	9731
635.673	7151
635.734	10537
635.796	8608
635.857	10753
635.918	8627
635.980	10701
636.041	8763
636.102	10015
636.164	10276
636.225	11006
636.286	8512
636.348	10037
636.409	9749
636.470	8968
636.531	9362
636.593	9835
636.654	10273
636.715	9345
636.776	7645
636.838	7853
636.899	8716
636.960	7736
637.021	7823
637.082	8199
637.143	8008
637.204	6885
637.265	6611
637.326	8476
637.387	7411
637.448	7603
637.509	7394
637.570	7976
637.631	8432
637.692	6814
637.753	6520
637.814	7681
637.875	7642
637.936	8933
637.997	7102
638.058	8146
638.119	7871
638.179	7179
638.240	7586
638.301	7572
638.362	7167
638.423	7954
638.483	8541
638.544	6325
638.605	7653
638.666	7267
638.726	7233
638.787	8607
638.848	6651
638.908	7002
638.969	7318
639.030	8411
639.090	6651
639.151	6708
639.211	8647
639.272	9564
639.332	14238
639.393	11399
639.453	6389
639.514	7154
639.574	7217
639.635	6648
639.695	7661
639.756	6609
639.816	8280
639.877	8255
639.937	12974
639.997	17031
640.058	7659
640.118	6669
640.178	6939
640.239	6330
640.299	5836
640.359	6641
640.420	7066
640.480	6841
640.540	6465
640.600	6834
640.661	7357
640.721	6561
640.781	9574
640.841	7135
640.901	7991
640.961	7126
641.021	8090
641.082	7665
641.142	10721
641.202	9763
641.262	5578
641.322	8100
641.382	6055
641.442	7146
641.502	5909
641.562	7946
641.622	6224
641.682	7335
641.742	6673
641.802	8280
641.861	8585
641.921	7509
641.981	7973
642.041	9025
642.101	9123
642.161	7061
642.221	6323
642.280	6735
642.340	6122
642.400	5975
642.460	7000
642.519	6764
642.579	6566
642.639	7668
642.698	4039
642.758	8903
642.818	6772
642.877	6316
642.937	6753
642.997	8109
643.056	10052
643.116	7247
643.175	8647
643.235	6573
643.294	6898
643.354	7423
643.414	8573
643.473	10657
643.532	11003
643.592	15171
643.651	21050
643.711	31999
643.770	51252
643.830	100925
643.889	228154
643.948	69561
644.008	13958
644.067	9518
644.126	7229
644.186	7886
644.245	7641
644.304	6042
644.363	8847
644.423	5533
644.482	6327
644.541	7724
644.600	5144
644.659	7919
644.719	7539
644.778	10570
644.837	12687
644.896	20351
644.955	42460
645.014	21573
645.073	11522
645.132	7416
645.191	8018
645.250	7046
645.309	8096
645.368	6867
645.427	7603
645.486	7275
645.545	11946
645.604	6434
645.663	5908
645.722	6475
645.781	7632
645.840	8528
645.898	9582
645.957	14353
646.016	17390
646.075	26561
646.134	40567
646.192	95813
646.251	157205
646.310	31371
646.369	9876
646.427	8205
646.486	6166
646.545	6659
646.603	5719
646.662	7150
646.721	5928
646.779	6192
646.838	4608
646.896	7782
646.955	8078
647.014	9346
647.072	12187
647.131	26101
647.189	16934
647.248	5466
647.306	5457
647.365	6840
647.423	3177
647.481	6902
647.540	4983
647.598	5919
647.657	5110
647.715	5913
647.773	4304
647.832	5862
647.890	4593
647.948	5509
648.007	6240
648.065	4754
648.123	6271
648.181	7351
648.240	8725
648.298	8517
648.356	5548
648.414	7032
648.472	5577
648.531	5756
648.589	5265
648.647	5073
648.705	4800
648.763	5964
648.821	5692
648.879	5359
648.937	6749
648.995	7443
649.053	8998
649.111	11253
649.169	14557
649.227	19946
649.285	32537
649.343	79420
649.401	55261
649.459	25526
649.516	21062
649.574	15567
649.632	31796
649.690	40284
649.748	18231
649.806	18315
649.863	28802
649.921	24863
649.979	16615
650.037	8038
650.094	4480
650.152	5606
650.210	5170
650.268	5410
650.325	6216
650.383	6049
650.440	4275
650.498	6123
650.556	6543
650.613	5084
650.671	4904
650.728	6086
650.786	4835
650.843	5257
650.901	3425
650.958	4493
651.016	4315
651.073	5048
651.131	3965
651.188	4601
651.246	4623
651.303	3985
651.360	5196
651.418	5172
651.475	4497
651.532	4317
651.590	4289
651.647	3832
651.704	4346
651.762	4564
651.819	4437
651.876	4640
651.933	4312
651.990	5774
652.048	3968
652.105	4662
652.162	5148
652.219	3641
652.276	4073
652.333	5174
652.390	3771
652.448	4957
652.505	5534
652.562	5927
652.619	5748
652.676	10832
652.733	13331
652.790	5538
652.847	3404
652.904	4772
652.961	3930
653.017	3706
653.074	4350
653.131	5073
653.188	3443
653.245	4792
653.302	3907
653.359	3955
653.415	4567
653.472	3882
653.529	4738
653.586	3855
653.642	3283
653.699	3807
653.756	3365
653.813	3351
653.869	4286
653.926	4137
653.983	3177
654.039	5015
654.096	3759
654.152	4990
654.209	3193
654.266	5927
654.322	3793
654.379	6472
654.435	6332
654.492	5677
654.548	6987
654.605	10831
654.661	7276
654.717	4464
654.774	5370
654.830	4964
654.887	4594
654.943	5714
655.000	5633
655.056	4891
655.112	5052
655.168	4679
655.225	5181
655.281	6192
655.337	6639
655.394	10786
655.450	8675
655.506	6971
655.562	9940
655.618	12190
655.675	3794
655.731	5071
655.787	4560
655.843	4856
655.899	3646
655.955	5292
656.011	4778
656.067	3732
656.123	5435
656.179	5927
656.235	5841
656.291	4100
656.347	5933
656.403	5001
656.459	4305
656.515	5073
656.571	5329
656.627	5160
656.683	4536
656.739	5369
656.795	3995
656.850	4796
656.906	5590
656.962	5114
657.018	3655
657.074	4935
657.129	4752
657.185	5427
657.241	5757
657.297	4905
657.352	4130
657.408	4464
657.464	4704
657.519	5872
657.575	4219
657.630	4541
657.686	4566
657.742	3575
657.797	3717
657.853	4274
657.908	4882
657.964	3897
658.019	4636
658.075	4653
658.130	4594
658.186	3700
658.241	3530
658.297	3998
658.352	4039
658.407	5135
658.463	3661
658.518	3656
658.573	4372
658.629	3016
658.684	4026
658.739	4609
658.795	3678
658.850	4392
658.905	3821
658.960	4663
659.016	2781
659.071	4649
659.126	4770
659.181	5029
659.236	7649
659.291	8864
659.346	6152
659.401	6333
659.457	6342
659.512	11797
659.567	7438
659.622	4898
659.677	4434
659.732	4342
659.787	4816
659.842	5426
659.897	6259
659.952	5216
660.007	3933
660.061	4333
660.116	3269
660.171	3350
660.226	3844
660.281	4717
660.336	3358
660.391	4895
660.445	3447
660.500	4447
660.555	3880
660.610	3955
660.664	3759
660.719	4074
660.774	4876
660.828	4855
660.883	4420
660.938	5011
660.992	3477
661.047	4783
661.101	3678
661.156	4657
661.211	2682
661.265	3545
661.320	3874
661.374	4698
661.429	3272
661.483	5259
661.538	3329
661.592	3914
661.647	3537
661.701	4524
661.755	4406
661.810	4283
661.864	3819
661.919	3705
661.973	4542
662.027	4611
662.081	3233
662.136	4248
662.190	4405
662.244	4982
662.299	4632
662.353	5173
662.407	3810
662.461	4456
662.515	4408
662.569	4175
662.624	4456
662.678	4160
662.732	3818
662.786	3737
662.840	4407
662.894	4850
662.948	4079
663.002	4053
663.056	4290
663.110	3918
663.164	3828
663.218	3839
663.272	3841
663.326	4221
663.380	4491
663.434	4470
663.488	4051
663.542	4881
663.595	5465
663.649	4149
663.703	4588
663.757	4118
663.811	2987
663.864	3339
663.918	3594
663.972	4400
664.026	3974
664.079	3973
664.133	3915
664.187	4245
664.240	4381
664.294	3832
664.348	5398
664.401	4722
664.455	4226
664.508	4148
664.562	4311
664.615	4064
664.669	3971
664.722	3773
664.776	3382
664.829	4431
664.883	3454
664.936	2980
664.990	5049
665.043	4864
665.097	4117
665.150	5818
665.203	4398
665.257	4130
665.310	4772
665.363	4854
665.417	5209
665.470	4872
665.523	4132
665.576	4464
665.630	3687
665.683	4523
665.736	3950
665.789	5585
665.842	4316
665.895	3991
665.949	4701
666.002	5249
666.055	4244
666.108	5525
666.161	4659
666.214	5017
666.267	4960
666.320	5968
666.373	5595
666.426	4896
666.479	4771
666.532	5217
666.585	5932
666.638	6849
666.691	5809
666.744	6332
666.796	5964
666.849	5824
666.902	5737
666.955	5203
667.008	4158
667.060	4266
667.113	3451
667.166	4134
667.219	4136
667.271	4063
667.324	4621
667.377	5618
667.430	5140
667.482	6700
667.535	6573
667.587	4901
667.640	4762
667.693	5771
667.745	7777
667.798	10091
667.850	5817
667.903	4975
667.955	4564
668.008	5746
668.060	5936
668.113	5278
668.165	5829
668.218	5472
668.270	6299
668.322	5821
668.375	5181
668.427	5801
668.479	4850
668.532	4587
668.584	5408
668.636	4504
668.689	4746
668.741	5768
668.793	5859
668.845	5691
668.898	6043
668.950	5502
669.002	5025
669.054	5019
669.106	6018
669.158	5742
669.211	6162
669.263	6003
669.315	7388
669.367	9669
669.419	7570
669.471	9007
669.523	7634
669.575	10419
669.627	8888
669.679	6941
669.731	6792
669.783	7219
669.835	8152
669.886	7929
669.938	7576
669.990	7994
670.042	8148
670.094	9212
670.146	10035
670.197	11943
670.249	15749
670.301	21450
670.353	30322
670.404	42442
670.456	60725
670.508	86146
670.560	116058
670.611	161632
670.663	245814
670.715	490560
670.766	853274
670.818	442804
670.869	95658
670.921	40002
670.972	26072
671.024	18218
671.075	14828
671.127	12477
671.178	10170
671.230	9787
671.281	8654
671.333	8368
671.384	8492
671.436	8694
671.487	8500
671.538	8518
671.590	9522
671.641	10675
671.692	11553
671.744	15998
671.795	15511
671.846	10877
671.897	7903
671.949	7595
672.000	6255
672.051	5663
672.102	6169
672.153	5381
672.204	5631
672.256	5354
672.307	5793
672.358	5942
672.409	5634
672.460	5189
672.511	4592
672.562	5079
672.613	4965
672.664	4943
672.715	4879
672.766	4720
672.817	4424
672.868	5117
672.919	4745
672.970	5339
673.021	5680
673.071	5139
673.122	5325
673.173	5377
673.224	4687
673.275	4719
673.326	4409
673.376	5200
673.427	4215
673.478	4634
673.528	4691
673.579	4995
673.630	4153
673.680	5712
673.731	3855
673.782	4574
673.832	3861
673.883	5350
673.934	4568
673.984	5131
674.035	4768
674.085	5090
674.136	5164
674.186	5839
674.237	5871
674.287	8226
674.338	7621
674.388	5561
674.438	5007
674.489	4690
674.539	5113
674.589	4384
674.640	4978
674.690	4667
674.740	3842
674.791	5076
674.841	4651
674.891	6296
674.942	4426
674.992	5178
675.042	4349
675.092	4821
675.142	4457
675.193	4593
675.243	3678
675.293	4746
675.343	3772
675.393	4317
675.443	4713
675.493	4977
675.543	4096
675.593	4562
675.643	3679
675.693	4422
675.743	3419
675.793	4119
675.843	3163
675.893	4051
675.943	4387
675.993	4665
676.043	3791
676.093	4192
676.142	3446
676.192	4498
676.242	4402
676.292	4095
676.341	4386
676.391	4604
676.441	3084
676.491	3740
676.540	3424
676.590	4488
676.640	3932
676.689	4492
676.739	2527
676.789	3359
676.838	3232
676.888	4093
676.937	3996
676.987	3511
677.037	3563
677.086	3555
677.136	3725
677.185	3746
677.235	3234
677.284	3816
677.333	3305
677.383	3020
677.432	3031
677.482	3381
677.531	4236
677.580	4103
677.630	3957
677.679	3257
677.728	3641
677.778	3901
677.827	3724
677.876	3732
677.925	2865
677.975	3891
678.024	3654
678.073	3008
678.122	3915
678.171	4136
678.220	3145
678.269	4312
678.319	4238
678.368	4614
678.417	3934
678.466	4431
678.515	4714
678.564	4417
678.613	3501
678.662	3891
678.711	3805
678.760	3804
678.809	2857
678.857	3687
678.906	4332
678.955	4362
679.004	4613
679.053	4346
679.102	4129
679.151	3460
679.199	3327
679.248	3953
679.297	4160
679.346	3446
679.394	3199
679.443	3780
679.492	3031
679.540	4280
679.589	3709
679.638	3984
679.686	3241
679.735	3602
679.784	3645
679.832	4490
679.881	3279
679.929	3751
679.978	2737
680.026	3114
680.075	3565
680.123	3805
680.172	2552
680.220	2580
680.268	3364
680.317	3203
680.365	4043
680.414	2842
680.462	3253
680.510	3479
680.559	3166
680.607	2902
680.655	2826
680.703	3326
680.752	3730
680.800	3736
680.848	2924
680.896	3428
680.945	2422
680.993	3519
681.041	3658
681.089	3688
681.137	3327
681.185	3123
681.233	2895
681.258	3174
681.281	3435
681.329	2624
681.377	2716
681.380	2741
681.425	3156
681.473	2938
681.502	2725
681.521	2565
681.569	3878
681.617	3954
681.624	3808
681.665	2856
681.713	3571
681.745	3469
681.761	3415
681.809	2752
681.857	3478
681.867	3450
681.904	3355
681.952	3357
681.989	2929
682.000	2795
682.048	3141
682.096	2639
682.111	2743
682.143	2970
682.191	2552
682.233	3991
682.239	4200
682.286	2643
682.334	2846
682.354	3010
682.382	3229
682.430	3092
682.476	2799
682.477	2789
682.525	2161
682.572	2614
682.598	3098
682.620	3534
682.667	2492
682.715	2915
682.720	2927
682.763	2914
682.810	3206
682.841	2339
682.857	1909
682.905	2540
682.952	2804
682.963	2796
683.000	2706
683.047	2635
683.085	3450
683.095	3680
683.142	3486
683.190	2985
683.206	2675
683.237	2084
683.284	3326
683.328	2298
683.332	2208
683.379	3247
683.426	3258
683.449	3260
683.473	3262
683.521	2594
683.568	3090
683.571	3084
683.615	2916
683.662	3182
683.693	3100
683.709	3067
683.757	2673
683.804	3261
683.814	3246
683.851	3180
683.898	2837
683.936	3083
683.945	3134
683.992	2708
684.039	3265
684.057	3115
684.086	2929
684.133	4086
684.179	3207
684.180	3170
684.227	3471
684.274	3432
684.300	3467
684.321	3552
684.368	2224
684.415	3440
684.422	3321
684.462	2533
684.509	2816
684.543	2862
684.556	2866
684.603	2830
684.649	2650
684.665	2783
684.696	3129
684.743	2755
684.786	3303
684.790	3339
684.837	3383
684.883	3100
684.908	3123
684.930	3136
684.977	3554
685.023	2765
685.029	2926
685.070	4143
685.117	2769
685.150	2985
685.164	3071
685.210	3309
685.257	4375
685.272	4237
685.303	3914
685.350	3764
685.393	3159
685.396	3114
685.443	3165
685.490	4031
685.514	3981
685.536	3907
685.583	3184
685.629	3009
685.636	2893
685.675	2206
685.722	3841
685.757	3399
685.768	3242
685.815	3058
685.861	3572
685.878	3446
685.908	3332
685.954	3556
686.000	3978
686.000	3982
686.047	3393
686.093	4460
686.121	4715
686.139	4786
686.185	4405
686.232	3647
686.242	3641
686.278	3733
686.324	2992
686.363	3638
686.370	3777
686.416	2828
686.463	3863
686.484	3760
686.509	3501
686.555	3704
686.601	3201
686.606	3263
686.647	3938
686.693	3058
686.727	3243
686.739	3289
686.785	3239
686.831	3949
686.848	3549
686.877	2918
686.923	3172
686.969	3095
686.969	3094
687.015	2835
687.061	3031
687.090	3544
687.107	3794
687.153	3633
687.199	3305
687.211	3135
687.245	2778
687.291	3431
687.332	3449
687.336	3443
687.382	3836
687.428	3302
687.453	3283
687.474	3255
687.520	2858
687.565	3373
687.574	3353
687.611	3414
687.657	3635
687.695	3534
687.702	3516
687.748	3714
687.794	4048
687.816	4044
687.839	3897
687.885	3392
687.931	2999
687.937	3015
687.976	3276
688.022	3389
688.058	3313
688.067	3285
688.113	3559
688.158	3333
688.179	3288
688.204	3257
688.249	3318
688.295	3661
688.300	3681
688.340	3847
688.386	3745
688.421	3361
688.431	3255
688.477	3460
688.522	3407
688.542	3537
688.567	3758
688.613	3686
688.658	3987
688.663	3911
688.703	3289
688.749	3738
688.784	4052
688.794	4121
688.839	3819
688.884	3875
688.905	3799
688.930	3602
688.975	3038
689.020	3385
689.026	3314
689.065	3086
689.110	2786
689.146	2974
689.155	3030
689.201	3783
689.246	3410
689.267	3592
689.291	3763
689.336	3601
689.381	3391
689.388	3423
689.426	3507
689.471	3859
689.509	3482
689.516	3454
689.561	3446
689.606	3667
689.630	3860
689.651	3931
689.696	3789
689.741	3803
689.750	3830
689.785	3981
689.830	3816
689.871	3502
689.875	3466
689.920	4028
689.965	3192
689.992	3229
690.010	3393
690.054	3644
690.099	4147
690.112	4060
690.144	3519
690.189	3782
690.233	3287
690.233	3290
690.278	4015
690.323	4149
690.354	4213
690.367	4195
690.412	4516
690.457	4291
690.474	4241
690.501	4144
690.546	4278
690.590	4126
690.595	4174
690.635	4978
690.680	5440
690.716	5676
690.724	5759
690.769	6940
690.813	8019
690.836	8379
690.857	9251
690.902	11755
690.946	13459
690.957	14175
690.991	18449
691.035	24482
691.077	31680
691.080	31766
691.124	30602
691.168	25440
691.198	22077
691.213	20151
691.257	15644
691.301	11871
691.318	10410
691.346	9233
691.390	7752
691.434	6077
691.439	5887
691.478	5363
691.522	5689
691.559	5353
691.567	5305
691.611	5360
691.655	5123
691.680	5034
691.699	4920
691.743	4694
691.787	4478
691.800	4386
691.831	4392
691.875	4598
691.919	4510
691.921	4505
691.964	4444
692.008	4561
692.041	4446
692.052	4411
692.096	4267
692.139	4574
692.162	4448
692.183	4295
692.227	4374
692.271	3758
692.282	3815
692.315	4345
692.359	4766
692.402	5031
692.403	5040
692.447	5011
692.490	5771
692.523	5643
692.534	5476
692.578	5753
692.622	5381
692.643	5200
692.666	5082
692.709	4873
692.753	4691
692.763	4652
692.797	4754
692.840	5048
692.884	5164
692.884	5171
692.928	5257
692.971	4952
693.004	5005
693.015	5102
693.059	5193
693.102	5293
693.124	5321
693.146	5391
693.189	5954
693.233	5982
693.245	6052
693.276	6346
693.320	6759
693.363	7045
693.365	7052
693.407	7719
693.450	8837
693.485	9259
693.493	9587
693.537	11489
693.580	13385
693.605	14752
693.624	17027
693.667	22063
693.710	27259
693.725	29433
693.753	37360
693.797	50264
693.840	64547
693.845	66010
693.883	62006
693.926	52408
693.966	43793
693.970	42781
694.013	32955
694.056	24049
694.086	17785
694.099	16737
694.142	14214
694.185	11551
694.206	10477
694.229	10163
694.272	9215
694.315	8699
694.326	8437
694.358	7962
694.401	7821
694.444	7262
694.446	7224
694.487	7028
694.530	7043
694.566	7077
694.573	6998
694.616	6129
694.659	5538
694.686	5152
694.702	5211
694.745	5333
694.787	5378
694.806	5439
694.830	5494
694.873	5387
694.916	5417
694.926	5357
694.959	5167
695.002	5080
695.044	5064
695.046	5051
695.087	5118
695.130	5054
695.166	5392
695.172	5465
695.215	5056
695.258	5463
695.286	5448
695.301	5431
695.343	5412
695.386	5316
695.406	5332
695.428	5211
695.471	4899
695.514	4824
695.526	4630
695.556	4559
695.599	5021
695.641	5082
695.646	5106
695.684	5240
695.726	5189
695.766	5258
695.769	5251
695.811	4968
695.854	4630
695.886	4391
695.896	4461
695.938	4567
695.981	4818
696.005	4925
696.023	4987
696.065	5088
696.108	5362
696.125	5340
696.150	5193
696.192	5319
696.235	5036
696.245	5015
696.277	5259
696.319	5435
696.361	5621
696.365	5634
696.404	5748
696.446	5718
696.485	5784
696.488	5793
696.530	5653
696.572	5466
696.604	5498
696.614	5522
696.656	5227
696.698	5161
696.724	5063
696.740	5091
696.783	5179
696.825	5222
696.844	5297
696.867	5336
696.909	5148
696.951	5177
696.964	5137
696.992	5233
697.034	5359
697.076	5382
697.083	5402
697.118	5300
697.160	5040
697.202	4929
697.203	4910
697.244	4897
697.286	4995
697.323	4940
697.327	4963
697.369	5236
697.411	5311
697.442	5457
697.453	5517
697.494	5607
697.536	5827
697.562	5924
697.578	5932
697.620	5803
697.661	5803
697.682	5794
697.703	5802
697.744	5657
697.786	5680
697.801	5625
697.828	5742
697.869	5945
697.911	6114
697.921	6153
697.952	5805
697.994	5299
698.035	4822
698.040	4746
698.077	4667
698.118	4640
698.160	4527
698.160	4515
698.201	4991
698.243	5394
698.279	5763
698.284	5766
698.325	5673
698.367	5569
698.399	5466
698.408	5484
698.449	5513
698.491	5505
698.518	5548
698.532	5626
698.573	5756
698.614	5884
698.638	5953
698.656	5828
698.697	5498
698.738	5174
698.757	5000
698.779	5055
698.820	5144
698.862	5237
698.877	5262
698.903	5530
698.944	5927
698.985	6328
698.996	6425
699.026	6122
699.067	5679
699.116	5139
699.235	5781
699.354	6134
699.474	5242
699.593	6798
699.713	5877
699.832	6011
699.951	6091
700.070	6130
700.190	5999
700.309	6824
700.428	6740
700.547	5533
700.667	6873
700.786	6259
700.905	5913
701.024	6547
701.143	5358
701.262	5444
701.381	5322
701.500	5891
701.619	5964
701.738	5443
701.857	5306
701.976	5669
702.095	5405
702.214	6504
702.333	6107
702.452	6200
702.571	5835
702.690	4986
702.809	5598
702.928	4822
703.047	6042
703.165	4869
703.284	4959
703.403	5932
703.522	5952
703.640	6485
703.759	7937
703.878	9542
703.997	5419
704.115	5742
704.234	5210
704.353	5694
704.471	5905
704.590	5588
704.708	5540
704.827	5667
704.946	5472
705.064	5550
705.183	5059
705.301	6666
705.420	8966
705.538	7788
705.656	7406
705.775	8998
705.893	22423
706.012	18307
706.130	8485
706.249	7645
706.367	7453
706.485	7589
706.604	6580
706.722	7992
706.840	9292
706.958	9758
707.077	6973
707.195	7083
707.313	6900
707.431	6915
707.549	5918
707.668	6915
707.786	7022
707.904	6311
708.022	6478
708.140	5772
708.258	6444
708.376	6839
708.494	7279
708.612	7346
708.730	10295
708.848	8767
708.966	8496
709.084	7517
709.202	8551
709.320	8384
709.438	8121
709.556	7655
709.674	8651
709.791	8826
709.909	7496
710.027	7891
710.145	8293
710.263	8400
710.380	7987
710.498	7940
710.616	8331
710.733	7369
710.851	8419
710.969	8918
711.086	7619
711.204	8601
711.322	7940
711.439	8213
711.557	8638
711.674	8231
711.792	8660
711.909	10245
712.027	9326
712.144	8389
712.262	8291
712.379	9372
712.497	12455
712.614	11779
712.732	10645
712.849	10095
712.966	10094
713.084	12062
713.201	10027
713.318	10437
713.436	10271
713.553	9874
713.670	9930
713.787	12485
713.905	11204
714.022	10023
714.139	9361
714.256	10330
714.373	11625
714.490	14206
714.608	24321
714.725	80150
714.842	49960
714.959	11639
715.076	9592
715.193	9027
715.310	8499
715.427	9091
715.544	8083
715.661	8782
715.778	9008
715.895	10178
716.011	9387
716.128	8966
716.245	9811
716.362	10467
716.479	9464
716.596	8766
716.713	9136
716.829	8415
716.946	8632
717.063	8242
717.180	8655
717.296	8564
717.413	8864
717.530	8039
717.646	7398
717.763	7520
717.880	7456
717.996	8256
718.113	8526
718.229	7904
718.346	7329
718.462	8422
718.579	9499
718.695	12657
718.812	11669
718.928	10775
719.045	8242
719.161	7142
719.277	7439
719.394	7204
719.510	8192
719.626	7899
719.743	9014
719.859	9189
719.975	11308
720.092	25951
720.208	34374
720.324	10171
720.440	8661
720.557	9049
720.673	13268
720.789	20571
720.905	34265
721.021	10607
721.137	8371
721.253	7737
721.369	8789
721.486	9827
721.602	10827
721.718	7190
721.834	6352
721.950	6399
722.066	6580
722.181	7145
722.297	7842
722.413	6990
722.529	7827
722.645	7400
722.761	7123
722.877	5984
722.993	7870
723.108	6456
723.224	6719
723.340	6805
723.456	7048
723.571	8018
723.687	6456
723.803	6753
723.918	6154
724.034	6253
724.150	7468
724.265	8532
724.381	17095
724.497	14287
724.612	6462
724.728	6182
724.843	7053
724.959	8327
725.074	16872
725.190	12839
725.305	7515
725.421	6376
725.536	6082
725.651	6228
725.767	6639
725.882	6192
725.997	6448
726.113	6600
726.228	5615
726.343	5598
726.459	5822
726.574	5374
726.689	5969
726.804	6047
726.920	5366
727.035	6192
727.150	6490
727.265	6128
727.380	6094
727.495	6312
727.610	5638
727.725	6747
727.841	9234
727.956	18711
728.071	9813
728.186	5728
728.301	4533
728.416	7011
728.531	5606
728.645	4894
728.760	6979
728.875	6415
728.990	6732
729.105	5262
729.220	6165
729.335	6144
729.449	5562
729.564	5670
729.679	5617
729.794	5413
729.908	6876
730.023	5743
730.138	5016
730.253	5204
730.367	4956
730.482	4954
730.596	5454
730.711	5805
730.826	5602
730.940	5479
731.055	5270
731.169	5202
731.284	5092
731.398	4830
731.513	6316
731.627	5178
731.742	6366
731.856	6303
731.970	4774
732.085	5614
732.199	5579
732.313	6610
732.428	11300
732.542	22625
732.656	10613
732.771	5755
732.885	5663
732.999	5563
733.113	5578
733.227	5358
733.342	5034
733.456	4740
733.570	4799
733.684	4919
733.798	4769
733.912	4437
734.026	4082
734.140	5033
734.254	5634
734.368	10472
734.482	8370
734.596	4833
734.710	4320
734.824	3717
734.938	4448
735.052	4517
735.166	6105
735.280	4826
735.393	4574
735.507	5487
735.621	7629
735.735	10210
735.849	5209
735.962	4619
736.076	4859
736.190	4382
736.303	7779
736.417	7415
736.531	4687
736.644	4565
736.758	3925
736.872	4339
736.985	4185
737.099	4108
737.212	3750
737.326	4472
737.439	4407
737.553	4312
737.666	4380
737.780	3915
737.893	4375
738.007	3951
738.120	4223
738.233	4685
738.347	4412
738.460	4067
738.573	4453
738.687	4142
738.800	4744
738.913	5645
739.026	4821
739.140	5365
739.253	5134
739.366	4359
739.479	4022
739.592	4026
739.705	4231
739.818	4324
739.932	4517
740.045	4913
740.158	4812
740.271	4751
740.384	4611
740.497	4972
740.610	4622
740.723	4459
740.836	5301
740.949	4859
741.062	6288
741.174	5947
741.287	4567
741.400	4643
741.513	5457
741.626	5000
741.739	4719
741.851	3901
741.964	3731
742.077	3935
742.189	4648
742.302	6171
742.415	4575
742.527	5261
742.640	3908
742.753	3933
742.865	3632
742.978	4215
743.090	3865
743.203	3923
743.316	3955
743.428	3886
743.541	4151
743.653	3573
743.766	3924
743.878	4660
743.990	5996
744.103	5302
744.215	4864
744.327	4411
744.440	5257
744.552	6203
744.664	4605
744.777	4205
744.889	3452
745.001	5222
745.113	3235
745.226	3469
745.338	4581
745.450	3978
745.562	3458
745.674	3532
745.786	3560
745.898	4812
746.010	4344
746.122	3803
746.234	3804
746.347	4392
746.459	4305
746.570	4567
746.682	4766
746.794	6374
746.906	4173
747.018	4138
747.130	4032
747.242	4259
747.354	3185
747.466	4798
747.577	3360
747.689	3924
747.801	3907
747.913	3672
748.024	4079
748.136	3258
748.248	4796
748.359	4151
748.471	4450
748.583	4092
748.694	5730
748.806	6017
748.918	5378
749.029	3988
749.141	4770
749.252	4728
749.364	5206
749.475	7173
749.587	5740
749.698	3925
749.809	4923
749.921	4305
750.032	4285
750.144	4024
750.255	3087
750.366	3937
750.478	4265
750.589	3800
750.700	4280
750.811	4705
750.923	5762
751.034	7405
751.145	5771
751.256	4518
751.367	4770
751.479	4043
751.590	4283
751.701	4117
751.812	3452
751.923	3796
752.034	3958
752.145	4510
752.256	3096
752.367	4008
752.478	4790
752.589	4546
752.700	3988
752.811	4219
752.922	4107
753.032	3852
753.143	3995
753.254	4005
753.365	4042
753.476	4800
753.586	3786
753.697	4255
753.808	3579
753.919	3689
754.029	4477
754.140	4414
754.251	4109
754.361	3502
754.472	4563
754.582	4565
754.693	4384
754.804	3989
754.914	3858
755.025	4757
755.135	3468
755.246	4164
755.356	3791
755.466	5205
755.577	4726
755.687	4563
755.798	4218
755.908	4340
756.018	4623
756.129	4552
756.239	4999
756.349	5128
756.460	3798
756.570	5098
756.680	4000
756.790	5496
756.900	4739
757.011	3519
757.121	4688
757.231	4617
757.341	5127
757.451	4502
757.561	4575
757.671	4233
757.781	4954
757.891	5714
758.001	5212
758.111	5509
758.221	5481
758.331	6003
758.441	5530
758.551	6269
758.661	5939
758.771	6062
758.880	5704
758.990	5596
759.100	6292
759.210	5775
759.320	6207
759.429	5926
759.539	6164
759.649	5955
759.758	6550
759.868	6295
759.978	5642
760.087	7651
760.197	6530
760.307	6460
760.416	6833
760.526	7152
760.635	8295
760.745	7444
760.854	7041
760.964	7119
761.073	8170
761.182	8383
761.292	8453
761.401	7830
761.511	8374
761.620	7920
761.729	7985
761.839	9219
761.948	8605
762.057	9457
762.166	9106
762.276	7958
762.385	10853
762.494	10424
762.603	11783
762.712	11501
762.822	11944
762.931	12747
763.040	12093
763.149	12286
763.258	14187
763.367	15203
763.476	14550
763.585	16199
763.694	17120
763.803	17623
763.912	19029
764.021	19208
764.130	20789
764.238	22602
764.347	23547
764.456	26407
764.565	28407
764.674	29892
764.783	33562
764.891	36665
765.000	42943
765.109	47807
765.217	55762
765.326	67235
765.435	80842
765.543	98667
765.652	127166
765.761	168933
765.869	233202
765.978	346905
766.086	534305
766.195	840232
766.303	1097086
766.412	814181
766.520	1100160
766.629	965636
766.737	582153
766.846	367963
766.954	250219
767.062	182898
767.171	139349
767.279	106719
767.387	86293
767.496	72718
767.604	63233
767.712	55675
767.820	49763
767.928	46728
768.037	41525
768.145	40112
768.253	38791
768.361	36858
768.469	37060
768.577	39157
768.685	41811
768.793	45221
768.901	49722
769.009	58401
769.117	72058
769.225	94328
769.333	138703
769.441	216974
769.549	373112
769.657	678883
769.765	939055
769.873	884644
769.981	844232
770.088	429705
770.196	242607
770.304	158240
770.412	114882
770.519	87194
770.627	69005
770.735	56634
770.842	47088
770.950	41649
771.058	35009
771.165	33242
771.273	28849
771.380	25391
771.488	24145
771.595	21885
771.703	20072
771.810	18971
771.918	17084
772.025	16765
772.133	15455
772.240	14869
772.348	14629
772.455	13613
772.562	12793
772.670	12211
772.777	12837
772.884	11870
772.991	10649
773.099	11221
773.206	8852
773.313	10211
773.420	9213
773.528	8653
773.635	9276
773.742	8939
773.849	9165
773.956	8273
774.063	8633
774.170	7711
774.277	7905
774.384	7618
774.491	7592
774.598	7814
774.705	6738
774.812	7873
774.919	6836
775.026	6831
775.133	6774
775.239	7118
775.346	6170
775.453	5871
775.560	6228
775.667	6699
775.773	5620
775.880	6080
775.987	6047
776.093	6277
776.200	5474
776.307	5266
776.413	5932
776.520	4755
776.627	5426
776.733	5628
776.840	3887
776.946	6180
777.053	7676
777.159	10758
777.266	7052
777.372	9522
777.478	7847
777.585	6413
777.691	4443
777.798	4726
777.904	5730
778.010	7492
778.117	5369
778.223	4651
778.329	4848
778.435	4482
778.542	4608
778.648	3512
778.754	3737
778.860	4586
778.966	4726
779.072	4999
779.178	3784
779.284	4127
779.391	5024
779.497	4960
779.603	9338
779.708	14259
779.815	40063
779.920	152290
780.026	140111
780.132	14184
780.238	5979
780.344	5766
780.450	5785
780.556	4586
780.661	3876
780.767	4570
780.873	4015
780.979	4281
781.085	3489
781.190	3589
781.296	3038
781.402	3827
781.507	3306
781.613	3664
781.719	2599
781.824	2857
781.930	3573
782.035	3288
782.141	2963
782.246	3387
782.352	3386
782.457	2478
782.563	3009
782.668	3694
782.773	2669
782.879	3028
782.984	3598
783.090	4700
783.195	4485
783.300	3352
783.405	3123
783.511	3411
783.616	3807
783.721	3279
783.826	2839
783.932	3835
784.037	3202
784.142	3056
784.247	2919
784.352	3682
784.457	3068
784.562	3225
784.667	2522
784.772	2784
784.877	1852
784.982	3545
785.087	2167
785.192	3664
785.297	2356
785.402	2766
785.507	3019
785.611	2583
785.716	2917
785.821	2235
785.926	2361
786.031	2719
786.135	2704
786.240	2667
786.345	1669
786.450	2422
786.554	2398
786.659	2261
786.763	1616
786.868	3199
786.973	2606
787.077	1915
787.182	2337
787.286	2140
787.391	1717
787.495	2443
787.600	2031
787.704	1080
787.809	2131
787.913	1476
788.017	2745
788.122	1999
788.226	2110
788.330	1533
788.435	1327
788.539	2289
788.643	2356
788.747	2203
788.852	2235
788.956	1807
789.060	2042
789.164	2360
789.268	1723
789.372	2760
789.476	2020
789.580	1413
789.684	1072
789.788	2547
789.892	1329
789.996	2670
790.100	1900
790.204	2306
790.308	2117
790.412	1679
790.516	2372
790.620	2397
790.724	2222
790.828	1612
790.931	1565
791.035	3503
791.139	2662
791.242	708
791.346	2653
791.450	2136
791.554	1490
791.657	497
791.761	2680
791.864	2445
791.968	2068
792.072	1906
792.175	2152
792.279	1473
792.382	1547
792.486	1818
792.589	711
792.693	2150
792.796	662
792.899	1737
793.003	2121
793.106	615
793.209	2078
793.313	2724
793.416	880
793.519	3416
793.623	2968
793.726	2095
793.829	2098
793.932	2833
794.035	1440
794.138	3388
794.242	3687
794.345	4365
794.448	9271
794.551	21494
794.654	81389
794.757	78603
794.860	7900
794.963	3498
795.066	2146
795.169	3639
795.272	961
795.375	1910
795.477	1281
795.580	926
795.683	301
795.786	1119
795.889	1172
795.991	2274
796.094	2334
796.197	248
796.300	1777
796.402	857
796.505	328
796.608	1126
796.710	1985
796.813	1072
796.915	842
797.018	1763
797.120	870
797.223	238
797.326	2189
797.428	850
797.530	1091
797.633	1349
797.735	3172
797.838	2544
797.940	2321
798.042	735
798.145	1494
798.247	2102
798.349	-21
798.452	1857
798.554	1829
798.656	360
798.758	1846
798.860	1116
798.962	766
799.065	1015
799.167	306
799.269	1535
799.371	2132
799.473	2313
799.575	1352
799.677	1815
799.779	2823
799.881	1375
799.983	1730
800.085	1494
800.187	1458
800.289	686
800.390	1048
800.492	1050
800.594	2416
800.696	592
800.798	149
800.899	1224
801.001	1007
801.103	462
801.205	1856
801.306	1678
801.408	182
801.509	834
801.611	447
801.713	1260
801.814	549
801.916	826
802.017	660
802.119	192
802.220	1117
802.322	-508
802.423	3443
802.525	709
802.626	828
802.727	1263
802.829	1004
802.930	-485
803.031	1753
803.133	935
803.234	861
803.335	982
803.436	522
803.538	364
803.639	-244
803.740	1493
803.841	-41
803.942	1105
804.043	989
804.144	-408
804.245	178
804.346	100
804.447	117
804.548	1007
804.649	1891
804.750	607
804.851	14
804.952	621
805.053	797
805.154	-324
805.255	1766
805.355	764
805.456	850
805.557	832
805.658	-273
805.758	1130
805.859	936
805.960	630
806.061	-53
806.161	712
806.262	1136
806.362	1142
806.463	541
806.564	868
806.664	925
806.765	1030
806.865	507
806.966	51
807.066	633
807.166	735
807.267	1258
807.367	461
807.468	663
807.568	-358
807.668	896
807.769	1117
807.869	41
807.969	795
808.069	884
808.170	952
808.270	437
808.370	1319
808.470	1752
808.570	-14
808.670	107
808.770	-129
808.870	827
808.970	946
809.070	277
809.170	73
809.271	637
809.370	-47
809.470	707
809.570	57
809.670	-278
809.770	429
809.870	661
809.970	465
810.070	1013
810.169	926
810.269	-265
810.369	1082
810.469	100
810.568	884
810.668	180
810.768	-44
810.867	632
810.967	-484
811.066	1099
811.166	1154
811.265	902
811.365	477
811.464	597
811.564	1217
811.663	1410
811.763	-1
811.862	277
811.962	1441
812.061	802
812.160	-232
812.260	580
812.359	1812
812.458	2118
812.557	4788
812.657	3862
812.756	1116
812.855	1618
812.954	975
813.053	1484
813.153	1653
813.252	377
813.351	1291
813.450	488
813.549	1147
813.648	935
813.747	1194
813.846	931
813.945	597
814.044	1186
814.143	716
814.242	2099
814.341	790
814.439	2093
814.538	1381
814.637	1898
814.736	1689
814.835	2362
814.933	1463
815.032	1160
815.131	1520
815.229	1500
815.328	2054
815.427	2152
815.525	2280
815.624	1553
815.722	1857
815.821	2488
815.919	2425
816.018	2038
816.116	3261
816.215	2658
816.313	2734
816.412	3010
816.510	3939
816.609	3841
816.707	4219
816.805	3980
816.904	4201
817.002	5607
817.100	6892
817.198	8637
817.296	8511
817.395	9467
817.493	12889
817.591	14832
817.689	21965
817.787	31053
817.885	51144
817.983	92122
818.081	184301
818.179	387825
818.277	661082
818.375	456073
818.473	174253
818.571	84681
818.669	60222
818.767	53405
818.865	55920
818.963	70099
819.061	101495
819.158	170144
819.256	316655
819.354	588752
819.452	800381
819.549	530509
819.647	233277
819.745	115451
819.842	73031
819.940	51000
820.038	36353
820.135	28307
820.233	23869
820.330	17419
820.428	14375
820.525	13674
820.623	10007
820.720	8583
820.818	9056
820.915	8200
821.012	7160
821.110	5045
821.207	6409
821.304	5524
821.402	4817
821.499	4905
821.596	6866
821.693	3590
821.791	4378
821.888	3466
821.985	4769
822.082	3705
822.179	4077
822.276	2560
822.373	3082
822.470	2082
822.567	2719
822.664	1483
822.761	2815
822.858	864
822.955	2531
823.052	2521
823.149	1920
823.246	1131
823.343	2202
823.440	1742
823.536	1271
823.633	856
823.730	1323
823.827	1273
823.923	1258
824.020	2652
824.117	1314
824.213	1037
824.310	1848
824.407	241
824.503	1164
824.600	361
824.696	1078
824.793	1827
824.889	4
824.986	899
825.082	545
825.179	1700
825.275	935
825.371	-240
825.468	354
825.564	126
825.660	1375
825.757	350
825.853	942
825.949	586
826.045	37
826.142	397
826.238	100
826.334	269
826.430	101
826.526	889
826.622	-464
826.718	241
826.814	-218
826.910	1771
827.006	408
827.102	-501
827.198	1225
827.294	104
827.390	715
827.486	759
827.582	-575
827.678	-855
827.774	772
827.869	-466
827.965	859
828.061	-341
828.157	188
828.252	491
828.348	-211
828.444	642
828.539	-19
828.635	-197
828.731	794
828.826	-386
828.922	586
829.017	401
829.113	800
829.208	-239
829.304	-489
829.399	1386
829.495	-263
829.590	798
829.685	-188
829.781	176
829.876	-440
829.971	29
830.066	-333
830.162	55
830.257	-507
830.352	-770
830.447	449
830.543	418
830.638	-1099
830.733	1066
830.828	-339
830.923	159
831.018	232
831.113	-367
831.208	-309
831.303	231
831.398	151
831.493	-596
831.588	-277
831.683	-873
831.778	-29
831.873	-887
831.967	1089
832.062	-1241
832.157	-398
832.252	-241
832.346	-625
832.441	1275
832.536	133
832.631	2461
832.725	1064
832.820	-507
832.914	-574
833.009	-414
833.104	-449
833.198	280
833.293	-431
833.387	435
833.482	-181
833.576	203
833.670	505
833.765	-330
833.859	6
833.954	-148
834.048	-7
834.142	-222
834.237	-68
834.331	-114
834.425	169
834.519	-687
834.613	563
834.708	-186
834.802	504
834.896	226
834.990	-10
835.084	-72
835.178	-737
835.272	-72
835.366	-86
835.460	-36
835.554	186
835.648	174
835.742	-287
835.836	-889
835.930	-918
836.024	-337
836.117	252
836.211	-560
836.305	693
836.399	247
836.493	-896
836.586	-135
836.680	-448
836.774	-499
836.867	1256
836.961	-745
837.055	-675
837.148	-992
837.242	384
837.335	-820
837.429	-35
837.522	429
837.616	221
837.709	1704
837.803	-416
837.896	315
837.989	-129
838.083	876
838.176	2308
838.269	322
838.363	141
838.456	-551
838.549	775
838.642	902
838.735	2304
838.829	403
838.922	-1006
839.015	-785
839.108	-1125
839.201	-250
839.294	-352
839.387	-129
839.480	-208
839.573	675
839.666	-452
839.759	-407
839.852	-610
839.945	40
840.038	-484
840.131	-654
840.223	-162
840.316	27
840.409	-678
840.502	-697
840.594	144
840.687	-1669
840.780	-92
840.873	-852
840.965	853
841.058	857
841.150	2263
841.243	-108
841.336	-210
841.428	-974
841.521	-849
841.613	-561
841.706	-124
841.798	-1011
841.890	-384
841.983	-1212
842.075	396
842.167	-1062
842.260	151
842.352	521
842.444	483
842.537	2655
842.629	2926
842.721	-199
842.813	-152
842.905	-1076
842.997	-141
843.090	-477
843.182	1272
843.274	2775
843.366	6412
843.458	9693
843.550	4376
843.642	-307
843.734	123
843.826	-418
843.918	272
844.009	284
844.101	-382
844.193	-858
844.285	56
844.377	127
844.469	806
844.560	46
844.652	1072
844.744	-438
844.835	-684
844.927	-590
845.019	-333
845.110	-1085
845.202	-167
845.293	-66
845.385	-460
845.476	-139
845.568	-82
845.659	-833
845.751	111
845.842	-1380
845.934	-934
846.025	-363
846.116	29
846.208	-1110
846.299	-505
846.390	371
846.482	643
846.573	850
846.664	636
846.755	118
846.846	445
846.937	-1388
847.029	-434
847.120	-333
847.211	4
847.302	443
847.393	-1192
847.484	30
847.575	-743
847.666	-493
847.757	-279
847.847	316
847.938	410
848.029	-606
848.120	-582
848.211	-840
848.302	-875
848.392	-582
848.483	-102
848.574	-979
848.664	-632
848.755	-307
848.846	-582
848.936	-836
849.027	-555
849.118	-1146
849.208	-837
849.299	-19
849.389	-368
849.480	438
849.570	1037
849.661	2631
849.751	3244
849.841	-15
849.932	-294
850.022	-1253
850.112	-519
850.203	-1302
850.293	-348
850.383	-902
850.474	-1445
850.564	-770
850.654	37
850.744	-127
850.834	-152
850.924	-208
851.014	-565
851.104	-66
851.194	-580
851.284	-450
851.374	89
851.464	-675
851.554	-429
851.644	-731
851.734	505
851.824	-168
851.914	402
852.004	1369
852.094	1459
852.183	-102
852.273	-460
852.363	-877
852.452	-332
852.542	-772
852.632	-474
852.721	-550
852.811	-319
852.901	-455
852.990	49
853.080	-1296
853.169	-599
853.259	-1223
853.348	-858
853.438	-1139
853.527	418
853.617	-548
853.706	1589
853.795	1505
853.885	5026
853.974	10194
854.063	21630
854.152	26720
854.242	7394
854.331	1120
854.420	-119
854.509	-144
854.598	-710
854.687	-348
854.777	1022
854.866	-587
854.955	530
855.044	-719
855.133	-315
855.222	-284
855.311	-423
855.400	106
855.488	-752
855.577	-406
855.666	-587
855.755	225
855.844	763
855.933	-539
856.021	6
856.110	-192
856.199	-541
856.288	-366
856.376	-998
856.465	-1228
856.554	-1041
856.642	-729
856.731	-645
856.819	-521
856.908	-291
856.996	-813
857.085	-311
857.173	-64
857.262	-1351
857.350	-813
857.438	-103
857.527	-855
857.615	-922
857.703	-939
857.792	-800
857.880	-1402
857.968	-916
858.056	-1343
858.145	-709
858.233	-408
858.321	-945
858.409	-415
858.497	-524
858.585	-465
858.673	-24
858.761	-846
858.849	-851
858.937	-870
859.025	-269
859.113	-473
859.201	-1785
859.289	-598
859.377	60
859.465	-662
859.552	-252
859.640	-1440
859.728	-1308
859.816	-632
859.903	-102
859.991	-1511
860.079	-266
860.166	-660
860.254	-879
860.342	-740
860.429	-1017
860.517	-1432
860.604	-958
860.692	-1106
860.779	-1383
860.867	-1466
860.954	-1604
861.042	-642
861.129	-592
861.216	-905
861.304	-696
861.391	-945
861.478	-617
861.565	-996
861.653	-647
861.740	-1464
861.827	-575
861.914	-381
862.001	-759
862.089	-884
862.176	-487
862.263	-438
862.350	-962
862.437	-1121
862.524	-471
862.611	-1193
862.698	-518
862.785	-1056
862.871	-577
862.958	-1127
863.045	-987
863.132	-783
863.219	-709
863.306	-1953
863.392	83
863.479	-1414
863.566	-1409
863.652	-217
863.739	-1408
863.826	-742
863.912	-1938
863.999	-989
864.086	-469
864.172	-1353
864.259	-489
864.345	-176
864.432	-528
864.518	-713
864.604	-956
864.691	-1379
864.777	-1375
864.863	-949
864.950	-292
865.036	-1200
865.122	-625
865.209	-584
865.295	-859
865.381	-993
865.467	-315
865.553	-292
865.639	433
865.726	299
865.812	1062
865.898	4715
865.984	6328
866.070	14291
866.156	10959
866.242	1185
866.328	-312
866.414	-818
866.499	213
866.585	-1049
866.671	181
866.757	-567
866.843	-510
866.928	-845
867.014	-799
867.100	-754
867.186	-1226
867.271	-68
867.357	-108
867.442	-515
867.528	-249
867.614	-416
867.699	-361
867.785	232
867.870	-1004
867.956	-117
868.041	27
868.127	-419
868.212	-630
868.297	-29
868.383	-169
868.468	169
868.553	770
868.639	530
868.724	2640
868.809	1068
868.894	-339
868.979	-822
869.065	-930
869.150	-471
869.235	-945
869.320	-1149
869.405	-276
869.490	-984
869.575	-911
869.660	-955
869.745	-683
869.830	-1434
869.915	-988
870.000	-941
870.085	-348
870.169	-1060
870.254	-303
870.339	-1363
870.424	-870
870.509	-449
870.593	-1054
870.678	-514
870.763	-1150
870.847	-842
870.932	-1001
871.016	-922
871.101	-918
871.186	-1061
871.270	-846
871.355	-449
871.439	-413
871.523	-685
871.608	-172
871.692	-947
871.777	-352
871.861	-1024
871.945	-1187
872.030	-668
872.114	-857
872.198	-1427
872.282	-1447
872.367	-1540
872.451	-1414
872.535	-1662
872.619	-670
872.703	-870
872.787	44
872.871	-1252
872.955	-1255
873.039	-1220
873.123	-399
873.207	-545
873.291	-975
873.375	-565
873.459	-1208
873.543	-560
873.627	-1036
873.711	-516
873.794	-741
873.878	-662
873.962	-1166
874.045	-1398
874.129	-1126
874.137	-1119
874.213	-1051
874.245	-1208
874.296	-1467
874.352	-998
874.380	-768
874.460	-941
874.464	-948
874.547	-946
874.568	-803
874.631	-377
874.676	-465
874.714	-557
874.784	31
874.798	151
874.881	649
874.892	557
874.965	-92
874.999	-262
875.048	-489
875.107	-704
875.131	-801
875.215	-271
875.215	-271
875.298	-632
875.323	-700
875.381	-877
875.430	-351
875.465	62
875.538	-627
875.548	-732
875.631	-1151
875.646	-1108
875.714	-868
875.753	-746
875.798	-639
875.861	-967
875.881	-1052
875.964	-740
875.968	-743
876.047	-873
876.076	-806
876.130	-658
876.183	-46
876.213	298
876.291	0
876.296	-17
876.379	-353
876.398	-481
876.462	-955
876.506	-699
876.545	-494
876.613	-797
876.628	-861
876.711	-1044
876.721	-912
876.794	217
876.828	-49
876.877	-427
876.935	-333
876.960	-321
877.043	-368
877.043	-367
877.125	53
877.150	-85
877.208	-287
877.258	74
877.291	271
877.365	470
877.374	503
877.456	499
877.472	393
877.539	-68
877.579	104
877.622	187
877.687	-15
877.704	-26
877.787	203
877.794	197
877.869	167
877.901	201
877.952	222
878.008	110
878.034	55
878.115	297
878.117	300
878.199	-622
878.222	-465
878.282	217
878.329	228
878.364	164
878.437	466
878.447	499
878.529	-127
878.544	-84
878.611	213
878.651	205
878.694	226
878.758	275
878.776	260
878.858	96
878.865	98
878.941	41
878.972	-118
879.023	-283
879.078	-168
879.105	-6
879.185	484
879.187	488
879.269	255
879.292	125
879.351	-121
879.399	-9
879.433	-62
879.506	-360
879.516	-340
879.598	99
879.613	74
879.680	59
879.720	211
879.762	183
879.827	6
879.844	-53
879.926	-126
879.933	-161
880.007	-220
880.040	-137
880.089	-2
880.147	-76
880.171	-56
880.253	1655
880.254	1654
880.335	1716
880.360	1973
880.417	3315
880.467	4444
880.499	5004
880.574	5747
880.580	5543
880.662	1446
880.680	819
880.744	186
880.787	12
880.825	177
880.893	332
880.907	280
880.989	25
881.000	-35
881.070	184
881.106	218
881.152	162
881.213	355
881.233	302
881.315	-61
881.319	-64
881.396	635
881.426	568
881.478	33
881.532	-206
881.559	-61
881.639	31
881.641	25
881.722	539
881.745	510
881.803	383
881.852	-45
881.885	-169
881.958	253
881.966	300
882.047	503
882.064	523
882.129	580
882.171	616
882.210	1026
882.277	1946
882.291	1894
882.372	1494
882.383	1275
882.454	-102
882.489	-197
882.535	178
882.596	155
882.616	100
882.697	346
882.702	356
882.778	737
882.808	770
882.859	671
882.914	625
882.940	497
883.020	-459
883.021	-455
883.102	469
883.127	593
883.183	556
883.233	511
883.264	457
883.339	513
883.345	519
883.426	202
883.445	197
883.507	520
883.551	570
883.587	525
883.657	564
883.668	601
883.749	866
883.763	859
883.830	126
883.869	-78
883.910	181
883.975	508
883.991	543
884.072	373
884.081	374
884.152	690
884.187	715
884.233	279
884.292	-51
884.314	86
884.394	23
884.398	55
884.475	482
884.504	380
884.555	120
884.610	133
884.636	148
884.716	-32
884.716	-25
884.797	403
884.821	465
884.877	555
884.927	769
884.958	781
885.033	270
885.038	251
885.118	471
885.139	395
885.199	518
885.244	775
885.279	825
885.350	968
885.359	974
885.439	817
885.456	752
885.520	889
885.561	957
885.600	1009
885.667	1201
885.680	1163
885.760	1014
885.773	947
885.840	798
885.878	773
885.920	1098
885.984	1424
886.000	1300
886.080	767
886.089	682
886.160	627
886.195	704
886.240	997
886.300	1262
886.320	1226
886.400	1051
886.406	1047
886.480	1184
886.511	1115
886.560	1095
886.616	1039
886.640	938
886.720	643
886.722	630
886.800	484
886.827	405
886.879	995
886.932	1544
886.959	1235
887.038	518
887.039	533
887.119	1032
887.143	1286
887.198	1378
887.248	1270
887.278	1338
887.354	1385
887.358	1360
887.437	842
887.459	708
887.517	1244
887.564	1674
887.596	1560
887.669	1008
887.676	1000
887.755	1050
887.774	1013
887.835	904
887.880	966
887.914	934
887.985	587
887.994	618
888.073	972
888.090	1022
888.153	1143
888.195	1286
888.232	1242
888.300	1112
888.311	1223
888.391	1816
888.405	1935
888.470	2088
888.510	2141
888.549	1692
888.615	957
888.628	938
888.708	702
888.720	687
888.787	1428
888.825	1718
888.866	1337
888.930	827
888.945	1115
889.024	2635
889.035	2822
889.103	1511
889.140	779
889.182	755
889.245	740
889.261	808
889.340	1116
889.349	1144
889.419	1247
889.454	1295
889.498	1165
889.559	968
889.577	1089
889.656	1598
889.664	1644
889.735	1435
889.768	1323
889.814	1772
889.873	2358
889.978	1126
890.083	1283
890.187	1665
890.292	1302
890.397	648
890.501	2134
890.606	743
890.710	1912
890.815	1388
890.919	783
891.024	1699
891.128	1483
891.233	1458
891.337	964
891.442	1098
891.546	1987
891.650	1455
891.755	1730
891.859	2655
891.963	1575
892.068	755
892.172	1400
892.276	1291
892.380	521
892.484	1342
892.589	1395
892.693	826
892.797	1048
892.901	1382
893.005	1029
893.109	1261
893.213	343
893.317	1366
893.421	434
893.525	546
893.629	768
893.733	1526
893.837	1384
893.941	930
894.045	2129
894.148	1729
894.252	3885
894.356	2444
894.460	1048
894.564	1229
894.667	963
894.771	1313
894.875	673
894.978	572
895.082	619
895.186	1556
895.289	1292
895.393	818
895.496	720
895.600	976
895.703	686
895.807	906
895.910	471
896.014	617
896.117	-61
896.221	1035
896.324	884
896.427	498
896.531	588
896.634	884
896.737	698
896.840	1005
896.944	162
897.047	866
897.150	211
897.253	984
897.356	1767
897.460	1102
897.563	805
897.666	442
897.769	515
897.872	815
897.975	1295
898.078	261
898.181	1090
898.284	662
898.387	1208
898.490	755
898.593	564
898.695	880
898.798	1412
898.901	321
899.004	895
899.107	550
899.209	807
899.312	395
899.415	987
899.518	-19
899.620	466
899.723	1552
899.826	3072
899.928	2336
900.031	1126
900.133	611
900.236	-294
900.338	531
900.441	576
900.543	272
900.646	444
900.748	16
900.851	1151
900.953	529
901.055	668
901.158	858
901.260	444
901.362	1191
901.465	-305
901.567	151
901.669	648
901.771	1471
901.873	908
901.976	282
902.078	628
902.180	389
902.282	397
902.384	1246
902.486	1157
902.588	1362
902.690	1354
902.792	495
902.894	1140
902.996	-327
903.098	386
903.200	708
903.302	573
903.404	258
903.505	28
903.607	838
903.709	512
903.811	996
903.913	1192
904.014	233
904.116	880
904.218	639
904.319	258
904.421	1982
904.523	706
904.624	451
904.726	599
904.827	814
904.929	695
905.030	627
905.132	1317
905.233	384
905.335	1410
905.436	785
905.537	105
905.639	1125
905.740	1347
905.841	486
905.943	1297
906.044	943
906.145	185
906.247	216
906.348	481
906.449	790
906.550	250
906.651	59
906.752	354
906.854	760
906.955	668
907.056	303
907.157	263
907.258	471
907.359	484
907.460	792
907.561	550
907.662	-533
907.762	144
907.863	778
907.964	313
908.065	708
908.166	-63
908.267	349
908.367	944
908.468	466
908.569	1319
908.670	890
908.770	1985
908.871	1807
908.971	817
909.072	1265
909.173	594
909.273	328
909.374	674
909.474	290
909.575	916
909.675	-274
909.776	704
909.876	36
909.977	393
910.077	1151
910.177	33
910.278	777
910.378	454
910.478	467
910.579	439
910.679	324
910.779	601
910.879	-101
910.980	-264
911.080	295
911.180	-384
911.280	1101
911.380	848
911.480	536
911.580	152
911.680	1129
911.780	1151
911.880	827
911.980	-655
912.080	249
912.180	-78
912.280	928
912.380	326
912.480	753
912.580	444
912.679	-359
912.779	721
912.879	265
912.979	283
913.078	925
913.178	865
913.278	629
913.377	-124
913.477	718
913.577	-52
913.676	659
913.776	654
913.875	500
913.975	696
914.074	-148
914.174	335
914.273	-83
914.373	788
914.472	166
914.572	318
914.671	398
914.770	-99
914.870	36
914.969	163
915.068	52
915.167	-247
915.267	815
915.366	289
915.465	623
915.564	510
915.663	-272
915.763	520
915.862	304
915.961	59
916.060	169
916.159	114
916.258	271
916.357	336
916.456	1560
916.555	449
916.654	1154
916.752	234
916.851	-159
916.950	746
917.049	403
917.148	-40
917.247	398
917.345	952
917.444	-95
917.543	1196
917.642	519
917.740	580
917.839	-180
917.937	474
918.036	417
918.135	168
918.233	526
918.332	337
918.430	713
918.529	272
918.627	81
918.726	681
918.824	67
918.923	-1
919.021	725
919.119	69
919.218	-104
919.316	116
919.414	-9
919.512	-96
919.611	736
919.709	155
919.807	656
919.905	560
920.003	757
920.102	396
920.200	312
920.298	895
920.396	-319
920.494	1019
920.592	-242
920.690	209
920.788	873
920.886	-339
920.984	304
921.082	-391
921.180	1167
921.277	1025
921.375	132
921.473	142
921.571	467
921.669	39
921.766	619
921.864	681
921.962	19
922.060	849
922.157	397
922.255	713
922.352	183
922.450	421
922.548	496
922.645	216
922.743	462
922.840	653
922.938	517
923.035	704
923.133	744
923.230	297
923.327	1123
923.425	746
923.522	830
923.619	530
923.717	-119
923.814	488
923.911	-226
924.008	785
924.106	815
924.203	-53
924.300	-539
924.397	373
924.494	1241
924.591	151
924.688	310
924.786	610
924.883	454
924.979	10
925.077	604
925.173	171
925.270	-8
925.367	701
925.464	744
925.561	891
925.658	958
925.755	1030
925.852	926
925.948	1277
926.045	1049
926.142	1363
926.239	874
926.335	1472
926.432	1207
926.529	903
926.625	1245
926.722	1249
926.818	312
926.915	252
927.011	886
927.108	997
927.204	1131
927.301	666
927.397	383
927.494	238
927.590	-88
927.687	1030
927.783	488
927.879	513
927.976	680
928.072	252
928.168	378
928.264	94
928.361	488
928.457	-62
928.553	823
928.649	282
928.745	912
928.841	171
928.937	794
929.033	668
929.129	808
929.225	-166
929.321	438
929.417	-61
929.513	57
929.609	166
929.705	441
929.801	836
929.897	463
929.993	118
930.089	1157
930.184	865
930.280	694
930.376	709
930.471	295
930.567	891
930.663	796
930.758	-217
930.854	409
930.950	685
931.045	529
931.141	279
931.236	658
931.332	353
931.427	-359
931.523	-170
931.618	1118
931.714	487
931.809	627
931.905	1128
932.000	-556
932.095	-246
932.191	474
932.286	327
932.381	-107
932.476	-369
932.572	51
932.667	272
932.762	442
932.857	285
932.952	1067
933.047	14
933.142	333
933.237	115
933.332	448
933.427	653
933.522	479
933.617	327
933.712	678
933.807	223
933.902	-902
933.997	-169
934.092	-168
934.187	194
934.282	485
934.376	230
934.471	-58
934.566	-46
934.661	117
934.755	240
934.850	-64
934.945	903
935.039	526
935.134	33
935.228	-249
935.323	-197
935.417	145
935.512	665
935.606	-207
935.701	156
935.795	-776
935.890	523
935.984	992
936.079	-102
936.173	748
936.267	247
936.362	101
936.456	201
936.550	-29
936.644	30
936.738	198
936.833	-111
936.927	1259
937.021	1
937.115	-65
937.209	-20
937.303	539
937.397	-44
937.491	955
937.585	195
937.679	-879
937.773	-918
937.867	-314
937.961	329
938.055	545
938.149	9
938.243	-24
938.337	-486
938.430	462
938.524	436
938.618	1181
938.712	930
938.805	248
938.899	923
938.993	458
939.086	454
939.180	1111
939.274	1254
939.367	439
939.461	726
939.554	1022
939.648	-611
939.741	-206
939.835	952
939.928	-488
940.022	89
940.115	-316
940.208	272
940.302	642
940.395	334
940.488	-660
940.582	901
940.675	-292
940.768	629
940.861	697
940.954	855
941.048	-3
941.141	567
941.234	131
941.327	2061
941.420	1882
941.513	1052
941.606	79
941.699	697
941.792	815
941.885	531
941.978	326
942.071	344
942.164	-439
942.257	143
942.349	242
942.442	529
942.535	-797
942.628	72
942.721	-39
942.813	-550
942.906	331
942.999	376
943.091	-291
943.184	-51
943.277	257
943.369	263
943.462	530
943.554	178
943.647	67
943.739	720
943.832	-76
943.924	-1269
944.017	-294
944.109	-598
944.201	325
944.294	340
944.386	53
944.478	-535
944.571	487
944.663	-559
944.755	-327
944.847	-666
944.940	-190
945.032	-756
945.124	-652
945.216	861
945.308	832
945.400	35
945.492	260
945.584	-1008
945.676	779
945.768	-679
945.860	1031
945.952	-365
946.044	695
946.136	257
946.228	-499
946.320	-1
946.412	246
946.503	-647
946.595	802
946.687	201
946.779	-815
946.870	744
946.962	294
947.054	-50
947.145	619
947.237	100
947.329	-1
947.420	-494
947.512	-80
947.603	-723
947.695	177
947.786	-340
947.878	-284
947.969	-481
948.061	-825
948.152	233
948.243	491
948.335	31
948.426	-220
948.517	-615
948.609	192
948.700	-438
948.791	-531
948.882	-361
948.973	-496
949.065	134
949.156	-102
949.247	-987
949.338	238
949.429	-550
949.520	-379
949.611	-733
949.702	-38
949.793	991
949.884	-294
949.975	-997
950.066	198
950.157	-630
950.247	-129
950.338	-293
950.429	-570
950.520	323
950.611	-676
950.701	-245
950.792	493
950.883	190
950.973	-279
951.064	202
951.155	470
951.245	422
951.336	117
951.427	51
951.517	1023
951.608	648
951.698	113
951.788	-631
951.879	-72
951.969	-20
952.060	44
952.150	-87
952.240	443
952.331	-1246
952.421	1665
952.511	429
952.602	340
952.692	-750
952.782	25
952.872	-209
952.962	-371
953.052	-220
953.143	-183
953.233	554
953.323	542
953.413	-330
953.503	686
953.593	-372
953.683	-339
953.773	-791
953.863	549
953.953	-278
954.042	-28
954.132	-290
954.222	412
954.312	289
954.402	89
954.492	1155
954.581	1215
954.671	-584
954.761	-453
954.850	1102
954.940	466
955.030	218
955.119	161
955.209	40
955.298	-373
955.388	12
955.477	665
955.567	-411
955.656	912
955.746	336
955.835	244
955.925	-1002
956.014	-362
956.103	-442
956.193	-95
956.282	330
956.371	-262
956.461	270
956.550	-153
956.639	-82
956.728	-721
956.817	430
956.906	245
956.995	1108
957.085	-22
957.174	-307
957.263	640
957.352	304
957.441	404
957.530	-583
957.619	631
957.708	-42
957.796	232
957.885	95
957.974	323
958.063	357
958.152	28
958.241	-199
958.329	791
958.418	432
958.507	-456
958.596	1021
958.684	-636
958.773	232
958.861	1372
958.950	1110
959.039	1181
959.127	593
959.216	903
959.304	723
959.393	706
959.481	1704
959.570	1622
959.658	869
959.746	678
959.835	2875
959.923	2616
960.011	698
960.100	1566
960.188	-9
960.276	-247
960.365	303
960.453	236
960.541	363
960.629	1113
960.717	607
960.805	-338
960.893	319
960.981	-378
961.069	1058
961.158	432
961.245	805
961.333	214
961.421	-424
961.509	234
961.597	-394
961.685	167
961.773	-240
961.861	-68
961.949	-127
962.036	-496
962.124	-84
962.212	-820
962.299	-476
962.387	-934
962.475	-157
962.562	-369
962.650	298
962.738	-448
962.825	69
962.913	-230
963.000	-689
963.088	-418
963.175	96
963.263	9
963.350	39
963.438	-20
963.525	905
963.612	2938
963.700	7897
963.787	9943
963.874	1899
963.962	-25
964.049	-423
964.136	-150
964.223	-1103
964.310	-345
964.398	-216
964.485	-440
964.572	487
964.659	1100
964.746	639
964.833	-303
964.920	24
965.007	-134
965.094	365
965.181	-335
965.268	-192
965.355	-1195
965.441	-655
965.528	-1154
965.615	540
965.702	-143
965.789	-964
965.875	-525
965.962	-1003
966.049	-1044
966.136	-67
966.222	193
966.309	-1325
966.395	-120
966.482	-19
966.569	-727
966.655	-950
966.742	-575
966.828	-1125
966.915	2
967.001	-19
967.087	-946
967.174	-731
967.260	761
967.347	1991
967.433	4891
967.519	5702
967.605	505
967.692	-699
967.778	-396
967.864	-747
967.950	-653
968.036	-603
968.123	-1185
968.209	-1002
968.295	-1536
968.381	353
968.467	-535
968.553	-1489
968.639	137
968.725	147
968.811	303
968.897	-279
968.983	-586
969.069	-1020
969.154	-493
969.240	-84
969.326	-1433
969.412	-688
969.497	-1079
969.583	-701
969.669	-45
969.755	-751
969.840	-411
969.926	-480
970.012	-515
970.097	490
970.183	148
970.268	-775
970.354	904
970.439	2512
970.525	3205
970.610	-1015
970.696	-171
970.781	-843
970.866	-2450
970.952	-444
971.037	-959
971.122	-797
971.208	-314
971.293	-424
971.378	-1266
971.463	-1219
971.549	-548
971.634	-807
971.719	-333
971.804	-956
971.889	823
971.974	-362
972.059	-1345
972.144	-433
972.229	-305
972.314	-1675
972.399	17
972.484	-1218
972.569	132
972.654	-35
972.739	1926
972.824	60
972.908	-673
972.993	-1194
973.078	-1583
973.163	-514
973.247	-56
973.332	-2240
973.417	203
973.501	-1434
973.586	-1051
973.671	-643
973.755	-737
973.840	-496
973.924	-152
974.009	-827
974.093	-974
974.178	1299
974.262	547
974.346	-182
974.431	-1162
974.515	-489
974.600	-1603
974.684	-645
974.768	-493
974.852	-211
974.937	-1634
975.021	-444
975.105	-1279
975.189	-1486
975.273	546
975.358	-1349
975.442	-1652
975.526	367
975.610	-1412
975.694	-1762
975.778	-518
975.862	-445
975.946	-2367
976.030	366
976.114	-1091
976.198	-1431
976.281	-388
976.365	-667
976.449	-1358
976.533	-1144
976.617	-1975
976.700	-1521
976.784	-728
976.868	-92
976.951	425
977.035	-775
977.119	-741
977.202	-497
977.286	-597
977.369	-928
977.453	-524
977.536	-553
977.620	-940
977.703	-578
977.787	-1258
977.870	-413
977.953	561
978.037	-1403
978.120	669
978.203	637
978.287	1048
978.370	-785
978.453	-1581
978.536	-200
978.620	703
978.703	-732
978.786	-457
978.869	-1114
978.952	-1624
979.035	-9
979.118	-985
979.201	-1106
979.284	-408
979.367	-1075
979.450	-1013
979.533	-1217
979.616	-1018
979.699	-730
979.782	42
979.865	-776
979.948	-1793
980.030	-1769
980.113	-492
980.196	-1753
980.279	-275
980.361	-463
980.444	-1403
980.526	-978
980.609	-1406
980.692	-1106
980.774	-1209
980.857	-1909
980.939	482
981.022	-851
981.104	-1402
981.187	-1583
981.269	-448
981.352	-1384
981.434	-1984
981.516	-1100
981.599	90
981.681	-201
981.763	-332
981.846	-810
981.928	-1051
982.010	-1561
982.092	-977
982.174	-556
982.256	-827
982.339	-864
982.421	-794
982.503	-72
982.585	-1746
982.667	-694
982.749	-961
982.831	-1163
982.913	-1666
982.995	252
983.077	-1378
983.158	409
983.240	-1720
983.322	-707
983.404	-397
983.486	-1234
983.568	-597
983.649	-827
983.731	-295
983.813	-1762
983.894	-516
983.976	-1422
984.058	-1377
984.139	-434
984.221	-1669
984.302	-332
984.384	-689
984.465	-1295
984.547	-628
984.628	-1552
984.710	-17
984.791	-1312
984.872	-816
984.954	-460
985.035	-887
985.116	-1446
985.198	-1025
985.279	63
985.360	-1643
985.441	-1535
985.522	-216
985.604	-948
985.685	-2640
985.766	348
985.847	52
985.928	-1151
986.009	-1556
986.090	-1112
986.171	-518
986.252	-1249
986.333	-1277
986.414	-494
986.495	-247
986.576	-1821
986.656	-1529
986.737	-738
986.818	220
986.899	-1519
986.980	-688
987.060	-517
987.141	-2290
987.222	-1065
987.302	-808
987.383	-1080
987.464	-1584
987.544	-585
987.625	-1145
987.705	-906
987.786	-1355
987.866	-933
987.947	-1566
988.027	-968
988.108	-1174
988.188	-789
988.268	-595
988.349	-601
988.429	-2018
988.509	-1116
988.589	-1558
988.670	-2845
988.750	-303
988.830	-1168
988.910	-1280
988.990	-704
989.070	-662
989.151	-807
989.231	-1592
989.311	-594
989.391	-1582
989.471	-787
989.551	-541
989.631	-963
989.711	-377
989.791	-1172
989.870	-1604
989.950	-872
990.030	-1910
990.110	-1016
990.190	-688
990.269	-1508
990.349	-970
990.429	-1266
990.509	-362
990.588	-1009
990.668	-1002
990.747	-1640
990.827	-1001
990.907	-1290
990.986	-585
991.066	-1883
991.145	-1096
991.225	-1134
991.304	-1214
991.383	-1244
991.463	-1755
991.542	-78
991.622	-756
991.701	-1930
991.780	-885
991.859	-1693
991.939	-1049
992.018	-949
992.097	-725
992.176	-2017
992.256	-1053
992.335	-1596
992.414	-531
992.493	-1089
992.572	-637
992.651	-669
992.730	-1574
992.809	-321
992.888	-1019
992.967	-1948
993.046	-534
993.125	-1429
993.203	-1180
993.282	-767
993.361	-1319
993.440	-1006
993.519	-2058
993.597	-1110
993.676	-1010
993.755	-479
993.834	-1339
993.912	-2741
993.991	-627
994.069	-1214
994.148	-1551
994.226	-1263
994.305	-636
994.384	-1695
994.462	462
994.540	-1617
994.619	-1509
994.697	-833
994.776	-1666
994.854	-1433
994.932	-1433
995.011	-1044
995.089	-1423
995.167	-1407
995.245	-1260
995.324	-1838
995.402	-671
995.480	-1010
995.558	-702
995.636	-2228
995.714	-2029
995.792	-640
995.870	-1675
995.948	-547
996.026	-923
996.104	-2191
996.182	-556
996.260	-1916
996.338	-1107
996.416	-1908
996.494	-2068
996.572	-617
996.649	-1679
996.727	-2197
996.805	-761
996.883	-1099
996.960	-1195
997.038	-782
997.116	-1149
997.193	-2295
997.271	-877
997.348	-1818
997.426	-758
997.504	-2353
997.581	-446
997.658	-1127
997.736	-2252
997.813	-2309
997.891	-1856
997.968	-1854
998.046	-2223
998.123	-1297
998.200	-447
998.277	-1635
998.355	-832
998.432	-2234
998.509	-1325
998.586	-349
998.663	-1419
998.741	-1010
998.818	-1019
998.895	-2479
998.972	-1470
999.049	-1628
999.126	-2258
999.203	-663
999.280	-1063
999.357	-904
999.434	-1368
999.511	-1380
999.587	-1434
999.664	-1609
999.741	-1327
999.818	-1050
999.895	-1754
999.971	-2033
1000.048	-1784
1000.125	-696
1000.202	-2327
1000.278	-2026
1000.355	-1304
1000.431	-1852
1000.508	-1361
1000.584	-787
1000.661	-819
1000.738	-2260
1000.814	-1994
1000.890	-1828
1000.967	-2254
1001.043	-1159
1001.120	-2598
1001.196	-1148
1001.272	-2093
1001.349	-1268
1001.425	-680
1001.501	-1673
1001.577	-2304
1001.654	-2419
1001.730	-1409
1001.806	-1507
1001.882	-2485
1001.958	-2283
1002.034	-1183
1002.110	-1158
1002.186	-1156
1002.262	-1926
1002.338	-1870
1002.414	-1114
1002.490	-598
1002.566	-2138
1002.642	-1541
1002.718	-824
1002.794	-1649
1002.870	-1781
1002.945	-1659
1003.021	-1845
1003.097	-1155
1003.173	-337
1003.248	-1851
1003.324	-2338
1003.400	-597
1003.475	-1534
1003.551	-1371
1003.626	-1641
1003.702	-1877
1003.777	-1650
1003.853	-1658
1003.928	-2042
1004.004	-1883
1004.079	-1837
1004.155	-1539
1004.230	-3193
1004.305	-1012
1004.381	-1249
1004.456	-1410
1004.531	-2297
1004.607	-1400
1004.682	-1543
1004.757	-1249
1004.832	-1849
1004.907	-1919
1004.982	-720
1005.057	-1359
1005.133	-2090
1005.208	-2018
1005.283	-1985
1005.358	-1232
1005.433	-2546
1005.508	-1116
1005.583	-2788
1005.657	-1952
1005.732	-1086
1005.807	-2374
1005.882	-2177
1005.957	-1658
1006.032	-1569
1006.106	-1602
1006.181	-2174
1006.256	-2082
1006.331	-2600
1006.405	-2081
1006.480	-2286
1006.554	-1861
1006.629	-1698
1006.704	-1559
1006.778	-1700
1006.853	-1247
1006.927	-1643
1007.002	-2053
1007.076	-1719
1007.150	-1310
1007.225	-1343
1007.299	-1697
1007.373	-1803
1007.448	-2679
1007.522	-1972
1007.596	-1661
1007.671	-2498
1007.745	-1002
1007.819	-2373
1007.893	-2226
1007.967	-1247
1008.041	-2532
1008.115	-1567
1008.190	-2476
1008.264	-1356
1008.338	-2284
1008.412	-2020
1008.486	-1432
1008.560	-2175
1008.633	-2134
1008.707	-2097
1008.781	-1644
1008.855	-1777
1008.929	-1385
1009.003	-2422
1009.076	-2463
1009.150	-2004
1009.224	-1509
1009.298	-1328
1009.371	-2443
1009.445	-509
1009.519	-1867
1009.592	-1320
1009.666	-1650
1009.739	-1618
1009.813	-2414
1009.886	-1403
1009.960	-2318
1010.033	-1187
1010.107	-1315
1010.180	-2844
1010.253	-2027
1010.327	-1824
1010.400	-1044
1010.473	-2502
1010.547	-969
1010.620	-1513
1010.693	-1735
1010.766	-2072
1010.840	-1926
1010.913	-1754
1010.986	-2362
1011.059	-2099
1011.132	-2014
1011.205	-1410
1011.278	-1494
1011.351	-1662
1011.424	-1113
1011.497	-1906
1011.570	-1819
1011.643	-1692
1011.716	-2471
1011.789	-1799
1011.862	-1583
1011.934	-1092
1012.007	-2109
1012.080	-1376
1012.153	-1516
1012.225	-948
1012.298	-1948
1012.371	-2054
1012.443	-1284
1012.516	-2582
1012.588	-1807
1012.661	-2148
1012.733	-2433
1012.806	-1209
1012.879	-1858
1012.951	-1803
1013.023	-1560
1013.096	-1181
1013.168	-2062
1013.241	-1280
1013.313	-1114
1013.385	-1833
1013.458	-1782
1013.530	-1296
1013.602	-2437
1013.674	-1112
1013.746	-1705
1013.819	-2140
1013.891	-1767
1013.963	-1905
1014.035	-2165
1014.107	-1155
1014.179	-520
1014.251	-2263
1014.323	-950
1014.395	-1625
1014.467	-1599
1014.539	-1437
1014.611	-1876
1014.683	-1608
1014.754	-1542
1014.826	-2883
1014.898	-1128
1014.970	-2042
1015.042	-987
1015.113	-2217
1015.185	-1967
1015.257	-3135
1015.328	-1650
1015.400	-2090
1015.471	-1920
1015.543	-2827
1015.615	-1802
1015.686	-1807
1015.757	-866
1015.829	-1853
1015.901	-2180
1015.972	-2022
1016.043	-2305
1016.115	-1800
1016.186	-2062
1016.257	-2592
1016.328	-1106
1016.400	-1030
1016.471	-1307
1016.542	-1723
1016.613	-1885
1016.685	-1258
1016.756	-1446
1016.827	-2091
1016.898	-1910
1016.969	-1184
1017.040	-1298
1017.111	-2328
1017.182	-2247
1017.253	-1604
1017.324	-1716
1017.395	-2184
1017.466	-1586
1017.537	-2205
1017.608	-1301
1017.678	-1009
1017.749	-1627
1017.820	-2236
1017.891	-1975
1017.961	-1437
1018.032	-1258
1018.103	-1774
1018.173	-1926
1018.244	-1964
1018.315	-2138
1018.385	-1467
1018.456	-1633
1018.526	-1793
1018.597	-1936
1018.667	-1753
1018.738	-2152
1018.808	-1241
1018.878	-1685
1018.949	-1386
1019.019	-1645
1019.089	-2032
1019.160	-1532
1019.230	-2034
1019.300	-1631
1019.371	-1456
1019.441	-1251
1019.511	-975
1019.581	-1109
1019.651	-1794
1019.721	-1956
1019.791	-1817
1019.861	-1477
1019.931	-1996
1020.001	-2274
1020.071	-1600
1020.141	-1646
1020.211	-2731
1020.281	-1706
1020.351	-2596
1020.421	-1287
1020.491	-1613
1020.560	-2455
1020.630	-1870
1020.700	-1775
1020.770	-2768
1020.839	-1592
1020.909	-1229
1020.979	-2508
1021.048	-1413
1021.118	-2506
1021.187	-782
1021.257	-2404
1021.326	-1629
1021.396	-1464
1021.465	-2145
1021.535	-2012
1021.604	-2216
1021.674	-1627
1021.743	-1722
1021.812	-2327
1021.882	-2177
1021.951	-1821
1022.020	-2040
1022.089	-1382
1022.159	-1696
1022.228	-1227
1022.297	-2238
1022.366	-2091
1022.435	-1675
1022.504	-1955
1022.573	-2242
1022.642	-1416
1022.711	-2015
1022.781	-1768
1022.849	-1706
1022.918	-1611
1022.987	-1452
1023.056	-1040
1023.125	-1553
1023.194	-1605
1023.263	-1721
1023.331	-1266
1023.400	-1869
1023.469	-1988
1023.538	-894
1023.606	-2468
1023.675	-1506
1023.744	-2614
1023.812	-2029
1023.881	-2252
1023.949	-1903
1024.018	-1454
1024.086	-2842
1024.155	-2320
1024.223	-2505
1024.292	-1657
1024.360	-1413
1024.429	-1757
1024.497	-1657
1024.565	-1889
1024.634	-1889
1024.702	-2198
1024.770	-1592
1024.838	-2180
1024.907	-1613
1024.975	-2864
1025.043	-1805
1025.111	-2082
1025.179	-2319
1025.247	-1367
1025.315	-2152
1025.383	-1743
1025.451	-1618
1025.519	-1660
1025.587	-1665
1025.655	-1834
1025.723	-2730
1025.791	-1118
1025.859	-1854
1025.927	-1571
1025.995	-2267
1026.062	-1007
1026.130	-2255
1026.198	-1478
1026.266	-2518
1026.333	-1664
1026.401	-1118
1026.469	-1739
1026.536	-1516
1026.604	-1744
1026.671	-2294
1026.739	-2171
1026.806	-2387
1026.874	-2751
1026.941	-1586
1027.009	-2415
1027.076	-2483
1027.144	-1669
1027.211	-2201
1027.278	-1700
1027.345	-2899
1027.413	-1548
1027.480	-2092
1027.547	-1874
1027.614	-2443
1027.682	-1798
1027.749	-2068
1027.816	-2138
1027.883	-1865
1027.950	-1756
1028.017	-2531
1028.084	-1831
1028.151	-2536
1028.218	-1714
1028.285	-1582
1028.352	-2296
1028.419	-2038
1028.486	-2387
1028.553	-2703
1028.619	-1674
1028.686	-1753
1028.753	-2786
1028.820	-1827
1028.886	-2364
1028.953	-2249
1029.020	-2050
1029.086	-1920
1029.153	-2125
1029.220	-2987
1029.286	-2120
1029.353	-1862
1029.419	-1663
1029.486	-2042
1029.552	-2155
1029.619	-2137
1029.685	-2752
1029.751	-2158
1029.818	-1743
1029.884	-1619
1029.951	-816
1030.017	-1522
1030.083	-1641
1030.149	-2373
1030.216	-1598
1030.282	-2554
1030.348	-1730
1030.414	-2412
1030.480	-2508
1030.546	-1531
1030.612	-1971
1030.678	-2826
1030.744	-1487
1030.810	-2432
1030.876	-1835
1030.942	-1889
1031.008	-1716
1031.074	-2343
1031.140	-1451
1031.206	-1620
1031.272	-1869
1031.337	-1966
1031.403	-1677
1031.469	-2424
1031.534	-2175
1031.600	-2106
1031.666	-2915
1031.731	-2378
1031.797	-1502
1031.863	-2403
1031.928	-2019
1031.994	-2348
1032.059	-1742
1032.125	-2201
1032.190	-2683
1032.256	-1992
1032.321	-2650
1032.386	-1985
1032.452	-2131
1032.517	-1741
1032.582	-2063
1032.647	-1921
1032.713	-2227
1032.778	-1762
1032.843	-1128
1032.908	-2784
1032.974	-2082
1033.039	-1788
1033.104	-1290
1033.169	-2250
1033.234	-2479
1033.299	-1589
1033.364	-1728
1033.429	-1581
1033.494	-1568
1033.559	-2295
1033.624	-1960
1033.688	-1799
1033.753	-2926
1033.818	-2435
1033.883	-1970
1033.948	-1826
1034.013	-2329
1034.077	-2007
1034.142	-1733
1034.207	-1980
1034.271	-1338
1034.336	-1522
1034.400	-1575
1034.465	-1619
1034.530	-2095
1034.594	-1811
1034.658	-2400
1034.723	-1920
1034.787	-2121
1034.852	-1593
1034.916	-2098
1034.981	-2330
1035.045	-2020
1035.109	-2556
1035.173	-1150
1035.238	-2296
1035.302	-1992
1035.366	-1977
1035.430	-1279
1035.495	-2210
1035.559	-1344
1035.623	-1572
1035.687	-1910
1035.751	-1726
1035.815	-2318
1035.879	-2478
1035.943	-2176
1036.007	-2065
1036.071	-2216
1036.135	-2240
1036.198	-1565
1036.262	-1580
1036.326	-2245
1036.390	-2248
1036.454	-1550
1036.517	-1753
1036.581	-1589
1036.645	-2321
1036.709	-1853
1036.772	-1690
1036.836	-1792
1036.900	-1393
1036.963	-2336
1037.026	-2510
1037.090	-2009
1037.154	-1765
1037.217	-2221
1037.280	-2861
1037.344	-1721
1037.407	-2426
1037.471	-1815
1037.534	-2203
1037.597	-1377
1037.661	-2521
1037.724	-2052
1037.787	-2842
1037.850	-2139
1037.913	-2825
1037.977	-1724
1038.040	-1828
1038.103	-2535
1038.166	-1798
1038.229	-1966
1038.292	-1761
1038.355	-2447
1038.418	-1553
1038.481	-1343
1038.544	-1814
1038.607	-1940
1038.670	-1767
1038.732	-2527
1038.795	-2546
1038.858	-2109
1038.921	-1901
1038.984	-1202
1039.046	-1745
1039.109	-1382
1039.172	-2048
1039.234	-1941
1039.297	-1626
1039.360	-2133
1039.422	-2686
1039.485	-2135
1039.547	-3041
1039.610	-1745
1039.672	-1675
1039.734	-2382
1039.797	-2626
1039.859	-1869
1039.922	-2352
1039.984	-1596
1040.046	-2377
1040.109	-2248
1040.171	-1755
1040.233	-2367
1040.295	-1721
1040.358	-2255
1040.420	-2683
1040.482	-1796
1040.544	-2033
1040.606	-1845
1040.668	-2111
1040.730	-2442
1040.792	-2428
1040.854	-2242
1040.916	-2645
1040.978	-2190
1041.040	-1457
1041.102	-1756
1041.164	-1936
1041.225	-2897
1041.287	-2565
1041.349	-2613
1041.411	-2021
1041.472	-3063
1041.534	-2854
1041.596	-2357
1041.657	-2460
1041.719	-2153
1041.781	-2059
1041.842	-1570
1041.904	-2863
1041.965	-2333
1042.027	-2050
1042.088	-2252
1042.150	-2358
1042.211	-1830
1042.272	-2328
1042.334	-2667
1042.395	-2366
1042.456	-1986
1042.518	-2813
1042.579	-1305
1042.640	-1770
1042.701	-2738
1042.763	-2489
1042.824	-1629
1042.885	-2642
1042.946	-2351
1043.007	-2064
1043.068	-2300
1043.129	-2367
1043.190	-1981
1043.251	-2149
1043.312	-2907
1043.373	-1399
1043.434	-2584
1043.495	-2000
1043.556	-2493
1043.616	-1289
1043.677	-2126
1043.738	-2229
1043.799	-1649
1043.859	-2077
1043.920	-1770
1043.981	-2977
1044.041	-2572
1044.102	-1979
1044.162	-1820
1044.223	-3035
1044.284	-1787
1044.344	-2386
1044.405	-2073
1044.465	-2031
1044.525	-1912
1044.586	-2402
1044.646	-1923
1044.707	-2365
1044.767	-2384
1044.827	-2578
1044.887	-2331
1044.948	-1774
1045.008	-1191
1045.068	-1923
1045.128	-1577
1045.188	-1640
1045.249	-1240
1045.309	-3079
1045.369	-1388
1045.429	-2174
1045.489	-1206
1045.549	-1986
1045.609	-2219
1045.669	-2111
1045.729	-2499
1045.789	-1597
1045.848	-2119
1045.908	-1900
1045.968	-1351
1046.028	-1490
1046.088	-1209
1046.147	-620
1046.207	-1805
1046.267	-1745
1046.326	-2340
1046.386	-2273
1046.446	-1100
1046.505	-1906
1046.565	-1314
1046.624	-895
1046.684	-843
1046.743	-999
1046.803	-1148
1046.862	-983
1046.922	0
