'Start Wavelength	183.907
'End Wavelength	1046.922
'Gate Delay	5.000
'Gate Width (ms)	1.050
'Laser Output Level	0.000
'X Position	0.000
'Y Position	0.000
'Z Position	0.000
'Grid Point Number	1.000
'Shot Number	100.000
183.907	695.000
183.977	819.000
184.047	-635
184.116	125
184.186	565
184.256	-739
184.325	-809
184.395	-5
184.465	406
184.534	-334
184.604	-231
184.674	-493
184.743	-587
184.813	-9
184.883	71
184.952	568
185.022	-365
185.092	335
185.161	263
185.231	-434
185.301	-37
185.370	441
185.440	0
185.509	365
185.579	-121
185.649	184
185.718	25
185.788	518
185.857	-1265
185.927	-24
185.996	-260
186.066	255
186.136	165
186.205	-361
186.275	-384
186.344	154
186.414	501
186.483	-413
186.553	253
186.622	598
186.692	10
186.761	469
186.831	-49
186.900	-414
186.970	-259
187.039	684
187.109	969
187.178	762
187.248	11
187.317	435
187.387	130
187.456	575
187.526	191
187.595	-48
187.664	-126
187.734	-85
187.803	586
187.873	705
187.942	-45
188.012	279
188.081	168
188.150	-155
188.220	484
188.289	396
188.358	-182
188.428	606
188.497	229
188.567	13
188.636	-44
188.705	-159
188.775	-390
188.844	54
188.913	-67
188.983	-10
189.052	31
189.121	-36
189.191	-558
189.260	762
189.329	-501
189.399	771
189.468	237
189.537	-219
189.606	-500
189.676	346
189.745	-78
189.814	622
189.883	-158
189.953	672
190.022	392
190.091	1355
190.161	1171
190.230	484
190.299	-366
190.368	664
190.437	567
190.507	-62
190.576	356
190.645	199
190.714	257
190.783	-217
190.853	-326
190.922	5
190.991	280
191.060	260
191.129	-492
191.198	839
191.268	8
191.337	158
191.406	41
191.475	594
191.544	-235
191.613	915
191.682	-498
191.752	-112
191.821	216
191.890	211
191.959	-202
192.028	610
192.097	373
192.166	296
192.235	-322
192.304	291
192.373	-808
192.442	452
192.511	326
192.580	764
192.650	622
192.719	779
192.788	293
192.857	-380
192.926	-343
192.995	-258
193.064	1116
193.133	1034
193.202	-51
193.271	1035
193.340	20
193.409	55
193.478	979
193.547	732
193.615	897
193.684	1064
193.753	635
193.822	920
193.891	-603
193.960	632
194.029	-80
194.098	578
194.167	-653
194.236	253
194.305	226
194.374	638
194.443	211
194.512	877
194.580	1103
194.649	117
194.718	62
194.787	663
194.856	-679
194.925	836
194.994	29
195.062	546
195.131	-121
195.200	-377
195.269	536
195.338	-147
195.407	410
195.475	169
195.544	1177
195.613	673
195.682	398
195.751	797
195.819	-263
195.888	937
195.957	997
196.026	583
196.094	298
196.163	236
196.232	1076
196.301	-394
196.369	331
196.438	268
196.507	-275
196.576	593
196.644	424
196.713	338
196.782	323
196.850	826
196.919	-670
196.988	729
197.056	-193
197.125	553
197.194	-266
197.262	-30
197.331	369
197.400	647
197.468	47
197.537	392
197.606	648
197.674	431
197.743	1062
197.812	44
197.880	642
197.949	910
198.017	596
198.086	536
198.155	-247
198.223	571
198.292	1345
198.360	1120
198.429	133
198.497	44
198.566	1148
198.635	1811
198.703	174
198.772	925
198.840	1597
198.909	1717
198.977	372
199.046	175
199.114	-212
199.183	728
199.251	125
199.320	376
199.388	96
199.457	58
199.525	285
199.594	-392
199.662	720
199.731	369
199.799	64
199.867	-225
199.936	-39
200.004	445
200.073	-165
200.141	918
200.210	-55
200.278	-215
200.346	151
200.415	65
200.483	678
200.552	586
200.620	-474
200.688	1012
200.757	-25
200.825	-48
200.893	375
200.962	379
201.030	288
201.098	-108
201.167	209
201.235	546
201.303	-205
201.372	651
201.440	179
201.508	213
201.577	335
201.645	-69
201.713	151
201.781	674
201.850	-72
201.918	986
201.986	-302
202.055	1043
202.123	-684
202.191	748
202.259	582
202.327	438
202.396	40
202.464	466
202.532	129
202.600	1567
202.669	539
202.737	210
202.805	390
202.873	448
202.941	544
203.009	-96
203.078	287
203.146	-392
203.214	-229
203.282	-51
203.350	-418
203.418	311
203.487	873
203.555	373
203.623	93
203.691	780
203.759	14
203.827	462
203.895	1483
203.963	626
204.031	-364
204.099	891
204.168	-434
204.236	721
204.304	-70
204.372	699
204.440	425
204.508	646
204.576	-130
204.644	570
204.712	352
204.780	906
204.848	-1
204.916	-178
204.984	475
205.052	893
205.120	-383
205.188	347
205.256	-18
205.324	847
205.392	-462
205.460	432
205.528	417
205.596	476
205.664	647
205.732	207
205.799	1218
205.867	2781
205.935	231
206.003	734
206.071	156
206.139	247
206.207	303
206.275	382
206.343	-442
206.411	-160
206.478	542
206.546	176
206.614	-48
206.682	632
206.750	188
206.818	954
206.885	1094
206.953	422
207.021	797
207.089	526
207.157	-216
207.225	160
207.292	-417
207.360	92
207.428	-365
207.496	146
207.563	-190
207.631	244
207.699	122
207.767	170
207.834	32
207.902	-259
207.970	387
208.038	1150
208.105	-141
208.173	1260
208.241	669
208.309	888
208.376	135
208.444	1136
208.512	874
208.579	-20
208.647	731
208.715	209
208.782	10
208.850	506
208.918	372
208.985	619
209.053	599
209.120	1089
209.188	-363
209.256	720
209.323	-149
209.391	351
209.459	806
209.526	960
209.594	313
209.661	533
209.729	394
209.796	235
209.864	96
209.932	87
209.999	1245
210.067	809
210.134	440
210.202	865
210.269	1019
210.337	475
210.404	-582
210.472	345
210.539	-134
210.607	603
210.674	701
210.742	195
210.809	159
210.877	602
210.944	821
211.012	507
211.079	1403
211.146	1285
211.214	23
211.281	594
211.349	376
211.416	515
211.484	997
211.551	573
211.618	138
211.686	370
211.753	299
211.821	1035
211.888	546
211.955	686
212.023	-252
212.090	361
212.157	23
212.225	1031
212.292	1323
212.359	3263
212.427	9211
212.494	3492
212.561	1302
212.629	1306
212.696	365
212.763	1199
212.831	-328
212.898	1026
212.965	260
213.032	339
213.100	146
213.167	1223
213.234	1171
213.301	1237
213.369	793
213.436	1329
213.503	-346
213.570	445
213.638	-24
213.705	637
213.772	-515
213.839	866
213.906	887
213.973	947
214.041	114
214.108	593
214.175	916
214.242	587
214.309	1141
214.376	939
214.444	918
214.511	1167
214.578	475
214.645	1061
214.712	1001
214.779	637
214.846	35
214.913	1494
214.980	316
215.048	1534
215.115	700
215.182	839
215.249	527
215.316	1252
215.383	97
215.450	528
215.517	173
215.584	138
215.651	-138
215.718	775
215.785	935
215.852	49
215.919	124
215.986	594
216.053	11
216.120	865
216.187	305
216.254	1224
216.321	389
216.388	751
216.455	632
216.522	607
216.589	723
216.656	1791
216.722	1354
216.789	706
216.856	953
216.923	433
216.990	606
217.057	419
217.124	319
217.191	1258
217.258	1430
217.324	2037
217.391	1936
217.458	1435
217.525	865
217.592	589
217.659	236
217.725	1303
217.792	1535
217.859	1482
217.926	421
217.993	470
218.059	473
218.126	603
218.193	574
218.260	689
218.327	35
218.393	611
218.460	-265
218.527	660
218.594	-19
218.660	1330
218.727	574
218.794	128
218.860	481
218.927	-45
218.994	425
219.061	841
219.127	92
219.194	1220
219.261	799
219.327	330
219.394	181
219.461	783
219.527	438
219.594	1308
219.661	395
219.727	-34
219.794	589
219.860	565
219.927	-39
219.994	1211
220.060	1479
220.127	1419
220.193	823
220.260	1259
220.326	2030
220.393	2173
220.460	3106
220.526	2048
220.593	742
220.659	2189
220.726	1789
220.792	4266
220.859	3082
220.925	4388
220.992	4719
221.058	5975
221.125	5303
221.191	4646
221.258	1194
221.324	1658
221.391	338
221.457	544
221.524	1085
221.590	1078
221.657	5233
221.723	3208
221.789	2422
221.856	2380
221.922	330
221.989	1396
222.055	-198
222.121	539
222.188	870
222.254	890
222.321	-152
222.387	227
222.453	-22
222.520	-55
222.586	-128
222.652	1135
222.719	222
222.785	1013
222.851	37
222.918	754
222.984	216
223.050	-50
223.116	-414
223.183	639
223.249	355
223.315	321
223.382	89
223.448	956
223.514	-59
223.580	-103
223.647	-473
223.713	-134
223.779	-354
223.845	513
223.911	61
223.978	-553
224.044	30
224.110	-773
224.176	-292
224.242	597
224.309	-1093
224.375	-128
224.441	-148
224.507	-477
224.573	-919
224.639	131
224.705	-698
224.772	-63
224.838	113
224.904	535
224.970	363
225.036	218
225.102	62
225.168	271
225.234	-104
225.300	-100
225.366	376
225.432	421
225.499	344
225.565	668
225.631	-74
225.697	597
225.763	343
225.829	344
225.895	60
225.961	1688
226.027	1278
226.093	625
226.159	1572
226.225	2684
226.291	5223
226.357	8957
226.423	3051
226.489	1763
226.554	548
226.620	1778
226.686	1497
226.752	2602
226.818	4472
226.884	12229
226.950	8431
227.016	3464
227.082	2282
227.148	903
227.214	1038
227.279	1456
227.345	-48
227.411	293
227.477	735
227.543	3075
227.609	1707
227.674	1126
227.740	355
227.806	997
227.872	274
227.938	1352
228.003	748
228.069	547
228.135	331
228.201	352
228.267	289
228.332	-40
228.398	-260
228.464	752
228.530	254
228.595	296
228.661	15
228.727	462
228.792	392
228.858	-339
228.924	-32
228.990	1453
229.055	237
229.121	877
229.187	-233
229.252	330
229.318	-411
229.384	-89
229.449	382
229.515	-627
229.581	-1592
229.646	802
229.712	-239
229.777	1307
229.843	1361
229.909	1357
229.974	1735
230.040	1128
230.105	28
230.171	804
230.236	1451
230.302	1846
230.368	873
230.433	821
230.499	305
230.564	231
230.630	-521
230.695	241
230.761	935
230.826	-308
230.892	1099
230.957	664
231.023	-172
231.088	306
231.154	-349
231.219	641
231.284	336
231.350	1082
231.415	-505
231.481	947
231.546	-314
231.612	393
231.677	-74
231.742	-94
231.808	912
231.873	62
231.939	-914
232.004	1386
232.069	255
232.135	776
232.200	-473
232.265	541
232.331	-81
232.396	-205
232.461	-345
232.527	139
232.592	-232
232.657	25
232.723	1207
232.788	145
232.853	141
232.918	587
232.984	-347
233.049	568
233.114	566
233.179	1116
233.245	1760
233.310	2468
233.375	-441
233.440	722
233.506	336
233.571	-32
233.636	-84
233.701	330
233.766	842
233.832	1704
233.897	159
233.962	-284
234.027	752
234.092	292
234.157	327
234.222	675
234.288	737
234.353	5594
234.418	3523
234.483	2379
234.548	902
234.613	769
234.678	1193
234.743	900
234.808	5536
234.873	2556
234.938	1119
235.004	27
235.069	119
235.134	68
235.199	747
235.264	324
235.329	82
235.394	1390
235.459	493
235.524	797
235.589	404
235.654	241
235.719	-1170
235.784	327
235.849	455
235.913	2778
235.978	2873
236.043	2872
236.108	771
236.173	1294
236.238	618
236.303	889
236.368	456
236.433	1649
236.498	2954
236.563	2157
236.627	4333
236.692	15017
236.757	10733
236.822	3681
236.887	2824
236.952	2611
237.017	1087
237.081	2514
237.146	1632
237.211	6315
237.276	14189
237.341	22986
237.405	10237
237.470	4213
237.535	2550
237.600	2111
237.664	1473
237.729	286
237.794	1433
237.859	3531
237.923	1904
237.988	1301
238.053	2069
238.118	2307
238.182	7499
238.247	6058
238.312	1400
238.376	2460
238.441	789
238.506	1564
238.570	-812
238.635	1390
238.700	-384
238.764	438
238.829	2329
238.893	3520
238.958	1013
239.023	1216
239.087	553
239.152	818
239.216	-357
239.281	266
239.346	297
239.410	198
239.475	545
239.539	8037
239.604	3619
239.668	1723
239.733	74
239.797	2049
239.862	4904
239.926	5624
239.991	1525
240.055	345
240.120	257
240.184	610
240.249	-244
240.313	266
240.378	596
240.442	4889
240.507	6784
240.571	1693
240.635	2666
240.700	3229
240.764	1316
240.829	845
240.893	472
240.957	564
241.022	4414
241.086	6546
241.151	2032
241.215	226
241.279	1730
241.344	3506
241.408	1075
241.472	-407
241.537	488
241.601	729
241.665	-858
241.730	-43
241.794	183
241.858	-69
241.922	335
241.987	947
242.051	-370
242.115	97
242.179	456
242.244	77
242.308	320
242.372	1130
242.436	1132
242.501	462
242.565	-117
242.629	560
242.693	827
242.757	-86
242.822	240
242.886	917
242.950	237
243.014	468
243.078	722
243.142	1069
243.206	457
243.271	459
243.335	401
243.399	2244
243.463	10588
243.527	24600
243.591	5994
243.655	1721
243.719	810
243.783	1296
243.847	2032
243.911	3670
243.975	2412
244.040	1950
244.104	1542
244.168	591
244.232	1127
244.296	2352
244.360	2390
244.424	576
244.488	512
244.552	930
244.615	-426
244.679	659
244.743	1065
244.807	831
244.871	-136
244.935	615
244.999	-1063
245.063	357
245.127	497
245.191	1662
245.255	394
245.319	430
245.383	-219
245.446	1860
245.510	-307
245.574	893
245.638	268
245.702	46
245.766	1998
245.829	1285
245.893	615
245.957	502
246.021	839
246.085	649
246.149	592
246.212	4359
246.276	5584
246.340	2054
246.404	1229
246.467	2399
246.531	745
246.595	2037
246.659	1364
246.722	1007
246.786	1660
246.850	1530
246.913	1564
246.977	-418
247.041	523
247.104	611
247.168	998
247.232	3783
247.295	7626
247.359	3800
247.423	639
247.486	3264
247.550	1423
247.614	216
247.677	2140
247.741	846
247.804	397
247.868	2087
247.932	3216
247.995	7602
248.059	1728
248.122	722
248.186	1892
248.249	3898
248.313	14388
248.376	12932
248.440	7644
248.503	1155
248.567	2139
248.630	2660
248.694	3032
248.757	6080
248.821	14721
248.884	7326
248.948	6080
249.011	10573
249.075	16395
249.138	12141
249.202	4370
249.265	3027
249.328	4961
249.392	3435
249.455	1678
249.519	2008
249.582	663
249.645	3408
249.709	3119
249.772	3048
249.835	2243
249.899	1533
249.962	1404
250.025	1276
250.089	5172
250.152	6053
250.215	3576
250.279	1910
250.342	2211
250.405	1474
250.468	1284
250.532	3319
250.595	5372
250.658	23986
250.721	35071
250.785	9809
250.848	6098
250.911	3171
250.974	3299
251.038	3898
251.101	7768
251.164	4563
251.227	4242
251.290	4182
251.354	7397
251.417	33569
251.480	28630
251.543	22183
251.606	61285
251.669	38516
251.732	12929
251.795	13748
251.859	15499
251.922	38076
251.985	17881
252.048	6514
252.111	4441
252.174	4113
252.237	8583
252.300	17508
252.363	21875
252.426	45474
252.489	15450
252.552	8468
252.615	4293
252.678	7192
252.741	13791
252.804	21763
252.867	47467
252.930	23220
252.993	11155
253.056	7012
253.119	4875
253.182	3213
253.245	6828
253.308	5163
253.371	3570
253.434	4197
253.497	3638
253.559	8176
253.622	4044
253.685	6065
253.748	4071
253.811	3253
253.874	4819
253.937	3401
254.000	2836
254.062	5040
254.125	7574
254.188	6876
254.251	5456
254.314	2161
254.376	4155
254.439	5327
254.502	3870
254.565	4836
254.628	9059
254.690	3866
254.753	1388
254.816	1439
254.878	1910
254.941	6312
255.004	4396
255.067	1961
255.129	1060
255.192	1557
255.255	-115
255.317	1614
255.380	906
255.443	1029
255.505	-500
255.568	92
255.631	-177
255.693	1325
255.756	-520
255.819	1279
255.881	-884
255.944	249
256.006	-489
256.069	960
256.132	165
256.194	1570
256.257	4723
256.319	3658
256.382	2354
256.444	1775
256.507	657
256.569	1017
256.632	429
256.694	1642
256.757	8380
256.819	22432
256.882	6639
256.944	3094
257.007	1903
257.069	2715
257.132	1111
257.194	1834
257.257	-40
257.319	531
257.381	921
257.444	6662
257.506	27547
257.569	24867
257.631	11804
257.693	5307
257.756	2733
257.818	1972
257.880	1064
257.943	1589
258.005	-151
258.067	753
258.130	414
258.192	1673
258.254	2544
258.317	1570
258.379	626
258.441	4132
258.503	4714
258.566	7757
258.628	8104
258.690	842
258.753	1900
258.815	3204
258.877	1069
258.939	136
259.001	573
259.064	-4
259.126	1247
259.188	1740
259.250	1878
259.312	2032
259.375	4438
259.437	2217
259.499	884
259.561	930
259.623	1288
259.685	396
259.747	936
259.809	7598
259.872	12149
259.934	21077
259.996	15041
260.058	4190
260.120	1216
260.182	840
260.244	812
260.306	252
260.368	160
260.430	387
260.492	2284
260.554	5103
260.616	2963
260.678	8681
260.740	10735
260.802	1891
260.864	1619
260.926	396
260.988	2098
261.050	1110
261.112	4547
261.174	15314
261.236	8760
261.298	2055
261.359	5396
261.421	8115
261.483	498
261.545	1337
261.607	-509
261.669	716
261.731	2703
261.793	7291
261.854	975
261.916	1781
261.978	711
262.040	1491
262.102	1195
262.164	1540
262.225	1305
262.287	963
262.349	2724
262.411	2015
262.472	860
262.534	3278
262.596	6309
262.658	1674
262.719	-413
262.781	2067
262.843	6340
262.904	2083
262.966	1699
263.028	2684
263.090	17431
263.151	38858
263.213	10272
263.275	4486
263.336	1985
263.398	1524
263.459	261
263.521	435
263.583	3015
263.644	1396
263.706	161
263.767	-124
263.829	-562
263.891	126
263.952	-791
264.014	84
264.075	1000
264.137	5418
264.198	1045
264.260	-42
264.321	119
264.383	3294
264.444	6879
264.506	1405
264.567	509
264.629	4009
264.690	5722
264.752	2044
264.813	706
264.875	364
264.936	656
264.998	173
265.059	-317
265.120	809
265.182	1771
265.243	11123
265.305	9874
265.366	1244
265.427	1009
265.489	1585
265.550	-318
265.611	834
265.673	-362
265.734	-209
265.795	570
265.857	410
265.918	-1052
265.979	3658
266.040	20346
266.102	14381
266.163	3252
266.224	2956
266.286	1621
266.347	-205
266.408	-150
266.469	1383
266.530	15
266.592	440
266.653	2140
266.714	2613
266.775	817
266.836	-343
266.898	-563
266.959	1319
267.020	-794
267.081	841
267.142	-1109
267.203	-462
267.264	-1488
267.326	978
267.387	-449
267.448	-1187
267.509	-259
267.570	-170
267.631	-575
267.692	195
267.753	417
267.814	-532
267.875	2155
267.936	4418
267.997	1654
268.058	984
268.119	150
268.180	949
268.241	-709
268.302	202
268.363	-282
268.424	476
268.485	433
268.546	-242
268.607	-494
268.668	583
268.729	-1158
268.790	-351
268.851	236
268.912	2189
268.972	2679
269.033	628
269.094	-570
269.155	89
269.216	-41
269.277	855
269.338	-279
269.398	369
269.459	-397
269.520	975
269.581	1054
269.642	1256
269.702	476
269.763	529
269.824	-58
269.885	750
269.945	765
270.006	578
270.067	-171
270.128	253
270.188	-666
270.249	-191
270.310	-1111
270.370	382
270.431	-150
270.492	-364
270.553	324
270.613	2183
270.674	3897
270.734	322
270.795	69
270.856	692
270.916	-640
270.977	-3
271.038	1154
271.098	-155
271.159	815
271.219	900
271.280	-421
271.340	-194
271.401	-390
271.462	3788
271.522	935
271.583	54
271.643	353
271.704	498
271.764	210
271.825	3345
271.885	12323
271.946	14063
272.006	2836
272.066	7770
272.127	11549
272.187	3515
272.248	1057
272.308	1654
272.369	8473
272.429	4203
272.489	2631
272.550	2434
272.610	2881
272.671	1887
272.731	2609
272.791	4103
272.852	1178
272.912	1632
272.972	62
273.033	1019
273.093	891
273.153	1252
273.214	324
273.274	1323
273.334	7104
273.394	11887
273.455	3145
273.515	4881
273.575	9730
273.635	4061
273.696	5615
273.756	11394
273.816	3212
273.876	2043
273.936	7867
273.997	12464
274.057	1880
274.117	1834
274.177	3126
274.237	16749
274.297	12172
274.358	9925
274.418	9534
274.478	5866
274.538	1628
274.598	1550
274.658	11609
274.718	13185
274.778	4373
274.838	2305
274.898	5394
274.958	19174
275.018	13007
275.078	6896
275.138	1206
275.198	892
275.258	416
275.318	1400
275.378	2698
275.438	3447
275.498	1907
275.558	9553
275.618	16549
275.678	7059
275.738	4592
275.798	2828
275.858	728
275.918	146
275.978	110
276.038	903
276.098	-334
276.157	760
276.217	6778
276.277	2311
276.337	1227
276.397	864
276.457	369
276.517	-75
276.576	157
276.636	4
276.696	1039
276.756	4639
276.815	1746
276.875	1245
276.935	1207
276.995	920
277.055	550
277.114	343
277.174	1196
277.234	5236
277.293	1291
277.353	295
277.413	863
277.472	252
277.532	570
277.592	1197
277.651	6088
277.711	10546
277.771	3129
277.830	14916
277.890	9388
277.950	9691
278.009	27157
278.069	7672
278.128	8921
278.188	11624
278.248	4767
278.307	13884
278.367	7632
278.426	2088
278.486	903
278.545	340
278.605	137
278.664	199
278.724	606
278.783	5847
278.843	12906
278.902	2394
278.962	1075
279.021	2122
279.081	4793
279.140	4652
279.199	2321
279.259	2518
279.318	2408
279.378	4406
279.437	8453
279.496	28723
279.556	90550
279.615	61935
279.675	15899
279.734	9793
279.793	15020
279.853	19410
279.912	6120
279.971	4210
280.031	2723
280.090	6490
280.149	11286
280.208	12990
280.268	65699
280.327	55466
280.386	12040
280.445	9237
280.505	5890
280.564	3993
280.623	2521
280.682	3939
280.742	5618
280.801	2075
280.860	343
280.919	1202
280.978	531
281.037	611
281.097	-328
281.156	1095
281.215	354
281.274	1828
281.333	7904
281.392	5154
281.451	791
281.510	967
281.569	-356
281.628	1012
281.688	-169
281.747	1424
281.806	485
281.865	1007
281.924	-83
281.983	181
282.042	-666
282.101	166
282.160	-303
282.219	-430
282.278	-29
282.337	3420
282.396	1159
282.454	72
282.513	482
282.572	5390
282.631	2242
282.690	478
282.749	-640
282.808	613
282.867	365
282.926	325
282.985	301
283.043	-396
283.102	-2
283.161	478
283.220	2716
283.279	6036
283.338	624
283.396	455
283.455	139
283.514	462
283.573	1016
283.631	499
283.690	404
283.749	351
283.808	1993
283.866	1997
283.925	-53
283.984	1470
284.043	859
284.101	443
284.160	-316
284.219	2407
284.277	899
284.336	2107
284.395	8496
284.453	5963
284.512	1167
284.570	1830
284.629	1243
284.688	1673
284.746	1302
284.805	2126
284.863	3010
284.922	4364
284.981	4489
285.039	8211
285.098	16045
285.156	42607
285.215	89619
285.273	79669
285.332	38909
285.390	20356
285.449	11979
285.507	8650
285.566	4961
285.624	3753
285.683	2972
285.741	1958
285.799	1731
285.858	1120
285.916	1177
285.975	994
286.033	171
286.091	489
286.150	876
286.208	362
286.267	-98
286.325	435
286.383	1058
286.442	890
286.500	-245
286.558	268
286.616	113
286.675	1237
286.733	261
286.791	263
286.850	870
286.908	906
286.966	2717
287.024	645
287.083	673
287.141	112
287.199	-176
287.257	471
287.315	302
287.374	240
287.432	2455
287.490	1455
287.548	138
287.606	-221
287.664	51
287.723	1202
287.781	1057
287.839	1384
287.897	1030
287.955	1910
288.013	3392
288.071	12310
288.129	51152
288.187	117145
288.245	46449
288.303	14437
288.361	8130
288.419	5771
288.477	3418
288.535	3528
288.593	1191
288.651	392
288.709	-541
288.767	835
288.825	-527
288.883	472
288.941	-243
288.999	74
289.057	-193
289.115	-599
289.173	-565
289.231	73
289.289	-109
289.346	412
289.404	-323
289.462	787
289.520	664
289.578	-89
289.636	-364
289.694	-636
289.751	-622
289.809	-798
289.867	-689
289.925	282
289.983	78
290.040	58
290.098	-886
290.156	-629
290.214	49
290.271	-535
290.329	-880
290.387	-568
290.444	-804
290.502	-410
290.560	-601
290.617	-453
290.675	-687
290.733	-716
290.790	-321
290.848	-78
290.906	-504
290.963	-774
291.021	-754
291.078	-186
291.136	-138
291.194	3198
291.251	6637
291.309	777
291.366	-639
291.424	-911
291.481	-334
291.539	417
291.596	-252
291.654	-383
291.711	-1136
291.769	-110
291.826	268
291.884	123
291.941	-514
291.999	-933
292.056	-483
292.114	-621
292.171	-737
292.228	-459
292.286	-513
292.343	1868
292.401	831
292.458	-146
292.515	-832
292.573	447
292.630	-544
292.687	354
292.745	-290
292.802	482
292.859	4152
292.917	8005
292.974	2812
293.031	188
293.089	-582
293.146	-347
293.203	-257
293.260	-901
293.318	803
293.375	1859
293.432	-699
293.489	-4
293.546	-489
293.604	1407
293.661	4845
293.718	14157
293.775	4425
293.832	2058
293.889	515
293.947	1624
294.004	508
294.061	540
294.118	2927
294.175	7759
294.232	9575
294.289	2928
294.346	1056
294.403	899
294.460	618
294.517	735
294.574	-135
294.631	-70
294.688	641
294.745	3809
294.802	15947
294.859	15398
294.916	4166
294.973	2532
295.030	1435
295.087	909
295.144	-119
295.201	863
295.258	-725
295.315	741
295.372	4798
295.429	9625
295.486	3262
295.542	2081
295.599	6894
295.656	11066
295.713	7037
295.770	8893
295.827	3039
295.883	1684
295.940	137
295.997	2032
296.054	1504
296.111	221
296.167	38
296.224	171
296.281	-1050
296.338	-535
296.394	368
296.451	810
296.508	3793
296.564	7722
296.621	4656
296.678	10922
296.734	15254
296.791	5043
296.848	2332
296.904	1830
296.961	6149
297.018	11513
297.074	6782
297.131	2397
297.187	1057
297.244	3693
297.301	13145
297.357	20478
297.414	5343
297.470	2563
297.527	552
297.583	355
297.640	1192
297.696	706
297.753	-11
297.809	-244
297.866	-1311
297.922	333
297.979	-1057
298.035	417
298.092	619
298.148	6932
298.204	4739
298.261	2221
298.317	4401
298.374	14122
298.430	6619
298.486	2601
298.543	1591
298.599	1333
298.656	1639
298.712	4146
298.768	11395
298.824	7866
298.881	1394
298.937	716
298.993	671
299.050	836
299.106	806
299.162	332
299.218	-76
299.275	622
299.331	651
299.387	2655
299.443	13205
299.500	11378
299.556	3456
299.612	1807
299.668	1027
299.724	2284
299.780	2662
299.837	1052
299.893	2975
299.949	11171
300.005	11703
300.061	10037
300.117	17369
300.173	7727
300.229	2182
300.285	3338
300.341	3297
300.397	1463
300.453	-123
300.510	274
300.566	40
300.622	2435
300.678	6232
300.734	11153
300.790	9712
300.845	12668
300.901	6108
300.957	10120
301.013	6406
301.069	1845
301.125	456
301.181	977
301.237	266
301.293	350
301.349	497
301.405	94
301.461	-312
301.516	583
301.572	255
301.628	1697
301.684	1466
301.740	2761
301.796	4846
301.851	3828
301.907	6033
301.963	7411
302.019	12998
302.074	36244
302.130	31022
302.186	12072
302.242	4527
302.297	2797
302.353	3183
302.409	6403
302.464	4802
302.520	4336
302.576	10817
302.631	12390
302.687	5327
302.743	2302
302.798	678
302.854	723
302.910	186
302.965	1420
303.021	2472
303.076	2588
303.132	1971
303.187	3443
303.243	1127
303.299	147
303.354	-478
303.410	268
303.465	172
303.521	245
303.576	-190
303.632	730
303.687	2996
303.743	10993
303.798	7519
303.853	2332
303.909	772
303.964	509
304.020	1663
304.075	2492
304.130	1737
304.186	4638
304.241	5412
304.297	3184
304.352	1382
304.358	1329
304.407	895
304.449	323
304.463	129
304.518	815
304.539	489
304.573	-24
304.629	1123
304.630	1138
304.684	1870
304.720	5753
304.739	7731
304.794	11727
304.811	9751
304.850	4854
304.902	1301
304.905	1081
304.960	397
304.992	567
305.015	682
305.071	575
305.083	559
305.126	517
305.173	355
305.181	331
305.236	-395
305.264	293
305.292	996
305.347	-129
305.354	-58
305.402	349
305.445	877
305.457	1043
305.512	1641
305.535	1777
305.567	1892
305.622	1627
305.626	1737
305.678	4734
305.716	10963
305.733	13131
305.788	13851
305.807	11903
305.843	8572
305.897	11907
305.898	11943
305.953	11437
305.988	7093
306.008	4689
306.063	2480
306.078	2066
306.118	1234
306.168	823
306.173	798
306.228	471
306.259	507
306.283	504
306.338	516
306.349	527
306.393	790
306.440	1041
306.448	1049
306.503	1844
306.530	1788
306.558	2481
306.613	6304
306.620	6728
306.668	9015
306.711	12013
306.723	12346
306.778	8712
306.801	6713
306.833	4318
306.888	1775
306.892	1663
306.943	1092
306.982	1139
306.997	1169
307.052	1323
307.072	1230
307.107	1345
307.162	2024
307.163	2032
307.217	3431
307.253	4698
307.272	5074
307.327	5220
307.343	4943
307.381	3883
307.434	2814
307.436	2925
307.491	8002
307.524	11189
307.546	11878
307.600	12093
307.614	10874
307.655	6181
307.704	3220
307.710	3195
307.765	3171
307.795	4411
307.819	6082
307.874	11095
307.885	11218
307.929	8459
307.975	6003
307.984	6068
308.038	8575
308.065	10690
308.093	18830
308.148	39951
308.156	44793
308.202	74181
308.246	91892
308.257	88567
308.312	46611
308.336	31391
308.366	23418
308.421	14351
308.426	13533
308.475	8505
308.517	5412
308.530	4993
308.585	4811
308.607	4277
308.639	3908
308.694	4569
308.697	4662
308.748	9955
308.787	15052
308.803	15140
308.857	11041
308.877	9548
308.912	7972
308.967	6464
308.967	6450
309.021	9194
309.058	11597
309.076	14741
309.130	26385
309.148	31218
309.185	57947
309.238	103828
309.239	104319
309.293	120066
309.328	114455
309.348	97329
309.402	46427
309.418	33802
309.457	24194
309.508	14325
309.511	14069
309.566	11796
309.598	11087
309.620	12616
309.674	17020
309.688	18207
309.729	17467
309.778	14881
309.783	14546
309.837	10694
309.868	8688
309.892	9452
309.946	12062
309.959	13043
310.001	18637
310.049	23773
310.055	22947
310.109	13628
310.139	8438
310.163	6725
310.218	3952
310.229	3403
310.272	2915
310.319	2639
310.326	2610
310.381	2572
310.409	2566
310.435	2345
310.489	1787
310.499	1707
310.543	2225
310.589	2538
310.598	2510
310.652	2569
310.679	2353
310.706	1921
310.760	1663
310.769	1561
310.814	1518
310.859	1616
310.868	1614
310.923	1292
310.948	1307
310.977	1371
311.031	1337
311.038	1338
311.085	1919
311.128	2327
311.139	2195
311.193	1489
311.218	1208
311.247	1565
311.301	2185
311.308	2240
311.356	2035
311.398	1956
311.410	1920
311.464	1653
311.488	1539
311.518	1336
311.572	883
311.578	838
311.626	2209
311.668	3404
311.680	3335
311.734	2899
311.758	2736
311.788	2771
311.842	2777
311.847	2772
311.896	3574
311.937	4288
311.950	4258
312.004	4055
312.027	3964
312.058	3332
312.112	2181
312.117	2064
312.165	2268
312.207	2438
312.297	3243
312.386	2756
312.476	1955
312.566	4195
312.656	1763
312.745	2054
312.835	1977
312.925	2829
313.015	2150
313.104	2927
313.194	1522
313.284	1814
313.374	2025
313.463	2332
313.553	1752
313.643	2246
313.732	1295
313.822	1642
313.912	1594
314.001	2643
314.091	2536
314.180	3698
314.270	2976
314.360	3147
314.449	3174
314.539	1719
314.628	1490
314.718	2702
314.808	2877
314.897	2149
314.987	1611
315.076	1807
315.166	2922
315.255	3639
315.345	3279
315.434	2891
315.524	3237
315.613	4392
315.703	4516
315.792	7169
315.881	29407
315.971	12165
316.060	6117
316.150	8783
316.239	9790
316.328	4310
316.418	1465
316.507	1752
316.597	2124
316.686	2777
316.775	3729
316.865	10016
316.954	3282
317.043	1785
317.133	1512
317.222	2163
317.311	1507
317.400	1014
317.490	2553
317.579	3708
317.668	2830
317.757	4491
317.847	12188
317.936	51492
318.025	19477
318.114	11005
318.203	5600
318.293	5100
318.382	9023
318.471	7323
318.560	9759
318.649	25759
318.738	6078
318.828	3329
318.917	2972
319.006	4583
319.095	10525
319.184	29880
319.273	16717
319.362	8069
319.451	2213
319.540	2672
319.629	4323
319.718	8177
319.807	5139
319.896	8527
319.985	36475
320.074	15510
320.163	3275
320.252	6100
320.341	4643
320.430	4764
320.519	4990
320.608	3139
320.697	2994
320.786	2517
320.875	2834
320.964	3986
321.053	5631
321.142	7695
321.230	8987
321.319	7117
321.408	16464
321.497	8472
321.586	7073
321.675	8553
321.764	9248
321.852	6105
321.941	8599
322.030	5704
322.119	6305
322.207	16400
322.296	15140
322.385	7562
322.474	6769
322.562	18319
322.651	12191
322.740	6308
322.829	10846
322.917	13279
323.006	6421
323.095	5740
323.183	4748
323.272	7399
323.361	11116
323.449	42010
323.538	15095
323.626	26002
323.715	19713
323.804	7235
323.892	23291
323.981	14705
324.069	4637
324.158	12622
324.246	14673
324.335	3830
324.424	6110
324.512	2462
324.601	3558
324.689	5802
324.778	11010
324.866	9379
324.954	3108
325.043	2827
325.131	4118
325.220	11173
325.308	11695
325.397	8851
325.485	5425
325.574	2035
325.662	1096
325.750	1779
325.839	1366
325.927	821
326.015	1947
326.104	3234
326.192	6603
326.280	2012
326.369	1271
326.457	2462
326.545	4321
326.634	2049
326.722	1645
326.810	1588
326.898	1665
326.987	2078
327.075	3284
327.163	5136
327.251	3397
327.340	3574
327.428	6329
327.516	1311
327.604	1306
327.692	2283
327.781	2324
327.869	4788
327.957	3511
328.045	2011
328.133	1329
328.221	2554
328.309	1734
328.397	2078
328.485	2178
328.574	3069
328.662	9238
328.750	7612
328.838	2267
328.926	2032
329.014	1913
329.102	2508
329.190	6858
329.278	5237
329.366	1554
329.454	1219
329.542	1799
329.630	1817
329.718	1612
329.806	2499
329.893	2059
329.981	2858
330.069	4472
330.157	16238
330.245	50036
330.333	29992
330.421	5519
330.509	3644
330.597	11251
330.684	9773
330.772	3359
330.860	5003
330.948	6742
331.036	3584
331.123	921
331.211	1217
331.299	2089
331.387	4840
331.475	10209
331.562	3340
331.650	1232
331.738	1879
331.825	3247
331.913	1623
332.001	606
332.089	1546
332.176	5097
332.264	11535
332.352	10106
332.439	3091
332.527	2578
332.614	2277
332.702	2680
332.790	1873
332.877	4018
332.965	13328
333.052	3575
333.140	2532
333.228	7068
333.315	2868
333.403	1833
333.490	6756
333.578	6417
333.665	7905
333.753	4366
333.840	1960
333.928	2158
334.015	7554
334.103	11559
334.190	41062
334.278	12599
334.365	5389
334.452	3718
334.540	2406
334.627	2580
334.715	4320
334.802	8360
334.889	44879
334.977	54403
335.064	7779
335.151	2589
335.239	3154
335.326	4050
335.413	17465
335.501	28706
335.588	4233
335.675	2217
335.762	4052
335.850	7074
335.937	6139
336.024	11692
336.111	52573
336.199	26762
336.286	4889
336.373	2805
336.460	2178
336.547	1624
336.635	2053
336.722	2123
336.809	2234
336.896	2988
336.983	10560
337.070	27127
337.157	42012
337.245	30236
337.332	25141
337.419	3353
337.506	2048
337.593	2149
337.680	8069
337.767	29270
337.854	8503
337.941	8397
338.028	10248
338.115	4028
338.202	4266
338.289	7139
338.376	30539
338.463	10178
338.550	14937
338.637	19100
338.724	5707
338.811	10278
338.898	2200
338.984	1262
339.071	1793
339.158	2007
339.245	6365
339.332	4626
339.419	5061
339.506	5913
339.593	567
339.679	1361
339.766	1105
339.853	1315
339.940	4247
340.027	1386
340.113	1922
340.200	2122
340.287	1518
340.374	545
340.460	3669
340.547	1774
340.634	2588
340.720	9620
340.807	6745
340.894	1634
340.980	1612
341.067	990
341.154	1546
341.240	1398
341.327	5559
341.414	1721
341.500	1496
341.587	1527
341.674	739
341.760	2677
341.847	4463
341.933	1346
342.020	-82
342.106	-570
342.193	745
342.279	1794
342.366	1624
342.452	2749
342.539	1614
342.625	3102
342.712	11442
342.798	5063
342.885	2289
342.971	118
343.058	407
343.144	681
343.230	816
343.317	498
343.403	475
343.490	251
343.576	625
343.662	182
343.749	1343
343.835	1412
343.921	3676
344.008	19786
344.094	57932
344.180	13329
344.267	3509
344.353	12455
344.439	17901
344.525	5593
344.612	2470
344.698	2576
344.784	2052
344.870	1211
344.957	1147
345.043	2529
345.129	1097
345.215	3242
345.301	1203
345.387	840
345.474	688
345.560	-432
345.646	1275
345.732	1468
345.818	1703
345.904	660
345.990	911
346.076	1476
346.162	3526
346.249	1454
346.335	731
346.421	781
346.507	4972
346.593	21624
346.679	5720
346.765	1568
346.851	1400
346.937	1058
347.023	1619
347.108	1686
347.194	1335
347.280	334
347.366	1233
347.452	5106
347.538	26040
347.624	19509
347.710	16222
347.796	2880
347.882	1666
347.967	210
348.053	1943
348.139	644
348.225	552
348.311	482
348.397	431
348.482	1300
348.568	1722
348.654	741
348.740	1875
348.825	1259
348.911	3260
348.997	9365
349.083	26302
349.168	4720
349.254	1100
349.340	1036
349.425	335
349.511	569
349.597	2379
349.682	3209
349.768	13800
349.854	7179
349.939	2026
350.025	453
350.110	1331
350.196	64
350.282	120
350.367	1163
350.453	2261
350.538	2403
350.624	1052
350.709	642
350.795	322
350.880	401
350.966	796
351.051	2081
351.137	1914
351.222	825
351.308	3568
351.393	11460
351.479	3212
351.564	405
351.649	702
351.735	939
351.820	410
351.906	422
351.991	1057
352.076	5921
352.162	12544
352.247	1951
352.332	642
352.418	1920
352.503	3516
352.588	14460
352.673	13374
352.759	2642
352.844	807
352.929	1244
353.014	1962
353.100	906
353.185	2044
353.270	2827
353.355	4506
353.441	768
353.526	1139
353.611	2370
353.696	3610
353.781	3123
353.866	811
353.952	1538
354.037	3309
354.122	7817
354.207	7114
354.292	2685
354.377	404
354.462	1229
354.547	1047
354.632	1073
354.717	3010
354.802	2251
354.887	1221
354.972	306
355.057	-71
355.142	286
355.227	1241
355.312	1287
355.397	4523
355.482	12423
355.567	6215
355.652	5051
355.737	4548
355.822	14989
355.907	15685
355.991	1757
356.076	653
356.161	317
356.246	936
356.331	1696
356.416	2901
356.501	26474
356.585	34518
356.670	3939
356.755	3409
356.840	2561
356.924	15141
357.009	69370
357.094	30046
357.179	4911
357.263	3028
357.348	3325
357.433	2831
357.517	2519
357.602	2256
357.687	1519
357.771	2369
357.856	10216
357.941	7801
358.025	12465
358.110	65878
358.195	35044
358.279	5027
358.364	2581
358.448	9541
358.533	29331
358.617	21812
358.702	22142
358.787	8811
358.871	3962
358.956	3360
359.040	1223
359.125	545
359.209	1124
359.294	4399
359.378	9092
359.462	3440
359.547	1331
359.631	1079
359.716	123
359.800	985
359.885	2505
359.969	955
360.053	1102
360.138	1187
360.222	1654
360.306	3556
360.391	2811
360.475	4894
360.559	12240
360.644	10545
360.728	8415
360.812	12757
360.896	46821
360.981	19166
361.065	8207
361.149	2087
361.233	2048
361.318	1841
361.402	1705
361.486	1828
361.570	626
361.654	1681
361.739	4129
361.823	24335
361.907	49564
361.991	8471
362.075	3322
362.159	7229
362.243	6823
362.327	6479
362.411	9505
362.495	5347
362.580	2180
362.664	2082
362.748	395
362.832	2542
362.916	3441
363.000	15061
363.084	40017
363.168	58425
363.252	14817
363.336	4807
363.420	5450
363.503	22977
363.587	33562
363.671	5742
363.755	2148
363.839	4825
363.923	1042
364.007	3782
364.091	5605
364.175	7776
364.258	42897
364.342	34839
364.426	36612
364.510	20984
364.594	8415
364.677	8199
364.761	37260
364.845	32069
364.929	7890
365.013	6459
365.096	4969
365.180	5775
365.264	8440
365.347	43417
365.431	22140
365.515	4881
365.598	1064
365.682	1668
365.766	3345
365.849	5423
365.933	1033
366.017	3405
366.100	2098
366.184	773
366.267	579
366.351	950
366.435	289
366.518	138
366.602	-165
366.685	1001
366.769	-34
366.852	2638
366.936	5647
367.019	2992
367.103	1480
367.186	6749
367.270	1338
367.353	110
367.436	1462
367.520	423
367.603	1293
367.687	1436
367.770	4576
367.853	3029
367.937	8108
368.020	18825
368.104	4097
368.187	3001
368.270	4557
368.353	4052
368.437	5974
368.520	18935
368.603	10877
368.687	9684
368.770	23961
368.853	5517
368.936	4867
369.020	5835
369.103	1731
369.186	411
369.269	824
369.352	2388
369.436	4422
369.519	2923
369.602	262
369.685	2159
369.768	1073
369.851	1394
369.934	-175
370.018	494
370.101	3043
370.184	4854
370.267	1730
370.350	3607
370.433	5604
370.516	17131
370.599	30601
370.682	9091
370.765	10416
370.848	13589
370.931	29801
371.014	12681
371.097	1078
371.180	1214
371.263	504
371.346	560
371.429	821
371.511	700
371.594	1433
371.677	4681
371.760	6309
371.843	4042
371.926	17308
372.009	52738
372.091	18623
372.174	9043
372.257	28015
372.340	12086
372.423	6961
372.505	11052
372.588	3910
372.671	5585
372.754	27075
372.836	16170
372.919	10494
373.002	26632
373.085	6968
373.167	3727
373.250	9300
373.332	25461
373.415	31578
373.498	77951
373.580	31484
373.663	36556
373.746	57360
373.828	12382
373.911	5098
373.993	3564
374.076	21788
374.159	25060
374.241	6939
374.324	22020
374.406	16353
374.489	17227
374.571	59998
374.654	27667
374.736	10064
374.819	34570
374.901	51419
374.983	61190
375.066	11359
375.148	3406
375.231	15770
375.313	40332
375.395	14850
375.478	2811
375.560	1340
375.643	2463
375.725	8125
375.807	47691
375.890	44927
375.972	19359
376.054	8564
376.136	15843
376.219	6846
376.301	10117
376.383	43007
376.465	18543
376.548	8172
376.630	9587
376.712	33841
376.794	18291
376.877	1230
376.959	814
377.041	1349
377.123	3960
377.205	5555
377.287	1536
377.369	-111
377.452	1022
377.534	943
377.616	1296
377.698	165
377.780	133
377.862	342
377.944	1065
378.026	76
378.108	938
378.190	307
378.272	774
378.354	216
378.436	529
378.518	1031
378.600	8992
378.682	6600
378.764	13920
378.846	12695
378.928	3291
379.010	3670
379.091	2582
379.173	408
379.255	-122
379.337	1510
379.419	5952
379.501	22640
379.583	10177
379.664	1919
379.746	3599
379.828	13552
379.910	19789
379.991	19789
380.073	2679
380.155	1715
380.237	1203
380.318	108
380.400	879
380.482	2214
380.564	4364
380.645	3314
380.727	3730
380.809	1867
380.890	1152
380.972	450
381.053	1663
381.135	1479
381.217	3311
381.298	15673
381.380	7414
381.461	5046
381.543	30502
381.624	48162
381.706	9227
381.787	2837
381.869	3954
381.951	10133
382.032	55307
382.113	40228
382.195	6717
382.276	4796
382.358	7879
382.439	27462
382.521	32331
382.602	57312
382.684	24925
382.765	40717
382.846	46951
382.928	63290
383.009	38930
383.090	21275
383.172	83688
383.253	151618
383.334	52630
383.416	50047
383.497	29316
383.578	10790
383.659	18423
383.741	70425
383.822	216327
383.903	125959
383.984	34313
384.066	57644
384.147	39288
384.228	8734
384.309	4944
384.390	3274
384.471	2978
384.553	1659
384.634	4568
384.715	4180
384.796	2266
384.877	2123
384.958	12687
385.039	18129
385.120	5574
385.201	3354
385.282	3939
385.363	4381
385.444	3411
385.525	4576
385.606	20678
385.687	21229
385.768	5551
385.849	5036
385.930	20242
386.011	44848
386.092	13279
386.173	2133
386.254	2647
386.335	3014
386.416	1617
386.496	6963
386.577	16314
386.658	6008
386.739	3160
386.820	3904
386.901	2336
386.981	2274
387.062	1339
387.143	2996
387.224	14234
387.304	16364
387.385	4762
387.466	2451
387.547	5628
387.627	2575
387.708	4690
387.789	24374
387.869	36440
387.950	10530
388.031	1796
388.111	420
388.192	6091
388.273	9591
388.353	6085
388.434	2272
388.514	4102
388.595	23207
388.676	36347
388.756	15585
388.837	13250
388.917	8969
388.998	611
389.078	1672
389.159	1029
389.239	66
389.320	2717
389.400	1320
389.480	4498
389.561	15957
389.641	10018
389.722	2357
389.802	2923
389.883	5483
389.963	19558
390.043	14282
390.124	3516
390.204	4042
390.284	15752
390.365	11355
390.445	15158
390.525	45220
390.605	43910
390.686	10281
390.766	3885
390.846	2671
390.927	77
391.007	760
391.087	2282
391.167	646
391.247	1013
391.328	3467
391.408	5333
391.488	4004
391.568	815
391.648	1084
391.728	3734
391.808	2506
391.888	3568
391.969	7243
392.049	14587
392.129	7226
392.209	6679
392.289	18867
392.369	11634
392.449	10892
392.529	7410
392.609	4966
392.689	6301
392.769	17676
392.849	19052
392.929	12722
393.009	30264
393.089	27042
393.169	27152
393.248	79370
393.328	310415
393.408	380052
393.488	118443
393.568	30144
393.648	14459
393.728	7498
393.807	5970
393.887	5769
393.967	4633
394.047	4641
394.127	5225
394.206	8988
394.286	27858
394.366	141059
394.446	179552
394.525	46299
394.605	10669
394.685	5944
394.764	14727
394.844	26015
394.924	20677
395.003	5763
395.083	3628
395.163	3091
395.242	1946
395.322	3000
395.402	874
395.481	3624
395.561	8159
395.640	28543
395.720	24460
395.799	32032
395.879	29569
395.958	14118
396.038	43074
396.117	186909
396.197	237749
396.276	75642
396.356	23127
396.435	15539
396.515	11195
396.594	11311
396.673	23030
396.753	81105
396.832	294208
396.912	246071
396.991	57874
397.070	15217
397.150	7450
397.229	5521
397.308	6666
397.388	12466
397.467	6873
397.546	2712
397.625	885
397.705	2997
397.784	2477
397.863	1735
397.942	864
398.022	1187
398.101	5887
398.180	27173
398.259	16464
398.338	3635
398.417	1874
398.497	1135
398.576	2440
398.655	-104
398.734	908
398.813	1276
398.892	5754
398.971	28962
399.050	16878
399.129	1431
399.208	757
399.287	781
399.366	74
399.445	-207
399.524	914
399.603	-61
399.682	1790
399.761	6071
399.840	28403
399.919	27744
399.998	4036
400.077	-283
400.156	-556
400.235	2370
400.313	558
400.392	289
400.471	5886
400.550	12879
400.629	3773
400.708	1141
400.786	645
400.865	4140
400.944	5444
401.023	3788
401.102	176
401.180	-449
401.259	-90
401.338	246
401.416	1480
401.495	408
401.574	1703
401.652	93
401.731	1294
401.810	163
401.888	-431
401.967	-421
402.046	246
402.124	490
402.203	1371
402.281	132
402.360	585
402.438	7036
402.517	5309
402.596	1070
402.674	832
402.753	86
402.831	777
402.910	-400
402.988	2319
403.066	12383
403.145	9086
403.223	2533
403.302	9216
403.380	7584
403.459	7549
403.537	2597
403.615	655
403.694	-400
403.772	382
403.850	-582
403.929	-139
404.007	-1239
404.085	1156
404.164	424
404.242	154
404.320	2750
404.398	11089
404.477	13882
404.555	41340
404.633	43637
404.711	12388
404.789	5575
404.868	849
404.946	-55
405.024	86
405.102	-51
405.180	-83
405.258	-1280
405.336	322
405.415	-406
405.493	2518
405.571	1534
405.649	-132
405.727	-1676
405.805	1281
405.883	170
405.961	1730
406.039	1677
406.117	-434
406.195	877
406.273	4945
406.351	34045
406.429	25747
406.507	3314
406.585	785
406.663	358
406.740	726
406.818	561
406.896	-459
406.974	929
407.052	770
407.130	15654
407.208	30823
407.285	6523
407.363	-519
407.441	-457
407.519	410
407.596	575
407.674	4503
407.752	27167
407.830	28677
407.907	6870
407.985	631
408.063	232
408.141	-345
408.218	1150
408.296	265
408.373	-598
408.451	249
408.529	259
408.606	-1370
408.684	-654
408.762	240
408.839	-588
408.917	-1075
408.994	-598
409.072	-512
409.149	-795
409.227	596
409.304	611
409.382	1137
409.459	436
409.537	2139
409.614	1472
409.692	993
409.769	160
409.846	1870
409.924	3318
410.001	896
410.079	302
410.156	1388
410.233	497
410.311	281
410.388	70
410.465	502
410.543	-245
410.620	336
410.697	-449
410.775	269
410.852	-827
410.929	1121
411.006	1138
411.083	119
411.161	-109
411.238	2281
411.315	1236
411.392	-1022
411.469	586
411.547	417
411.624	-1584
411.701	-11
411.778	-195
411.855	1171
411.932	-1194
412.009	-558
412.086	-619
412.163	486
412.240	-889
412.317	1101
412.394	640
412.471	395
412.548	-448
412.625	-945
412.702	266
412.779	1307
412.856	511
412.933	-688
413.010	-100
413.087	118
413.164	4478
413.241	10106
413.318	925
413.395	742
413.471	977
413.548	546
413.625	254
413.702	-258
413.779	109
413.855	-729
413.932	-1706
414.009	-1519
414.086	-871
414.162	-577
414.239	310
414.316	4618
414.393	14688
414.469	5630
414.546	-275
414.623	-399
414.699	-684
414.776	-376
414.853	-901
414.929	-29
415.006	90
415.082	-391
415.159	108
415.236	-792
415.312	-1253
415.389	1466
415.465	660
415.542	632
415.618	-1203
415.695	1531
415.771	-881
415.848	-894
415.924	0
416.000	-52
416.077	668
416.153	-1531
416.230	-1626
416.306	-614
416.383	-685
416.459	114
416.535	-1283
416.612	-488
416.688	-241
416.764	-81
416.841	-1492
416.917	-163
416.993	-633
417.069	191
417.146	323
417.222	772
417.298	144
417.374	-594
417.451	-166
417.527	-466
417.603	-1396
417.679	178
417.755	165
417.831	-932
417.908	-727
417.984	-801
418.060	-1497
418.136	787
418.212	1578
418.288	-16
418.364	372
418.440	-473
418.516	-183
418.592	949
418.668	2201
418.744	3860
418.820	2361
418.896	472
418.972	-1326
419.048	-840
419.124	1003
419.200	649
419.276	-305
419.352	-1131
419.428	-856
419.504	-457
419.579	-464
419.655	-415
419.731	-522
419.807	1487
419.883	3010
419.959	3202
420.034	478
420.110	974
420.186	8228
420.262	8168
420.337	1347
420.413	-188
420.489	-419
420.565	132
420.640	-661
420.716	574
420.792	-1326
420.867	362
420.943	-798
421.019	369
421.094	-96
421.170	121
421.245	-1264
421.321	58
421.397	-486
421.472	3294
421.548	14656
421.623	11273
421.699	1570
421.774	629
421.850	97
421.925	2343
422.001	1438
422.076	1145
422.152	2372
422.227	2774
422.302	5116
422.378	7286
422.453	13519
422.529	35032
422.604	100617
422.679	176236
422.755	129973
422.830	51432
422.905	19856
422.981	9103
423.056	4772
423.131	4151
423.207	2427
423.282	1964
423.357	2791
423.432	1578
423.508	1365
423.583	4178
423.658	3244
423.733	1093
423.808	-82
423.883	1361
423.959	256
424.034	723
424.109	192
424.184	-455
424.259	-68
424.334	-362
424.409	-686
424.484	-336
424.559	-593
424.634	-79
424.709	-351
424.784	926
424.859	-459
424.934	-155
425.009	4515
425.084	9864
425.159	3886
425.234	882
425.309	-827
425.384	1651
425.459	3577
425.534	1004
425.609	-568
425.683	416
425.758	-710
425.833	-568
425.908	-708
425.983	2087
426.058	10378
426.132	4697
426.207	-178
426.282	1984
426.357	800
426.431	246
426.506	-517
426.581	-297
426.655	-408
426.730	-1088
426.805	-724
426.879	360
426.954	-458
427.029	-118
427.103	7148
427.178	27450
427.253	14578
427.327	1362
427.402	609
427.476	4761
427.551	1175
427.625	272
427.700	55
427.774	-414
427.849	206
427.923	-815
427.998	-696
428.072	-1123
428.147	2004
428.221	8376
428.296	36695
428.370	24422
428.444	2646
428.519	1431
428.593	4219
428.667	4917
428.742	4923
428.816	6107
428.890	20349
428.965	41457
429.039	13526
429.113	6606
429.188	2290
429.262	-102
429.336	71
429.410	3554
429.485	2719
429.559	3571
429.633	3551
429.707	-188
429.781	1750
429.855	22657
429.930	40467
430.004	19525
430.078	26551
430.152	26259
430.226	45326
430.300	59216
430.374	9903
430.448	2067
430.522	5285
430.596	25689
430.670	17232
430.744	32084
430.818	57396
430.892	13461
430.966	370
431.040	-169
431.114	-1376
431.188	-647
431.262	-658
431.336	-254
431.410	1214
431.484	5431
431.557	4360
431.631	152
431.705	-537
431.779	3707
431.853	30764
431.927	27694
432.000	2635
432.074	234
432.148	-272
432.222	175
432.295	-1022
432.369	-260
432.443	126
432.516	8044
432.590	29289
432.664	14022
432.737	474
432.811	-906
432.885	-1552
432.958	-801
433.032	-344
433.106	-1456
433.179	-605
433.253	-445
433.326	-575
433.400	-798
433.473	-1193
433.547	-1130
433.620	-1057
433.694	-631
433.767	215
433.841	-819
433.914	-1097
433.988	-733
434.061	-1160
434.134	-1291
434.208	-706
434.281	-851
434.355	-1239
434.428	-300
434.501	-1251
434.575	-348
434.648	-449
434.721	-1167
434.795	-551
434.868	-630
434.941	-1692
435.014	-1142
435.088	-1465
435.161	-870
435.234	-64
435.307	777
435.381	-314
435.454	-735
435.527	-297
435.600	863
435.673	-144
435.746	-593
435.819	-188
435.892	-192
435.966	-297
436.039	-541
436.112	-75
436.185	-766
436.258	-942
436.331	-1277
436.404	-1192
436.477	-1188
436.550	-1208
436.623	-772
436.696	-1280
436.769	-1119
436.842	-787
436.915	-203
436.987	-311
437.060	-316
437.133	-1373
437.206	-1484
437.279	-522
437.352	-1077
437.425	-1144
437.498	-141
437.570	51
437.643	-54
437.716	-644
437.789	-896
437.861	-742
437.934	1773
438.007	935
438.080	-1173
438.152	2
438.225	219
438.298	9919
438.370	42250
438.443	19834
438.516	3044
438.588	233
438.661	-856
438.734	-661
438.806	-346
438.879	-575
438.951	-665
439.024	239
439.096	-688
439.169	-739
439.241	-455
439.314	-1318
439.386	-618
439.459	441
439.531	788
439.604	-426
439.676	-392
439.749	-572
439.821	-1137
439.893	-935
439.966	-579
440.038	-1404
440.110	96
440.183	-1104
440.255	-985
440.327	-608
440.400	3094
440.472	22446
440.544	17535
440.617	674
440.689	334
440.761	-313
440.833	1399
440.905	825
440.978	-464
441.050	-883
441.122	107
441.194	-809
441.266	-752
441.338	-637
441.411	-42
441.483	4072
441.555	10000
441.627	1118
441.699	1230
441.771	-70
441.843	-590
441.915	-669
441.987	-1257
442.059	-1000
442.131	0
442.203	439
442.275	563
442.347	1583
442.419	2124
442.491	10524
442.563	39396
442.635	19429
442.706	6619
442.778	5160
442.850	480
442.922	-515
442.994	-154
443.066	-269
443.137	230
443.209	149
443.281	1477
443.353	2921
443.425	15165
443.496	66362
443.568	74442
443.640	29257
443.711	5096
443.783	1125
443.855	496
443.926	356
443.998	-556
444.070	898
444.141	614
444.213	54
444.285	1384
444.356	-149
444.428	142
444.499	-221
444.571	-279
444.642	-1070
444.714	-116
444.785	60
444.857	921
444.928	3386
445.000	2931
445.071	2480
445.143	3708
445.214	1875
445.285	3319
445.357	11492
445.428	39180
445.500	109647
445.571	74818
445.642	39845
445.714	13581
445.785	9459
445.856	1057
445.928	376
445.999	855
446.070	38
446.141	231
446.213	581
446.284	-866
446.355	666
446.426	-310
446.497	-939
446.569	644
446.640	710
446.711	903
446.782	-199
446.853	274
446.924	475
446.995	-382
447.066	137
447.138	585
447.209	-378
447.280	-883
447.351	-1324
447.422	-681
447.493	-420
447.564	-423
447.635	-652
447.706	-688
447.777	-1233
447.847	-725
447.918	-460
447.989	-692
448.060	-462
448.131	1487
448.202	923
448.273	959
448.344	-214
448.414	-549
448.485	-451
448.556	-358
448.627	-1320
448.698	-475
448.768	-1747
448.839	-585
448.910	-224
448.981	516
449.051	-454
449.122	-774
449.193	-614
449.263	-609
449.334	-765
449.405	-418
449.475	1167
449.546	554
449.616	394
449.687	722
449.758	-700
449.828	-1526
449.899	-1308
449.969	-693
450.040	-985
450.110	87
450.181	-148
450.251	-971
450.322	-460
450.392	502
450.463	-986
450.533	-1222
450.604	-452
450.674	-243
450.744	-147
450.815	-336
450.885	-814
450.955	-481
451.026	-669
451.096	-746
451.166	-173
451.237	490
451.307	4867
451.377	1147
451.447	-1139
451.518	-802
451.588	-1088
451.658	-196
451.728	-462
451.799	3825
451.869	5678
451.939	325
452.009	-512
452.079	-809
452.149	-743
452.219	-252
452.289	5212
452.360	4391
452.430	-116
452.500	-949
452.570	-522
452.640	863
452.710	4185
452.780	7902
452.850	2996
452.920	2883
452.990	310
453.060	142
453.129	-58
453.199	1382
453.269	4147
453.339	12838
453.409	21573
453.479	18870
453.549	30702
453.619	34298
453.688	12617
453.758	1209
453.828	-732
453.898	-69
453.968	-137
454.037	-312
454.087	-280
454.107	-269
454.168	-529
454.177	-574
454.247	-1029
454.249	-985
454.316	11
454.330	-45
454.386	-329
454.411	335
454.456	1390
454.492	2523
454.525	3511
454.574	1548
454.595	696
454.655	-654
454.665	-867
454.734	-27
454.736	-8
454.804	194
454.817	1043
454.873	4402
454.898	4965
454.943	5901
454.979	3576
455.013	1453
455.060	86
455.082	-453
455.141	25
455.152	94
455.221	2292
455.222	2375
455.291	7690
455.303	7302
455.360	5252
455.384	8040
455.430	12480
455.465	9693
455.499	7071
455.546	5368
455.569	4610
455.627	2971
455.638	2665
455.707	-353
455.708	-349
455.777	-497
455.789	-429
455.846	-198
455.869	-235
455.916	-257
455.950	-275
455.985	-310
456.031	-660
456.054	-862
456.112	-397
456.124	-276
456.193	-616
456.193	-626
456.262	-168
456.274	-71
456.332	394
456.355	501
456.401	615
456.436	1
456.470	-680
456.516	-655
456.540	-553
456.597	-658
456.609	-731
456.678	-421
456.678	-422
456.747	-275
456.759	-234
456.817	-108
456.840	-210
456.886	-379
456.920	-364
456.955	-375
457.001	-171
457.024	-93
457.082	239
457.093	332
457.162	63
457.163	72
457.232	856
457.243	800
457.301	117
457.324	-138
457.370	-294
457.405	-177
457.439	-165
457.485	-239
457.508	-239
457.566	474
457.577	620
457.646	240
457.647	246
457.715	776
457.727	897
457.784	1857
457.808	2664
457.853	3783
457.889	5157
457.922	5574
457.969	3590
457.991	3450
458.050	4028
458.060	4159
458.129	6884
458.130	7005
458.198	9747
458.211	8923
458.267	4619
458.292	3192
458.336	1772
458.372	1393
458.405	1730
458.453	2220
458.474	2848
458.533	6353
458.543	6782
458.611	13726
458.614	13863
458.680	10873
458.694	8823
458.749	3431
458.775	2207
458.818	842
458.855	581
458.887	409
458.936	307
458.955	307
459.016	470
459.024	489
459.093	90
459.097	104
459.162	25
459.177	37
459.230	487
459.257	627
459.299	579
459.338	314
459.368	291
459.418	938
459.437	1045
459.499	611
459.505	575
459.574	190
459.579	182
459.643	13
459.659	149
459.711	493
459.740	300
459.780	320
459.820	703
459.849	762
459.900	314
459.917	268
459.981	1037
459.986	1068
460.054	451
460.061	471
460.123	818
460.141	760
460.191	741
460.222	1086
460.260	1497
460.302	1779
460.328	1766
460.382	1693
460.397	1680
460.462	950
460.465	948
460.534	2046
460.543	2089
460.602	7467
460.623	9916
460.671	17085
460.703	24639
460.739	26187
460.783	26717
460.808	24410
460.864	6618
460.876	4655
460.944	1229
460.945	1198
461.013	1198
461.024	1196
461.081	551
461.104	402
461.150	442
461.184	413
461.218	485
461.264	366
461.286	220
461.345	196
461.355	247
461.423	365
461.425	378
461.491	438
461.505	474
461.559	1318
461.585	1565
461.628	2977
461.665	4593
461.696	5361
461.745	7377
461.764	6796
461.825	2264
461.832	2089
461.901	1078
461.905	1058
461.969	814
461.985	705
462.037	973
462.065	1195
462.105	947
462.145	637
462.173	1194
462.225	2263
462.241	2513
462.305	4279
462.310	4209
462.378	2582
462.385	2302
462.446	859
462.465	454
462.514	304
462.545	496
462.582	370
462.625	213
462.650	388
462.705	848
462.718	1054
462.785	1532
462.786	1527
462.854	1636
462.865	1575
462.922	1585
462.945	1876
462.990	2081
463.025	1791
463.058	1104
463.104	258
463.126	253
463.184	398
463.194	495
463.262	1049
463.264	1073
463.330	1283
463.344	1331
463.398	1224
463.424	999
463.466	709
463.504	824
463.533	1028
463.583	852
463.601	845
463.663	1010
463.669	1038
463.737	1528
463.743	1577
463.805	2243
463.823	2413
463.873	4424
463.903	5787
463.940	6585
463.982	7507
464.008	6064
464.062	2405
464.076	2168
464.142	596
464.144	583
464.211	866
464.221	886
464.279	977
464.301	1046
464.347	1083
464.381	1124
464.414	1433
464.461	1619
464.482	1549
464.540	1695
464.550	1673
464.617	1473
464.620	1454
464.685	1604
464.699	1679
464.753	2149
464.779	2414
464.820	2316
464.859	2108
464.888	2007
464.938	1864
464.956	2014
465.018	2575
465.023	2577
465.091	2432
465.098	2422
465.158	2483
465.177	2504
465.226	2310
465.257	2218
465.293	2233
465.336	2089
465.361	2346
465.416	3084
465.428	3126
465.495	3216
465.496	3237
465.563	5760
465.575	6174
465.631	8010
465.654	8989
465.698	6651
465.734	4190
465.765	3021
465.813	1361
465.833	1553
465.893	2270
465.900	2276
465.968	2426
465.972	2426
466.035	2546
466.052	2581
466.102	2326
466.131	2154
466.170	2116
466.210	2117
466.237	2290
466.290	2558
466.304	2543
466.369	2536
466.372	2560
466.439	3107
466.449	3186
466.506	3537
466.528	3649
466.573	4539
466.607	5250
466.641	6989
466.687	9327
466.708	10453
466.766	13632
466.775	12833
466.842	6675
466.845	6369
466.909	3773
466.925	3172
466.977	3569
467.004	3815
467.044	3359
467.083	2869
467.111	3002
467.163	3284
467.178	3571
467.242	4726
467.245	4704
467.312	4157
467.321	4082
467.379	3639
467.400	3469
467.446	3936
467.480	4270
467.559	3866
467.638	2913
467.717	2451
467.796	3742
467.875	3285
467.955	3500
468.034	4092
468.113	11319
468.192	16351
468.271	6374
468.350	2959
468.429	3720
468.508	3368
468.588	3259
468.667	1760
468.746	2979
468.825	2446
468.904	2768
468.983	2364
469.062	3786
469.141	5668
469.220	2531
469.299	2441
469.378	2005
469.456	3364
469.535	2387
469.614	3413
469.693	2554
469.772	4215
469.851	5701
469.930	3636
470.009	2009
470.088	1683
470.166	3322
470.245	4259
470.324	5131
470.403	3207
470.482	2574
470.560	2724
470.639	2471
470.718	2554
470.797	3213
470.875	2591
470.954	3348
471.033	4678
471.111	2270
471.190	1632
471.269	1967
471.347	1825
471.426	2279
471.505	1825
471.583	1847
471.662	2679
471.740	2017
471.819	1719
471.898	2231
471.976	2549
472.055	1939
472.133	2606
472.212	4178
472.290	3350
472.369	2681
472.447	2399
472.526	1490
472.604	2099
472.683	1801
472.761	2492
472.839	2172
472.918	1919
472.996	2280
473.075	2584
473.153	2520
473.231	1857
473.310	2785
473.388	1643
473.466	2531
473.545	2355
473.623	2803
473.701	2731
473.780	2795
473.858	912
473.936	2458
474.014	1504
474.093	2572
474.171	4050
474.249	4825
474.327	3065
474.405	1841
474.484	1729
474.562	1428
474.640	1817
474.718	2571
474.796	2341
474.874	1960
474.952	1516
475.030	1372
475.108	2192
475.187	2789
475.265	2695
475.343	2849
475.421	3137
475.499	2097
475.577	2214
475.655	3222
475.733	5016
475.811	8787
475.889	8377
475.966	7720
476.044	1734
476.122	1988
476.200	2327
476.278	2008
476.356	1605
476.434	2139
476.512	1734
476.590	2290
476.667	2266
476.745	1282
476.823	1765
476.901	2148
476.979	2712
477.056	2478
477.134	1749
477.212	2103
477.290	2490
477.367	954
477.445	2196
477.523	1890
477.601	1766
477.678	2245
477.756	2098
477.834	3000
477.911	1394
477.989	1657
478.066	1388
478.144	2657
478.222	1963
478.299	1586
478.377	2548
478.454	1987
478.532	1476
478.609	1423
478.687	1873
478.764	1632
478.842	1456
478.919	1120
478.997	1329
479.074	1448
479.152	1716
479.229	2757
479.307	755
479.384	1198
479.461	1077
479.539	2217
479.616	2096
479.694	1674
479.771	2801
479.848	1874
479.926	1865
480.003	4559
480.080	1340
480.157	2027
480.235	1553
480.312	1548
480.389	1877
480.467	2797
480.544	3952
480.621	2560
480.698	2666
480.775	2335
480.853	2635
480.930	1625
481.007	1688
481.084	1861
481.161	2941
481.238	2435
481.315	1777
481.392	1308
481.470	1447
481.547	1531
481.624	1706
481.701	935
481.778	1611
481.855	1689
481.932	2777
482.009	5633
482.086	5157
482.163	1645
482.240	1705
482.317	2922
482.393	2440
482.470	1256
482.547	1966
482.624	2268
482.701	1150
482.778	2229
482.855	1111
482.932	1450
483.009	1441
483.085	1618
483.162	3061
483.239	2293
483.316	1383
483.393	2105
483.469	1673
483.546	2496
483.623	2329
483.699	1959
483.776	533
483.853	1619
483.930	2475
484.006	7438
484.083	15156
484.160	8966
484.236	9913
484.313	7993
484.389	5775
484.466	5422
484.543	4164
484.619	4951
484.696	5395
484.772	5610
484.849	6074
484.925	4707
485.002	4708
485.078	4843
485.155	4561
485.231	3794
485.308	4233
485.384	4255
485.461	5790
485.537	8045
485.614	11659
485.690	5364
485.766	4340
485.843	4380
485.919	4220
485.995	5930
486.072	3844
486.148	3200
486.224	4082
486.301	4539
486.377	3864
486.453	3939
486.530	4396
486.606	6273
486.682	6461
486.758	8066
486.835	9645
486.911	6819
486.987	10529
487.063	12637
487.139	11503
487.215	9623
487.292	6799
487.368	4557
487.444	4602
487.520	6418
487.596	7345
487.672	10245
487.748	23327
487.824	40011
487.900	17879
487.976	6736
488.052	5033
488.128	5208
488.204	5330
488.280	4524
488.356	5069
488.432	8499
488.508	16481
488.584	7487
488.660	3712
488.736	4467
488.812	3257
488.888	4517
488.964	5421
489.039	10177
489.115	17090
489.191	13388
489.267	3895
489.343	3508
489.418	3006
489.494	2795
489.570	1909
489.646	3148
489.722	3069
489.797	3550
489.873	4633
489.949	10638
490.024	12530
490.100	3242
490.176	2798
490.251	3103
490.327	4480
490.403	3461
490.478	2791
490.554	2166
490.629	2417
490.705	2287
490.781	3126
490.856	2734
490.932	3623
491.007	2591
491.083	3085
491.158	2901
491.234	3340
491.309	7573
491.385	10395
491.460	3452
491.536	3308
491.611	2948
491.686	2759
491.762	4464
491.837	6275
491.913	12710
491.988	16421
492.063	22818
492.139	8987
492.214	5327
492.289	2593
492.365	2153
492.440	2501
492.515	2514
492.590	3097
492.666	2090
492.741	3120
492.816	4383
492.891	3534
492.967	2885
493.042	2135
493.117	3045
493.192	2882
493.267	5128
493.342	16308
493.418	31213
493.493	6838
493.568	1488
493.643	1968
493.718	2438
493.793	3518
493.868	4111
493.943	3038
494.018	2349
494.093	1367
494.168	1992
494.243	1643
494.318	2060
494.393	1513
494.468	957
494.543	1735
494.618	2192
494.693	1529
494.768	1800
494.842	1862
494.917	1614
494.992	1484
495.067	1410
495.142	1393
495.217	1275
495.292	1816
495.366	1575
495.441	1801
495.516	4202
495.591	3861
495.665	12266
495.740	34639
495.815	20709
495.890	3587
495.964	1788
496.039	4280
496.114	2871
496.188	3982
496.263	4138
496.338	3043
496.412	1828
496.487	3077
496.561	3620
496.636	3313
496.710	3093
496.785	3072
496.860	4044
496.934	3299
497.009	2945
497.083	3091
497.158	3407
497.232	3749
497.307	5202
497.381	3108
497.455	5315
497.530	6496
497.604	5368
497.679	5138
497.753	7951
497.827	11541
497.902	11765
497.976	12147
498.050	20599
498.125	77570
498.199	115394
498.273	23664
498.348	13435
498.422	11445
498.496	9692
498.570	9107
498.645	6696
498.719	5668
498.793	7291
498.867	9537
498.941	12064
499.016	27582
499.090	92151
499.164	56265
499.238	5047
499.312	3000
499.386	4334
499.460	3942
499.534	4856
499.609	3923
499.683	5915
499.757	7420
499.831	11240
499.905	51880
499.979	74708
500.053	11352
500.127	7735
500.201	4765
500.275	4272
500.349	2871
500.422	3303
500.496	4812
500.570	10091
500.644	26298
500.718	63881
500.792	24766
500.866	3838
500.940	4088
501.013	4182
501.087	3452
501.161	5029
501.235	6172
501.309	15534
501.382	47179
501.456	60982
501.530	11944
501.603	15323
501.677	9551
501.751	2040
501.825	4396
501.898	6175
501.972	17839
502.046	19223
502.119	3115
502.193	7373
502.266	20618
502.340	16080
502.413	8218
502.487	19853
502.561	14246
502.634	4207
502.708	2685
502.781	1328
502.855	1981
502.928	515
503.002	655
503.075	999
503.149	1199
503.222	1537
503.295	2016
503.369	2697
503.442	2990
503.516	12415
503.589	37642
503.662	32408
503.736	8463
503.809	16821
503.882	18132
503.956	19236
504.029	25914
504.102	14094
504.175	21307
504.249	9782
504.322	3291
504.395	2755
504.468	2225
504.542	2273
504.615	666
504.688	1663
504.761	293
504.834	2553
504.907	1824
504.980	3713
505.053	2142
505.127	314
505.200	3892
505.273	2803
505.346	2375
505.419	928
505.492	1519
505.565	922
505.638	1246
505.711	333
505.784	720
505.857	357
505.930	2256
506.003	817
506.076	2024
506.149	1639
506.221	2436
506.294	2349
506.367	4827
506.440	25068
506.513	22696
506.586	3963
506.659	1582
506.731	1485
506.804	1426
506.877	2054
506.950	1722
507.022	1005
507.095	923
507.168	2618
507.241	1423
507.313	-109
507.386	-295
507.459	1730
507.531	1344
507.604	876
507.677	1416
507.749	-542
507.822	1650
507.894	3162
507.967	3929
508.040	1567
508.112	1872
508.185	1543
508.257	1213
508.330	3074
508.402	1620
508.475	1649
508.547	2014
508.620	1502
508.692	3106
508.765	2855
508.837	1281
508.909	1501
508.982	1454
509.054	1544
509.127	712
509.199	1318
509.271	923
509.344	999
509.416	1007
509.488	1237
509.560	1488
509.633	1590
509.705	1167
509.777	1887
509.849	1881
509.922	1027
509.994	942
510.066	2303
510.138	-229
510.210	4093
510.283	2422
510.355	2762
510.427	2246
510.499	3294
510.571	2178
510.643	1514
510.715	3260
510.787	2161
510.859	2086
510.931	1540
511.003	2472
511.076	3537
511.148	1064
511.219	1824
511.291	2695
511.363	4838
511.435	2484
511.507	1181
511.579	1878
511.651	1785
511.723	1377
511.795	1000
511.867	972
511.939	1660
512.010	4500
512.082	5907
512.154	1089
512.226	2459
512.298	1797
512.369	4648
512.441	3169
512.513	3239
512.585	1352
512.656	2118
512.728	1465
512.800	1689
512.871	2239
512.943	1537
513.015	975
513.086	1257
513.158	2089
513.230	1676
513.301	2955
513.373	3817
513.444	2128
513.516	1508
513.588	1701
513.659	2576
513.731	2336
513.802	1868
513.874	3231
513.945	6212
514.016	2785
514.088	1235
514.159	1509
514.231	2768
514.302	3577
514.374	2548
514.445	1616
514.516	5789
514.588	5155
514.659	2125
514.730	4605
514.802	5608
514.873	1503
514.944	4517
515.016	2531
515.087	3320
515.158	2695
515.229	6409
515.301	4037
515.372	5604
515.443	3130
515.514	2419
515.585	818
515.656	2289
515.728	1690
515.799	1194
515.870	1603
515.941	2050
516.012	1085
516.083	3037
516.154	2096
516.225	4692
516.296	3575
516.367	3656
516.438	3639
516.509	3485
516.580	5646
516.651	15994
516.722	67219
516.793	48991
516.864	7784
516.935	7504
517.006	8088
517.077	9737
517.148	18423
517.219	70874
517.289	163868
517.360	52575
517.431	21299
517.502	3617
517.573	3552
517.643	2211
517.714	3357
517.785	4006
517.856	3685
517.926	5733
517.997	6016
518.068	7285
518.138	11159
518.209	14616
518.280	46307
518.350	220702
518.421	135813
518.492	13194
518.562	6640
518.633	5420
518.703	4776
518.774	10333
518.845	21804
518.915	28415
518.986	9822
519.056	5262
519.127	7128
519.197	11139
519.268	25903
519.338	29789
519.408	5377
519.479	4053
519.549	3929
519.620	3553
519.690	1693
519.760	2725
519.831	1877
519.901	1496
519.971	1928
520.042	2108
520.112	1107
520.182	2354
520.253	3167
520.323	1632
520.393	2839
520.463	5356
520.534	706
520.604	7767
520.674	3984
520.744	2738
520.814	6642
520.885	7966
520.955	6437
521.025	33699
521.095	24473
521.165	3535
521.235	1233
521.305	1093
521.375	2145
521.445	2042
521.515	1910
521.585	3238
521.655	1488
521.725	2453
521.795	1878
521.865	834
521.935	3768
522.005	2724
522.075	927
522.145	2181
522.215	1271
522.285	3475
522.355	4008
522.424	8799
522.494	8120
522.564	3696
522.634	4484
522.704	15431
522.774	8359
522.843	1813
522.913	2119
522.983	1806
523.053	1672
523.122	1610
523.192	1635
523.262	6898
523.331	10403
523.401	2485
523.471	1082
523.540	1981
523.610	8
523.680	1532
523.749	1292
523.819	1745
523.888	1812
523.958	853
524.027	1374
524.097	855
524.166	1386
524.236	872
524.305	1894
524.375	1022
524.444	639
524.514	2206
524.583	710
524.653	1382
524.722	2168
524.791	1021
524.861	2136
524.930	423
524.999	505
525.069	2097
525.138	1564
525.207	2221
525.277	2476
525.346	486
525.415	1167
525.484	1886
525.554	1492
525.623	2178
525.692	2712
525.761	2265
525.830	2588
525.900	3311
525.969	4368
526.038	8295
526.107	12611
526.176	47534
526.245	49127
526.314	15898
526.383	21715
526.452	37012
526.522	51379
526.591	75792
526.660	18250
526.729	8737
526.797	9630
526.867	12337
526.935	53669
527.004	127401
527.073	106565
527.142	10492
527.211	3167
527.280	3230
527.349	2679
527.418	1778
527.487	1730
527.555	508
527.624	513
527.693	-379
527.762	1759
527.831	560
527.899	840
527.968	1312
528.037	-722
528.106	1482
528.174	2187
528.243	2795
528.312	2349
528.380	4998
528.449	385
528.518	2296
528.586	-389
528.655	1546
528.723	707
528.792	442
528.861	-406
528.929	-434
528.998	923
529.066	1014
529.135	1566
529.203	730
529.272	134
529.340	2566
529.409	2370
529.477	1230
529.545	1267
529.614	4003
529.682	1482
529.751	3080
529.819	4576
529.887	3230
529.956	1941
530.024	3644
530.092	1170
530.161	2380
530.229	2624
530.297	1992
530.365	3377
530.434	2522
530.502	1934
530.570	2297
530.638	777
530.707	2698
530.775	3191
530.843	1181
530.911	1397
530.979	1719
531.047	2012
531.115	2498
531.183	1409
531.252	2234
531.320	1694
531.388	1009
531.456	1804
531.524	1381
531.592	2345
531.660	3774
531.728	1921
531.796	2153
531.864	2076
531.932	2725
532.000	1661
532.067	1857
532.135	2616
532.203	3879
532.271	2595
532.339	3527
532.407	8868
532.475	7383
532.542	3812
532.610	3438
532.678	3157
532.746	11085
532.814	34735
532.881	14037
532.949	3499
533.017	3412
533.084	1755
533.152	2329
533.220	1993
533.287	2109
533.355	2115
533.423	3099
533.490	2399
533.558	2630
533.625	2778
533.693	1665
533.761	2143
533.828	3104
533.896	1396
533.963	4357
534.031	4910
534.098	5733
534.166	4043
534.233	1882
534.300	2736
534.368	3607
534.435	1801
534.503	2838
534.570	2773
534.637	2011
534.705	3376
534.772	4427
534.840	3625
534.907	19323
534.974	36301
535.041	6756
535.109	3270
535.176	1763
535.243	2512
535.310	2673
535.378	1212
535.445	1819
535.512	1719
535.579	1460
535.646	1217
535.714	1517
535.781	2770
535.848	3409
535.915	2022
535.982	1479
536.049	2149
536.116	3011
536.183	937
536.250	739
536.317	1303
536.384	1598
536.451	2627
536.518	3152
536.585	1182
536.652	3411
536.719	3757
536.786	1926
536.853	2210
536.920	3536
536.987	4553
537.053	3731
537.120	13249
537.187	18895
537.254	1919
537.321	877
537.388	2776
537.454	756
537.521	985
537.588	570
537.654	2277
537.721	619
537.788	2173
537.855	1386
537.921	1275
537.988	1208
538.055	1437
538.121	2291
538.188	1260
538.254	1795
538.321	4680
538.388	4592
538.454	1694
538.521	1742
538.587	1096
538.654	1315
538.720	633
538.787	1527
538.853	1338
538.920	1108
538.986	1751
539.053	1837
539.119	1260
539.185	1455
539.252	1832
539.318	1376
539.385	1997
539.451	430
539.517	1930
539.583	3171
539.650	3075
539.716	11887
539.782	4660
539.849	635
539.915	1472
539.981	787
540.047	1993
540.114	2014
540.180	2304
540.246	830
540.312	1770
540.378	4478
540.444	6299
540.510	3394
540.576	13067
540.643	6415
540.709	964
540.775	1009
540.841	1201
540.907	1791
540.973	3815
541.039	2233
541.105	2948
541.171	1672
541.237	98
541.303	1649
541.369	3710
541.435	1968
541.500	3943
541.566	1425
541.632	686
541.698	934
541.764	1423
541.830	707
541.896	552
541.961	2071
542.027	1004
542.093	1345
542.159	797
542.224	1179
542.290	2665
542.356	3240
542.421	5345
542.487	3791
542.553	936
542.618	846
542.684	1492
542.750	1130
542.815	2115
542.881	1715
542.947	9445
543.012	11366
543.078	2495
543.143	774
543.209	967
543.274	590
543.340	1251
543.405	2855
543.471	6236
543.536	2008
543.602	1241
543.667	-408
543.732	1219
543.798	510
543.863	1011
543.928	529
543.994	425
544.059	932
544.124	1856
544.190	1219
544.255	1604
544.320	1724
544.386	618
544.451	2454
544.516	2337
544.581	1650
544.646	4576
544.712	12006
544.777	3284
544.842	1921
544.907	1871
544.972	1476
545.037	1621
545.102	1801
545.168	1636
545.233	2606
545.298	2418
545.363	2177
545.428	2316
545.493	4934
545.558	8562
545.623	5459
545.688	1675
545.753	1721
545.818	1972
545.883	2441
545.947	1616
546.012	1887
546.077	2275
546.142	2722
546.207	1185
546.272	2772
546.337	1760
546.401	3749
546.466	2545
546.531	2127
546.596	2469
546.661	2698
546.725	2810
546.790	1862
546.855	2795
546.919	2383
546.984	3030
547.049	2654
547.113	3898
547.178	3944
547.243	4436
547.307	5353
547.372	6256
547.436	6780
547.501	6359
547.565	6073
547.630	5933
547.695	6886
547.759	5629
547.823	7133
547.888	5496
547.952	5828
548.017	5929
548.081	7562
548.146	8484
548.210	7890
548.274	5554
548.339	6394
548.403	5897
548.468	4904
548.532	4924
548.596	6645
548.660	5591
548.725	6264
548.789	6915
548.853	8809
548.917	6245
548.982	7114
549.046	7838
549.110	5620
549.174	5169
549.238	5347
549.303	5635
549.367	8038
549.431	5735
549.495	6233
549.559	5601
549.623	7534
549.687	7541
549.751	7793
549.815	8700
549.879	9383
549.943	7619
550.007	9371
550.071	9000
550.135	8727
550.199	6609
550.263	8075
550.327	8082
550.391	8086
550.455	9114
550.519	8542
550.582	9090
550.646	10974
550.710	11890
550.774	10912
550.838	10183
550.901	10595
550.965	11626
551.029	11584
551.093	13681
551.156	15683
551.220	20471
551.284	27663
551.347	19519
551.411	18956
551.475	23930
551.538	13085
551.602	10567
551.666	10782
551.729	8772
551.793	9360
551.856	8794
551.920	9229
551.983	8753
552.047	8653
552.110	9381
552.174	8923
552.237	8780
552.301	8814
552.364	8083
552.428	8490
552.491	8615
552.554	8056
552.618	8158
552.681	9369
552.745	7983
552.808	10428
552.871	14058
552.934	10963
552.998	9250
553.061	8565
553.124	8416
553.187	8670
553.251	9073
553.314	10196
553.377	9280
553.440	11036
553.503	17489
553.567	31793
553.630	14280
553.693	9236
553.756	9297
553.819	8835
553.882	9162
553.945	8422
554.008	8201
554.071	8419
554.134	8812
554.197	8649
554.260	7358
554.323	9421
554.386	8917
554.449	7900
554.512	9704
554.575	8125
554.638	8499
554.701	8629
554.764	7675
554.827	8588
554.889	7196
554.952	7290
555.015	6365
555.078	7156
555.141	7633
555.203	8166
555.266	6431
555.329	7196
555.391	6993
555.454	7162
555.517	6687
555.580	6835
555.642	6276
555.705	5740
555.768	5969
555.830	6489
555.893	5854
555.955	5731
556.018	6608
556.080	6000
556.143	5693
556.206	6220
556.268	6906
556.330	5956
556.393	6582
556.455	5465
556.518	6072
556.580	7288
556.643	4768
556.705	5192
556.767	4100
556.830	4938
556.892	4868
556.955	5121
557.017	6507
557.079	5036
557.142	5059
557.204	4694
557.266	6731
557.328	6771
557.391	4102
557.453	4403
557.515	4361
557.577	5127
557.639	4947
557.701	4894
557.764	3539
557.826	4560
557.888	5313
557.950	5509
558.012	5140
558.074	7245
558.136	13281
558.198	42731
558.260	23279
558.322	6370
558.384	6522
558.446	7941
558.508	8943
558.570	11980
558.632	15250
558.694	21877
558.756	26423
558.818	65081
558.880	217227
558.942	105166
559.003	47101
559.065	34256
559.127	10937
559.189	10522
559.251	11740
559.312	15595
559.374	31409
559.436	120733
559.498	98339
559.559	15332
559.621	10615
559.683	12664
559.744	16788
559.806	48851
559.868	105638
559.929	30445
559.991	10854
560.052	14249
560.114	39096
560.176	37396
560.237	20367
560.299	43924
560.360	15231
560.422	5134
560.483	3868
560.545	3546
560.606	3793
560.667	2963
560.729	2686
560.790	3366
560.852	2831
560.913	3508
560.974	1993
561.036	2410
561.097	2821
561.158	3607
561.220	3739
561.281	3264
561.342	3206
561.403	3714
561.465	3176
561.526	6387
561.587	12241
561.648	4165
561.709	3778
561.771	2686
561.832	2921
561.893	2748
561.954	2500
562.015	2752
562.076	2583
562.137	2676
562.198	2843
562.259	3223
562.320	2286
562.381	2930
562.442	3578
562.503	4079
562.564	3672
562.625	2700
562.686	3250
562.747	2910
562.808	2919
562.869	2420
562.930	4044
562.991	3052
563.051	2988
563.112	2270
563.173	3459
563.234	2475
563.294	2909
563.355	2652
563.416	2800
563.477	2493
563.537	2822
563.598	3525
563.659	2359
563.720	2028
563.780	3494
563.841	3376
563.901	2911
563.962	3071
564.023	2702
564.083	3555
564.144	2954
564.204	2865
564.265	3187
564.325	3556
564.386	6111
564.446	7489
564.507	2914
564.567	2800
564.628	2550
564.688	2986
564.749	3512
564.809	4341
564.869	4995
564.930	3278
564.990	3875
565.050	2727
565.111	3200
565.171	2656
565.231	3552
565.292	3974
565.352	2383
565.412	3565
565.472	3346
565.532	3534
565.593	2749
565.653	3101
565.713	3509
565.773	3659
565.833	3129
565.893	6128
565.953	4482
566.013	3901
566.074	3747
566.134	5014
566.194	6280
566.254	8453
566.314	5789
566.374	4211
566.434	4635
566.494	4994
566.554	4768
566.614	5099
566.673	5774
566.733	6624
566.793	5977
566.853	6826
566.913	6539
566.973	7270
567.033	7802
567.092	6733
567.152	6663
567.212	7394
567.272	7122
567.331	7503
567.391	7398
567.451	8839
567.511	9292
567.570	9653
567.630	8872
567.690	8792
567.749	8063
567.809	8650
567.868	9712
567.928	10867
567.988	12089
568.047	15509
568.107	17961
568.166	23955
568.226	34288
568.285	49774
568.345	47757
568.404	40357
568.464	34328
568.523	31667
568.582	32004
568.642	34437
568.701	39553
568.761	53852
568.820	79334
568.879	88966
568.939	71056
568.998	54309
569.057	42143
569.116	34713
569.176	28017
569.235	24263
569.294	20278
569.353	17728
569.413	15971
569.472	13237
569.531	12430
569.590	12464
569.649	10131
569.708	10252
569.767	10031
569.827	8575
569.886	7906
569.945	7282
570.004	8203
570.063	7263
570.122	6650
570.181	7332
570.240	6805
570.299	6898
570.358	7046
570.417	5086
570.475	5765
570.534	6201
570.593	5456
570.652	5174
570.711	5453
570.770	5298
570.829	5993
570.887	6042
570.946	5247
571.005	5193
571.064	4136
571.122	5359
571.181	5311
571.240	3960
571.299	4181
571.357	5146
571.416	5221
571.475	5186
571.533	6037
571.592	5515
571.650	4917
571.709	4642
571.768	4858
571.826	5134
571.885	4597
571.943	4172
572.002	4067
572.060	4983
572.119	4730
572.177	3362
572.236	4452
572.294	3737
572.352	5061
572.411	3365
572.469	4929
572.528	4693
572.586	3883
572.644	4178
572.703	5072
572.761	4656
572.819	3740
572.877	3875
572.936	4518
572.994	3888
573.052	4420
573.110	3866
573.169	3964
573.227	3555
573.285	4286
573.343	3775
573.401	4135
573.459	3308
573.517	3728
573.576	3982
573.634	4190
573.692	3962
573.750	4273
573.808	4209
573.866	4425
573.924	4856
573.982	4600
574.040	4184
574.098	4299
574.155	4602
574.213	3417
574.271	3881
574.329	4238
574.387	3807
574.445	3607
574.503	4566
574.560	3551
574.618	3762
574.676	3087
574.734	3779
574.792	4556
574.849	4756
574.907	3511
574.965	3265
575.022	3032
575.080	3440
575.138	3628
575.195	3988
575.253	3840
575.311	3810
575.368	4002
575.426	3465
575.483	4928
575.541	3611
575.598	3519
575.656	4213
575.713	4247
575.771	5137
575.828	4211
575.886	3428
575.943	4170
576.001	4245
576.058	3553
576.115	4222
576.173	4799
576.230	5632
576.287	5437
576.345	5108
576.402	3850
576.459	4973
576.517	4115
576.574	4749
576.631	4943
576.688	4402
576.746	4087
576.803	4522
576.860	4323
576.917	5020
576.974	4703
577.031	4971
577.089	4779
577.146	4738
577.203	4372
577.260	4553
577.317	4860
577.374	5429
577.431	5001
577.488	4572
577.545	4598
577.602	5180
577.659	4267
577.716	5197
577.773	5966
577.830	5398
577.886	5663
577.943	5544
578.000	5093
578.057	5798
578.114	6254
578.171	6168
578.227	8514
578.284	8179
578.341	7968
578.398	5860
578.454	6502
578.511	6329
578.568	7147
578.625	5912
578.681	4947
578.738	6111
578.794	5822
578.851	5238
578.908	5254
578.964	6058
579.021	5611
579.077	4792
579.134	6199
579.190	5855
579.247	6162
579.303	6330
579.360	5721
579.416	6474
579.473	5613
579.529	4798
579.586	6007
579.642	6529
579.698	6604
579.755	6420
579.811	6732
579.867	7101
579.924	7027
579.980	7271
580.036	8345
580.093	9294
580.149	10996
580.205	13535
580.261	11956
580.317	10323
580.374	8452
580.430	8991
580.486	8617
580.542	7924
580.598	7249
580.619	7515
580.654	7985
580.692	8169
580.710	8275
580.765	7635
580.767	7622
580.823	8219
580.838	8239
580.879	8313
580.911	8113
580.935	7978
580.984	8184
580.991	8232
581.047	8455
581.057	8345
581.103	7810
581.130	8290
581.159	8829
581.203	9288
581.215	9421
581.270	10380
581.276	10186
581.326	8408
581.349	8425
581.382	8418
581.422	9200
581.438	9549
581.494	8334
581.494	8341
581.550	9749
581.567	9450
581.606	8812
581.640	8569
581.661	8461
581.713	9746
581.717	9845
581.773	9459
581.786	9449
581.829	9511
581.859	9993
581.885	10399
581.932	9866
581.940	9780
581.996	9979
582.004	9980
582.052	9997
582.077	9681
582.107	9289
582.150	9953
582.163	10157
582.219	10128
582.223	10128
582.274	10266
582.296	10285
582.330	10267
582.368	10252
582.386	10294
582.441	11356
582.441	11360
582.497	11400
582.514	11305
582.552	11256
582.587	11229
582.608	11190
582.659	11370
582.663	11375
582.719	11976
582.732	11856
582.774	11526
582.805	11705
582.830	11994
582.877	13217
582.885	13388
582.941	13132
582.950	13311
582.996	14230
583.023	14921
583.052	15800
583.095	16625
583.107	16834
583.162	17570
583.168	17559
583.218	17286
583.240	16512
583.273	15324
583.313	15183
583.328	15105
583.384	14223
583.385	14206
583.439	14017
583.458	13841
583.494	13506
583.531	13555
583.549	13510
583.603	12928
583.605	12913
583.660	13523
583.676	13339
583.715	12910
583.748	13414
583.770	13737
583.820	13368
583.825	13324
583.881	13699
583.893	13582
583.936	13261
583.965	13383
583.991	13518
584.038	14241
584.046	14318
584.101	13412
584.110	13477
584.156	13964
584.183	14133
584.211	14269
584.255	14279
584.266	14318
584.321	15372
584.328	15349
584.376	15142
584.400	15346
584.431	15551
584.472	15017
584.486	14760
584.541	16080
584.545	16022
584.596	15138
584.617	15447
584.651	16379
584.689	16826
584.706	16806
584.761	16365
584.762	16378
584.816	17637
584.834	17773
584.871	17845
584.906	17617
584.926	17526
584.978	17494
584.980	17492
585.035	18157
585.051	18219
585.090	18460
585.123	18941
585.145	19216
585.195	20314
585.200	20425
585.254	21087
585.267	21496
585.309	23096
585.340	23795
585.364	24305
585.412	25928
585.419	26066
585.473	27053
585.484	27434
585.528	30534
585.556	32797
585.583	37438
585.628	50260
585.637	55983
585.692	98578
585.700	107647
585.747	157163
585.772	160446
585.801	125880
585.845	64692
585.856	55433
585.910	33637
585.917	31510
585.965	28479
585.989	27693
586.019	27028
586.061	25868
586.074	25776
586.128	26359
586.133	26414
586.183	26285
586.205	26152
586.237	26438
586.277	26902
586.292	26848
586.346	26511
586.349	26514
586.401	26681
586.421	26998
586.455	27461
586.493	27894
586.509	28471
586.564	30407
586.565	30520
586.618	37237
586.637	38683
586.672	37413
586.709	35015
586.727	33992
586.781	32683
586.781	32664
586.835	32805
586.853	33031
586.889	33604
586.925	33473
586.944	33220
586.996	34453
586.998	34493
587.052	36373
587.068	36820
587.106	37525
587.140	38499
587.161	38838
587.212	40110
587.215	40178
587.269	42359
587.284	42935
587.323	44016
587.356	44778
587.377	45585
587.427	48436
587.431	48562
587.485	50715
587.499	51508
587.539	53857
587.571	55609
587.593	56890
587.643	60321
587.648	60573
587.702	63383
587.715	64407
587.755	67856
587.786	70791
587.810	73004
587.858	77301
587.864	77790
587.917	84609
587.930	86229
587.971	91303
588.001	95839
588.025	99976
588.073	108331
588.079	109331
588.133	119763
588.145	122447
588.187	132097
588.217	139133
588.241	146178
588.288	160930
588.295	162981
588.348	182487
588.360	187145
588.402	206959
588.431	220947
588.456	235421
588.503	264578
588.510	269445
588.564	310941
588.575	319625
588.617	365020
588.646	396938
588.671	435585
588.718	507979
588.725	522922
588.778	635626
588.789	657817
588.832	740233
588.861	794098
588.886	777235
588.932	735936
588.939	723708
588.993	592730
589.004	574686
589.047	714485
589.075	799309
589.100	808512
589.147	806819
589.154	792958
589.207	675005
589.218	649628
589.261	598060
589.290	564230
589.314	565106
589.361	567953
589.368	577571
589.421	655916
589.433	671554
589.475	737387
589.504	781847
589.528	752314
589.576	674901
589.582	678893
589.635	719644
589.647	726231
589.689	720970
589.718	709177
589.742	638182
589.790	490750
589.795	480130
589.849	376376
589.861	352292
589.902	305358
589.932	270663
589.955	251154
590.004	211320
590.009	208503
590.062	180474
590.075	174185
590.115	158112
590.146	145752
590.168	139158
590.218	126031
590.222	124969
590.275	112906
590.289	110158
590.328	103310
590.360	97974
590.381	94776
590.431	87843
590.435	87314
590.488	80646
590.503	78840
590.541	75261
590.574	72678
590.594	70960
590.645	66859
590.647	66614
590.700	62467
590.716	61426
590.753	59809
590.787	58321
590.806	56957
590.859	53705
590.859	53597
590.912	51200
590.930	50446
590.965	48998
591.001	47777
591.018	47049
591.071	45186
591.072	45224
591.124	43975
591.143	43558
591.177	42472
591.214	41630
591.230	41220
591.283	39853
591.285	39843
591.336	38786
591.356	38513
591.389	38140
591.427	37568
591.442	37115
591.495	35651
591.498	35592
591.547	34042
591.569	33340
591.600	33153
591.640	33038
591.653	32920
591.706	32610
591.711	32602
591.759	32664
591.782	32756
591.811	32601
591.853	32496
591.864	32215
591.917	30808
591.924	30630
591.969	30189
591.995	29998
592.022	29484
592.066	28717
592.075	28744
592.127	29027
592.137	29111
592.180	30428
592.208	31325
592.233	30231
592.279	28161
592.285	27990
592.338	26744
592.350	26486
592.390	26018
592.421	25730
592.443	25774
592.491	25950
592.495	25867
592.548	25038
592.562	24850
592.600	24818
592.633	24811
592.653	24682
592.704	24286
592.705	24428
592.775	24609
592.846	24873
592.916	23709
592.987	23854
593.058	23456
593.128	22923
593.199	22664
593.270	22738
593.341	22308
593.411	23095
593.482	22479
593.553	22656
593.623	21951
593.694	23618
593.764	23454
593.835	22910
593.906	22224
593.976	21978
594.047	22301
594.117	23641
594.188	24569
594.258	22029
594.329	22241
594.399	22349
594.470	22471
594.540	22535
594.611	23197
594.681	22080
594.751	23162
594.822	23928
594.892	24529
594.963	23341
595.033	23273
595.103	24074
595.174	25464
595.244	28941
595.314	34440
595.384	27315
595.455	25422
595.525	26464
595.595	26715
595.665	26881
595.736	26227
595.806	25920
595.876	27038
595.946	26430
596.016	25938
596.087	27478
596.157	27056
596.227	27165
596.297	28011
596.367	30843
596.437	31355
596.507	34081
596.577	39381
596.647	33001
596.717	31989
596.787	33404
596.857	33594
596.927	32787
596.997	32509
597.067	32896
597.137	35244
597.207	36081
597.277	33951
597.347	35129
597.417	32561
597.487	32397
597.557	33496
597.626	34146
597.696	35302
597.766	37089
597.836	39867
597.906	34401
597.975	31864
598.045	31540
598.115	32782
598.185	34782
598.254	37844
598.324	39417
598.394	40683
598.464	41088
598.533	40337
598.603	39016
598.672	36593
598.742	36450
598.812	37365
598.881	39301
598.951	39238
599.020	38774
599.090	40841
599.159	41833
599.229	39553
599.299	38781
599.368	39593
599.437	40217
599.507	38459
599.576	39103
599.646	38517
599.715	39716
599.785	38376
599.854	38787
599.924	38327
599.993	39272
600.062	39116
600.132	39211
600.201	40795
600.270	44973
600.340	47199
600.409	47080
600.478	46546
600.547	48329
600.617	47294
600.686	42157
600.755	39533
600.824	38940
600.894	39680
600.963	38890
601.032	39274
601.101	38408
601.170	38792
601.239	39401
601.308	40335
601.378	40216
601.447	39933
601.516	41318
601.585	41935
601.654	43048
601.723	44079
601.792	44667
601.861	46584
601.930	50537
601.999	50653
602.068	49216
602.137	48600
602.206	50375
602.275	49508
602.343	51310
602.412	52767
602.481	51799
602.550	50452
602.619	52446
602.688	52272
602.756	52979
602.825	53065
602.894	54522
602.963	54608
603.032	54863
603.100	56875
603.169	53077
603.238	55851
603.307	54738
603.375	53124
603.444	56994
603.513	53604
603.581	54996
603.650	57519
603.719	52260
603.787	47974
603.856	49962
603.924	49084
603.993	51549
604.061	51824
604.130	53031
604.198	54999
604.267	55055
604.335	56157
604.404	56118
604.472	59107
604.541	58934
604.609	60107
604.678	61525
604.746	60648
604.815	65841
604.883	63553
604.951	62677
605.020	63432
605.088	63536
605.156	60219
605.225	58368
605.293	58332
605.361	57735
605.429	57952
605.498	59727
605.566	61206
605.634	61911
605.702	63446
605.771	63909
605.839	65030
605.907	62077
605.975	61094
606.043	62529
606.111	58383
606.180	62062
606.248	60566
606.316	60254
606.384	60226
606.452	56645
606.520	49861
606.588	48077
606.656	47574
606.724	47536
606.792	45576
606.860	41064
606.928	37402
606.996	36533
607.064	36473
607.132	35723
607.200	38507
607.267	39961
607.335	39293
607.403	41755
607.471	39917
607.539	38255
607.607	39732
607.674	36762
607.742	35435
607.810	35563
607.878	35422
607.946	35129
608.013	36427
608.081	37073
608.149	38051
608.216	37871
608.284	40501
608.352	37858
608.419	39502
608.487	41705
608.555	39697
608.622	38839
608.690	40852
608.757	42086
608.825	45486
608.893	44572
608.960	42236
609.028	42370
609.095	43409
609.163	41741
609.230	38126
609.298	33295
609.365	34282
609.432	37232
609.500	38072
609.567	44421
609.635	50198
609.702	54816
609.769	53664
609.837	46037
609.904	38975
609.971	38580
610.039	46049
610.106	61853
610.173	115933
610.241	286583
610.308	323259
610.375	157124
610.442	65044
610.509	44998
610.577	40461
610.644	40449
610.711	39946
610.778	41166
610.845	41481
610.912	43762
610.980	45501
611.047	50699
611.114	48704
611.181	43178
611.248	43117
611.315	45255
611.382	45809
611.449	45978
611.516	47756
611.583	47248
611.650	47341
611.717	49758
611.784	49082
611.851	52593
611.918	56933
611.984	67225
612.051	96719
612.118	197315
612.185	502778
612.252	533023
612.319	123516
612.386	72556
612.452	61937
612.519	57472
612.586	57322
612.653	57573
612.719	55560
612.786	54109
612.853	50573
612.919	47999
612.986	50359
613.053	46959
613.120	45237
613.186	42526
613.253	44600
613.319	43278
613.386	43495
613.453	43721
613.519	44342
613.586	45772
613.652	49539
613.719	46774
613.785	46803
613.852	45422
613.918	44246
613.985	45624
614.051	51440
614.118	62562
614.184	70668
614.250	46967
614.317	44948
614.383	44085
614.449	44932
614.516	44622
614.582	45902
614.648	45423
614.715	43893
614.781	44191
614.847	42989
614.914	44173
614.980	42894
615.046	42301
615.112	43644
615.179	44854
615.245	46667
615.311	50753
615.377	62680
615.443	76137
615.509	59480
615.575	52282
615.642	49080
615.708	49295
615.774	53758
615.840	59541
615.906	67285
615.972	89860
616.038	154353
616.104	295021
616.170	609819
616.236	795185
616.302	211728
616.368	105756
616.434	77741
616.500	64290
616.565	65097
616.631	81744
616.697	74484
616.763	68525
616.829	92746
616.895	169558
616.961	209577
617.026	107424
617.092	58589
617.158	50265
617.224	48288
617.289	45197
617.355	43334
617.421	41832
617.487	42328
617.552	38906
617.618	38591
617.684	36906
617.749	39355
617.815	36863
617.880	36692
617.946	35664
618.012	36169
618.077	38167
618.143	36916
618.208	37280
618.274	38810
618.339	40232
618.405	34792
618.470	33758
618.536	33683
618.601	33862
618.667	32276
618.732	30526
618.798	29331
618.863	28608
618.928	29173
618.994	30518
619.059	30913
619.124	33732
619.190	32317
619.255	29846
619.320	29458
619.386	29447
619.451	29244
619.516	28753
619.581	28830
619.647	31011
619.712	30977
619.777	29086
619.842	28934
619.907	28960
619.972	30159
620.038	30370
620.103	28900
620.168	29187
620.233	29935
620.298	28764
620.363	29863
620.428	29935
620.493	30819
620.558	30577
620.623	31567
620.688	32605
620.753	31092
620.818	31782
620.883	31574
620.948	31263
621.013	32557
621.078	31261
621.143	30532
621.207	34016
621.272	31691
621.337	33393
621.402	31953
621.467	33180
621.532	35114
621.596	33362
621.661	31607
621.726	29480
621.791	30428
621.855	31152
621.920	32033
621.985	33034
622.049	33968
622.114	33190
622.179	32293
622.243	34857
622.308	32571
622.373	35611
622.437	34689
622.502	34523
622.566	32149
622.631	31349
622.695	33000
622.760	33723
622.824	33025
622.889	33021
622.953	33347
623.018	37247
623.082	39015
623.147	34122
623.211	32942
623.276	34191
623.340	32935
623.404	31264
623.469	30508
623.533	31349
623.597	29979
623.662	30951
623.726	29173
623.790	27566
623.854	27952
623.919	27748
623.983	27346
624.047	28156
624.111	29047
624.176	28930
624.240	29658
624.304	31113
624.368	28724
624.432	28884
624.496	28472
624.560	30403
624.625	31787
624.689	29594
624.753	31169
624.817	31246
624.881	29117
624.945	27406
625.009	26703
625.073	27415
625.137	27036
625.201	28979
625.265	30447
625.329	28095
625.393	27512
625.456	27350
625.520	27623
625.584	28646
625.648	30778
625.712	35774
625.776	53830
625.839	67082
625.903	41475
625.967	24767
626.031	29501
626.095	44078
626.158	32274
626.222	22569
626.286	20695
626.349	19083
626.413	18939
626.477	19534
626.540	18538
626.604	18398
626.668	17832
626.731	18117
626.795	18645
626.858	18395
626.922	16588
626.986	17660
627.049	16354
627.113	18191
627.176	18002
627.240	17014
627.303	17209
627.366	16091
627.430	16993
627.493	16853
627.557	15811
627.620	17888
627.684	17593
627.747	17321
627.810	16542
627.874	14883
627.937	14327
628.000	16611
628.064	15340
628.127	13309
628.190	13267
628.253	13787
628.317	12669
628.380	12025
628.443	12047
628.506	12485
628.569	11640
628.632	10656
628.696	11346
628.759	11093
628.822	10901
628.885	10718
628.948	10896
629.011	10595
629.074	10662
629.137	10540
629.200	9210
629.263	10446
629.326	9040
629.389	9361
629.452	9409
629.515	10422
629.578	9190
629.641	9975
629.704	9974
629.767	9626
629.830	9766
629.892	8200
629.955	8891
630.018	10023
630.081	9649
630.144	9901
630.207	10051
630.269	10614
630.332	9447
630.395	9750
630.458	8856
630.520	7170
630.583	8471
630.646	9356
630.708	7866
630.771	8545
630.834	9547
630.896	8884
630.959	8495
631.021	8338
631.084	8910
631.146	9622
631.209	10837
631.272	8946
631.334	8683
631.397	7937
631.459	8651
631.522	9374
631.584	9822
631.646	9847
631.709	10120
631.771	11411
631.834	11604
631.896	9317
631.958	8475
632.021	9570
632.083	7768
632.145	8638
632.208	8339
632.270	8956
632.332	7790
632.395	7033
632.457	8268
632.519	7947
632.581	8599
632.643	7908
632.706	7813
632.768	7312
632.830	9305
632.892	8413
632.954	7353
633.016	8162
633.078	7862
633.141	7717
633.203	7279
633.265	7563
633.327	7164
633.389	6878
633.451	8301
633.513	8611
633.575	8671
633.637	8732
633.698	8808
633.760	7958
633.822	8842
633.884	8359
633.946	8400
634.008	8562
634.070	9664
634.132	11273
634.193	10649
634.255	10986
634.317	11465
634.379	11361
634.441	9639
634.502	9756
634.564	9069
634.626	8221
634.687	8963
634.749	8045
634.811	7448
634.873	6891
634.934	7075
634.996	7281
635.057	7697
635.119	7015
635.181	7350
635.242	7575
635.304	6432
635.365	8372
635.427	7091
635.488	7381
635.550	7897
635.611	7646
635.673	6278
635.734	8870
635.796	8811
635.857	9061
635.918	9486
635.980	10674
636.041	11179
636.102	12432
636.164	11979
636.225	13268
636.286	10614
636.348	10273
636.409	8842
636.470	8796
636.531	8723
636.593	7926
636.654	7645
636.715	7114
636.776	6518
636.838	5987
636.899	6891
636.960	5893
637.021	6617
637.082	6469
637.143	6381
637.204	5933
637.265	5642
637.326	6717
637.387	6488
637.448	6180
637.509	6425
637.570	6053
637.631	6154
637.692	5006
637.753	4988
637.814	5748
637.875	5284
637.936	6186
637.997	5217
638.058	5507
638.119	5944
638.179	5344
638.240	5565
638.301	6685
638.362	4606
638.423	4298
638.483	5768
638.544	4430
638.605	5183
638.666	4958
638.726	5481
638.787	6318
638.848	5436
638.908	5637
638.969	5046
639.030	4849
639.090	4923
639.151	4394
639.211	5744
639.272	6036
639.332	8815
639.393	7883
639.453	4766
639.514	6665
639.574	5528
639.635	5359
639.695	4758
639.756	5271
639.816	4921
639.877	5650
639.937	7367
639.997	9296
640.058	5527
640.118	5235
640.178	5296
640.239	4048
640.299	4696
640.359	5513
640.420	5132
640.480	6092
640.540	6097
640.600	6559
640.661	6747
640.721	5673
640.781	8838
640.841	7832
640.901	7045
640.961	5435
641.021	5547
641.082	5669
641.142	6332
641.202	6688
641.262	3956
641.322	4345
641.382	3585
641.442	5780
641.502	4306
641.562	5307
641.622	4851
641.682	4845
641.742	6128
641.802	5826
641.861	5724
641.921	5117
641.981	5711
642.041	5028
642.101	5407
642.161	5011
642.221	3932
642.280	3969
642.340	4491
642.400	3830
642.460	4439
642.519	4227
642.579	4311
642.639	5047
642.698	2137
642.758	5844
642.818	3669
642.877	4062
642.937	4381
642.997	4683
643.056	6309
643.116	4771
643.175	6493
643.235	5001
643.294	4729
643.354	5378
643.414	5782
643.473	7446
643.532	8242
643.592	11382
643.651	18214
643.711	35178
643.770	66978
643.830	151338
643.889	419487
643.948	196256
644.008	24392
644.067	11613
644.126	9116
644.186	7191
644.245	6661
644.304	4506
644.363	6141
644.423	4620
644.482	4626
644.541	4894
644.600	3696
644.659	6615
644.719	7047
644.778	12159
644.837	18720
644.896	37172
644.955	102336
645.014	64476
645.073	11334
645.132	5674
645.191	6505
645.250	4698
645.309	7058
645.368	5100
645.427	7502
645.486	9867
645.545	22542
645.604	10266
645.663	5356
645.722	4169
645.781	5642
645.840	6155
645.898	6758
645.957	11439
646.016	15993
646.075	32981
646.134	64311
646.192	151145
646.251	349367
646.310	92974
646.369	15698
646.427	9366
646.486	7237
646.545	6468
646.603	4726
646.662	5313
646.721	4270
646.779	3685
646.838	4128
646.896	6204
646.955	6843
647.014	12551
647.072	19646
647.131	58741
647.189	54443
647.248	7109
647.306	4674
647.365	4265
647.423	2812
647.481	4318
647.540	2204
647.598	2943
647.657	3529
647.715	4101
647.773	2217
647.832	3134
647.890	2276
647.948	3000
648.007	3184
648.065	2925
648.123	2629
648.181	4980
648.240	3402
648.298	3347
648.356	2794
648.414	2632
648.472	3068
648.531	2607
648.589	2195
648.647	3078
648.705	2299
648.763	2388
648.821	3165
648.879	3455
648.937	3237
648.995	4071
649.053	4880
649.111	8053
649.169	14365
649.227	27637
649.285	49656
649.343	157709
649.401	149241
649.459	20386
649.516	11665
649.574	6648
649.632	11102
649.690	17320
649.748	10003
649.806	10783
649.863	20953
649.921	39584
649.979	47862
650.037	7907
650.094	2401
650.152	3234
650.210	2655
650.268	3242
650.325	2665
650.383	4644
650.440	660
650.498	3287
650.556	1887
650.613	2180
650.671	2306
650.728	2082
650.786	2486
650.843	2625
650.901	1130
650.958	1955
651.016	1735
651.073	1189
651.131	1969
651.188	1361
651.246	1677
651.303	772
651.360	2081
651.418	1090
651.475	1754
651.532	1275
651.590	1349
651.647	521
651.704	2388
651.762	1810
651.819	1115
651.876	758
651.933	1601
651.990	1709
652.048	364
652.105	1167
652.162	1864
652.219	1093
652.276	1686
652.333	1691
652.390	618
652.448	1998
652.505	1192
652.562	1727
652.619	1688
652.676	3121
652.733	4560
652.790	1842
652.847	719
652.904	1815
652.961	629
653.017	537
653.074	2148
653.131	1752
653.188	257
653.245	1264
653.302	668
653.359	1434
653.415	929
653.472	271
653.529	1427
653.586	925
653.642	1003
653.699	1844
653.756	339
653.813	1337
653.869	1084
653.926	955
653.983	875
654.039	788
654.096	1548
654.152	1635
654.209	677
654.266	1030
654.322	37
654.379	2317
654.435	1182
654.492	1632
654.548	1786
654.605	3507
654.661	2989
654.717	1293
654.774	1603
654.830	1677
654.887	1768
654.943	1295
655.000	1992
655.056	2074
655.112	1562
655.168	1232
655.225	1782
655.281	2592
655.337	925
655.394	3184
655.450	3211
655.506	2546
655.562	2474
655.618	4360
655.675	754
655.731	607
655.787	269
655.843	2033
655.899	15
655.955	1663
656.011	1042
656.067	273
656.123	1899
656.179	2270
656.235	2202
656.291	522
656.347	2019
656.403	1398
656.459	1388
656.515	1850
656.571	553
656.627	1598
656.683	17
656.739	1633
656.795	684
656.850	1393
656.906	1620
656.962	1877
657.018	541
657.074	1307
657.129	1294
657.185	2338
657.241	4643
657.297	4972
657.352	1186
657.408	814
657.464	3019
657.519	851
657.575	67
657.630	582
657.686	732
657.742	519
657.797	1827
657.853	864
657.908	1561
657.964	770
658.019	966
658.075	900
658.130	1603
658.186	-139
658.241	654
658.297	399
658.352	469
658.407	1273
658.463	770
658.518	1488
658.573	334
658.629	335
658.684	1221
658.739	1405
658.795	191
658.850	209
658.905	971
658.960	604
659.016	105
659.071	904
659.126	962
659.181	1059
659.236	2000
659.291	3129
659.346	1477
659.401	1071
659.457	2198
659.512	2080
659.567	2564
659.622	1039
659.677	339
659.732	119
659.787	379
659.842	391
659.897	1097
659.952	1415
660.007	914
660.061	868
660.116	550
660.171	119
660.226	836
660.281	1847
660.336	130
660.391	1360
660.445	340
660.500	589
660.555	534
660.610	1143
660.664	1955
660.719	825
660.774	1415
660.828	413
660.883	1949
660.938	2009
660.992	-424
661.047	1158
661.101	-46
661.156	798
661.211	69
661.265	655
661.320	451
661.374	903
661.429	906
661.483	1087
661.538	437
661.592	852
661.647	729
661.701	725
661.755	986
661.810	523
661.864	54
661.919	693
661.973	998
662.027	414
662.081	140
662.136	1086
662.190	597
662.244	1023
662.299	943
662.353	194
662.407	529
662.461	-405
662.515	1005
662.569	590
662.624	1005
662.678	354
662.732	392
662.786	-250
662.840	1090
662.894	354
662.948	278
663.002	680
663.056	675
663.110	15
663.164	343
663.218	1572
663.272	927
663.326	262
663.380	671
663.434	1229
663.488	43
663.542	455
663.595	1186
663.649	438
663.703	1085
663.757	621
663.811	-88
663.864	147
663.918	1144
663.972	19
664.026	874
664.079	808
664.133	668
664.187	722
664.240	379
664.294	839
664.348	863
664.401	923
664.455	620
664.508	431
664.562	387
664.615	372
664.669	-545
664.722	1382
664.776	629
664.829	-81
664.883	1048
664.936	167
664.990	1380
665.043	1596
665.097	67
665.150	1243
665.203	697
665.257	146
665.310	645
665.363	894
665.417	789
665.470	229
665.523	913
665.576	590
665.630	829
665.683	662
665.736	964
665.789	1114
665.842	784
665.895	173
665.949	1125
666.002	832
666.055	528
666.108	590
666.161	569
666.214	1336
666.267	642
666.320	289
666.373	1071
666.426	879
666.479	-720
666.532	465
666.585	1163
666.638	1450
666.691	-181
666.744	1413
666.796	534
666.849	1101
666.902	706
666.955	1223
667.008	48
667.060	463
667.113	-251
667.166	1242
667.219	-77
667.271	301
667.324	599
667.377	240
667.430	810
667.482	406
667.535	985
667.587	951
667.640	151
667.693	-24
667.745	1100
667.798	2966
667.850	1150
667.903	-126
667.955	384
668.008	274
668.060	1029
668.113	1581
668.165	965
668.218	1223
668.270	570
668.322	818
668.375	346
668.427	1850
668.479	29
668.532	881
668.584	1301
668.636	609
668.689	393
668.741	-19
668.793	979
668.845	553
668.898	899
668.950	713
669.002	684
669.054	114
669.106	732
669.158	866
669.211	445
669.263	1243
669.315	1779
669.367	2002
669.419	875
669.471	1351
669.523	1685
669.575	2356
669.627	1735
669.679	727
669.731	993
669.783	1498
669.835	1876
669.886	1248
669.938	1430
669.990	1628
670.042	1554
670.094	1800
670.146	1487
670.197	1947
670.249	3035
670.301	2790
670.353	5823
670.404	7875
670.456	11377
670.508	19585
670.560	32444
670.611	54574
670.663	93513
670.715	187759
670.766	319900
670.818	209402
670.869	49455
670.921	18301
670.972	10951
671.024	7001
671.075	5658
671.127	3870
671.178	2348
671.230	3452
671.281	2063
671.333	2471
671.384	1957
671.436	2237
671.487	3604
671.538	3400
671.590	4873
671.641	7512
671.692	12417
671.744	24935
671.795	26284
671.846	10107
671.897	4142
671.949	2965
672.000	1688
672.051	2083
672.102	1421
672.153	502
672.204	1567
672.256	1383
672.307	1247
672.358	746
672.409	1127
672.460	385
672.511	651
672.562	472
672.613	79
672.664	741
672.715	782
672.766	-58
672.817	409
672.868	518
672.919	370
672.970	678
673.021	177
673.071	-311
673.122	753
673.173	375
673.224	1002
673.275	274
673.326	-90
673.376	840
673.427	-521
673.478	245
673.528	498
673.579	106
673.630	411
673.680	1233
673.731	-316
673.782	754
673.832	608
673.883	147
673.934	-134
673.984	1008
674.035	744
674.085	253
674.136	1033
674.186	599
674.237	-51
674.287	1470
674.338	1065
674.388	-217
674.438	85
674.489	-72
674.539	813
674.589	651
674.640	726
674.690	1079
674.740	-714
674.791	-57
674.841	868
674.891	469
674.942	-19
674.992	-551
675.042	550
675.092	-118
675.142	689
675.193	5
675.243	213
675.293	483
675.343	402
675.393	-685
675.443	656
675.493	412
675.543	-265
675.593	-261
675.643	-630
675.693	170
675.743	402
675.793	86
675.843	77
675.893	259
675.943	417
675.993	353
676.043	692
676.093	1033
676.142	357
676.192	-13
676.242	-34
676.292	-221
676.341	287
676.391	-264
676.441	399
676.491	-310
676.540	-593
676.590	-50
676.640	-596
676.689	265
676.739	-522
676.789	209
676.838	-767
676.888	796
676.937	-835
676.987	-609
677.037	-121
677.086	-290
677.136	-837
677.185	-312
677.235	14
677.284	-277
677.333	-557
677.383	-702
677.432	-1004
677.482	-754
677.531	162
677.580	-221
677.630	7
677.679	-301
677.728	-564
677.778	-642
677.827	-566
677.876	-1107
677.925	-452
677.975	266
678.024	-520
678.073	208
678.122	5
678.171	-249
678.220	-564
678.269	-37
678.319	484
678.368	-288
678.417	373
678.466	700
678.515	-179
678.564	-199
678.613	-708
678.662	-641
678.711	-31
678.760	-389
678.809	-721
678.857	-245
678.906	125
678.955	553
679.004	-370
679.053	-642
679.102	-511
679.151	-344
679.199	-413
679.248	-123
679.297	14
679.346	-284
679.394	-653
679.443	-138
679.492	-608
679.540	-326
679.589	-333
679.638	-190
679.686	-478
679.735	-794
679.784	-34
679.832	-45
679.881	-528
679.929	-28
679.978	-888
680.026	-450
680.075	-713
680.123	-945
680.172	-1202
680.220	-934
680.268	-927
680.317	-628
680.365	-320
680.414	-653
680.462	368
680.510	-516
680.559	-898
680.607	-743
680.655	-917
680.703	-390
680.752	-564
680.800	-655
680.848	-806
680.896	-1081
680.945	-1122
680.993	-578
681.041	-1075
681.089	-524
681.137	-41
681.185	-765
681.233	-852
681.258	-472
681.281	-151
681.329	-691
681.377	-228
681.380	-191
681.425	-230
681.473	251
681.502	230
681.521	146
681.569	79
681.617	-448
681.624	-272
681.665	580
681.713	885
681.745	206
681.761	-178
681.809	-71
681.857	901
681.867	1059
681.904	1447
681.952	851
681.989	87
682.000	-183
682.048	673
682.096	819
682.111	846
682.143	763
682.191	309
682.233	1226
682.239	1325
682.286	299
682.334	732
682.354	728
682.382	655
682.430	1671
682.476	1217
682.477	1172
682.525	1118
682.572	1394
682.598	1443
682.620	1443
682.667	1616
682.715	1511
682.720	1592
682.763	1994
682.810	2358
682.841	2136
682.857	1984
682.905	2048
682.952	2207
682.963	2219
683.000	2074
683.047	2163
683.085	3032
683.095	3235
683.142	2841
683.190	2182
683.206	2281
683.237	2377
683.284	2785
683.328	2763
683.332	2734
683.379	2814
683.426	2520
683.449	3065
683.473	3547
683.521	3134
683.568	3199
683.571	3227
683.615	3273
683.662	3680
683.693	3787
683.709	3766
683.757	2974
683.804	3174
683.814	3213
683.851	3327
683.898	4094
683.936	3952
683.945	3885
683.992	3572
684.039	4383
684.057	4444
684.086	4484
684.133	4782
684.179	4609
684.180	4580
684.227	4696
684.274	4931
684.300	4911
684.321	4833
684.368	4125
684.415	4515
684.422	4568
684.462	4787
684.509	4486
684.543	4585
684.556	4579
684.603	4151
684.649	4678
684.665	4766
684.696	5051
684.743	5007
684.786	5329
684.790	5328
684.837	5097
684.883	5824
684.908	5772
684.930	5672
684.977	6121
685.023	5949
685.029	5974
685.070	5995
685.117	5767
685.150	5928
685.164	5994
685.210	6723
685.257	7125
685.272	7109
685.303	6911
685.350	6413
685.393	6939
685.396	6968
685.443	6100
685.490	6676
685.514	6949
685.536	7267
685.583	7192
685.629	6891
685.636	6957
685.675	7004
685.722	6240
685.757	6689
685.768	6868
685.815	7091
685.861	7572
685.878	7728
685.908	7959
685.954	7230
686.000	7462
686.000	7457
686.047	7695
686.093	7824
686.121	8205
686.139	8410
686.185	7612
686.232	8424
686.242	8438
686.278	8379
686.324	8090
686.363	8190
686.370	8207
686.416	8833
686.463	8807
686.484	8687
686.509	8574
686.555	8475
686.601	8143
686.606	8278
686.647	9243
686.693	8312
686.727	7993
686.739	7922
686.785	8805
686.831	8152
686.848	8262
686.877	8455
686.923	8737
686.969	8996
686.969	8996
687.015	8989
687.061	8806
687.090	8715
687.107	8638
687.153	9494
687.199	9536
687.211	9517
687.245	9341
687.291	9306
687.332	8704
687.336	8674
687.382	9384
687.428	9492
687.453	9641
687.474	9669
687.520	9863
687.565	9780
687.574	9780
687.611	10043
687.657	10071
687.695	10653
687.702	10839
687.748	11323
687.794	12838
687.816	13296
687.839	13138
687.885	12260
687.931	11950
687.937	11807
687.976	10860
688.022	10251
688.058	10032
688.067	10147
688.113	9772
688.158	10564
688.179	10588
688.204	10476
688.249	10490
688.295	10307
688.300	10319
688.340	10795
688.386	10912
688.421	11082
688.431	11076
688.477	10936
688.522	11063
688.542	10835
688.567	10630
688.613	11086
688.658	11146
688.663	11185
688.703	11422
688.749	10768
688.784	11103
688.794	11266
688.839	11204
688.884	11504
688.905	11487
688.930	11405
688.975	11565
689.020	11539
689.026	11518
689.065	11622
689.110	12094
689.146	12025
689.155	12001
689.201	12375
689.246	12794
689.267	12609
689.291	12306
689.336	11902
689.381	11963
689.388	11852
689.426	11470
689.471	11884
689.509	11513
689.516	11502
689.561	11703
689.606	12001
689.630	12199
689.651	12369
689.696	12025
689.741	12270
689.750	12387
689.785	12909
689.830	12821
689.871	13105
689.875	13118
689.920	12605
689.965	12628
689.992	12488
690.010	12551
690.054	12312
690.099	12451
690.112	12552
690.144	12869
690.189	12885
690.233	12862
690.233	12882
690.278	13102
690.323	13483
690.354	13490
690.367	13568
690.412	14111
690.457	14043
690.474	14199
690.501	14489
690.546	14791
690.590	14985
690.595	15002
690.635	15588
690.680	15976
690.716	16638
690.724	16985
690.769	18256
690.813	19773
690.836	20347
690.857	22060
690.902	26043
690.946	30255
690.957	31088
690.991	41153
691.035	55201
691.077	68639
691.080	69099
691.124	74702
691.168	79562
691.198	83104
691.213	77705
691.257	61197
691.301	44916
691.318	38274
691.346	34658
691.390	29036
691.434	23526
691.439	22836
691.478	21317
691.522	20223
691.559	18670
691.567	18569
691.611	17928
691.655	17299
691.680	16930
691.699	16840
691.743	16715
691.787	16406
691.800	16258
691.831	16264
691.875	16168
691.919	16519
691.921	16496
691.964	16690
692.008	16483
692.041	16351
692.052	16336
692.096	16115
692.139	16125
692.162	16113
692.183	16149
692.227	15885
692.271	15835
692.282	15675
692.315	15549
692.359	15709
692.402	16189
692.403	16225
692.447	16266
692.490	16137
692.523	16034
692.534	16115
692.578	16362
692.622	16399
692.643	16540
692.666	16582
692.709	16371
692.753	16360
692.763	16266
692.797	16375
692.840	16482
692.884	16706
692.884	16744
692.928	17053
692.971	16977
693.004	17186
693.015	17324
693.059	17651
693.102	17602
693.124	17628
693.146	17715
693.189	18072
693.233	18302
693.245	18325
693.276	19111
693.320	20199
693.363	21051
693.365	21042
693.407	22444
693.450	23912
693.485	24901
693.493	25637
693.537	29331
693.580	32846
693.605	34974
693.624	39023
693.667	48489
693.710	57860
693.725	61085
693.753	81738
693.797	113703
693.840	146283
693.845	149946
693.883	160339
693.926	170781
693.966	180436
693.970	177102
694.013	138728
694.056	99878
694.086	73198
694.099	69476
694.142	56848
694.185	44391
694.206	38340
694.229	36343
694.272	32216
694.315	28361
694.326	27240
694.358	26056
694.401	24657
694.444	23009
694.446	22889
694.487	22440
694.530	21345
694.566	20674
694.573	20676
694.616	20145
694.659	19919
694.686	19580
694.702	19508
694.745	19264
694.787	19109
694.806	18953
694.830	18686
694.873	18025
694.916	17528
694.926	17336
694.959	17394
695.002	17543
695.044	17536
695.046	17499
695.087	17825
695.130	17993
695.166	18056
695.172	18129
695.215	18354
695.258	18667
695.286	18695
695.301	18640
695.343	18561
695.386	18360
695.406	18229
695.428	18376
695.471	18407
695.514	18735
695.526	18769
695.556	19229
695.599	19790
695.641	20150
695.646	20149
695.684	19938
695.726	19753
695.766	19391
695.769	19416
695.811	19139
695.854	18836
695.886	18560
695.896	18622
695.938	18667
695.981	18878
696.005	18822
696.023	18960
696.065	19263
696.108	19537
696.125	19563
696.150	19680
696.192	20093
696.235	20149
696.245	20166
696.277	20259
696.319	20217
696.361	20277
696.365	20217
696.404	20789
696.446	21392
696.485	22000
696.488	22046
696.530	21759
696.572	21477
696.604	21192
696.614	21190
696.656	20927
696.698	20869
696.724	20679
696.740	20585
696.783	20118
696.825	19871
696.844	19620
696.867	19725
696.909	19766
696.951	19970
696.964	19991
696.992	20209
697.034	20242
697.076	20416
697.083	20391
697.118	20572
697.160	20727
697.202	20796
697.203	20741
697.244	20565
697.286	20406
697.323	20225
697.327	20272
697.369	20215
697.411	20046
697.442	19868
697.453	19852
697.494	19649
697.536	19320
697.562	19125
697.578	19316
697.620	19668
697.661	20043
697.682	20130
697.703	20449
697.744	21001
697.786	21649
697.801	21785
697.828	21765
697.869	21664
697.911	21522
697.921	21446
697.952	21442
697.994	21324
698.035	21168
698.040	21090
698.077	21004
698.118	20907
698.160	20706
698.160	20645
698.201	20864
698.243	21007
698.279	21075
698.284	21162
698.325	21413
698.367	21714
698.399	21812
698.408	21822
698.449	21690
698.491	21475
698.518	21281
698.532	21374
698.573	21500
698.614	21608
698.638	21620
698.656	21614
698.697	21424
698.738	21261
698.757	21125
698.779	21346
698.820	21653
698.862	21953
698.877	22004
698.903	22180
698.944	22370
698.985	22549
698.996	22539
699.026	22722
699.067	22886
699.116	23020
699.235	21234
699.354	22636
699.474	22381
699.593	21620
699.713	22306
699.832	22323
699.951	21657
700.070	22045
700.190	21704
700.309	21094
700.428	20446
700.547	20930
700.667	21282
700.786	21976
700.905	20791
701.024	20281
701.143	20542
701.262	19710
701.381	19794
701.500	19551
701.619	19681
701.738	20441
701.857	19711
701.976	19646
702.095	19994
702.214	19916
702.333	19907
702.452	19144
702.571	18468
702.690	19703
702.809	20220
702.928	19231
703.047	19004
703.165	19050
703.284	18007
703.403	17446
703.522	18124
703.640	19333
703.759	19143
703.878	20199
703.997	18904
704.115	17987
704.234	18036
704.353	18713
704.471	16863
704.590	17711
704.708	17310
704.827	17687
704.946	17240
705.064	17588
705.183	17947
705.301	19148
705.420	22121
705.538	22775
705.656	20738
705.775	21134
705.893	26555
706.012	38592
706.130	21771
706.249	19658
706.367	19808
706.485	19647
706.604	20506
706.722	19618
706.840	21780
706.958	26607
707.077	26531
707.195	19553
707.313	19138
707.431	18656
707.549	18778
707.668	17360
707.786	18153
707.904	17814
708.022	17956
708.140	17868
708.258	17641
708.376	17919
708.494	17435
708.612	18562
708.730	21628
708.848	22761
708.966	20671
709.084	20200
709.202	19903
709.320	19680
709.438	19664
709.556	19529
709.674	19048
709.791	20477
709.909	18874
710.027	18363
710.145	17884
710.263	19116
710.380	18370
710.498	19800
710.616	18819
710.733	18671
710.851	18642
710.969	18661
711.086	18150
711.204	18485
711.322	18992
711.439	18222
711.557	17884
711.674	17794
711.792	17329
711.909	19169
712.027	19831
712.144	17698
712.262	16959
712.379	18175
712.497	22086
712.614	23969
712.732	21262
712.849	19260
712.966	18804
713.084	21000
713.201	20154
713.318	20649
713.436	20213
713.553	20292
713.670	20388
713.787	20415
713.905	21042
714.022	19370
714.139	18986
714.256	20982
714.373	24104
714.490	31915
714.608	56018
714.725	203543
714.842	385871
714.959	51282
715.076	23721
715.193	21344
715.310	20204
715.427	17100
715.544	16794
715.661	17698
715.778	18101
715.895	18755
716.011	17558
716.128	17702
716.245	17606
716.362	17004
716.479	18117
716.596	17118
716.713	17646
716.829	16998
716.946	16735
717.063	15701
717.180	16121
717.296	15253
717.413	16099
717.530	15460
717.646	15317
717.763	14697
717.880	14995
717.996	14967
718.113	15779
718.229	15112
718.346	15156
718.462	14815
718.579	15513
718.695	17309
718.812	17748
718.928	15652
719.045	15616
719.161	15038
719.277	14795
719.394	14371
719.510	15346
719.626	15077
719.743	16810
719.859	19834
719.975	26491
720.092	63977
720.208	202815
720.324	57628
720.440	17264
720.557	16000
720.673	16897
720.789	18163
720.905	25588
721.021	19654
721.137	13072
721.253	14313
721.369	13548
721.486	14607
721.602	16150
721.718	13442
721.834	12722
721.950	14145
722.066	13263
722.181	12926
722.297	13016
722.413	13326
722.529	13105
722.645	12557
722.761	12242
722.877	13257
722.993	12320
723.108	12677
723.224	13198
723.340	13427
723.456	11245
723.571	11689
723.687	11720
723.803	12387
723.918	12005
724.034	11965
724.150	12394
724.265	12992
724.381	14888
724.497	18073
724.612	12804
724.728	11714
724.843	11754
724.959	11757
725.074	13456
725.190	17859
725.305	11811
725.421	11802
725.536	11048
725.651	11811
725.767	11440
725.882	10599
725.997	11609
726.113	11741
726.228	11190
726.343	10820
726.459	10755
726.574	11191
726.689	11192
726.804	11169
726.920	10396
727.035	10825
727.150	10715
727.265	10196
727.380	10680
727.495	11307
727.610	9905
727.725	10437
727.841	10457
727.956	14758
728.071	17534
728.186	10426
728.301	9657
728.416	11111
728.531	10351
728.645	9423
728.760	9928
728.875	10375
728.990	9633
729.105	9385
729.220	9663
729.335	10060
729.449	9644
729.564	9995
729.679	8849
729.794	9574
729.908	9462
730.023	9832
730.138	9476
730.253	9471
730.367	9949
730.482	9591
730.596	9544
730.711	9847
730.826	11370
730.940	11505
731.055	10100
731.169	10234
731.284	9580
731.398	9596
731.513	9605
731.627	10289
731.742	11489
731.856	12139
731.970	11200
732.085	11954
732.199	14148
732.313	19108
732.428	34550
732.542	88965
732.656	86223
732.771	22369
732.885	14262
732.999	12639
733.113	12282
733.227	12420
733.342	11870
733.456	11503
733.570	11218
733.684	10674
733.798	10686
733.912	10528
734.026	11208
734.140	10551
734.254	11636
734.368	11980
734.482	13848
734.596	10891
734.710	10052
734.824	9534
734.938	9995
735.052	9217
735.166	10978
735.280	10271
735.393	10106
735.507	10610
735.621	10542
735.735	12364
735.849	10524
735.962	9363
736.076	10159
736.190	10518
736.303	10548
736.417	12136
736.531	9633
736.644	10285
736.758	8989
736.872	9436
736.985	8984
737.099	9977
737.212	8763
737.326	9682
737.439	9123
737.553	8647
737.666	9105
737.780	9066
737.893	9320
738.007	9334
738.120	9330
738.233	8608
738.347	9525
738.460	9297
738.573	8444
738.687	8894
738.800	8792
738.913	8711
739.026	9614
739.140	8503
739.253	9816
739.366	8639
739.479	8944
739.592	8414
739.705	8412
739.818	8990
739.932	8891
740.045	8680
740.158	8346
740.271	9045
740.384	8130
740.497	8563
740.610	8785
740.723	8052
740.836	8928
740.949	8699
741.062	8345
741.174	8757
741.287	8652
741.400	8659
741.513	8443
741.626	9205
741.739	8322
741.851	7589
741.964	8386
742.077	9196
742.189	7608
742.302	8166
742.415	9072
742.527	7768
742.640	8267
742.753	8376
742.865	7107
742.978	7829
743.090	7627
743.203	7706
743.316	8340
743.428	8314
743.541	7966
743.653	8147
743.766	7150
743.878	7488
743.990	8181
744.103	9423
744.215	8972
744.327	8416
744.440	8388
744.552	8786
744.664	8414
744.777	8218
744.889	7191
745.001	7286
745.113	7370
745.226	8156
745.338	7652
745.450	8760
745.562	7688
745.674	7693
745.786	7830
745.898	8351
746.010	7711
746.122	8169
746.234	7973
746.347	7760
746.459	7733
746.570	7541
746.682	8001
746.794	9059
746.906	7196
747.018	8150
747.130	7743
747.242	7254
747.354	7178
747.466	8296
747.577	7405
747.689	7891
747.801	8149
747.913	6562
748.024	8415
748.136	7481
748.248	7945
748.359	8387
748.471	7239
748.583	7335
748.694	7911
748.806	8831
748.918	8303
749.029	8070
749.141	7752
749.252	8374
749.364	7856
749.475	8595
749.587	9029
749.698	8066
749.809	7689
749.921	8141
750.032	6990
750.144	8147
750.255	7206
750.366	8579
750.478	6861
750.589	8326
750.700	7524
750.811	8262
750.923	8157
751.034	7794
751.145	10431
751.256	7948
751.367	7019
751.479	7261
751.590	7058
751.701	8235
751.812	6277
751.923	7817
752.034	7566
752.145	7940
752.256	7825
752.367	7870
752.478	7885
752.589	7334
752.700	7690
752.811	8171
752.922	7507
753.032	8670
753.143	7920
753.254	7235
753.365	8166
753.476	7982
753.586	8370
753.697	7415
753.808	7428
753.919	7598
754.029	7839
754.140	7918
754.251	7695
754.361	7707
754.472	7722
754.582	8503
754.693	7819
754.804	8670
754.914	8132
755.025	8051
755.135	7883
755.246	8982
755.356	8494
755.466	8602
755.577	7642
755.687	8260
755.798	8211
755.908	7860
756.018	8508
756.129	9345
756.239	8367
756.349	8024
756.460	8595
756.570	9204
756.680	8902
756.790	8320
756.900	9185
757.011	9268
757.121	8937
757.231	8896
757.341	8780
757.451	8422
757.561	8514
757.671	9478
757.781	9080
757.891	9607
758.001	9501
758.111	9206
758.221	9040
758.331	9876
758.441	9447
758.551	10294
758.661	10164
758.771	10900
758.880	9935
758.990	10775
759.100	10643
759.210	10691
759.320	10912
759.429	11220
759.539	11604
759.649	11403
759.758	12021
759.868	12375
759.978	12131
760.087	13096
760.197	12007
760.307	13879
760.416	12176
760.526	13388
760.635	13288
760.745	13145
760.854	13854
760.964	14970
761.073	15483
761.182	14293
761.292	14688
761.401	16161
761.511	15622
761.620	16006
761.729	16534
761.839	16553
761.948	17054
762.057	17169
762.166	17700
762.276	17321
762.385	19357
762.494	18615
762.603	19137
762.712	20196
762.822	21067
762.931	21343
763.040	21876
763.149	24091
763.258	25413
763.367	26258
763.476	26349
763.585	28667
763.694	29373
763.803	31080
763.912	33574
764.021	34726
764.130	36608
764.238	39259
764.347	41831
764.456	45299
764.565	48488
764.674	53571
764.783	58173
764.891	63527
765.000	72049
765.109	80347
765.217	89381
765.326	103954
765.435	121453
765.543	144428
765.652	174289
765.761	213746
765.869	269947
765.978	339364
766.086	432428
766.195	534533
766.303	592126
766.412	509635
766.520	386121
766.629	541937
766.737	567118
766.846	484767
766.954	387634
767.062	303200
767.171	239497
767.279	191121
767.387	155837
767.496	130126
767.604	112255
767.712	96619
767.820	85659
767.928	79751
768.037	73224
768.145	69625
768.253	65242
768.361	63345
768.469	63267
768.577	62468
768.685	64779
768.793	69755
768.901	74567
769.009	85059
769.117	100420
769.225	123066
769.333	159524
769.441	216356
769.549	311555
769.657	441071
769.765	545246
769.873	444683
769.981	460579
770.088	502036
770.196	387604
770.304	280226
770.412	209276
770.519	161216
770.627	128086
770.735	107197
770.842	89905
770.950	76960
771.058	68203
771.165	60602
771.273	54372
771.380	49260
771.488	45598
771.595	42211
771.703	38456
771.810	35538
771.918	33708
772.025	31031
772.133	30033
772.240	28446
772.348	27739
772.455	26150
772.562	24674
772.670	24333
772.777	23331
772.884	22060
772.991	21223
773.099	19997
773.206	19732
773.313	19016
773.420	18027
773.528	17041
773.635	17427
773.742	17629
773.849	16027
773.956	16655
774.063	15201
774.170	15202
774.277	14692
774.384	14197
774.491	14570
774.598	14952
774.705	13445
774.812	13887
774.919	14305
775.026	12670
775.133	13430
775.239	12856
775.346	12491
775.453	12316
775.560	11515
775.667	12457
775.773	12033
775.880	11213
775.987	11736
776.093	11374
776.200	11051
776.307	11092
776.413	10827
776.520	10537
776.627	11120
776.733	9656
776.840	9325
776.946	10128
777.053	9779
777.159	10287
777.266	8416
777.372	9935
777.478	9074
777.585	9653
777.691	9008
777.798	8378
777.904	9892
778.010	9824
778.117	9660
778.223	8068
778.329	8512
778.435	8135
778.542	8391
778.648	8418
778.754	7578
778.860	8614
778.966	8561
779.072	8971
779.178	8523
779.284	8768
779.391	7662
779.497	8574
779.603	12173
779.708	15234
779.815	26502
779.920	74961
780.026	203952
780.132	84400
780.238	18476
780.344	11790
780.450	10481
780.556	8468
780.661	7207
780.767	8319
780.873	6200
780.979	7260
781.085	6836
781.190	7401
781.296	6426
781.402	6479
781.507	6080
781.613	5601
781.719	6170
781.824	6399
781.930	7242
782.035	6190
782.141	6257
782.246	5178
782.352	5805
782.457	6038
782.563	5474
782.668	6374
782.773	5498
782.879	5230
782.984	5816
783.090	6118
783.195	6179
783.300	6351
783.405	5498
783.511	4925
783.616	5779
783.721	5449
783.826	5198
783.932	5259
784.037	5670
784.142	4985
784.247	5558
784.352	5894
784.457	4955
784.562	5646
784.667	4940
784.772	4647
784.877	3985
784.982	5835
785.087	5073
785.192	5366
785.297	5225
785.402	4952
785.507	5268
785.611	5053
785.716	4429
785.821	4794
785.926	4677
786.031	4047
786.135	3992
786.240	5000
786.345	4326
786.450	4577
786.554	4702
786.659	4092
786.763	4603
786.868	5222
786.973	4837
787.077	4262
787.182	4190
787.286	4227
787.391	3881
787.495	4339
787.600	4631
787.704	4225
787.809	5003
787.913	4612
788.017	4422
788.122	4678
788.226	4123
788.330	3584
788.435	3951
788.539	3699
788.643	4200
788.747	3685
788.852	3861
788.956	3536
789.060	4161
789.164	3552
789.268	3064
789.372	5061
789.476	3611
789.580	3404
789.684	3654
789.788	4143
789.892	3949
789.996	4294
790.100	3129
790.204	3091
790.308	4622
790.412	3927
790.516	4376
790.620	4068
790.724	4686
790.828	4304
790.931	3165
791.035	4532
791.139	3473
791.242	3818
791.346	4857
791.450	3771
791.554	4035
791.657	2958
791.761	3252
791.864	3588
791.968	3784
792.072	4324
792.175	2998
792.279	4128
792.382	3861
792.486	3896
792.589	2907
792.693	3226
792.796	2802
792.899	3918
793.003	3698
793.106	3284
793.209	3420
793.313	3644
793.416	2774
793.519	4125
793.623	4058
793.726	4116
793.829	3108
793.932	3747
794.035	2766
794.138	3365
794.242	4897
794.345	5790
794.448	8299
794.551	13806
794.654	41664
794.757	128104
794.860	55352
794.963	9181
795.066	5373
795.169	4945
795.272	3893
795.375	3880
795.477	3249
795.580	2804
795.683	2383
795.786	2373
795.889	2433
795.991	3906
796.094	3838
796.197	3185
796.300	3741
796.402	2977
796.505	3087
796.608	3152
796.710	3367
796.813	2937
796.915	2723
797.018	3427
797.120	3237
797.223	2337
797.326	3664
797.428	2823
797.530	2559
797.633	2177
797.735	3793
797.838	2821
797.940	3844
798.042	2946
798.145	3310
798.247	3087
798.349	2622
798.452	2750
798.554	2786
798.656	2483
798.758	3725
798.860	2107
798.962	2345
799.065	2394
799.167	2280
799.269	3248
799.371	2759
799.473	2904
799.575	2396
799.677	2512
799.779	3409
799.881	2453
799.983	3211
800.085	2778
800.187	2288
800.289	2161
800.390	2264
800.492	3427
800.594	2759
800.696	2516
800.798	2414
800.899	2649
801.001	2154
801.103	2595
801.205	2019
801.306	2527
801.408	2108
801.509	2967
801.611	2492
801.713	3134
801.814	2191
801.916	1971
802.017	1658
802.119	2077
802.220	2262
802.322	1701
802.423	3092
802.525	1228
802.626	2089
802.727	2267
802.829	1317
802.930	668
803.031	3180
803.133	2434
803.234	1109
803.335	2359
803.436	1757
803.538	1995
803.639	1316
803.740	3086
803.841	1852
803.942	2690
804.043	2177
804.144	1015
804.245	2375
804.346	1716
804.447	1604
804.548	3011
804.649	2952
804.750	2006
804.851	1257
804.952	1137
805.053	1740
805.154	1215
805.255	2808
805.355	2585
805.456	2346
805.557	1943
805.658	1598
805.758	2306
805.859	1818
805.960	1965
806.061	1668
806.161	1852
806.262	1304
806.362	2171
806.463	1620
806.564	1673
806.664	1562
806.765	2624
806.865	2675
806.966	1684
807.066	1875
807.166	2767
807.267	2201
807.367	2654
807.468	2336
807.568	535
807.668	2412
807.769	1993
807.869	1496
807.969	2390
808.069	1972
808.170	1825
808.270	1399
808.370	2856
808.470	1630
808.570	923
808.670	1913
808.770	2199
808.870	1382
808.970	1648
809.070	1545
809.170	1494
809.271	1972
809.370	1794
809.470	2020
809.570	1385
809.670	1240
809.770	1878
809.870	1993
809.970	2275
810.070	1900
810.169	2706
810.269	1260
810.369	3063
810.469	1982
810.568	2638
810.668	1796
810.768	1918
810.867	1926
810.967	2245
811.066	2138
811.166	2271
811.265	1889
811.365	1418
811.464	1965
811.564	2087
811.663	2331
811.763	663
811.862	2357
811.962	1960
812.061	1275
812.160	1911
812.260	1829
812.359	3233
812.458	3876
812.557	7765
812.657	16125
812.756	9702
812.855	3284
812.954	2470
813.053	2177
813.153	2513
813.252	1477
813.351	1605
813.450	2147
813.549	1498
813.648	2485
813.747	1518
813.846	2590
813.945	2450
814.044	2669
814.143	1999
814.242	2647
814.341	2482
814.439	2862
814.538	2994
814.637	1626
814.736	2780
814.835	3377
814.933	1820
815.032	2574
815.131	3423
815.229	3344
815.328	3761
815.427	4470
815.525	4330
815.624	4361
815.722	3753
815.821	4855
815.919	4557
816.018	3565
816.116	4937
816.215	4902
816.313	5009
816.412	5136
816.510	5349
816.609	6366
816.707	6669
816.805	6299
816.904	6400
817.002	6568
817.100	8278
817.198	8717
817.296	9374
817.395	10447
817.493	12139
817.591	12946
817.689	17672
817.787	22219
817.885	31103
817.983	50560
818.081	84002
818.179	159031
818.277	294938
818.375	326154
818.473	212076
818.571	111556
818.669	69371
818.767	54386
818.865	48301
818.963	52859
819.061	64892
819.158	92358
819.256	147643
819.354	248632
819.452	367128
819.549	335620
819.647	243958
819.745	148579
819.842	90655
819.940	61889
820.038	43829
820.135	33829
820.233	27873
820.330	22069
820.428	18306
820.525	16713
820.623	13837
820.720	12171
820.818	11005
820.915	11699
821.012	9363
821.110	7481
821.207	8868
821.304	7260
821.402	6280
821.499	7179
821.596	6044
821.693	5818
821.791	5720
821.888	5532
821.985	6667
822.082	5246
822.179	5338
822.276	4403
822.373	4968
822.470	3693
822.567	4187
822.664	3455
822.761	3760
822.858	3428
822.955	3742
823.052	4001
823.149	3112
823.246	3391
823.343	3341
823.440	3908
823.536	3029
823.633	3452
823.730	3026
823.827	2839
823.923	2549
824.020	3941
824.117	3287
824.213	2485
824.310	3784
824.407	3121
824.503	3034
824.600	2814
824.696	3010
824.793	2112
824.889	2501
824.986	2348
825.082	2251
825.179	1506
825.275	2402
825.371	3054
825.468	3158
825.564	2275
825.660	1942
825.757	2748
825.853	2468
825.949	2333
826.045	2797
826.142	1150
826.238	2734
826.334	3341
826.430	1931
826.526	2295
826.622	2239
826.718	2153
826.814	1921
826.910	2351
827.006	2215
827.102	1543
827.198	2023
827.294	1894
827.390	2408
827.486	1952
827.582	1250
827.678	1638
827.774	2128
827.869	1185
827.965	2949
828.061	1144
828.157	1889
828.252	1953
828.348	1319
828.444	2845
828.539	899
828.635	2294
828.731	2880
828.826	1381
828.922	1572
829.017	1351
829.113	1986
829.208	1581
829.304	1372
829.399	3032
829.495	2327
829.590	2278
829.685	1840
829.781	1533
829.876	1646
829.971	1390
830.066	873
830.162	1527
830.257	1356
830.352	1687
830.447	2393
830.543	1207
830.638	974
830.733	2118
830.828	1245
830.923	1067
831.018	1974
831.113	1468
831.208	697
831.303	730
831.398	1343
831.493	1409
831.588	1724
831.683	1339
831.778	1132
831.873	799
831.967	1522
832.062	1043
832.157	2186
832.252	2620
832.346	1658
832.441	1803
832.536	2196
832.631	2952
832.725	2211
832.820	1190
832.914	1746
833.009	1152
833.104	1620
833.198	1302
833.293	518
833.387	2091
833.482	1931
833.576	1393
833.670	2168
833.765	891
833.859	1439
833.954	1474
834.048	649
834.142	1768
834.237	613
834.331	1455
834.425	1105
834.519	1050
834.613	1730
834.708	1073
834.802	1864
834.896	245
834.990	1112
835.084	1588
835.178	1396
835.272	779
835.366	1182
835.460	1616
835.554	1669
835.648	992
835.742	487
835.836	879
835.930	660
836.024	615
836.117	1654
836.211	1020
836.305	1961
836.399	2063
836.493	881
836.586	2306
836.680	641
836.774	1401
836.867	2146
836.961	350
837.055	453
837.148	1495
837.242	925
837.335	1182
837.429	1398
837.522	321
837.616	794
837.709	1903
837.803	1673
837.896	1789
837.989	1446
838.083	1639
838.176	1713
838.269	1361
838.363	1812
838.456	750
838.549	1431
838.642	1274
838.735	2898
838.829	1499
838.922	716
839.015	756
839.108	518
839.201	912
839.294	1359
839.387	1344
839.480	415
839.573	1147
839.666	1574
839.759	1006
839.852	1088
839.945	950
840.038	399
840.131	871
840.223	212
840.316	980
840.409	861
840.502	786
840.594	1836
840.687	559
840.780	1366
840.873	871
840.965	756
841.058	477
841.150	1847
841.243	1541
841.336	649
841.428	737
841.521	745
841.613	549
841.706	1190
841.798	676
841.890	937
841.983	213
842.075	1775
842.167	560
842.260	1034
842.352	1436
842.444	1376
842.537	1655
842.629	2540
842.721	1035
842.813	1146
842.905	136
842.997	1861
843.090	926
843.182	1008
843.274	984
843.366	2774
843.458	6415
843.550	6172
843.642	2589
843.734	331
843.826	1120
843.918	1270
844.009	1788
844.101	1051
844.193	912
844.285	603
844.377	2106
844.469	196
844.560	1054
844.652	236
844.744	900
844.835	653
844.927	1315
845.019	1382
845.110	327
845.202	1040
845.293	770
845.385	136
845.476	844
845.568	1688
845.659	148
845.751	1234
845.842	575
845.934	-59
846.025	420
846.116	1561
846.208	403
846.299	695
846.390	552
846.482	868
846.573	1432
846.664	1260
846.755	625
846.846	1093
846.937	24
847.029	1008
847.120	95
847.211	423
847.302	1693
847.393	197
847.484	1801
847.575	302
847.666	587
847.757	-56
847.847	484
847.938	1031
848.029	429
848.120	266
848.211	1169
848.302	441
848.392	1100
848.483	895
848.574	268
848.664	880
848.755	926
848.846	1167
848.936	-205
849.027	883
849.118	657
849.208	669
849.299	1398
849.389	856
849.480	1463
849.570	3939
849.661	5753
849.751	10627
849.841	6085
849.932	1262
850.022	368
850.112	1108
850.203	897
850.293	930
850.383	1153
850.474	88
850.564	654
850.654	1640
850.744	724
850.834	417
850.924	102
851.014	331
851.104	725
851.194	606
851.284	984
851.374	1419
851.464	685
851.554	1231
851.644	908
851.734	2006
851.824	2647
851.914	5307
852.004	9212
852.094	14627
852.183	5420
852.273	1230
852.363	644
852.452	1387
852.542	843
852.632	447
852.721	669
852.811	581
852.901	1119
852.990	649
853.080	747
853.169	806
853.259	710
853.348	768
853.438	1068
853.527	1409
853.617	1446
853.706	2749
853.795	4511
853.885	8401
853.974	17971
854.063	29726
854.152	55704
854.242	34970
854.331	7878
854.420	2429
854.509	1702
854.598	1303
854.687	1409
854.777	1442
854.866	753
854.955	1068
855.044	515
855.133	647
855.222	1186
855.311	201
855.400	1363
855.488	401
855.577	55
855.666	647
855.755	1149
855.844	593
855.933	1179
856.021	679
856.110	342
856.199	-97
856.288	217
856.376	589
856.465	-965
856.554	405
856.642	975
856.731	286
856.819	727
856.908	1327
856.996	28
857.085	814
857.173	745
857.262	18
857.350	571
857.438	43
857.527	923
857.615	322
857.703	1033
857.792	562
857.880	-53
857.968	148
858.056	748
858.145	1072
858.233	285
858.321	17
858.409	1195
858.497	-790
858.585	219
858.673	859
858.761	83
858.849	-294
858.937	-171
859.025	565
859.113	543
859.201	276
859.289	954
859.377	170
859.465	1278
859.552	-295
859.640	-333
859.728	603
859.816	112
859.903	1041
859.991	491
860.079	9
860.166	-30
860.254	93
860.342	228
860.429	85
860.517	-147
860.604	386
860.692	550
860.779	257
860.867	117
860.954	160
861.042	662
861.129	395
861.216	-116
861.304	381
861.391	345
861.478	529
861.565	-160
861.653	547
861.740	-340
861.827	552
861.914	981
862.001	611
862.089	174
862.176	384
862.263	242
862.350	641
862.437	47
862.524	416
862.611	110
862.698	928
862.785	312
862.871	572
862.958	116
863.045	-124
863.132	963
863.219	-223
863.306	181
863.392	629
863.479	436
863.566	238
863.652	60
863.739	320
863.826	25
863.912	213
863.999	-723
864.086	499
864.172	238
864.259	683
864.345	614
864.432	636
864.518	904
864.604	805
864.691	463
864.777	418
864.863	533
864.950	750
865.036	758
865.122	2389
865.209	2168
865.295	1550
865.381	2678
865.467	1369
865.553	2458
865.639	2066
865.726	2848
865.812	5267
865.898	8736
865.984	14768
866.070	22368
866.156	34530
866.242	15598
866.328	3760
866.414	1500
866.499	2931
866.585	1672
866.671	1306
866.757	1337
866.843	1651
866.928	1491
867.014	976
867.100	1301
867.186	1654
867.271	1502
867.357	1927
867.442	2049
867.528	1266
867.614	1486
867.699	645
867.785	1215
867.870	1440
867.956	766
868.041	1830
868.127	1407
868.212	2260
868.297	1511
868.383	877
868.468	1497
868.553	2260
868.639	2223
868.724	1439
868.809	3650
868.894	2005
868.979	1263
869.065	1673
869.150	99
869.235	1096
869.320	768
869.405	978
869.490	334
869.575	304
869.660	610
869.745	1124
869.830	1008
869.915	1493
870.000	724
870.085	698
870.169	1300
870.254	1240
870.339	808
870.424	893
870.509	397
870.593	1362
870.678	969
870.763	630
870.847	229
870.932	671
871.016	679
871.101	147
871.186	1408
871.270	1133
871.355	1767
871.439	716
871.523	785
871.608	1514
871.692	847
871.777	943
871.861	1211
871.945	432
872.030	1732
872.114	294
872.198	759
872.282	1013
872.367	478
872.451	628
872.535	429
872.619	923
872.703	368
872.787	578
872.871	1666
872.955	1054
873.039	196
873.123	694
873.207	947
873.291	540
873.375	605
873.459	273
873.543	714
873.627	776
873.711	-240
873.794	1067
873.878	102
873.962	611
874.045	598
874.129	935
874.137	848
874.213	-20
874.245	335
874.296	915
874.352	78
874.380	-328
874.460	391
874.464	418
874.547	165
874.568	279
874.631	640
874.676	710
874.714	774
874.784	992
874.798	1030
874.881	1505
874.892	1325
874.965	108
874.999	84
875.048	45
875.107	530
875.131	717
875.215	323
875.215	323
875.298	363
875.323	285
875.381	87
875.430	429
875.465	657
875.538	284
875.548	234
875.631	299
875.646	343
875.714	581
875.753	512
875.798	409
875.861	410
875.881	425
875.964	688
875.968	716
876.047	1144
876.076	963
876.130	694
876.183	654
876.213	607
876.291	777
876.296	792
876.379	110
876.398	220
876.462	550
876.506	360
876.545	205
876.613	648
876.628	748
876.711	988
876.721	989
876.794	898
876.828	565
876.877	101
876.935	346
876.960	457
877.043	328
877.043	327
877.125	151
877.150	320
877.208	754
877.258	585
877.291	436
877.365	307
877.374	302
877.456	663
877.472	661
877.539	513
877.579	627
877.622	814
877.687	231
877.704	67
877.787	137
877.794	152
877.869	299
877.901	288
877.952	313
878.008	212
878.034	179
878.115	310
878.117	308
878.199	334
878.222	272
878.282	305
878.329	301
878.364	250
878.437	380
878.447	385
878.529	221
878.544	184
878.611	50
878.651	47
878.694	224
878.758	636
878.776	661
878.858	79
878.865	103
878.941	350
878.972	263
879.023	290
879.078	51
879.105	-129
879.185	-293
879.187	-290
879.269	194
879.292	227
879.351	303
879.399	562
879.433	662
879.506	196
879.516	110
879.598	180
879.613	127
879.680	181
879.720	233
879.762	305
879.827	-48
879.844	-195
879.926	454
879.933	440
880.007	416
880.040	166
880.089	-169
880.147	-188
880.171	-178
880.253	644
880.254	646
880.335	715
880.360	763
880.417	1208
880.467	1494
880.499	1626
880.574	2553
880.580	2586
880.662	1160
880.680	1087
880.744	1079
880.787	748
880.825	475
880.893	488
880.907	466
880.989	-372
881.000	-289
881.070	371
881.106	297
881.152	279
881.213	424
881.233	460
881.315	499
881.319	516
881.396	605
881.426	382
881.478	-34
881.532	266
881.559	584
881.639	263
881.641	241
881.722	-5
881.745	-144
881.803	-162
881.852	149
881.885	299
881.958	254
881.966	298
882.047	659
882.064	706
882.129	191
882.171	28
882.210	149
882.277	558
882.291	675
882.372	746
882.383	780
882.454	424
882.489	103
882.535	-29
882.596	98
882.616	145
882.697	339
882.702	348
882.778	293
882.808	259
882.859	252
882.914	300
882.940	353
883.020	87
883.021	88
883.102	564
883.127	629
883.183	297
883.233	-173
883.264	-273
883.339	101
883.345	135
883.426	-19
883.445	21
883.507	-45
883.551	-76
883.587	67
883.657	240
883.668	270
883.749	719
883.763	750
883.830	421
883.869	195
883.910	231
883.975	280
883.991	156
884.072	-483
884.081	-518
884.152	161
884.187	397
884.233	357
884.292	416
884.314	474
884.394	118
884.398	129
884.475	-14
884.504	-210
884.555	-226
884.610	2
884.636	43
884.716	98
884.716	101
884.797	409
884.821	505
884.877	566
884.927	300
884.958	79
885.033	-63
885.038	-22
885.118	455
885.139	606
885.199	112
885.244	-164
885.279	44
885.350	448
885.359	429
885.439	-96
885.456	-156
885.520	243
885.561	462
885.600	478
885.667	469
885.680	483
885.760	715
885.773	739
885.840	394
885.878	257
885.920	436
885.984	457
886.000	424
886.080	243
886.089	239
886.160	265
886.195	279
886.240	83
886.300	-206
886.320	-91
886.400	436
886.406	471
886.480	248
886.511	163
886.560	328
886.616	319
886.640	275
886.720	288
886.722	287
886.800	559
886.827	671
886.879	410
886.932	118
886.959	167
887.038	223
887.039	224
887.119	258
887.143	240
887.198	625
887.248	1027
887.278	1059
887.354	1077
887.358	1059
887.437	563
887.459	460
887.517	45
887.564	-348
887.596	-129
887.669	362
887.676	336
887.755	28
887.774	-37
887.835	443
887.880	806
887.914	701
887.985	400
887.994	389
888.073	451
888.090	417
888.153	111
888.195	-35
888.232	422
888.300	1275
888.311	1217
888.391	709
888.405	633
888.470	489
888.510	371
888.549	555
888.615	864
888.628	858
888.708	826
888.720	822
888.787	824
888.825	792
888.866	579
888.930	260
888.945	329
889.024	732
889.035	784
889.103	697
889.140	630
889.182	849
889.245	1202
889.261	1031
889.340	198
889.349	103
889.419	631
889.454	888
889.498	457
889.559	-120
889.577	-9
889.656	477
889.664	528
889.735	519
889.768	513
889.814	575
889.873	659
889.978	-48
890.083	415
890.187	414
890.292	-16
890.397	1218
890.501	287
890.606	-25
890.710	390
890.815	593
890.919	389
891.024	815
891.128	736
891.233	612
891.337	178
891.442	786
891.546	284
891.650	120
891.755	1440
891.859	1107
891.963	932
892.068	133
892.172	-12
892.276	79
892.380	647
892.484	96
892.589	304
892.693	1136
892.797	1099
892.901	760
893.005	688
893.109	757
893.213	-178
893.317	464
893.421	977
893.525	44
893.629	333
893.733	267
893.837	472
893.941	19
894.045	802
894.148	368
894.252	1318
894.356	734
894.460	-207
894.564	568
894.667	-40
894.771	63
894.875	253
894.978	-404
895.082	575
895.186	155
895.289	264
895.393	403
895.496	-388
895.600	535
895.703	-96
895.807	643
895.910	441
896.014	761
896.117	700
896.221	-79
896.324	439
896.427	959
896.531	51
896.634	487
896.737	751
896.840	471
896.944	74
897.047	601
897.150	61
897.253	753
897.356	712
897.460	13
897.563	1270
897.666	191
897.769	599
897.872	508
897.975	15
898.078	632
898.181	4
898.284	-364
898.387	-379
898.490	389
898.593	590
898.695	506
898.798	80
898.901	575
899.004	778
899.107	71
899.209	1001
899.312	369
899.415	556
899.518	376
899.620	43
899.723	51
899.826	-261
899.928	628
900.031	252
900.133	111
900.236	898
900.338	70
900.441	436
900.543	216
900.646	-191
900.748	-306
900.851	668
900.953	-140
901.055	53
901.158	366
901.260	1322
901.362	776
901.465	348
901.567	484
901.669	813
901.771	40
901.873	146
901.976	238
902.078	335
902.180	54
902.282	449
902.384	79
902.486	420
902.588	553
902.690	-591
902.792	77
902.894	629
902.996	429
903.098	522
903.200	832
903.302	1491
903.404	583
903.505	-118
903.607	754
903.709	-22
903.811	311
903.913	293
904.014	629
904.116	594
904.218	-572
904.319	77
904.421	893
904.523	455
904.624	459
904.726	118
904.827	-201
904.929	332
905.030	-630
905.132	184
905.233	167
905.335	-157
905.436	68
905.537	766
905.639	-20
905.740	492
905.841	126
905.943	435
906.044	110
906.145	801
906.247	28
906.348	-91
906.449	556
906.550	820
906.651	-242
906.752	469
906.854	-135
906.955	-201
907.056	-533
907.157	117
907.258	-215
907.359	813
907.460	780
907.561	-321
907.662	503
907.762	-199
907.863	736
907.964	236
908.065	1049
908.166	643
908.267	665
908.367	-297
908.468	102
908.569	39
908.670	-38
908.770	630
908.871	-62
908.971	-599
909.072	136
909.173	203
909.273	345
909.374	-208
909.474	537
909.575	120
909.675	-112
909.776	106
909.876	355
909.977	217
910.077	266
910.177	619
910.278	361
910.378	-219
910.478	-146
910.579	230
910.679	-136
910.779	78
910.879	132
910.980	38
911.080	216
911.180	-727
911.280	305
911.380	335
911.480	19
911.580	-296
911.680	511
911.780	-241
911.880	77
911.980	-343
912.080	254
912.180	395
912.280	29
912.380	2
912.480	237
912.580	445
912.679	364
912.779	413
912.879	130
912.979	328
913.078	-697
913.178	82
913.278	-85
913.377	307
913.477	490
913.577	-117
913.676	967
913.776	105
913.875	77
913.975	476
914.074	112
914.174	140
914.273	-26
914.373	-276
914.472	21
914.572	-158
914.671	-481
914.770	-400
914.870	609
914.969	168
915.068	-310
915.167	160
915.267	-23
915.366	730
915.465	182
915.564	-144
915.663	-135
915.763	674
915.862	689
915.961	549
916.060	-295
916.159	-95
916.258	96
916.357	-129
916.456	237
916.555	34
916.654	-534
916.752	-306
916.851	98
916.950	783
917.049	622
917.148	1141
917.247	-273
917.345	473
917.444	-340
917.543	-206
917.642	291
917.740	67
917.839	-466
917.937	290
918.036	48
918.135	326
918.233	698
918.332	-444
918.430	94
918.529	-1162
918.627	109
918.726	-190
918.824	-954
918.923	-955
919.021	-605
919.119	167
919.218	-417
919.316	31
919.414	65
919.512	-93
919.611	-956
919.709	-683
919.807	-451
919.905	-199
920.003	3
920.102	-857
920.200	-286
920.298	166
920.396	-149
920.494	554
920.592	73
920.690	330
920.788	572
920.886	-402
920.984	-5
921.082	174
921.180	156
921.277	-467
921.375	381
921.473	-462
921.571	-59
921.669	-60
921.766	-236
921.864	36
921.962	11
922.060	-447
922.157	-443
922.255	192
922.352	-306
922.450	683
922.548	-177
922.645	-80
922.743	-170
922.840	-91
922.938	-275
923.035	413
923.133	36
923.230	-196
923.327	321
923.425	1092
923.522	-460
923.619	-764
923.717	265
923.814	439
923.911	273
924.008	-141
924.106	152
924.203	-281
924.300	518
924.397	257
924.494	60
924.591	80
924.688	-1004
924.786	-348
924.883	-310
924.979	-406
925.077	-294
925.173	241
925.270	-248
925.367	-25
925.464	37
925.561	484
925.658	857
925.755	313
925.852	168
925.948	-67
926.045	-522
926.142	-4
926.239	270
926.335	-198
926.432	434
926.529	-193
926.625	500
926.722	-438
926.818	-240
926.915	612
927.011	-187
927.108	68
927.204	-155
927.301	715
927.397	-139
927.494	49
927.590	-211
927.687	144
927.783	445
927.879	-344
927.976	-337
928.072	-102
928.168	-92
928.264	168
928.361	-6
928.457	-230
928.553	-119
928.649	-327
928.745	-161
928.841	432
928.937	326
929.033	-130
929.129	282
929.225	-470
929.321	-146
929.417	-622
929.513	-1034
929.609	-212
929.705	-321
929.801	-595
929.897	341
929.993	-15
930.089	-356
930.184	-73
930.280	-147
930.376	-157
930.471	-415
930.567	-140
930.663	170
930.758	-195
930.854	-482
930.950	-177
931.045	454
931.141	-583
931.236	-251
931.332	286
931.427	-347
931.523	-358
931.618	-19
931.714	-1054
931.809	442
931.905	-695
932.000	32
932.095	-316
932.191	542
932.286	-544
932.381	-851
932.476	-527
932.572	-207
932.667	-43
932.762	-470
932.857	-104
932.952	-651
933.047	-117
933.142	-1028
933.237	93
933.332	-97
933.427	-432
933.522	-873
933.617	-321
933.712	-938
933.807	-47
933.902	-353
933.997	-580
934.092	-677
934.187	-114
934.282	-282
934.376	200
934.471	294
934.566	-421
934.661	-796
934.755	350
934.850	-246
934.945	65
935.039	-67
935.134	31
935.228	-601
935.323	-304
935.417	-67
935.512	-718
935.606	-193
935.701	-8
935.795	-445
935.890	152
935.984	-129
936.079	-1348
936.173	-561
936.267	791
936.362	-217
936.456	189
936.550	-897
936.644	-229
936.738	-451
936.833	-320
936.927	426
937.021	-575
937.115	-676
937.209	-641
937.303	567
937.397	-1063
937.491	-375
937.585	-825
937.679	-154
937.773	-675
937.867	-656
937.961	-559
938.055	-664
938.149	-619
938.243	-254
938.337	-634
938.430	282
938.524	326
938.618	-277
938.712	-78
938.805	-353
938.899	125
938.993	366
939.086	-246
939.180	103
939.274	-39
939.367	201
939.461	-977
939.554	-393
939.648	-126
939.741	438
939.835	-642
939.928	432
940.022	-755
940.115	-678
940.208	187
940.302	-590
940.395	-550
940.488	572
940.582	690
940.675	-38
940.768	-826
940.861	38
940.954	-778
941.048	-723
941.141	-693
941.234	-1033
941.327	-317
941.420	-410
941.513	218
941.606	81
941.699	-121
941.792	-526
941.885	-401
941.978	-329
942.071	-1049
942.164	-55
942.257	167
942.349	-684
942.442	-320
942.535	-154
942.628	-410
942.721	45
942.813	-130
942.906	479
942.999	-356
943.091	-302
943.184	-139
943.277	-444
943.369	-404
943.462	-1066
943.554	-1063
943.647	-857
943.739	-653
943.832	-79
943.924	-256
944.017	815
944.109	-227
944.201	-933
944.294	-352
944.386	-368
944.478	-337
944.571	-408
944.663	-542
944.755	-352
944.847	346
944.940	-22
945.032	-697
945.124	-845
945.216	1004
945.308	-593
945.400	-52
945.492	-614
945.584	-415
945.676	-70
945.768	-1315
945.860	355
945.952	-25
946.044	-835
946.136	-364
946.228	26
946.320	-385
946.412	-432
946.503	-650
946.595	-93
946.687	-400
946.779	-572
946.870	-530
946.962	-169
947.054	-403
947.145	-614
947.237	-336
947.329	-285
947.420	-633
947.512	-289
947.603	-272
947.695	-935
947.786	-375
947.878	31
947.969	99
948.061	-811
948.152	-233
948.243	-438
948.335	288
948.426	-929
948.517	-1122
948.609	-165
948.700	-156
948.791	-1081
948.882	-151
948.973	-548
949.065	-813
949.156	7
949.247	-625
949.338	179
949.429	-629
949.520	-316
949.611	-783
949.702	237
949.793	-448
949.884	8
949.975	-56
950.066	-385
950.157	-578
950.247	-602
950.338	71
950.429	99
950.520	-320
950.611	-202
950.701	-101
950.792	-46
950.883	32
950.973	-1039
951.064	-1004
951.155	-425
951.245	-561
951.336	-449
951.427	-786
951.517	-1212
951.608	-430
951.698	-165
951.788	-222
951.879	-1038
951.969	-289
952.060	-1208
952.150	-674
952.240	-655
952.331	-886
952.421	618
952.511	-1008
952.602	-1010
952.692	-420
952.782	61
952.872	-826
952.962	-305
953.052	-1224
953.143	-878
953.233	-128
953.323	-526
953.413	-645
953.503	-86
953.593	-147
953.683	-580
953.773	-786
953.863	-1031
953.953	-752
954.042	-763
954.132	-1212
954.222	-581
954.312	-904
954.402	-505
954.492	-219
954.581	-169
954.671	-288
954.761	-740
954.850	412
954.940	-24
955.030	-585
955.119	-529
955.209	-677
955.298	-1231
955.388	-1331
955.477	-429
955.567	-797
955.656	-210
955.746	-756
955.835	-651
955.925	-1196
956.014	-722
956.103	-163
956.193	-554
956.282	-1057
956.371	-286
956.461	-298
956.550	-1074
956.639	-1001
956.728	-678
956.817	-739
956.906	-1053
956.995	-365
957.085	-524
957.174	-959
957.263	-1041
957.352	-812
957.441	-953
957.530	-268
957.619	-682
957.708	-1135
957.796	-1363
957.885	134
957.974	-725
958.063	-110
958.152	-791
958.241	-597
958.329	-828
958.418	-1014
958.507	-802
958.596	-271
958.684	-1273
958.773	497
958.861	-787
958.950	271
959.039	-278
959.127	-934
959.216	55
959.304	-1282
959.393	-1243
959.481	-185
959.570	-333
959.658	-714
959.746	-470
959.835	-1200
959.923	-255
960.011	-441
960.100	-1176
960.188	418
960.276	-1427
960.365	-509
960.453	-920
960.541	-641
960.629	-1050
960.717	-89
960.805	-695
960.893	-614
960.981	-536
961.069	-555
961.158	-695
961.245	142
961.333	-1012
961.421	-728
961.509	-32
961.597	21
961.685	-742
961.773	-1415
961.861	-848
961.949	-513
962.036	-145
962.124	-89
962.212	-979
962.299	-323
962.387	-391
962.475	16
962.562	-428
962.650	-401
962.738	-859
962.825	-1284
962.913	-344
963.000	-1216
963.088	-1330
963.175	112
963.263	-788
963.350	-927
963.438	-761
963.525	-329
963.612	-43
963.700	-691
963.787	1474
963.874	359
963.962	51
964.049	-371
964.136	175
964.223	-1408
964.310	-673
964.398	-255
964.485	-364
964.572	-416
964.659	144
964.746	-366
964.833	-160
964.920	329
965.007	-337
965.094	-746
965.181	-1363
965.268	-601
965.355	-542
965.441	-639
965.528	-487
965.615	-4
965.702	-218
965.789	-662
965.875	-911
965.962	-945
966.049	-317
966.136	-83
966.222	-1125
966.309	-512
966.395	-633
966.482	-73
966.569	-1024
966.655	-18
966.742	-1105
966.828	-335
966.915	-1230
967.001	-828
967.087	-817
967.174	-344
967.260	-955
967.347	-468
967.433	131
967.519	350
967.605	-518
967.692	-383
967.778	-966
967.864	-563
967.950	-622
968.036	-158
968.123	-381
968.209	-787
968.295	-647
968.381	114
968.467	-725
968.553	-871
968.639	-645
968.725	-983
968.811	-723
968.897	-319
968.983	-723
969.069	-970
969.154	50
969.240	-527
969.326	-900
969.412	-1415
969.497	-873
969.583	-712
969.669	-769
969.755	-291
969.840	-982
969.926	-686
970.012	-417
970.097	-227
970.183	-620
970.268	-669
970.354	-231
970.439	-606
970.525	456
970.610	-192
970.696	-61
970.781	-364
970.866	-1383
970.952	-533
971.037	-330
971.122	-774
971.208	-793
971.293	-1157
971.378	-569
971.463	-1254
971.549	-391
971.634	-548
971.719	-919
971.804	-595
971.889	-543
971.974	-1029
972.059	-95
972.144	78
972.229	-157
972.314	-400
972.399	228
972.484	249
972.569	-746
972.654	-1378
972.739	-256
972.824	-1202
972.908	-381
972.993	-497
973.078	-1397
973.163	-1025
973.247	-604
973.332	-1119
973.417	-491
973.501	-1229
973.586	-310
973.671	-966
973.755	-282
973.840	-26
973.924	-395
974.009	-709
974.093	-1099
974.178	183
974.262	-673
974.346	-276
974.431	-877
974.515	-342
974.600	-768
974.684	-218
974.768	-496
974.852	-93
974.937	-1072
975.021	-752
975.105	-510
975.189	-510
975.273	-179
975.358	-345
975.442	-992
975.526	-35
975.610	-932
975.694	-1018
975.778	-226
975.862	171
975.946	-2316
976.030	440
976.114	-857
976.198	-999
976.281	-231
976.365	-847
976.449	-333
976.533	-791
976.617	-1219
976.700	-111
976.784	-1477
976.868	-1076
976.951	-476
977.035	-840
977.119	-632
977.202	-1035
977.286	-1489
977.369	-1206
977.453	-222
977.536	-668
977.620	-884
977.703	-1203
977.787	-1537
977.870	-570
977.953	49
978.037	-1701
978.120	-20
978.203	-1128
978.287	-301
978.370	-714
978.453	-1167
978.536	-908
978.620	-189
978.703	-351
978.786	-374
978.869	-765
978.952	-1649
979.035	-233
979.118	-668
979.201	-912
979.284	-274
979.367	-963
979.450	-1053
979.533	-541
979.616	-938
979.699	434
979.782	-775
979.865	-436
979.948	-899
980.030	-981
980.113	-969
980.196	-1198
980.279	-494
980.361	-1219
980.444	-1028
980.526	-528
980.609	-1549
980.692	-384
980.774	-907
980.857	-1741
980.939	546
981.022	-973
981.104	-832
981.187	-603
981.269	86
981.352	-513
981.434	-1826
981.516	-1103
981.599	1
981.681	-1150
981.763	-860
981.846	-1116
981.928	-426
982.010	-1155
982.092	-1490
982.174	274
982.256	-1133
982.339	-1182
982.421	-1143
982.503	-548
982.585	-1350
982.667	-730
982.749	-885
982.831	-512
982.913	-1416
982.995	-649
983.077	-668
983.158	-703
983.240	-1334
983.322	-965
983.404	-1133
983.486	-1558
983.568	-376
983.649	-1517
983.731	-647
983.813	-1365
983.894	-451
983.976	-362
984.058	-1029
984.139	-620
984.221	-1016
984.302	93
984.384	-725
984.465	-1369
984.547	-672
984.628	-1006
984.710	155
984.791	-982
984.872	-1887
984.954	-561
985.035	-200
985.116	-995
985.198	-1127
985.279	-488
985.360	-394
985.441	-838
985.522	-1070
985.604	-615
985.685	-1955
985.766	-381
985.847	-497
985.928	-537
986.009	-983
986.090	-1456
986.171	-1230
986.252	-839
986.333	-718
986.414	-1055
986.495	-695
986.576	-1454
986.656	-1366
986.737	-1286
986.818	-451
986.899	-1110
986.980	-717
987.060	-438
987.141	-1274
987.222	-1329
987.302	-1381
987.383	-507
987.464	-1620
987.544	-455
987.625	-445
987.705	-548
987.786	-1045
987.866	-1253
987.947	-854
988.027	-438
988.108	-467
988.188	-961
988.268	-551
988.349	-480
988.429	-740
988.509	-339
988.589	-842
988.670	-1532
988.750	-296
988.830	-1239
988.910	-1217
988.990	-582
989.070	-1856
989.151	-843
989.231	-1454
989.311	-424
989.391	-911
989.471	-1008
989.551	-1065
989.631	-2206
989.711	-877
989.791	-1719
989.870	-1347
989.950	239
990.030	-1058
990.110	-1019
990.190	-1548
990.269	-1248
990.349	-1021
990.429	-278
990.509	-1912
990.588	-761
990.668	-670
990.747	-760
990.827	-1172
990.907	102
990.986	-1367
991.066	-948
991.145	-1593
991.225	-440
991.304	-1072
991.383	-1101
991.463	-1690
991.542	-1066
991.622	-1262
991.701	-1306
991.780	-728
991.859	-928
991.939	-1338
992.018	-1056
992.097	-455
992.176	-586
992.256	-1759
992.335	-1434
992.414	-253
992.493	-930
992.572	-1436
992.651	-508
992.730	-1076
992.809	-730
992.888	-698
992.967	-1041
993.046	-769
993.125	-1608
993.203	-1167
993.282	-1186
993.361	-1010
993.440	-926
993.519	-1497
993.597	-1490
993.676	-1235
993.755	-456
993.834	-1686
993.912	-1406
993.991	-930
994.069	-1271
994.148	-1042
994.226	-1319
994.305	-1245
994.384	-1321
994.462	-275
994.540	-1116
994.619	-1905
994.697	-665
994.776	-1608
994.854	-1086
994.932	-1729
995.011	-1339
995.089	-1329
995.167	-1343
995.245	-1542
995.324	-1238
995.402	-760
995.480	-1049
995.558	-1541
995.636	-2255
995.714	-1511
995.792	-99
995.870	-1073
995.948	-889
996.026	-847
996.104	-1779
996.182	-1257
996.260	-2033
996.338	-1643
996.416	-1676
996.494	-1191
996.572	-691
996.649	-1371
996.727	-2629
996.805	-374
996.883	-1168
996.960	-1552
997.038	-1265
997.116	-1912
997.193	-1761
997.271	-1476
997.348	-2679
997.426	-1313
997.504	-1160
997.581	-917
997.658	-1548
997.736	-1369
997.813	-1626
997.891	-901
997.968	-1404
998.046	-1273
998.123	-1069
998.200	-1017
998.277	-1746
998.355	-686
998.432	-1924
998.509	-1240
998.586	-941
998.663	-1358
998.741	-2369
998.818	-1857
998.895	-879
998.972	-1334
999.049	-1533
999.126	-2003
999.203	-1226
999.280	-1439
999.357	-1519
999.434	-1224
999.511	-1375
999.587	-1480
999.664	-1993
999.741	-1254
999.818	-1844
999.895	-1014
999.971	-733
1000.048	-1978
1000.125	-957
1000.202	-1941
1000.278	-825
1000.355	-1139
1000.431	-1529
1000.508	-1419
1000.584	-2139
1000.661	-1146
1000.738	-1454
1000.814	-1313
1000.890	-1690
1000.967	-2341
1001.043	-1970
1001.120	-2229
1001.196	-1550
1001.272	-2226
1001.349	-1535
1001.425	-1038
1001.501	-1476
1001.577	-1598
1001.654	-1071
1001.730	-2111
1001.806	-1481
1001.882	-1753
1001.958	-1623
1002.034	-1339
1002.110	-1802
1002.186	-1629
1002.262	-1750
1002.338	-1758
1002.414	-911
1002.490	-673
1002.566	-2146
1002.642	-2272
1002.718	-1453
1002.794	-1296
1002.870	-2293
1002.945	-1719
1003.021	-1886
1003.097	-1601
1003.173	-572
1003.248	-1744
1003.324	-2153
1003.400	-1110
1003.475	-1721
1003.551	-1781
1003.626	-248
1003.702	-1927
1003.777	-2021
1003.853	-1897
1003.928	-1385
1004.004	-1827
1004.079	-1310
1004.155	-1840
1004.230	-1802
1004.305	-760
1004.381	-1342
1004.456	-1599
1004.531	-1627
1004.607	-1439
1004.682	-1368
1004.757	-1787
1004.832	-1629
1004.907	-1639
1004.982	-1216
1005.057	-393
1005.133	-1393
1005.208	-2043
1005.283	-1296
1005.358	-293
1005.433	-1648
1005.508	-1742
1005.583	-1846
1005.657	-1831
1005.732	-1279
1005.807	-1220
1005.882	-1273
1005.957	-1907
1006.032	-930
1006.106	-1296
1006.181	-1995
1006.256	-1314
1006.331	-1721
1006.405	-2479
1006.480	-660
1006.554	-2314
1006.629	-1925
1006.704	-2377
1006.778	-1188
1006.853	-1028
1006.927	-1865
1007.002	-1471
1007.076	-1315
1007.150	-1429
1007.225	-1273
1007.299	-1270
1007.373	-1561
1007.448	-1405
1007.522	-1644
1007.596	-769
1007.671	-1782
1007.745	-1294
1007.819	-2052
1007.893	-1939
1007.967	-1251
1008.041	-2477
1008.115	-1194
1008.190	-2108
1008.264	-1744
1008.338	-1718
1008.412	-954
1008.486	-2080
1008.560	-1830
1008.633	-1972
1008.707	-2631
1008.781	-19
1008.855	-1852
1008.929	-1684
1009.003	-1528
1009.076	-1355
1009.150	-1854
1009.224	-1019
1009.298	-1619
1009.371	-1591
1009.445	-725
1009.519	-2304
1009.592	-2043
1009.666	-1856
1009.739	-1127
1009.813	-1382
1009.886	-813
1009.960	-2353
1010.033	-1484
1010.107	-1455
1010.180	-1492
1010.253	-1467
1010.327	-1987
1010.400	-1834
1010.473	-1806
1010.547	-1276
1010.620	-1289
1010.693	-612
1010.766	-1874
1010.840	-1552
1010.913	-1786
1010.986	-1200
1011.059	-1742
1011.132	-1878
1011.205	-1200
1011.278	-1744
1011.351	-971
1011.424	-1858
1011.497	-1551
1011.570	-2521
1011.643	-1692
1011.716	-1509
1011.789	-2203
1011.862	-1318
1011.934	-1220
1012.007	-1643
1012.080	-1537
1012.153	-1940
1012.225	-713
1012.298	-2453
1012.371	-1416
1012.443	-1550
1012.516	-2230
1012.588	-1245
1012.661	-1192
1012.733	-1619
1012.806	-798
1012.879	-1821
1012.951	-783
1013.023	-2023
1013.096	-937
1013.168	-1377
1013.241	-720
1013.313	-1309
1013.385	-2788
1013.458	-859
1013.530	-1241
1013.602	-1939
1013.674	-1395
1013.746	-1627
1013.819	-2116
1013.891	-1059
1013.963	-1680
1014.035	-1686
1014.107	-1117
1014.179	-616
1014.251	-1700
1014.323	-2068
1014.395	-1785
1014.467	-1414
1014.539	-1094
1014.611	-1448
1014.683	-1906
1014.754	-1233
1014.826	-1571
1014.898	-1891
1014.970	-1961
1015.042	-1004
1015.113	-1580
1015.185	-1470
1015.257	-1922
1015.328	-815
1015.400	-1257
1015.471	-1553
1015.543	-2029
1015.615	-1451
1015.686	-1328
1015.757	-1479
1015.829	-1408
1015.901	-1844
1015.972	-1063
1016.043	-1697
1016.115	-1608
1016.186	-1212
1016.257	-2186
1016.328	-1330
1016.400	-967
1016.471	-2538
1016.542	-1310
1016.613	-1520
1016.685	-1623
1016.756	-1320
1016.827	-1562
1016.898	-1794
1016.969	-1515
1017.040	-822
1017.111	-1670
1017.182	-2575
1017.253	-1231
1017.324	-1439
1017.395	-1315
1017.466	-1797
1017.537	-1762
1017.608	-1896
1017.678	-1576
1017.749	-1544
1017.820	-1445
1017.891	-1689
1017.961	-1631
1018.032	-939
1018.103	-1458
1018.173	-1086
1018.244	-1433
1018.315	-2083
1018.385	-938
1018.456	-2088
1018.526	-1479
1018.597	-1423
1018.667	-1874
1018.738	-1807
1018.808	-1239
1018.878	-1736
1018.949	-1422
1019.019	-1201
1019.089	-1151
1019.160	-1598
1019.230	-1939
1019.300	-1279
1019.371	-1111
1019.441	-1470
1019.511	-1749
1019.581	-2069
1019.651	-1459
1019.721	-1430
1019.791	-1472
1019.861	-1694
1019.931	-1902
1020.001	-1052
1020.071	-1404
1020.141	-1818
1020.211	-1588
1020.281	-923
1020.351	-1242
1020.421	-2017
1020.491	-1147
1020.560	-913
1020.630	-1773
1020.700	-2107
1020.770	-1186
1020.839	-1063
1020.909	-2157
1020.979	-1266
1021.048	-2106
1021.118	-1379
1021.187	-1827
1021.257	-2014
1021.326	-1307
1021.396	-1254
1021.465	-1174
1021.535	-1497
1021.604	-2812
1021.674	-1767
1021.743	-1486
1021.812	-790
1021.882	-1154
1021.951	-1320
1022.020	-1368
1022.089	-1454
1022.159	-1332
1022.228	-1667
1022.297	-1907
1022.366	-785
1022.435	-1014
1022.504	-1245
1022.573	-2113
1022.642	-941
1022.711	-1565
1022.781	-1205
1022.849	-1220
1022.918	-1640
1022.987	-2110
1023.056	-1901
1023.125	-1576
1023.194	-1504
1023.263	-1967
1023.331	-1179
1023.400	-1681
1023.469	-1675
1023.538	-1216
1023.606	-1573
1023.675	-1580
1023.744	-674
1023.812	-1601
1023.881	-1690
1023.949	-1379
1024.018	-1673
1024.086	-714
1024.155	-1960
1024.223	-1566
1024.292	-2061
1024.360	-1309
1024.429	-1356
1024.497	-2311
1024.565	-1352
1024.634	-1484
1024.702	-1951
1024.770	-1742
1024.838	-1250
1024.907	-1127
1024.975	-1517
1025.043	-1273
1025.111	-2173
1025.179	-1189
1025.247	-1805
1025.315	-1130
1025.383	-1505
1025.451	-1251
1025.519	-1507
1025.587	-1346
1025.655	-1556
1025.723	-1687
1025.791	-1344
1025.859	-1475
1025.927	-1487
1025.995	-1732
1026.062	-1870
1026.130	-2202
1026.198	-1171
1026.266	-1682
1026.333	-1251
1026.401	-530
1026.469	-1892
1026.536	-1277
1026.604	-2061
1026.671	-1604
1026.739	-1195
1026.806	-1125
1026.874	-1759
1026.941	-1720
1027.009	-1542
1027.076	-1483
1027.144	-1198
1027.211	-1830
1027.278	-1117
1027.345	-925
1027.413	-1179
1027.480	-1394
1027.547	-1934
1027.614	-1739
1027.682	-1266
1027.749	-1796
1027.816	-1398
1027.883	-1481
1027.950	-2283
1028.017	-1938
1028.084	-376
1028.151	-2298
1028.218	-2333
1028.285	-850
1028.352	-1238
1028.419	-1769
1028.486	-1510
1028.553	-1360
1028.619	-1927
1028.686	-1924
1028.753	-1055
1028.820	-2003
1028.886	-906
1028.953	-2561
1029.020	-1134
1029.086	-1892
1029.153	-2001
1029.220	-2430
1029.286	-1832
1029.353	-877
1029.419	-1680
1029.486	-1476
1029.552	-1530
1029.619	-485
1029.685	-1554
1029.751	-1408
1029.818	-839
1029.884	-1298
1029.951	-737
1030.017	-874
1030.083	-837
1030.149	-1228
1030.216	-1708
1030.282	-1264
1030.348	-1507
1030.414	-682
1030.480	-1862
1030.546	-2088
1030.612	-1579
1030.678	-1894
1030.744	-1429
1030.810	-1798
1030.876	-1603
1030.942	-1762
1031.008	-1832
1031.074	-1877
1031.140	-1429
1031.206	-1584
1031.272	-1577
1031.337	-1604
1031.403	-1080
1031.469	-1207
1031.534	-1418
1031.600	-803
1031.666	-1289
1031.731	-1965
1031.797	-1302
1031.863	-1472
1031.928	-1989
1031.994	-1625
1032.059	-1518
1032.125	-1378
1032.190	-822
1032.256	-1093
1032.321	-2186
1032.386	-1195
1032.452	-847
1032.517	-1806
1032.582	-1516
1032.647	-1180
1032.713	-1823
1032.778	-1519
1032.843	-1839
1032.908	-1712
1032.974	-1481
1033.039	-1305
1033.104	-1827
1033.169	-1521
1033.234	-1900
1033.299	-1169
1033.364	-1999
1033.429	-2365
1033.494	-667
1033.559	-1843
1033.624	-1206
1033.688	-2025
1033.753	-1999
1033.818	-1665
1033.883	-1437
1033.948	-1548
1034.013	-1700
1034.077	-1245
1034.142	-1302
1034.207	-1639
1034.271	-1136
1034.336	-631
1034.400	-1369
1034.465	-572
1034.530	-1004
1034.594	-2000
1034.658	-1918
1034.723	-2134
1034.787	-1517
1034.852	-1347
1034.916	-1393
1034.981	-2012
1035.045	-1562
1035.109	-1640
1035.173	-1235
1035.238	-929
1035.302	-979
1035.366	-959
1035.430	-1310
1035.495	-2480
1035.559	-725
1035.623	-2119
1035.687	-1126
1035.751	-1537
1035.815	-1613
1035.879	-2314
1035.943	-1478
1036.007	-1027
1036.071	-1985
1036.135	-1410
1036.198	-1708
1036.262	-1507
1036.326	-1240
1036.390	-1401
1036.454	-2006
1036.517	-1339
1036.581	-700
1036.645	-1837
1036.709	-1358
1036.772	-1726
1036.836	-1180
1036.900	-1515
1036.963	-1821
1037.026	-935
1037.090	-2187
1037.154	-1738
1037.217	-1703
1037.280	-2050
1037.344	-2110
1037.407	-1586
1037.471	-1836
1037.534	-1494
1037.597	-1618
1037.661	-2214
1037.724	-1745
1037.787	-2185
1037.850	-1994
1037.913	-1711
1037.977	-898
1038.040	-1885
1038.103	-1088
1038.166	-2134
1038.229	-1368
1038.292	-1737
1038.355	-994
1038.418	-1475
1038.481	-1365
1038.544	-1573
1038.607	-1827
1038.670	-1711
1038.732	-1807
1038.795	-1259
1038.858	-1375
1038.921	-1856
1038.984	-961
1039.046	-1538
1039.109	-2204
1039.172	-1241
1039.234	-2269
1039.297	-2190
1039.360	-1396
1039.422	-1281
1039.485	-1688
1039.547	-1352
1039.610	-1336
1039.672	-1531
1039.734	-1907
1039.797	-1657
1039.859	-1325
1039.922	-2531
1039.984	-1199
1040.046	-1036
1040.109	-1663
1040.171	-2366
1040.233	-2093
1040.295	-2337
1040.358	-1213
1040.420	-1885
1040.482	-1331
1040.544	-1704
1040.606	-2342
1040.668	-1478
1040.730	-2088
1040.792	-2266
1040.854	-1053
1040.916	-2034
1040.978	-2728
1041.040	-1247
1041.102	-2200
1041.164	-1217
1041.225	-1201
1041.287	-2012
1041.349	-1575
1041.411	-1479
1041.472	-1145
1041.534	-1691
1041.596	-1398
1041.657	-1440
1041.719	-1714
1041.781	-1806
1041.842	-2235
1041.904	-1295
1041.965	-2290
1042.027	-2095
1042.088	-1493
1042.150	-1178
1042.211	-2128
1042.272	-1050
1042.334	-1889
1042.395	-1762
1042.456	-2253
1042.518	-1811
1042.579	-2289
1042.640	-1640
1042.701	-2103
1042.763	-2002
1042.824	-1780
1042.885	-2000
1042.946	-1850
1043.007	-2053
1043.068	-2396
1043.129	-2040
1043.190	-1864
1043.251	-1339
1043.312	-1737
1043.373	-1140
1043.434	-787
1043.495	-1854
1043.556	-1380
1043.616	-1723
1043.677	-2106
1043.738	-1114
1043.799	-1292
1043.859	-1372
1043.920	-1750
1043.981	-1621
1044.041	-2197
1044.102	-1933
1044.162	-1389
1044.223	-1351
1044.284	-2003
1044.344	-1777
1044.405	-1841
1044.465	-2668
1044.525	-1908
1044.586	-1379
1044.646	-1872
1044.707	-1636
1044.767	-2577
1044.827	-1409
1044.887	-815
1044.948	-716
1045.008	-1493
1045.068	-1724
1045.128	-2018
1045.188	-1796
1045.249	-1445
1045.309	-1721
1045.369	-2268
1045.429	-1765
1045.489	-2381
1045.549	-2276
1045.609	-1615
1045.669	-1884
1045.729	-1621
1045.789	-1371
1045.848	-808
1045.908	-1302
1045.968	-1221
1046.028	-688
1046.088	-1007
1046.147	-1209
1046.207	-1562
1046.267	-1611
1046.326	-1215
1046.386	-1901
1046.446	-979
1046.505	-765
1046.565	-722
1046.624	-443
1046.684	-1077
1046.743	-890
1046.803	-1017
1046.862	46
1046.922	0
