'Start Wavelength	183.907
'End Wavelength	1046.922
'Gate Delay	5.000
'Gate Width (ms)	1.050
'Laser Output Level	0.000
'X Position	0.000
'Y Position	0.000
'Z Position	0.000
'Grid Point Number	1.000
'Shot Number	100.000
183.907	184.000
183.977	42.000
184.047	-810
184.116	1032
184.186	299
184.256	300
184.325	228
184.395	-920
184.465	527
184.534	-536
184.604	-2
184.674	705
184.743	-277
184.813	558
184.883	-167
184.952	-424
185.022	99
185.092	141
185.161	10
185.231	-158
185.301	-193
185.370	-200
185.440	-667
185.509	-394
185.579	442
185.649	708
185.718	456
185.788	250
185.857	-537
185.927	-715
185.996	-476
186.066	-574
186.136	-293
186.205	-650
186.275	-770
186.344	-168
186.414	-301
186.483	-271
186.553	652
186.622	762
186.692	-293
186.761	375
186.831	-49
186.900	-394
186.970	-28
187.039	869
187.109	373
187.178	297
187.248	-137
187.317	40
187.387	50
187.456	519
187.526	563
187.595	363
187.664	-49
187.734	-308
187.803	267
187.873	507
187.942	604
188.012	-155
188.081	73
188.150	107
188.220	-113
188.289	687
188.358	350
188.428	1327
188.497	-350
188.567	582
188.636	-56
188.705	21
188.775	-99
188.844	-87
188.913	562
188.983	-24
189.052	-94
189.121	105
189.191	27
189.260	751
189.329	485
189.399	-370
189.468	725
189.537	140
189.606	381
189.676	1103
189.745	595
189.814	98
189.883	-64
189.953	-368
190.022	-282
190.091	164
190.161	1152
190.230	-183
190.299	598
190.368	-3
190.437	-472
190.507	571
190.576	-268
190.645	285
190.714	8
190.783	471
190.853	839
190.922	207
190.991	345
191.060	-541
191.129	218
191.198	108
191.268	-180
191.337	509
191.406	854
191.475	-383
191.544	-59
191.613	490
191.682	-89
191.752	743
191.821	-195
191.890	-257
191.959	8
192.028	305
192.097	-384
192.166	595
192.235	324
192.304	865
192.373	-487
192.442	-355
192.511	-125
192.580	782
192.650	40
192.719	-305
192.788	826
192.857	683
192.926	-113
192.995	-5
193.064	229
193.133	558
193.202	267
193.271	928
193.340	1096
193.409	-204
193.478	356
193.547	644
193.615	1028
193.684	1111
193.753	816
193.822	365
193.891	595
193.960	479
194.029	687
194.098	783
194.167	-68
194.236	682
194.305	227
194.374	901
194.443	341
194.512	377
194.580	701
194.649	131
194.718	1077
194.787	803
194.856	-227
194.925	677
194.994	283
195.062	528
195.131	15
195.200	9
195.269	841
195.338	251
195.407	941
195.475	403
195.544	25
195.613	280
195.682	736
195.751	163
195.819	1223
195.888	323
195.957	2466
196.026	1254
196.094	975
196.163	712
196.232	961
196.301	476
196.369	221
196.438	886
196.507	809
196.576	-391
196.644	413
196.713	202
196.782	-382
196.850	-278
196.919	631
196.988	1030
197.056	-699
197.125	255
197.194	698
197.262	498
197.331	-36
197.400	151
197.468	-422
197.537	235
197.606	-7
197.674	998
197.743	892
197.812	833
197.880	466
197.949	923
198.017	1390
198.086	744
198.155	-406
198.223	1323
198.292	206
198.360	919
198.429	56
198.497	196
198.566	1482
198.635	1326
198.703	639
198.772	735
198.840	1458
198.909	905
198.977	843
199.046	379
199.114	869
199.183	840
199.251	300
199.320	120
199.388	43
199.457	573
199.525	412
199.594	12
199.662	1012
199.731	585
199.799	247
199.867	213
199.936	260
200.004	380
200.073	1152
200.141	408
200.210	188
200.278	-223
200.346	1201
200.415	1086
200.483	1029
200.552	221
200.620	401
200.688	813
200.757	400
200.825	1127
200.893	-76
200.962	-739
201.030	343
201.098	239
201.167	-94
201.235	931
201.303	392
201.372	635
201.440	388
201.508	765
201.577	314
201.645	1136
201.713	619
201.781	-3
201.850	1246
201.918	902
201.986	549
202.055	1548
202.123	314
202.191	462
202.259	910
202.327	780
202.396	534
202.464	1061
202.532	941
202.600	3083
202.669	1662
202.737	1170
202.805	370
202.873	793
202.941	898
203.009	1177
203.078	728
203.146	448
203.214	219
203.282	221
203.350	507
203.418	499
203.487	315
203.555	436
203.623	811
203.691	305
203.759	-43
203.827	726
203.895	849
203.963	709
204.031	740
204.099	715
204.168	622
204.236	1103
204.304	1204
204.372	1039
204.440	629
204.508	247
204.576	860
204.644	654
204.712	559
204.780	767
204.848	672
204.916	170
204.984	245
205.052	525
205.120	355
205.188	826
205.256	-296
205.324	791
205.392	173
205.460	792
205.528	791
205.596	474
205.664	768
205.732	641
205.799	816
205.867	2951
205.935	691
206.003	1531
206.071	618
206.139	-195
206.207	857
206.275	1009
206.343	1173
206.411	867
206.478	617
206.546	1015
206.614	432
206.682	441
206.750	382
206.818	914
206.885	1184
206.953	-364
207.021	1579
207.089	613
207.157	-253
207.225	606
207.292	303
207.360	1161
207.428	1083
207.496	349
207.563	1410
207.631	1012
207.699	-275
207.767	693
207.834	775
207.902	598
207.970	1325
208.038	380
208.105	734
208.173	984
208.241	1228
208.309	1710
208.376	942
208.444	2002
208.512	1384
208.579	1085
208.647	1646
208.715	1451
208.782	975
208.850	938
208.918	376
208.985	1054
209.053	1516
209.120	1451
209.188	541
209.256	1887
209.323	510
209.391	1555
209.459	2555
209.526	1379
209.594	863
209.661	923
209.729	1189
209.796	890
209.864	1335
209.932	-370
209.999	2131
210.067	1901
210.134	1663
210.202	1115
210.269	1539
210.337	2342
210.404	1446
210.472	1461
210.539	1061
210.607	875
210.674	1756
210.742	1325
210.809	756
210.877	1950
210.944	2219
211.012	839
211.079	3343
211.146	1328
211.214	1409
211.281	2397
211.349	1565
211.416	1021
211.484	1456
211.551	1698
211.618	1454
211.686	1378
211.753	679
211.821	1477
211.888	1356
211.955	1032
212.023	884
212.090	1445
212.157	2006
212.225	2272
212.292	2484
212.359	4386
212.427	7545
212.494	3223
212.561	2122
212.629	2043
212.696	1403
212.763	1848
212.831	1226
212.898	1896
212.965	1350
213.032	1689
213.100	1208
213.167	1254
213.234	1566
213.301	2139
213.369	1277
213.436	987
213.503	696
213.570	1865
213.638	2397
213.705	1658
213.772	1638
213.839	1916
213.906	1790
213.973	2269
214.041	1715
214.108	2204
214.175	2299
214.242	1804
214.309	1776
214.376	1803
214.444	1701
214.511	2089
214.578	1783
214.645	2224
214.712	2876
214.779	2163
214.846	616
214.913	2133
214.980	2386
215.048	2278
215.115	3105
215.182	3200
215.249	1360
215.316	1795
215.383	2107
215.450	2411
215.517	1620
215.584	1520
215.651	1513
215.718	1437
215.785	2185
215.852	1700
215.919	2706
215.986	2885
216.053	1319
216.120	1917
216.187	2286
216.254	2298
216.321	1495
216.388	1323
216.455	2600
216.522	2498
216.589	2189
216.656	3784
216.722	3863
216.789	2970
216.856	3212
216.923	2001
216.990	3018
217.057	2455
217.124	3385
217.191	2649
217.258	3404
217.324	3879
217.391	3580
217.458	2856
217.525	2894
217.592	1483
217.659	1260
217.725	3129
217.792	2763
217.859	3667
217.926	1931
217.993	1607
218.059	2821
218.126	1960
218.193	1808
218.260	1209
218.327	1837
218.393	2632
218.460	1973
218.527	2159
218.594	2367
218.660	2901
218.727	4090
218.794	2658
218.860	1874
218.927	1848
218.994	1598
219.061	2141
219.127	1689
219.194	2757
219.261	3173
219.327	1553
219.394	2229
219.461	378
219.527	2301
219.594	3327
219.661	1720
219.727	1372
219.794	2072
219.860	1324
219.927	2341
219.994	3586
220.060	3940
220.127	4312
220.193	2554
220.260	1721
220.326	3686
220.393	4676
220.460	6087
220.526	3863
220.593	2922
220.659	4783
220.726	3227
220.792	5598
220.859	6271
220.925	7337
220.992	9201
221.058	9134
221.125	7111
221.191	5789
221.258	2716
221.324	2912
221.391	2738
221.457	2676
221.524	2235
221.590	2823
221.657	6153
221.723	4789
221.789	4573
221.856	5522
221.922	1997
221.989	2573
222.055	2551
222.121	1622
222.188	4731
222.254	2740
222.321	2043
222.387	2208
222.453	2108
222.520	2447
222.586	2095
222.652	3302
222.719	1985
222.785	2745
222.851	1976
222.918	1892
222.984	2084
223.050	2861
223.116	1164
223.183	2124
223.249	1051
223.315	1783
223.382	1761
223.448	2374
223.514	746
223.580	1381
223.647	731
223.713	1365
223.779	2564
223.845	2411
223.911	2511
223.978	1042
224.044	2310
224.110	1588
224.176	1897
224.242	2286
224.309	1135
224.375	1773
224.441	682
224.507	1729
224.573	1365
224.639	2002
224.705	1129
224.772	1491
224.838	1228
224.904	2077
224.970	1758
225.036	1246
225.102	1700
225.168	2259
225.234	2234
225.300	1888
225.366	2051
225.432	2044
225.499	2060
225.565	2371
225.631	2278
225.697	2052
225.763	3860
225.829	3202
225.895	2905
225.961	4778
226.027	4621
226.093	3008
226.159	4465
226.225	6538
226.291	9517
226.357	15556
226.423	9264
226.489	6260
226.554	5142
226.620	4657
226.686	4591
226.752	7396
226.818	10729
226.884	20882
226.950	16719
227.016	8360
227.082	5535
227.148	4386
227.214	4928
227.279	4462
227.345	3406
227.411	3452
227.477	3878
227.543	8585
227.609	8418
227.674	5281
227.740	3584
227.806	3423
227.872	2583
227.938	2917
228.003	3863
228.069	3071
228.135	2568
228.201	2692
228.267	2685
228.332	3255
228.398	2678
228.464	3133
228.530	1932
228.595	2411
228.661	1461
228.727	2733
228.792	4573
228.858	1854
228.924	1591
228.990	4055
229.055	1707
229.121	3251
229.187	1774
229.252	2207
229.318	1741
229.384	2409
229.449	2623
229.515	-144
229.581	128
229.646	2965
229.712	2247
229.777	5181
229.843	5579
229.909	4896
229.974	5084
230.040	5163
230.105	3951
230.171	4183
230.236	4761
230.302	6073
230.368	5085
230.433	3914
230.499	3776
230.564	4590
230.630	3290
230.695	3156
230.761	3781
230.826	2537
230.892	4835
230.957	2695
231.023	2682
231.088	2874
231.154	2910
231.219	2691
231.284	3521
231.350	4143
231.415	2646
231.481	3412
231.546	1832
231.612	3003
231.677	1885
231.742	1602
231.808	3547
231.873	2115
231.939	1234
232.004	4421
232.069	4653
232.135	1940
232.200	2310
232.265	2575
232.331	2824
232.396	2304
232.461	1968
232.527	2223
232.592	1896
232.657	2325
232.723	2824
232.788	2539
232.853	2438
232.918	2299
232.984	2128
233.049	2115
233.114	1938
233.179	3494
233.245	3313
233.310	4070
233.375	2113
233.440	2888
233.506	1619
233.571	1454
233.636	2738
233.701	2074
233.766	2977
233.832	3378
233.897	1956
233.962	1557
234.027	3599
234.092	3481
234.157	3238
234.222	3235
234.288	3460
234.353	6083
234.418	6846
234.483	6349
234.548	5220
234.613	4014
234.678	4635
234.743	4174
234.808	7538
234.873	5221
234.938	4634
235.004	4253
235.069	3711
235.134	3327
235.199	4306
235.264	3652
235.329	2279
235.394	3888
235.459	3902
235.524	3231
235.589	4368
235.654	3550
235.719	1966
235.784	3857
235.849	3806
235.913	5489
235.978	4532
236.043	5950
236.108	3377
236.173	2988
236.238	4253
236.303	2768
236.368	2373
236.433	4571
236.498	5871
236.563	6399
236.627	9802
236.692	27149
236.757	24457
236.822	10706
236.887	7125
236.952	6924
237.017	4911
237.081	6758
237.146	7464
237.211	14103
237.276	26357
237.341	41105
237.405	20910
237.470	10452
237.535	6819
237.600	6212
237.664	5254
237.729	3739
237.794	5258
237.859	10534
237.923	5630
237.988	4498
238.053	4988
238.118	4772
238.182	8915
238.247	8748
238.312	3965
238.376	4635
238.441	2254
238.506	4361
238.570	2309
238.635	4526
238.700	2798
238.764	3513
238.829	5120
238.893	5735
238.958	4879
239.023	5040
239.087	3315
239.152	4376
239.216	2583
239.281	3378
239.346	3502
239.410	3564
239.475	3265
239.539	9006
239.604	5600
239.668	4706
239.733	3252
239.797	6050
239.862	14243
239.926	12076
239.991	5967
240.055	3524
240.120	3352
240.184	3798
240.249	2717
240.313	2511
240.378	3563
240.442	5598
240.507	7501
240.571	4861
240.635	4262
240.700	6069
240.764	3421
240.829	3027
240.893	1824
240.957	3326
241.022	5263
241.086	8225
241.151	4399
241.215	1834
241.279	3726
241.344	4056
241.408	5914
241.472	5079
241.537	6395
241.601	5403
241.665	4194
241.730	4131
241.794	5390
241.858	4991
241.922	5449
241.987	4910
242.051	4465
242.115	3610
242.179	3979
242.244	3667
242.308	4354
242.372	4705
242.436	4889
242.501	5135
242.565	3492
242.629	4403
242.693	4544
242.757	3053
242.822	3489
242.886	4529
242.950	4066
243.014	3431
243.078	4344
243.142	5000
243.206	3666
243.271	4931
243.335	4203
243.399	6510
243.463	12963
243.527	33005
243.591	10790
243.655	6690
243.719	3735
243.783	5950
243.847	7195
243.911	8209
243.975	10092
244.040	7204
244.104	5638
244.168	4481
244.232	5559
244.296	8101
244.360	7846
244.424	5008
244.488	3854
244.552	4214
244.615	3494
244.679	4365
244.743	5320
244.807	4844
244.871	3787
244.935	3728
244.999	3041
245.063	3875
245.127	4625
245.191	5666
245.255	5244
245.319	5266
245.383	4569
245.446	5237
245.510	3142
245.574	4049
245.638	5314
245.702	3113
245.766	9560
245.829	6877
245.893	3846
245.957	4168
246.021	4535
246.085	4457
246.149	5777
246.212	13212
246.276	18735
246.340	8846
246.404	7008
246.467	7850
246.531	7960
246.595	7189
246.659	6376
246.722	4633
246.786	7492
246.850	7453
246.913	8705
246.977	4110
247.041	4550
247.104	6463
247.168	5638
247.232	11677
247.295	23738
247.359	13024
247.423	6125
247.486	10457
247.550	7580
247.614	6037
247.677	7375
247.741	5185
247.804	4593
247.868	5999
247.932	9373
247.995	21757
248.059	9171
248.122	5473
248.186	7790
248.249	12263
248.313	35553
248.376	38072
248.440	24582
248.503	10796
248.567	10321
248.630	12741
248.694	16844
248.757	22466
248.821	38457
248.884	25481
248.948	22355
249.011	31446
249.075	43965
249.138	38855
249.202	16855
249.265	11082
249.328	11419
249.392	10016
249.455	8821
249.519	7376
249.582	8592
249.645	13288
249.709	10581
249.772	7670
249.835	7606
249.899	7771
249.962	7176
250.025	6707
250.089	15175
250.152	20661
250.215	11249
250.279	8239
250.342	8422
250.405	7723
250.468	7269
250.532	9472
250.595	12154
250.658	31427
250.721	51553
250.785	23071
250.848	15256
250.911	8703
250.974	9397
251.038	12489
251.101	23936
251.164	12930
251.227	12569
251.290	11882
251.354	14803
251.417	44877
251.480	45191
251.543	33169
251.606	77141
251.669	60300
251.732	27548
251.795	30974
251.859	29425
251.922	52102
251.985	32672
252.048	15684
252.111	13050
252.174	12755
252.237	22330
252.300	45570
252.363	41101
252.426	68761
252.489	31442
252.552	17295
252.615	11563
252.678	14482
252.741	32250
252.804	37134
252.867	68594
252.930	46248
252.993	27631
253.056	18473
253.119	12368
253.182	8847
253.245	13396
253.308	11376
253.371	11379
253.434	9925
253.497	10373
253.559	20369
253.622	14185
253.685	16900
253.748	17223
253.811	9551
253.874	10485
253.937	10110
254.000	8759
254.062	15108
254.125	21968
254.188	20553
254.251	15315
254.314	8336
254.376	14060
254.439	16587
254.502	13605
254.565	14626
254.628	26484
254.690	14400
254.753	8093
254.816	6745
254.878	8488
254.941	16680
255.004	17365
255.067	7779
255.129	7729
255.192	5026
255.255	4672
255.317	6175
255.380	4021
255.443	3097
255.505	2617
255.568	3514
255.631	3946
255.693	5204
255.756	2816
255.819	4492
255.881	3414
255.944	4236
256.006	3424
256.069	3713
256.132	3524
256.194	5165
256.257	7905
256.319	6633
256.382	6101
256.444	6275
256.507	5498
256.569	4987
256.632	5490
256.694	6948
256.757	17742
256.819	47283
256.882	20145
256.944	10005
257.007	8280
257.069	8367
257.132	6727
257.194	7152
257.257	5583
257.319	4990
257.381	5991
257.444	14823
257.506	52017
257.569	57053
257.631	26665
257.693	16697
257.756	8211
257.818	6846
257.880	5872
257.943	6170
258.005	4312
258.067	4682
258.130	5136
258.192	5883
258.254	9746
258.317	6533
258.379	6630
258.441	13668
258.503	12113
258.566	10248
258.628	11611
258.690	4899
258.753	7186
258.815	10782
258.877	6970
258.939	5678
259.001	5411
259.064	4854
259.126	4477
259.188	6163
259.250	6302
259.312	7365
259.375	12463
259.437	9172
259.499	5317
259.561	5755
259.623	6139
259.685	5125
259.747	5454
259.809	8964
259.872	15935
259.934	22774
259.996	26358
260.058	10356
260.120	5717
260.182	4665
260.244	4604
260.306	4368
260.368	4314
260.430	4638
260.492	9712
260.554	15252
260.616	9471
260.678	16220
260.740	17409
260.802	6218
260.864	5909
260.926	4724
260.988	5578
261.050	5810
261.112	13514
261.174	22563
261.236	13813
261.298	7318
261.359	8077
261.421	10975
261.483	4726
261.545	6203
261.607	3073
261.669	4197
261.731	6430
261.793	13108
261.854	8093
261.916	6718
261.978	5160
262.040	5916
262.102	4612
262.164	5097
262.225	5138
262.287	4743
262.349	11483
262.411	9357
262.472	4613
262.534	5393
262.596	8806
262.658	5448
262.719	2543
262.781	5118
262.843	7829
262.904	5096
262.966	4999
263.028	5983
263.090	17094
263.151	42569
263.213	18023
263.275	13702
263.336	5911
263.398	4881
263.459	3053
263.521	4237
263.583	11025
263.644	7271
263.706	4201
263.767	2731
263.829	3017
263.891	2540
263.952	2374
264.014	3305
264.075	5525
264.137	14912
264.198	7728
264.260	2981
264.321	3102
264.383	8886
264.444	21633
264.506	7554
264.567	5553
264.629	9180
264.690	18211
264.752	8428
264.813	5662
264.875	3676
264.936	4251
264.998	3486
265.059	3789
265.120	3992
265.182	6313
265.243	24641
265.305	23210
265.366	6644
265.427	4230
265.489	5198
265.550	2236
265.611	4338
265.673	3859
265.734	3770
265.795	3141
265.857	2296
265.918	2900
265.979	9447
266.040	39162
266.102	32777
266.163	10659
266.224	9535
266.286	6098
266.347	3096
266.408	3832
266.469	3633
266.530	3642
266.592	3214
266.653	7775
266.714	12399
266.775	4440
266.836	3398
266.898	3035
266.959	5610
267.020	5012
267.081	4610
267.142	3476
267.203	3285
267.264	2665
267.326	5412
267.387	2609
267.448	3451
267.509	3005
267.570	3289
267.631	3216
267.692	2683
267.753	4294
267.814	2851
267.875	6591
267.936	15820
267.997	10211
268.058	9385
268.119	5361
268.180	4735
268.241	2699
268.302	3854
268.363	2589
268.424	3403
268.485	4745
268.546	2627
268.607	1790
268.668	2286
268.729	2675
268.790	3500
268.851	4238
268.912	9334
268.972	11176
269.033	7084
269.094	3468
269.155	3609
269.216	3527
269.277	3804
269.338	3245
269.398	3620
269.459	4010
269.520	6308
269.581	7657
269.642	7743
269.702	6257
269.763	5830
269.824	4230
269.885	5342
269.945	8878
270.006	4153
270.067	3113
270.128	3262
270.188	3169
270.249	3253
270.310	2965
270.370	3018
270.431	3057
270.492	2847
270.553	3180
270.613	7416
270.674	15147
270.734	7223
270.795	3429
270.856	5623
270.916	5130
270.977	4247
271.038	5022
271.098	5359
271.159	6892
271.219	7173
271.280	2949
271.340	2975
271.401	2768
271.462	6256
271.522	5795
271.583	3672
271.643	4732
271.704	3923
271.764	6677
271.825	13018
271.885	36605
271.946	47493
272.006	17833
272.066	22397
272.127	36732
272.187	14028
272.248	8080
272.308	8490
272.369	24934
272.429	14103
272.489	10866
272.550	12181
272.610	12525
272.671	9217
272.731	6166
272.791	8435
272.852	8081
272.912	6578
272.972	3975
273.033	3602
273.093	5548
273.153	7692
273.214	5101
273.274	5804
273.334	17544
273.394	34082
273.455	15694
273.515	15045
273.575	29076
273.635	13998
273.696	16041
273.756	31141
273.816	14693
273.876	8407
273.936	10605
273.997	14345
274.057	7036
274.117	6888
274.177	10905
274.237	42270
274.297	32083
274.358	18645
274.418	26831
274.478	21247
274.538	8840
274.598	5342
274.658	12315
274.718	14889
274.778	8073
274.838	5345
274.898	7933
274.958	17614
275.018	28793
275.078	21411
275.138	8940
275.198	5304
275.258	4341
275.318	5634
275.378	10400
275.438	12311
275.498	8255
275.558	11644
275.618	24482
275.678	22282
275.738	14408
275.798	11284
275.858	7192
275.918	4977
275.978	5605
276.038	5913
276.098	3920
276.157	9622
276.217	23911
276.277	11789
276.337	8657
276.397	5674
276.457	5663
276.517	4995
276.576	3927
276.636	3910
276.696	6539
276.756	14380
276.815	10940
276.875	5750
276.935	5228
276.995	5957
277.055	3729
277.114	4220
277.174	6867
277.234	19579
277.293	9488
277.353	5281
277.413	4600
277.472	4405
277.532	4767
277.592	6183
277.651	16912
277.711	29335
277.771	12091
277.830	37006
277.890	28954
277.950	19829
278.009	51079
278.069	22355
278.128	23559
278.188	31511
278.248	15121
278.307	33879
278.367	20286
278.426	8074
278.486	5717
278.545	4036
278.605	4547
278.664	4170
278.724	5998
278.783	13891
278.843	30937
278.902	11245
278.962	6804
279.021	7840
279.081	8067
279.140	7926
279.199	8210
279.259	9494
279.318	8464
279.378	11531
279.437	18871
279.496	52732
279.556	98259
279.615	72608
279.675	24608
279.734	17931
279.793	26119
279.853	41620
279.912	19002
279.971	10127
280.031	10065
280.090	19620
280.149	31546
280.208	20049
280.268	63708
280.327	64321
280.386	19279
280.445	16592
280.505	17077
280.564	8777
280.623	7297
280.682	11577
280.742	17254
280.801	7558
280.860	5389
280.919	5253
280.978	4337
281.037	3636
281.097	3020
281.156	4774
281.215	4084
281.274	5592
281.333	20050
281.392	15902
281.451	5514
281.510	3484
281.569	2977
281.628	3775
281.688	3795
281.747	5408
281.806	4187
281.865	3454
281.924	2764
281.983	3880
282.042	2470
282.101	3095
282.160	3979
282.219	2599
282.278	3894
282.337	12923
282.396	9046
282.454	4205
282.513	5913
282.572	19918
282.631	11325
282.690	4992
282.749	4677
282.808	5218
282.867	5620
282.926	4973
282.985	3484
283.043	2999
283.102	2433
283.161	3727
283.220	9695
283.279	20691
283.338	7127
283.396	5043
283.455	4408
283.514	6635
283.573	8360
283.631	7044
283.690	5472
283.749	4553
283.808	10009
283.866	11180
283.925	5387
283.984	5537
284.043	7354
284.101	8095
284.160	5385
284.219	6212
284.277	6653
284.336	11317
284.395	27185
284.453	22925
284.512	10267
284.570	13932
284.629	13385
284.688	12270
284.746	14438
284.805	16668
284.863	21556
284.922	26514
284.981	34226
285.039	49673
285.098	82826
285.156	147740
285.215	166517
285.273	170120
285.332	151379
285.390	95244
285.449	60661
285.507	43238
285.566	32751
285.624	25860
285.683	19466
285.741	15902
285.799	13291
285.858	12391
285.916	10859
285.975	9311
286.033	7861
286.091	7257
286.150	6219
286.208	5838
286.267	6495
286.325	7443
286.383	10095
286.442	9136
286.500	5323
286.558	4482
286.616	4512
286.675	6407
286.733	5792
286.791	5269
286.850	6434
286.908	7281
286.966	13067
287.024	5835
287.083	4294
287.141	3801
287.199	4316
287.257	6456
287.315	5407
287.374	6086
287.432	13415
287.490	8911
287.548	5407
287.606	4318
287.664	3664
287.723	5537
287.781	6629
287.839	3891
287.897	4897
287.955	5872
288.013	9363
288.071	19547
288.129	57428
288.187	142527
288.245	68485
288.303	24985
288.361	13834
288.419	11142
288.477	7260
288.535	6618
288.593	5057
288.651	4152
288.709	3684
288.767	4326
288.825	3066
288.883	3337
288.941	3218
288.999	2868
289.057	3146
289.115	3085
289.173	2871
289.231	3201
289.289	2995
289.346	3582
289.404	3021
289.462	6408
289.520	6835
289.578	4125
289.636	2924
289.694	3007
289.751	2198
289.809	1916
289.867	2472
289.925	4250
289.983	3659
290.040	2821
290.098	3563
290.156	3437
290.214	3521
290.271	3570
290.329	2856
290.387	2287
290.444	2298
290.502	1767
290.560	2135
290.617	3247
290.675	1851
290.733	2541
290.790	2520
290.848	2418
290.906	2229
290.963	3536
291.021	2292
291.078	3280
291.136	4018
291.194	11148
291.251	23302
291.309	8019
291.366	3736
291.424	3366
291.481	3213
291.539	3801
291.596	2574
291.654	2508
291.711	2303
291.769	3149
291.826	6711
291.884	5039
291.941	1963
291.999	3178
292.056	3550
292.114	3719
292.171	2167
292.228	3500
292.286	3985
292.343	6521
292.401	8525
292.458	5270
292.515	3383
292.573	5183
292.630	3933
292.687	3952
292.745	3459
292.802	4753
292.859	13125
292.917	22337
292.974	13003
293.031	5033
293.089	3098
293.146	3860
293.203	4007
293.260	2571
293.318	4424
293.375	6114
293.432	2868
293.489	3318
293.546	3307
293.604	5496
293.661	14016
293.718	34775
293.775	19185
293.832	9642
293.889	7940
293.947	6461
294.004	5345
294.061	6518
294.118	11834
294.175	23492
294.232	27595
294.289	11360
294.346	6950
294.403	6481
294.460	4363
294.517	4027
294.574	4307
294.631	4631
294.688	6144
294.745	11720
294.802	39676
294.859	42558
294.916	16591
294.973	9522
295.030	7802
295.087	6398
295.144	5482
295.201	4672
295.258	3922
295.315	6262
295.372	14548
295.429	28229
295.486	13942
295.542	8870
295.599	18243
295.656	30762
295.713	22846
295.770	27437
295.827	12963
295.883	6952
295.940	5586
295.997	9495
296.054	8036
296.111	5470
296.167	4716
296.224	3536
296.281	4513
296.338	4063
296.394	3499
296.451	5346
296.508	13149
296.564	24806
296.621	17765
296.678	33161
296.734	47085
296.791	19494
296.848	10393
296.904	12288
296.961	23463
297.018	31454
297.074	24228
297.131	10304
297.187	8044
297.244	12534
297.301	30563
297.357	53608
297.414	20508
297.470	9400
297.527	6402
297.583	5683
297.640	6186
297.696	4785
297.753	3867
297.809	4095
297.866	2768
297.922	3764
297.979	3036
298.035	4407
298.092	7209
298.148	18855
298.204	18430
298.261	10491
298.317	16385
298.374	39143
298.430	23803
298.486	10702
298.543	7072
298.599	7292
298.656	9443
298.712	13919
298.768	25317
298.824	17299
298.881	7683
298.937	5389
298.993	4989
299.050	5955
299.106	5706
299.162	4727
299.218	5134
299.275	5351
299.331	6440
299.387	11481
299.443	33626
299.500	39986
299.556	17541
299.612	9325
299.668	8827
299.724	10751
299.780	11394
299.837	7939
299.893	10282
299.949	29439
300.005	36338
300.061	29898
300.117	47477
300.173	24782
300.229	12119
300.285	13948
300.341	16172
300.397	9146
300.453	5756
300.510	5763
300.566	6022
300.622	8103
300.678	19926
300.734	36018
300.790	31495
300.845	35623
300.901	24484
300.957	31880
301.013	24348
301.069	10396
301.125	7900
301.181	8467
301.237	6802
301.293	5638
301.349	4077
301.405	4484
301.461	4464
301.516	7965
301.572	6827
301.628	9729
301.684	10505
301.740	13711
301.796	22039
301.851	16499
301.907	24148
301.963	26696
302.019	37997
302.074	90973
302.130	92311
302.186	46233
302.242	20432
302.297	14050
302.353	13411
302.409	22331
302.464	20629
302.520	17262
302.576	33077
302.631	39734
302.687	23599
302.743	12058
302.798	7678
302.854	6029
302.910	6895
302.965	7504
303.021	12513
303.076	12494
303.132	14030
303.187	17377
303.243	9537
303.299	7121
303.354	5168
303.410	4574
303.465	4268
303.521	4259
303.576	4935
303.632	6207
303.687	10702
303.743	29507
303.798	27193
303.853	11649
303.909	6998
303.964	6691
304.020	9595
304.075	14250
304.130	12542
304.186	22178
304.241	22967
304.297	18297
304.352	10409
304.358	10116
304.407	7730
304.449	7026
304.463	6789
304.518	6331
304.539	6402
304.573	6479
304.629	7181
304.630	7253
304.684	11349
304.720	19950
304.739	24018
304.794	37836
304.811	32941
304.850	20292
304.902	9724
304.905	9108
304.960	6592
304.992	6563
305.015	6578
305.071	6660
305.083	6521
305.126	5820
305.173	5388
305.181	5375
305.236	4364
305.264	4882
305.292	5592
305.347	8233
305.354	8288
305.402	8256
305.445	8253
305.457	8297
305.512	9253
305.535	9777
305.567	10302
305.622	10957
305.626	11170
305.678	21009
305.716	35790
305.733	39321
305.788	43662
305.807	38710
305.843	32392
305.897	40654
305.898	40684
305.953	39030
305.988	26909
306.008	21165
306.063	14795
306.078	13275
306.118	9940
306.168	7574
306.173	7439
306.228	6193
306.259	5774
306.283	5640
306.338	5164
306.349	5335
306.393	6418
306.440	6983
306.448	7001
306.503	7745
306.530	8271
306.558	12799
306.613	24824
306.620	26686
306.668	39071
306.711	51549
306.723	50750
306.778	37409
306.801	28525
306.833	20523
306.888	10190
306.892	9739
306.943	8563
306.982	7424
306.997	7122
307.052	6783
307.072	6699
307.107	7872
307.162	10236
307.163	10241
307.217	13849
307.253	17174
307.272	17496
307.327	17538
307.343	17031
307.381	15954
307.434	15305
307.436	16088
307.491	33642
307.524	47379
307.546	47851
307.600	47025
307.614	43635
307.655	29146
307.704	13554
307.710	13511
307.765	17713
307.795	21014
307.819	25183
307.874	35724
307.885	36939
307.929	30266
307.975	23143
307.984	24416
308.038	35593
308.065	42420
308.093	77384
308.148	155871
308.156	169843
308.202	241784
308.246	299528
308.257	285833
308.312	165015
308.336	114852
308.366	91921
308.421	59207
308.426	55835
308.475	37569
308.517	24578
308.530	23419
308.585	21280
308.607	20225
308.639	20780
308.694	22801
308.697	22907
308.748	41384
308.787	56870
308.803	54391
308.857	42116
308.877	36765
308.912	35966
308.967	36212
308.967	36138
309.021	53333
309.058	66104
309.076	84276
309.130	143818
309.148	164103
309.185	261241
309.238	410808
309.239	412568
309.293	436011
309.328	426572
309.348	372189
309.402	203144
309.418	156824
309.457	119173
309.508	75734
309.511	75733
309.566	77112
309.598	78739
309.620	96711
309.674	144429
309.688	156337
309.729	148088
309.778	132132
309.783	129350
309.837	90416
309.868	69066
309.892	79514
309.946	105744
309.959	112595
310.001	137462
310.049	162144
310.055	155712
310.109	88756
310.139	51465
310.163	43214
310.218	28018
310.229	25061
310.272	20775
310.319	16584
310.326	16325
310.381	14223
310.409	13343
310.435	13031
310.489	12136
310.499	11980
310.543	12709
310.589	13306
310.598	13368
310.652	13841
310.679	13827
310.706	12720
310.760	10355
310.769	9987
310.814	9265
310.859	8524
310.868	8670
310.923	9226
310.948	9547
310.977	11276
311.031	14545
311.038	14946
311.085	14154
311.128	13259
311.139	13076
311.193	11877
311.218	11290
311.247	10892
311.301	9972
311.308	9839
311.356	10254
311.398	10539
311.410	10401
311.464	9610
311.488	9213
311.518	10060
311.572	11524
311.578	11659
311.626	17127
311.668	21871
311.680	21361
311.734	18539
311.758	17250
311.788	17201
311.842	16986
311.847	16903
311.896	22546
311.937	27357
311.950	27061
312.004	25266
312.027	24366
312.058	20640
312.112	13842
312.117	13116
312.165	12289
312.207	11506
312.297	18021
312.386	14999
312.476	16122
312.566	37589
312.656	16904
312.745	10016
312.835	11590
312.925	14335
313.015	12641
313.104	13136
313.194	11404
313.284	11721
313.374	18428
313.463	17554
313.553	11208
313.643	10407
313.732	9070
313.822	8486
313.912	11911
314.001	14629
314.091	15675
314.180	21238
314.270	19918
314.360	21230
314.449	18555
314.539	11481
314.628	10702
314.718	12997
314.808	16632
314.897	10934
314.987	12004
315.076	17757
315.166	21820
315.255	17855
315.345	20183
315.434	18389
315.524	16782
315.613	21340
315.703	28705
315.792	39283
315.881	105255
315.971	41290
316.060	38652
316.150	48038
316.239	47174
316.328	19170
316.418	12028
316.507	13892
316.597	19129
316.686	17427
316.775	23076
316.865	47429
316.954	13634
317.043	10914
317.133	13883
317.222	11414
317.311	11215
317.400	12228
317.490	19180
317.579	25064
317.668	16655
317.757	28632
317.847	57768
317.936	182628
318.025	88208
318.114	49786
318.203	33277
318.293	46049
318.382	98685
318.471	68699
318.560	81760
318.649	127094
318.738	30179
318.828	25367
318.917	26650
319.006	27837
319.095	60505
319.184	158511
319.273	100406
319.362	59222
319.451	21355
319.540	19074
319.629	46698
319.718	80523
319.807	34525
319.896	56490
319.985	194155
320.074	78943
320.163	22872
320.252	34672
320.341	28428
320.430	26645
320.519	40894
320.608	24300
320.697	18865
320.786	20406
320.875	25657
320.964	35557
321.053	56363
321.142	81054
321.230	83562
321.319	58802
321.408	138689
321.497	55303
321.586	55279
321.675	55095
321.764	53886
321.852	38621
321.941	82147
322.030	54753
322.119	55419
322.207	140964
322.296	78878
322.385	45338
322.474	55835
322.562	174809
322.651	84865
322.740	62911
322.829	86490
322.917	70185
323.006	49102
323.095	44502
323.183	28014
323.272	47090
323.361	70650
323.449	182280
323.538	62620
323.626	133675
323.715	80340
323.804	35849
323.892	121319
323.981	77000
324.069	25125
324.158	62142
324.246	59458
324.335	30584
324.424	53056
324.512	19314
324.601	28960
324.689	58727
324.778	109344
324.866	57321
324.954	17062
325.043	17861
325.131	33534
325.220	49863
325.308	57713
325.397	46191
325.485	30277
325.574	13116
325.662	13259
325.750	16720
325.839	13035
325.927	10557
326.015	17209
326.104	21416
326.192	29837
326.280	12198
326.369	12721
326.457	22261
326.545	42809
326.634	18750
326.722	10099
326.810	12826
326.898	11786
326.987	15370
327.075	39734
327.163	35906
327.251	19403
327.340	40842
327.428	58953
327.516	13788
327.604	13435
327.692	12492
327.781	14010
327.869	23537
327.957	17466
328.045	19242
328.133	9899
328.221	13506
328.309	13200
328.397	12303
328.485	17660
328.574	25720
328.662	91163
328.750	44988
328.838	16521
328.926	11172
329.014	10935
329.102	19011
329.190	47136
329.278	32963
329.366	9558
329.454	9422
329.542	10172
329.630	10334
329.718	11361
329.806	17909
329.893	16421
329.981	19977
330.069	37905
330.157	128967
330.245	339721
330.333	182663
330.421	37929
330.509	32829
330.597	113223
330.684	70543
330.772	24192
330.860	28356
330.948	36152
331.036	17999
331.123	8779
331.211	10823
331.299	13766
331.387	32233
331.475	57018
331.562	18237
331.650	9724
331.738	12906
331.825	16782
331.913	9441
332.001	9783
332.089	14213
332.176	26685
332.264	60321
332.352	48911
332.439	18997
332.527	13875
332.614	10831
332.702	15470
332.790	12674
332.877	32518
332.965	65668
333.052	27246
333.140	27812
333.228	73606
333.315	22485
333.403	15728
333.490	38278
333.578	44266
333.665	94821
333.753	44928
333.840	14536
333.928	17950
334.015	41072
334.103	60381
334.190	184227
334.278	49371
334.365	24963
334.452	19333
334.540	15075
334.627	17624
334.715	27712
334.802	48584
334.889	204325
334.977	196013
335.064	34705
335.151	20321
335.239	18638
335.326	26255
335.413	94547
335.501	124094
335.588	24338
335.675	17267
335.762	21489
335.850	35582
335.937	31325
336.024	62998
336.111	227048
336.199	97846
336.286	27179
336.373	15795
336.460	11829
336.547	11934
336.635	16584
336.722	16556
336.809	13528
336.896	23266
336.983	65560
337.070	144833
337.157	191434
337.245	136087
337.332	92567
337.419	16319
337.506	11708
337.593	15863
337.680	46700
337.767	139133
337.854	43167
337.941	47162
338.028	55127
338.115	20050
338.202	24310
338.289	40226
338.376	139868
338.463	47984
338.550	81012
338.637	85088
338.724	29571
338.811	41475
338.898	12221
338.984	9980
339.071	14653
339.158	17248
339.245	52473
339.332	31164
339.419	33060
339.506	29359
339.593	7916
339.679	11190
339.766	10699
339.853	17051
339.940	39799
340.027	14262
340.113	14107
340.200	20418
340.287	14505
340.374	20097
340.460	35441
340.547	16247
340.634	27996
340.720	102056
340.807	58434
340.894	12038
340.980	11883
341.067	11508
341.154	15176
341.240	23550
341.327	52915
341.414	16921
341.500	19791
341.587	12781
341.674	12167
341.760	34744
341.847	42740
341.933	14248
342.020	6609
342.106	7810
342.193	14270
342.279	29183
342.366	21592
342.452	37781
342.539	20784
342.625	45668
342.712	113068
342.798	46319
342.885	19742
342.971	7697
343.058	7365
343.144	8608
343.230	9344
343.317	10666
343.403	10118
343.490	6369
343.576	7949
343.662	10722
343.749	12548
343.835	17682
343.921	31244
344.008	153363
344.094	335711
344.180	78869
344.267	35375
344.353	101160
344.439	106012
344.525	54111
344.612	21616
344.698	18638
344.784	13231
344.870	9300
344.957	12085
345.043	20711
345.129	16486
345.215	33970
345.301	19767
345.387	13546
345.474	6970
345.560	7861
345.646	10586
345.732	10762
345.818	16251
345.904	12100
345.990	15064
346.076	13750
346.162	24487
346.249	13314
346.335	9202
346.421	12649
346.507	41343
346.593	137589
346.679	35383
346.765	12377
346.851	11978
346.937	12939
347.023	10037
347.108	14552
347.194	12057
347.280	11361
347.366	16361
347.452	44467
347.538	170637
347.624	125395
347.710	103521
347.796	18421
347.882	10995
347.967	9174
348.053	13932
348.139	10671
348.225	9663
348.311	10813
348.397	9176
348.482	14268
348.568	18171
348.654	8689
348.740	13492
348.825	16755
348.911	22601
348.997	77661
349.083	145089
349.168	26261
349.254	13214
349.340	13409
349.425	8813
349.511	17237
349.597	19247
349.682	37787
349.768	111119
349.854	49396
349.939	11804
350.025	8795
350.110	8790
350.196	8114
350.282	7972
350.367	7498
350.453	15929
350.538	17238
350.624	17345
350.709	14923
350.795	9355
350.880	11038
350.966	12077
351.051	17751
351.137	12928
351.222	12299
351.308	37051
351.393	103690
351.479	29009
351.564	11593
351.649	11619
351.735	8030
351.820	7638
351.906	10519
351.991	16067
352.076	66243
352.162	98176
352.247	21549
352.332	15816
352.418	33621
352.503	39226
352.588	151799
352.673	127106
352.759	30572
352.844	15845
352.929	18463
353.014	25167
353.100	16715
353.185	33661
353.270	47569
353.355	42207
353.441	12519
353.526	14994
353.611	37358
353.696	45106
353.781	25115
353.866	12838
353.952	14002
354.037	38182
354.122	84829
354.207	77328
354.292	29242
354.377	13656
354.462	11080
354.547	17600
354.632	15319
354.717	25533
354.802	38962
354.887	15220
354.972	9893
355.057	8611
355.142	7611
355.227	14821
355.312	25707
355.397	57560
355.482	135780
355.567	63708
355.652	45284
355.737	47133
355.822	125007
355.907	100892
355.991	18704
356.076	11863
356.161	10215
356.246	9684
356.331	13167
356.416	30901
356.501	179802
356.585	186650
356.670	34093
356.755	23278
356.840	35783
356.924	150908
357.009	465538
357.094	177645
357.179	48501
357.263	32790
357.348	29966
357.433	30682
357.517	28409
357.602	23790
357.687	19406
357.771	37829
357.856	120442
357.941	69247
358.025	105654
358.110	422157
358.195	205103
358.279	40089
358.364	30555
358.448	99338
358.533	256773
358.617	186861
358.702	177066
358.787	67556
358.871	41377
358.956	35855
359.040	13172
359.125	10045
359.209	13890
359.294	57334
359.378	96692
359.462	40345
359.547	20491
359.631	12493
359.716	10201
359.800	11454
359.885	18796
359.969	15302
360.053	11375
360.138	12364
360.222	20691
360.306	42156
360.391	31971
360.475	66143
360.559	141909
360.644	108644
360.728	73557
360.812	103844
360.896	269013
360.981	128539
361.065	74242
361.149	21183
361.233	20938
361.318	18228
361.402	20108
361.486	16726
361.570	13351
361.654	20408
361.739	50534
361.823	186082
361.907	269172
361.991	55337
362.075	36618
362.159	84566
362.243	58030
362.327	55817
362.411	59932
362.495	34076
362.580	20735
362.664	14572
362.748	16056
362.832	22005
362.916	38387
363.000	103835
363.084	251030
363.168	326621
363.252	87910
363.336	35871
363.420	43566
363.503	131909
363.587	149463
363.671	34484
363.755	27985
363.839	39796
363.923	21881
364.007	45519
364.091	50438
364.175	60456
364.258	215633
364.342	181035
364.426	193293
364.510	107171
364.594	56737
364.677	61397
364.761	237002
364.845	165116
364.929	71638
365.013	59191
365.096	47632
365.180	58016
365.264	55928
365.347	197606
365.431	85429
365.515	28013
365.598	18031
365.682	14742
365.766	25242
365.849	31657
365.933	19849
366.017	22458
366.100	18333
366.184	8974
366.267	12308
366.351	11911
366.435	10709
366.518	8507
366.602	9048
366.685	11968
366.769	15122
366.852	25350
366.936	45749
367.019	28565
367.103	20306
367.186	34267
367.270	12678
367.353	9002
367.436	11784
367.520	10338
367.603	16568
367.687	26897
367.770	50052
367.853	26859
367.937	73743
368.020	122542
368.104	33839
368.187	36213
368.270	51032
368.353	44160
368.437	50866
368.520	95080
368.603	68774
368.687	95623
368.770	173594
368.853	46724
368.936	44905
369.020	42325
369.103	18992
369.186	14205
369.269	16438
369.352	32799
369.436	45855
369.519	29940
369.602	16071
369.685	15950
369.768	17697
369.851	13585
369.934	10037
370.018	18139
370.101	42703
370.184	30360
370.267	22630
370.350	44597
370.433	61989
370.516	132626
370.599	161719
370.682	61407
370.765	105579
370.848	118206
370.931	202091
371.014	75703
371.097	19316
371.180	15282
371.263	9241
371.346	8851
371.429	10945
371.511	11880
371.594	27044
371.677	39561
371.760	40252
371.843	37741
371.926	156385
372.009	346954
372.091	115816
372.174	80713
372.257	171926
372.340	69679
372.423	59583
372.505	62897
372.588	30102
372.671	66796
372.754	203583
372.836	99213
372.919	67049
373.002	126902
373.085	45841
373.167	39184
373.250	93702
373.332	183024
373.415	234132
373.498	468911
373.580	181423
373.663	236252
373.746	305671
373.828	81019
373.911	36600
373.993	36975
374.076	121969
374.159	110774
374.241	58313
374.324	182244
374.406	116894
374.489	133298
374.571	370589
374.654	157596
374.736	78042
374.819	225772
374.901	327765
374.983	332202
375.066	65843
375.148	28276
375.231	96573
375.313	180806
375.395	73926
375.478	20339
375.560	15035
375.643	22255
375.725	71893
375.807	288853
375.890	220369
375.972	94991
376.054	55649
376.136	77082
376.219	36657
376.301	84630
376.383	249656
376.465	97305
376.548	75803
376.630	81344
376.712	217724
376.794	99307
376.877	15626
376.959	11338
377.041	14318
377.123	27978
377.205	32351
377.287	9863
377.369	9328
377.452	11554
377.534	11395
377.616	12193
377.698	11281
377.780	10065
377.862	13571
377.944	13072
378.026	8239
378.108	9976
378.190	9149
378.272	9037
378.354	7160
378.436	8105
378.518	18970
378.600	63765
378.682	56297
378.764	127747
378.846	97168
378.928	30771
379.010	46590
379.091	25164
379.173	12081
379.255	11642
379.337	19943
379.419	62288
379.501	174314
379.583	68543
379.664	21105
379.746	51304
379.828	128805
379.910	170472
379.991	141800
380.073	27255
380.155	19429
380.237	14945
380.318	11432
380.400	14632
380.482	32929
380.564	51124
380.645	52526
380.727	49309
380.809	27346
380.890	21339
380.972	16025
381.053	14985
381.135	18182
381.217	46494
381.298	136133
381.380	67909
381.461	52628
381.543	221577
381.624	267847
381.706	57230
381.787	33663
381.869	37561
381.951	98356
382.032	351646
382.113	228866
382.195	64974
382.276	45019
382.358	88235
382.439	205851
382.521	217295
382.602	333961
382.684	172362
382.765	330699
382.846	444270
382.928	701504
383.009	405622
383.090	315767
383.172	930104
383.253	1230567
383.334	465635
383.416	367753
383.497	207683
383.578	147521
383.659	280829
383.741	830677
383.822	1630324
383.903	895874
383.984	342119
384.066	430576
384.147	269312
384.228	70868
384.309	58105
384.390	44237
384.471	33160
384.553	34487
384.634	45152
384.715	45511
384.796	26488
384.877	34888
384.958	119803
385.039	146834
385.120	57439
385.201	28792
385.282	32757
385.363	35233
385.444	35643
385.525	58477
385.606	162272
385.687	131054
385.768	39143
385.849	47321
385.930	171961
386.011	279812
386.092	80978
386.173	23916
386.254	19985
386.335	20861
386.416	25402
386.496	81338
386.577	129446
386.658	47517
386.739	32263
386.820	26429
386.901	22678
386.981	20968
387.062	15732
387.143	31589
387.224	124958
387.304	111389
387.385	43726
387.466	29586
387.547	36255
387.627	26538
387.708	46374
387.789	202764
387.869	240080
387.950	64016
388.031	16408
388.111	16774
388.192	37203
388.273	52774
388.353	33966
388.434	22494
388.514	42340
388.595	172210
388.676	231478
388.756	122308
388.837	125266
388.917	76548
388.998	19473
389.078	17406
389.159	15200
389.239	15415
389.320	28241
389.400	23433
389.480	47265
389.561	124898
389.641	60247
389.722	26365
389.802	43605
389.883	53155
389.963	138748
390.043	86393
390.124	30421
390.204	48894
390.284	150337
390.365	93967
390.445	98481
390.525	268327
390.605	236115
390.686	81599
390.766	31014
390.846	17993
390.927	13805
391.007	15363
391.087	17614
391.167	21700
391.247	16403
391.328	23122
391.408	32987
391.488	23907
391.568	12386
391.648	21127
391.728	30184
391.808	28983
391.888	34481
391.969	71911
392.049	114087
392.129	49179
392.209	55460
392.289	135401
392.369	76283
392.449	61483
392.529	43536
392.609	37435
392.689	46479
392.769	137326
392.849	119040
392.929	85510
393.009	197113
393.089	162873
393.169	158440
393.248	437733
393.328	1247583
393.408	1289651
393.488	462540
393.568	154360
393.648	77795
393.728	51318
393.807	38065
393.887	33011
393.967	28644
394.047	32529
394.127	39393
394.206	55114
394.286	160146
394.366	644173
394.446	695323
394.525	185885
394.605	53998
394.685	43934
394.764	83328
394.844	139512
394.924	99903
395.003	37837
395.083	26907
395.163	24406
395.242	22984
395.322	22548
395.402	17209
395.481	22501
395.561	59874
395.640	161077
395.720	131687
395.799	162859
395.879	126641
395.958	77447
396.038	236780
396.117	830145
396.197	909406
396.276	315490
396.356	117640
396.435	86356
396.515	63528
396.594	80917
396.673	140620
396.753	435568
396.832	1152576
396.912	912492
396.991	272776
397.070	82152
397.150	47958
397.229	33518
397.308	43267
397.388	70553
397.467	38781
397.546	19896
397.625	17363
397.705	23753
397.784	25370
397.863	15021
397.942	11462
398.022	12641
398.101	45752
398.180	132481
398.259	69555
398.338	21700
398.417	19185
398.497	13009
398.576	14018
398.655	9923
398.734	9025
398.813	11367
398.892	40453
398.971	140513
399.050	69992
399.129	12326
399.208	8840
399.287	8804
399.366	7567
399.445	7683
399.524	9277
399.603	9147
399.682	21660
399.761	53142
399.840	152958
399.919	110486
399.998	18635
400.077	7347
400.156	7319
400.235	11643
400.313	9031
400.392	13537
400.471	69097
400.550	113742
400.629	31849
400.708	14599
400.786	13834
400.865	33216
400.944	38432
401.023	19147
401.102	6050
401.180	5850
401.259	8044
401.338	9935
401.416	15378
401.495	14008
401.574	10402
401.652	9241
401.731	14860
401.810	15266
401.888	8416
401.967	6691
402.046	10279
402.124	14047
402.203	19741
402.281	11760
402.360	17639
402.438	43817
402.517	31223
402.596	11506
402.674	11520
402.753	7484
402.831	7661
402.910	11059
402.988	47840
403.066	162896
403.145	88981
403.223	51823
403.302	137550
403.380	100182
403.459	105397
403.537	42039
403.615	16504
403.694	6054
403.772	5596
403.850	5512
403.929	5111
404.007	7404
404.085	22675
404.164	28613
404.242	10584
404.320	10806
404.398	20296
404.477	57034
404.555	267670
404.633	225520
404.711	35229
404.789	12684
404.868	12747
404.946	7938
405.024	5883
405.102	5772
405.180	5855
405.258	5742
405.336	6285
405.415	7598
405.493	20362
405.571	20535
405.649	7920
405.727	6157
405.805	11862
405.883	12759
405.961	13425
406.039	14372
406.117	8980
406.195	16065
406.273	68097
406.351	242707
406.429	139548
406.507	24039
406.585	10826
406.663	11284
406.740	16412
406.818	14440
406.896	8444
406.974	8868
407.052	24544
407.130	144060
407.208	201001
407.285	39307
407.363	9739
407.441	9266
407.519	8204
407.596	9562
407.674	22791
407.752	54051
407.830	56514
407.907	29289
407.985	13592
408.063	7208
408.141	6468
408.218	13565
408.296	17076
408.373	14755
408.451	13092
408.529	12265
408.606	6013
408.684	4215
408.762	4381
408.839	4013
408.917	3582
408.994	6010
409.072	6942
409.149	6760
409.227	12808
409.304	16104
409.382	11972
409.459	12044
409.537	18549
409.614	18659
409.692	12964
409.769	13617
409.846	19428
409.924	25924
410.001	23667
410.079	15570
410.156	12540
410.233	11122
410.311	10415
410.388	8650
410.465	12391
410.543	13331
410.620	7688
410.697	9246
410.775	12196
410.852	5703
410.929	12057
411.006	17539
411.083	11263
411.161	29865
411.238	27898
411.315	13608
411.392	7263
411.469	14123
411.547	17634
411.624	9381
411.701	8857
411.778	10695
411.855	26051
411.932	13454
412.009	7082
412.086	6511
412.163	8914
412.240	9735
412.317	13015
412.394	12610
412.471	5994
412.548	4818
412.625	7050
412.702	10016
412.779	21811
412.856	13875
412.933	5464
413.010	5256
413.087	12307
413.164	67812
413.241	95997
413.318	23447
413.395	15761
413.471	24698
413.548	10483
413.625	6294
413.702	10640
413.779	8093
413.855	3491
413.932	3502
414.009	3599
414.086	4509
414.162	5578
414.239	11096
414.316	62569
414.393	138325
414.469	48936
414.546	6320
414.623	4059
414.699	5316
414.776	9989
414.853	5181
414.929	7216
415.006	6379
415.082	8008
415.159	5706
415.236	6075
415.312	6270
415.389	16327
415.465	24079
415.542	11312
415.618	7719
415.695	15095
415.771	9789
415.848	9083
415.924	8340
416.000	5261
416.077	4820
416.153	2709
416.230	1718
416.306	3453
416.383	4549
416.459	3654
416.535	3289
416.612	3169
416.688	3995
416.764	4774
416.841	4873
416.917	5255
416.993	5947
417.069	7732
417.146	11093
417.222	14529
417.298	9797
417.374	5927
417.451	6838
417.527	11251
417.603	12014
417.679	8289
417.755	7190
417.831	4420
417.908	4268
417.984	3830
418.060	3513
418.136	19555
418.212	27171
418.288	9215
418.364	5088
418.440	6226
418.516	11627
418.592	15249
418.668	29926
418.744	48794
418.820	34289
418.896	8853
418.972	4326
419.048	6319
419.124	21324
419.200	17447
419.276	5114
419.352	2890
419.428	3896
419.504	6893
419.579	9880
419.655	7587
419.731	6980
419.807	30478
419.883	57628
419.959	37695
420.034	10792
420.110	20924
420.186	88011
420.262	65596
420.337	13221
420.413	10316
420.489	5859
420.565	4950
420.640	4801
420.716	6903
420.792	3978
420.867	6820
420.943	6078
421.019	15235
421.094	11486
421.170	6376
421.245	4535
421.321	6830
421.397	7130
421.472	12367
421.548	28578
421.623	24656
421.699	12213
421.774	13077
421.850	11039
421.925	22687
422.001	19148
422.076	15302
422.152	19270
422.227	31786
422.302	35026
422.378	50527
422.453	90865
422.529	210178
422.604	513048
422.679	694594
422.755	535191
422.830	229455
422.905	94471
422.981	52045
423.056	33837
423.131	24987
423.207	19725
423.282	21043
423.357	35907
423.432	25572
423.508	23522
423.583	51511
423.658	37854
423.733	13246
423.808	14594
423.883	18451
423.959	16235
424.034	12626
424.109	9474
424.184	6537
424.259	6308
424.334	5960
424.409	4342
424.484	5492
424.559	7316
424.634	6761
424.709	11439
424.784	13811
424.859	8061
424.934	14445
425.009	63037
425.084	102762
425.159	36618
425.234	6873
425.309	6439
425.384	29927
425.459	51972
425.534	14612
425.609	5820
425.683	4901
425.758	4838
425.833	6193
425.908	9333
425.983	39517
426.058	111276
426.132	46349
426.207	9183
426.282	12722
426.357	11910
426.431	5182
426.506	4463
426.581	6073
426.655	5681
426.730	4782
426.805	4762
426.879	6675
426.954	6324
427.029	16930
427.103	90556
427.178	208376
427.253	87156
427.327	13752
427.402	19663
427.476	54498
427.551	27129
427.625	8708
427.700	7370
427.774	4909
427.849	7283
427.923	5067
427.998	4442
428.072	7364
428.147	17074
428.221	73242
428.296	195676
428.370	96082
428.444	15806
428.519	18557
428.593	31355
428.667	26273
428.742	33802
428.816	32817
428.890	127953
428.965	204443
429.039	66940
429.113	37957
429.188	15006
429.262	6856
429.336	15131
429.410	49123
429.485	29228
429.559	27380
429.633	21176
429.707	8660
429.781	26038
429.855	140421
429.930	205903
430.004	101993
430.078	139863
430.152	130190
430.226	238558
430.300	226918
430.374	39576
430.448	16237
430.522	46557
430.596	133284
430.670	84062
430.744	213857
430.818	291958
430.892	59195
430.966	13567
431.040	7182
431.114	3515
431.188	3920
431.262	4670
431.336	5251
431.410	14531
431.484	43394
431.557	27992
431.631	6810
431.705	8067
431.779	37580
431.853	164096
431.927	108572
432.000	13593
432.074	6346
432.148	7544
432.222	6275
432.295	3752
432.369	4741
432.443	12895
432.516	79792
432.590	195525
432.664	68801
432.737	10401
432.811	4096
432.885	2583
432.958	3453
433.032	2384
433.106	1603
433.179	2646
433.253	3156
433.326	2744
433.400	1639
433.473	3067
433.547	2000
433.620	3070
433.694	11827
433.767	11011
433.841	4327
433.914	2895
433.988	4076
434.061	3123
434.134	3983
434.208	1663
434.281	2179
434.355	2082
434.428	3886
434.501	2793
434.575	2765
434.648	3549
434.721	2811
434.795	1902
434.868	2027
434.941	1296
435.014	2198
435.088	4004
435.161	9173
435.234	13970
435.307	16699
435.381	8870
435.454	6774
435.527	7697
435.600	8234
435.673	7885
435.746	5313
435.819	4812
435.892	4531
435.966	3876
436.039	3732
436.112	3427
436.185	2432
436.258	1488
436.331	1779
436.404	1088
436.477	743
436.550	1650
436.623	2903
436.696	2662
436.769	4070
436.842	3727
436.915	4726
436.987	7110
437.060	4081
437.133	2269
437.206	1907
437.279	2682
437.352	2453
437.425	2363
437.498	4509
437.570	12190
437.643	11507
437.716	3579
437.789	3805
437.861	13363
437.934	38693
438.007	15781
438.080	4578
438.152	5404
438.225	14262
438.298	96062
438.370	248255
438.443	102747
438.516	32977
438.588	6845
438.661	2817
438.734	3634
438.806	5964
438.879	6310
438.951	10831
439.024	18999
439.096	6338
439.169	3390
439.241	2237
439.314	1957
439.386	5968
439.459	10253
439.531	17919
439.604	6437
439.676	3026
439.749	1688
439.821	1738
439.893	1927
439.966	3366
440.038	6172
440.110	6782
440.183	4303
440.255	2843
440.327	7212
440.400	41394
440.472	171404
440.544	98700
440.617	14278
440.689	13729
440.761	19368
440.833	29625
440.905	17688
440.978	3523
441.050	1685
441.122	3215
441.194	2232
441.266	3028
441.338	3786
441.411	9806
441.483	62510
441.555	83693
441.627	16431
441.699	10244
441.771	8408
441.843	3426
441.915	2391
441.987	2644
442.059	3092
442.131	5075
442.203	9519
442.275	10856
442.347	10347
442.419	17230
442.491	81642
442.563	187684
442.635	72857
442.706	44376
442.778	30206
442.850	7196
442.922	4376
442.994	7309
443.066	10587
443.137	8626
443.209	7194
443.281	12705
443.353	27608
443.425	106584
443.496	341302
443.568	306697
443.640	105373
443.711	22057
443.783	10692
443.855	7643
443.926	4545
443.998	4744
444.070	6967
444.141	8130
444.213	12408
444.285	13813
444.356	10467
444.428	9648
444.499	4163
444.571	3006
444.642	3744
444.714	5259
444.785	11350
444.857	12169
444.928	25851
445.000	14229
445.071	18340
445.143	22782
445.214	17210
445.285	27196
445.357	75874
445.428	234739
445.500	478687
445.571	287351
445.642	146465
445.714	58554
445.785	46423
445.856	16917
445.928	16340
445.999	14525
446.070	11649
446.141	11362
446.213	14407
446.284	7611
446.355	5907
446.426	4486
446.497	5245
446.569	9504
446.640	15022
446.711	11924
446.782	4054
446.853	5837
446.924	7261
446.995	6074
447.066	4952
447.138	9804
447.209	4027
447.280	1242
447.351	1999
447.422	2539
447.493	4649
447.564	7863
447.635	11149
447.706	4131
447.777	1241
447.847	1561
447.918	1914
447.989	5092
448.060	7103
448.131	17684
448.202	15861
448.273	11108
448.344	4109
448.414	3488
448.485	3194
448.556	2627
448.627	912
448.698	1672
448.768	756
448.839	2827
448.910	9128
448.981	7797
449.051	3914
449.122	1939
449.193	1779
449.263	2237
449.334	2285
449.405	5959
449.475	14800
449.546	8312
449.616	10705
449.687	8371
449.758	3746
449.828	3040
449.899	3006
449.969	1778
450.040	2097
450.110	3947
450.181	4889
450.251	3669
450.322	2166
450.392	3270
450.463	1965
450.533	1902
450.604	2074
450.674	2074
450.744	2289
450.815	2762
450.885	2869
450.955	1833
451.026	1958
451.096	2994
451.166	3529
451.237	10882
451.307	24329
451.377	8310
451.447	2054
451.518	2523
451.588	1642
451.658	3540
451.728	5480
451.799	26795
451.869	25942
451.939	5160
452.009	2125
452.079	2493
452.149	2247
452.219	7290
452.289	30590
452.360	18335
452.430	4596
452.500	5555
452.570	6021
452.640	8658
452.710	26409
452.780	36125
452.850	28718
452.920	24768
452.990	7203
453.060	5213
453.129	8791
453.199	9783
453.269	34294
453.339	63280
453.409	92323
453.479	106715
453.549	147197
453.619	151232
453.688	46812
453.758	7762
453.828	3726
453.898	3415
453.968	2535
454.037	2656
454.087	2682
454.107	2684
454.168	2264
454.177	2193
454.247	1781
454.249	1794
454.316	1951
454.330	2194
454.386	3053
454.411	7511
454.456	14807
454.492	17246
454.525	19461
454.574	9813
454.595	5625
454.655	3080
454.665	2705
454.734	3825
454.736	3976
454.804	8589
454.817	11961
454.873	25348
454.898	25977
454.943	26962
454.979	17701
455.013	9481
455.060	4859
455.082	3008
455.141	4513
455.152	4599
455.221	17458
455.222	17660
455.291	30245
455.303	26397
455.360	9058
455.384	8729
455.430	8730
455.465	9341
455.499	9500
455.546	18898
455.569	22965
455.627	13634
455.638	11985
455.707	2880
455.708	2884
455.777	2467
455.789	2491
455.846	2636
455.869	2267
455.916	1413
455.950	1916
455.985	2385
456.031	2511
456.054	2545
456.112	2035
456.124	1948
456.193	2196
456.193	2186
456.262	2795
456.274	2920
456.332	3030
456.355	3504
456.401	4368
456.436	3327
456.470	2315
456.516	1800
456.540	1565
456.597	1320
456.609	1262
456.678	1294
456.678	1284
456.747	1375
456.759	1355
456.817	1472
456.840	1476
456.886	1149
456.920	1434
456.955	1970
457.001	2068
457.024	2090
457.082	2820
457.093	2922
457.162	4206
457.163	4220
457.232	5194
457.243	4866
457.301	3003
457.324	2478
457.370	1774
457.405	1879
457.439	1943
457.485	1937
457.508	1947
457.566	2772
457.577	3049
457.646	3687
457.647	3721
457.715	7306
457.727	8065
457.784	12244
457.808	15786
457.853	21406
457.889	25650
457.922	26735
457.969	17892
457.991	16527
458.050	19801
458.060	20261
458.129	33390
458.130	33775
458.198	40948
458.211	37185
458.267	19216
458.292	13763
458.336	8550
458.372	7750
458.405	9451
458.453	13547
458.474	17025
458.533	31306
458.543	32679
458.611	59462
458.614	59684
458.680	43488
458.694	36113
458.749	15424
458.775	10701
458.818	5878
458.855	4856
458.887	4353
458.936	3433
458.955	3051
459.016	2999
459.024	3071
459.093	3478
459.097	3522
459.162	4034
459.177	4157
459.230	4661
459.257	5320
459.299	6220
459.338	6026
459.368	5955
459.418	7295
459.437	7104
459.499	4294
459.505	4156
459.574	3488
459.579	3417
459.643	2669
459.659	2764
459.711	3587
459.740	3842
459.780	3817
459.820	3867
459.849	3932
459.900	4548
459.917	4829
459.981	5868
459.986	5873
460.054	4939
460.061	4915
460.123	5299
460.141	5508
460.191	7057
460.222	7765
460.260	7991
460.302	9633
460.328	9686
460.382	7188
460.397	6823
460.462	5318
460.465	5325
460.534	6936
460.543	7172
460.602	16897
460.623	20562
460.671	27788
460.703	37021
460.739	38578
460.783	33721
460.808	28314
460.864	7402
460.876	5450
460.944	3999
460.945	3986
461.013	4791
461.024	4774
461.081	4356
461.104	4481
461.150	4655
461.184	4497
461.218	4315
461.264	3749
461.286	3589
461.345	4106
461.355	4160
461.423	4248
461.425	4234
461.491	3748
461.505	3810
461.559	7263
461.585	8953
461.628	14390
461.665	20315
461.696	23126
461.745	31367
461.764	29486
461.825	10119
461.832	9243
461.901	5186
461.905	5112
461.969	4614
461.985	4590
462.037	5006
462.065	4866
462.105	4655
462.145	4873
462.173	7118
462.225	11468
462.241	12503
462.305	19127
462.310	18882
462.378	13292
462.385	12099
462.446	6077
462.465	4972
462.514	4423
462.545	4772
462.582	4840
462.625	4578
462.650	4499
462.705	4151
462.718	4166
462.785	4619
462.786	4668
462.854	7203
462.865	7715
462.922	9245
462.945	10100
462.990	8628
463.025	6073
463.058	5091
463.104	4501
463.126	4393
463.184	4186
463.194	4347
463.262	5539
463.264	5590
463.330	5354
463.344	5323
463.398	6243
463.424	6327
463.466	5579
463.504	5418
463.533	5823
463.583	5982
463.601	6043
463.663	6422
463.669	6514
463.737	7863
463.743	8002
463.805	13960
463.823	15628
463.873	20850
463.903	24374
463.940	27093
463.982	31357
464.008	26623
464.062	12088
464.076	10909
464.142	5610
464.144	5549
464.211	5134
464.221	5091
464.279	5385
464.301	5559
464.347	6408
464.381	7016
464.414	7311
464.461	7699
464.482	8358
464.540	10204
464.550	10042
464.617	8718
464.620	8652
464.685	8610
464.699	8653
464.753	8946
464.779	9028
464.820	9152
464.859	9373
464.888	9577
464.938	9646
464.956	9876
465.018	11148
465.023	11043
465.091	9150
465.098	8939
465.158	8684
465.177	8627
465.226	9285
465.257	9709
465.293	9497
465.336	9086
465.361	9827
465.416	11625
465.428	12553
465.495	17791
465.496	17872
465.563	26650
465.575	28271
465.631	34999
465.654	38094
465.698	25689
465.734	13761
465.765	11599
465.813	8969
465.833	8919
465.893	9369
465.900	9419
465.968	9838
465.972	9843
466.035	9145
466.052	8970
466.102	9590
466.131	9890
466.170	10415
466.210	10965
466.237	11005
466.290	10974
466.304	11210
466.369	12229
466.372	12270
466.439	12955
466.449	13023
466.506	14607
466.528	15177
466.573	18961
466.607	21813
466.641	31072
466.687	43888
466.708	47665
466.766	58408
466.775	54742
466.842	25938
466.845	24529
466.909	18175
466.925	16763
466.977	16483
467.004	16353
467.044	16501
467.083	16609
467.111	17128
467.163	18026
467.178	18229
467.242	18931
467.245	18889
467.312	17400
467.321	17177
467.379	16846
467.400	16678
467.446	17745
467.480	18468
467.559	17064
467.638	13780
467.717	14062
467.796	16573
467.875	17731
467.955	14636
468.034	21056
468.113	47493
468.192	67003
468.271	23463
468.350	14234
468.429	16449
468.508	16979
468.588	14214
468.667	12230
468.746	13246
468.825	12084
468.904	10498
468.983	12961
469.062	18611
469.141	23251
469.220	11502
469.299	9595
469.378	10502
469.456	13130
469.535	11660
469.614	10847
469.693	11587
469.772	15961
469.851	20009
469.930	16591
470.009	11120
470.088	10435
470.166	14349
470.245	21088
470.324	26091
470.403	20265
470.482	14324
470.560	12422
470.639	12803
470.718	14017
470.797	12166
470.875	13369
470.954	18064
471.033	20392
471.111	9712
471.190	8844
471.269	7566
471.347	8927
471.426	9402
471.505	11281
471.583	12123
471.662	10808
471.740	9150
471.819	9406
471.898	9167
471.976	9052
472.055	9693
472.133	10192
472.212	13961
472.290	15083
472.369	10399
472.447	9167
472.526	8709
472.604	9948
472.683	10032
472.761	11572
472.839	10152
472.918	10294
472.996	9609
473.075	10897
473.153	11167
473.231	9371
473.310	10835
473.388	12212
473.466	9466
473.545	11831
473.623	15556
473.701	16174
473.780	10132
473.858	8501
473.936	11810
474.014	9992
474.093	11820
474.171	15692
474.249	21871
474.327	15749
474.405	8296
474.484	9213
474.562	9485
474.640	9912
474.718	10778
474.796	12271
474.874	10828
474.952	10140
475.030	10341
475.108	11605
475.187	14132
475.265	15224
475.343	21449
475.421	23668
475.499	11388
475.577	11751
475.655	13553
475.733	26062
475.811	42938
475.889	39084
475.966	30588
476.044	11085
476.122	14659
476.200	18346
476.278	15507
476.356	9814
476.434	10426
476.512	12486
476.590	18501
476.667	16332
476.745	9679
476.823	9695
476.901	9239
476.979	9633
477.056	9597
477.134	10078
477.212	10483
477.290	10208
477.367	8004
477.445	8732
477.523	8764
477.601	8531
477.678	10205
477.756	11203
477.834	12482
477.911	8940
477.989	8145
478.066	8769
478.144	10513
478.222	13795
478.299	22282
478.377	24518
478.454	9114
478.532	7552
478.609	10018
478.687	11500
478.764	8013
478.842	9679
478.919	10211
478.997	9983
479.074	8551
479.152	10733
479.229	12461
479.307	10157
479.384	7554
479.461	7475
479.539	8640
479.616	10549
479.694	9153
479.771	9565
479.848	10152
479.926	12340
480.003	16364
480.080	8569
480.157	7806
480.235	8004
480.312	8037
480.389	9552
480.467	15056
480.544	19171
480.621	11138
480.698	10550
480.775	11745
480.853	11876
480.930	9369
481.007	10808
481.084	10096
481.161	12648
481.238	12154
481.315	8371
481.392	8161
481.470	8137
481.547	8912
481.624	9417
481.701	8340
481.778	9005
481.855	10761
481.932	15770
482.009	24925
482.086	21730
482.163	11047
482.240	16402
482.317	30417
482.393	28056
482.470	9945
482.547	10148
482.624	9386
482.701	10565
482.778	10799
482.855	9455
482.932	9825
483.009	8089
483.085	10840
483.162	13567
483.239	13160
483.316	9004
483.393	9748
483.469	9583
483.546	11073
483.623	11144
483.699	9039
483.776	8591
483.853	10998
483.930	14185
484.006	39020
484.083	66697
484.160	36014
484.236	37485
484.313	32443
484.389	23914
484.466	21860
484.543	20791
484.619	21617
484.696	23376
484.772	24638
484.849	24058
484.925	20912
485.002	19338
485.078	22612
485.155	23385
485.231	19908
485.308	17474
485.384	19181
485.461	22496
485.537	38691
485.614	51428
485.690	23262
485.766	18357
485.843	20456
485.919	29403
485.995	34599
486.072	18320
486.148	17464
486.224	16316
486.301	18250
486.377	22474
486.453	24644
486.530	21989
486.606	23985
486.682	28574
486.758	34869
486.835	42283
486.911	33153
486.987	50534
487.063	66501
487.139	81070
487.215	60616
487.292	29963
487.368	21273
487.444	24940
487.520	34601
487.596	34413
487.672	46225
487.748	117626
487.824	191870
487.900	96981
487.976	34935
488.052	29058
488.128	36065
488.204	29495
488.280	21294
488.356	21960
488.432	46607
488.508	75574
488.584	33112
488.660	18561
488.736	18971
488.812	19495
488.888	25593
488.964	33232
489.039	72946
489.115	122862
489.191	86653
489.267	22256
489.343	19124
489.418	15855
489.494	15968
489.570	14408
489.646	16520
489.722	15104
489.797	16513
489.873	23972
489.949	51871
490.024	54681
490.100	17469
490.176	15370
490.251	20361
490.327	26936
490.403	18954
490.478	14733
490.554	14157
490.629	13811
490.705	14030
490.781	15495
490.856	14816
490.932	17146
491.007	17669
491.083	17216
491.158	15153
491.234	19292
491.309	41212
491.385	49322
491.460	17746
491.536	17976
491.611	15710
491.686	16916
491.762	23710
491.837	47903
491.913	85317
491.988	116549
492.063	161669
492.139	54722
492.214	27740
492.289	13801
492.365	12538
492.440	15402
492.515	17172
492.590	15724
492.666	13467
492.741	16556
492.816	26000
492.891	17387
492.967	12495
493.042	11191
493.117	11009
493.192	11140
493.267	13987
493.342	19464
493.418	21465
493.493	12161
493.568	11132
493.643	10851
493.718	15515
493.793	22297
493.868	28614
493.943	20832
494.018	15027
494.093	11292
494.168	13100
494.243	11174
494.318	11530
494.393	11678
494.468	10745
494.543	11426
494.618	12516
494.693	13895
494.768	11915
494.842	13243
494.917	10913
494.992	11961
495.067	11486
495.142	11632
495.217	11285
495.292	13244
495.366	15109
495.441	18997
495.516	23572
495.591	30329
495.665	101105
495.740	257228
495.815	156635
495.890	25765
495.964	16697
496.039	19668
496.114	17774
496.188	18716
496.263	19815
496.338	17082
496.412	18532
496.487	22167
496.561	23385
496.636	26528
496.710	20834
496.785	22493
496.860	24781
496.934	22876
497.009	21782
497.083	23096
497.158	25513
497.232	29090
497.307	34483
497.381	31346
497.455	34923
497.530	44216
497.604	37106
497.679	37287
497.753	53448
497.827	70095
497.902	70232
497.976	73332
498.050	117253
498.125	364560
498.199	468482
498.273	115196
498.348	87336
498.422	73256
498.496	67234
498.570	63766
498.645	49914
498.719	44709
498.793	47560
498.867	56118
498.941	67806
499.016	150023
499.090	397192
499.164	221157
499.238	33057
499.312	26336
499.386	31053
499.460	30533
499.534	26446
499.609	29674
499.683	38859
499.757	38094
499.831	62187
499.905	248549
499.979	309633
500.053	53348
500.127	47225
500.201	36508
500.275	24269
500.349	22611
500.422	24427
500.496	33960
500.570	65356
500.644	156645
500.718	293991
500.792	101899
500.866	21943
500.940	25520
501.013	24813
501.087	22276
501.161	36497
501.235	50779
501.309	80935
501.382	238428
501.456	273840
501.530	59206
501.603	82598
501.677	46977
501.751	15727
501.825	19447
501.898	31516
501.972	95308
502.046	84888
502.119	21147
502.193	43210
502.266	106998
502.340	73172
502.413	45373
502.487	97907
502.561	63413
502.634	25139
502.708	17313
502.781	15000
502.855	14012
502.928	10838
503.002	11495
503.075	10860
503.149	13789
503.222	13507
503.295	14001
503.369	16860
503.442	21405
503.516	66666
503.589	188113
503.662	152816
503.736	46393
503.809	82643
503.882	87796
503.956	102784
504.029	124705
504.102	85294
504.175	118753
504.249	59283
504.322	29068
504.395	22648
504.468	15277
504.542	14678
504.615	11127
504.688	11963
504.761	9779
504.834	14523
504.907	17809
504.980	30372
505.053	18566
505.127	18054
505.200	25275
505.273	18548
505.346	14083
505.419	10071
505.492	10774
505.565	8812
505.638	8238
505.711	8655
505.784	8851
505.857	8069
505.930	11064
506.003	9360
506.076	11814
506.149	13157
506.221	17455
506.294	17239
506.367	35189
506.440	131273
506.513	105256
506.586	20612
506.659	13417
506.731	10434
506.804	12967
506.877	19339
506.950	15987
507.022	10785
507.095	11364
507.168	17300
507.241	11139
507.313	9192
507.386	9169
507.459	15640
507.531	10945
507.604	8078
507.677	9341
507.749	7276
507.822	12775
507.894	21106
507.967	28734
508.040	15667
508.112	12923
508.185	13098
508.257	11834
508.330	20531
508.402	14259
508.475	10933
508.547	13433
508.620	12721
508.692	19363
508.765	14316
508.837	9772
508.909	10349
508.982	9709
509.054	11710
509.127	9795
509.199	8708
509.271	7721
509.344	9500
509.416	9071
509.488	8568
509.560	10352
509.633	10345
509.705	13219
509.777	12041
509.849	17955
509.922	14285
509.994	9219
510.066	9572
510.138	9558
510.210	19755
510.283	17260
510.355	14492
510.427	13611
510.499	12707
510.571	13115
510.643	12621
510.715	22090
510.787	23728
510.859	13735
510.931	16324
511.003	21849
511.076	24314
511.148	11754
511.219	11213
511.291	17717
511.363	25200
511.435	11966
511.507	9367
511.579	10776
511.651	11518
511.723	9999
511.795	9433
511.867	10552
511.939	13305
512.010	24244
512.082	27688
512.154	12123
512.226	12455
512.298	16863
512.369	26142
512.441	21036
512.513	18235
512.585	15837
512.656	16042
512.728	18484
512.800	14193
512.871	13651
512.943	14037
513.015	11633
513.086	12517
513.158	14896
513.230	14421
513.301	20374
513.373	26418
513.444	15434
513.516	12551
513.588	11967
513.659	14073
513.731	17622
513.802	16386
513.874	30381
513.945	62028
514.016	30137
514.088	13557
514.159	13751
514.231	19819
514.302	25179
514.374	17975
514.445	15821
514.516	32106
514.588	29610
514.659	17901
514.730	30449
514.802	30859
514.873	24759
514.944	30063
515.016	23261
515.087	24130
515.158	27049
515.229	39360
515.301	30205
515.372	43704
515.443	33772
515.514	22799
515.585	16399
515.656	15463
515.728	14817
515.799	14073
515.870	16132
515.941	15821
516.012	14288
516.083	18370
516.154	21097
516.225	27819
516.296	28921
516.367	26832
516.438	30042
516.509	37757
516.580	52292
516.651	155772
516.722	594054
516.793	411206
516.864	67151
516.935	55440
517.006	58126
517.077	74571
517.148	161113
517.219	560512
517.289	1136570
517.360	365045
517.431	115859
517.502	33299
517.573	27501
517.643	25663
517.714	25964
517.785	28514
517.856	29451
517.926	37134
517.997	44511
518.068	55567
518.138	72510
518.209	103761
518.280	355395
518.350	1359727
518.421	855749
518.492	118355
518.562	53016
518.633	43147
518.703	41279
518.774	63715
518.845	132877
518.915	154989
518.986	64867
519.056	40696
519.127	55380
519.197	81359
519.268	169275
519.338	142664
519.408	33206
519.479	39255
519.549	33483
519.620	20299
519.690	16176
519.760	15697
519.831	15880
519.901	17438
519.971	13948
520.042	15341
520.112	16915
520.182	21321
520.253	27428
520.323	18898
520.393	24198
520.463	50047
520.534	30500
520.604	67066
520.674	36965
520.744	24535
520.814	65757
520.885	77721
520.955	49859
521.025	183101
521.095	113641
521.165	19328
521.235	15189
521.305	13847
521.375	13459
521.445	14983
521.515	19625
521.585	24200
521.655	25957
521.725	19008
521.795	18665
521.865	11996
521.935	20519
522.005	19698
522.075	12076
522.145	14417
522.215	14098
522.285	20906
522.355	27449
522.424	51255
522.494	52228
522.564	28167
522.634	43704
522.704	148696
522.774	88674
522.843	18889
522.913	15131
522.983	19885
523.053	16894
523.122	16066
523.192	20410
523.262	68862
523.331	97979
523.401	22162
523.471	12357
523.540	13418
523.610	10330
523.680	10209
523.749	10970
523.819	14003
523.888	15958
523.958	11440
524.027	12312
524.097	14379
524.166	12455
524.236	13511
524.305	15377
524.375	11048
524.444	9611
524.514	13852
524.583	11793
524.653	14538
524.722	18971
524.791	14317
524.861	13187
524.930	11303
524.999	11631
525.069	18868
525.138	15310
525.207	17957
525.277	14090
525.346	13368
525.415	13953
525.484	13893
525.554	16407
525.623	18368
525.692	16577
525.761	17754
525.830	19906
525.900	23448
525.969	34342
526.038	53084
526.107	91735
526.176	287798
526.245	304805
526.314	101771
526.383	144583
526.452	239399
526.522	317276
526.591	438112
526.660	134989
526.729	69101
526.797	59032
526.867	100849
526.935	420274
527.004	813726
527.073	592621
527.142	75534
527.211	28486
527.280	22616
527.349	23636
527.418	13930
527.487	13950
527.555	11339
527.624	11253
527.693	9149
527.762	12101
527.831	9625
527.899	10745
527.968	10605
528.037	10125
528.106	13642
528.174	25498
528.243	23646
528.312	25160
528.380	43991
528.449	16337
528.518	11969
528.586	8358
528.655	9187
528.723	9276
528.792	7864
528.861	9638
528.929	9407
528.998	9816
529.066	8422
529.135	8781
529.203	8478
529.272	8072
529.340	10409
529.409	11958
529.477	9585
529.545	12392
529.614	16718
529.682	16151
529.751	19942
529.819	21570
529.887	16068
529.956	11419
530.024	12422
530.092	10509
530.161	13687
530.229	21183
530.297	15771
530.365	10961
530.434	10086
530.502	9778
530.570	10051
530.638	9068
530.707	11749
530.775	12822
530.843	10459
530.911	9922
530.979	10268
531.047	10027
531.115	10669
531.183	11030
531.252	10397
531.320	10772
531.388	10368
531.456	11585
531.524	8773
531.592	11429
531.660	13003
531.728	10565
531.796	10941
531.864	10446
531.932	11638
532.000	11131
532.067	11851
532.135	12910
532.203	15478
532.271	16305
532.339	24342
532.407	64397
532.475	53613
532.542	23082
532.610	22914
532.678	26914
532.746	96417
532.814	332195
532.881	117657
532.949	21392
533.017	14844
533.084	12763
533.152	12923
533.220	12060
533.287	14359
533.355	13545
533.423	13196
533.490	11594
533.558	11822
533.625	11802
533.693	13170
533.761	13878
533.828	13695
533.896	12985
533.963	23339
534.031	32026
534.098	46676
534.166	26913
534.233	13422
534.300	14371
534.368	14362
534.435	12815
534.503	14756
534.570	18068
534.637	18524
534.705	18374
534.772	20787
534.840	32024
534.907	123541
534.974	224855
535.041	39860
535.109	20984
535.176	14295
535.243	13302
535.310	13266
535.378	12415
535.445	11486
535.512	11311
535.579	11592
535.646	10402
535.714	12235
535.781	14047
535.848	14432
535.915	13471
535.982	12936
536.049	12774
536.116	13718
536.183	13052
536.250	13318
536.317	12650
536.384	15910
536.451	21690
536.518	23927
536.585	18183
536.652	21827
536.719	28592
536.786	25897
536.853	19948
536.920	27429
536.987	41575
537.053	40940
537.120	143238
537.187	185149
537.254	24449
537.321	14849
537.388	15728
537.454	12432
537.521	12872
537.588	12284
537.654	14722
537.721	16137
537.788	16450
537.855	13241
537.921	13462
537.988	13776
538.055	13469
538.121	13054
538.188	14909
538.254	21179
538.321	41905
538.388	31960
538.454	15186
538.521	14911
538.587	12877
538.654	12955
538.720	12459
538.787	14016
538.853	14369
538.920	17292
538.986	17005
539.053	15355
539.119	15932
539.185	15486
539.252	17298
539.318	27636
539.385	23809
539.451	19707
539.517	20208
539.583	20433
539.650	40281
539.716	137479
539.782	55575
539.849	17956
539.915	16471
539.981	15953
540.047	19781
540.114	18232
540.180	18952
540.246	17862
540.312	21842
540.378	40572
540.444	46545
540.510	44537
540.576	149122
540.643	69874
540.709	16101
540.775	16549
540.841	15209
540.907	20018
540.973	33270
541.039	28669
541.105	27896
541.171	18066
541.237	14944
541.303	16688
541.369	19560
541.435	22707
541.500	37607
541.566	27430
541.632	15745
541.698	13776
541.764	14062
541.830	14021
541.896	12469
541.961	14968
542.027	14646
542.093	15492
542.159	16984
542.224	16984
542.290	24011
542.356	35892
542.421	45419
542.487	24201
542.553	16924
542.618	19275
542.684	18623
542.750	17813
542.815	19924
542.881	31162
542.947	118133
543.012	123063
543.078	20180
543.143	15992
543.209	17096
543.274	16845
543.340	19151
543.405	41247
543.471	91963
543.536	26806
543.602	15626
543.667	13983
543.732	15555
543.798	13255
543.863	14915
543.928	13873
543.994	12652
544.059	14955
544.124	14178
544.190	14608
544.255	16343
544.320	16284
544.386	16464
544.451	22546
544.516	26696
544.581	25292
544.646	67265
544.712	148886
544.777	36829
544.842	20126
544.907	20162
544.972	19392
545.037	18119
545.102	19391
545.168	19575
545.233	21664
545.298	22032
545.363	24081
545.428	27287
545.493	41587
545.558	107605
545.623	60173
545.688	22226
545.753	20603
545.818	19154
545.883	20592
545.947	18754
546.012	21733
546.077	22047
546.142	22025
546.207	20987
546.272	27402
546.337	29122
546.401	24910
546.466	22679
546.531	20374
546.596	23573
546.661	24776
546.725	23693
546.790	22099
546.855	23521
546.919	23468
546.984	26392
547.049	28697
547.113	32821
547.178	31893
547.243	35395
547.307	38695
547.372	44635
547.436	47932
547.501	42495
547.565	44680
547.630	45656
547.695	47900
547.759	47591
547.823	46182
547.888	39987
547.952	41051
548.017	42387
548.081	46492
548.146	54327
548.210	52867
548.274	45853
548.339	45704
548.403	43155
548.468	40037
548.532	39895
548.596	40906
548.660	41074
548.725	44245
548.789	51380
548.853	53012
548.917	46884
548.982	51598
549.046	52032
549.110	37896
549.174	37537
549.238	42083
549.303	43889
549.367	46471
549.431	45737
549.495	43294
549.559	42980
549.623	46585
549.687	55055
549.751	66272
549.815	63336
549.879	61765
549.943	57031
550.007	60758
550.071	61515
550.135	65049
550.199	59286
550.263	52821
550.327	52329
550.391	60395
550.455	57334
550.519	57829
550.582	62089
550.646	76694
550.710	84543
550.774	68933
550.838	69666
550.901	71184
550.965	75189
551.029	78037
551.093	88029
551.156	99669
551.220	137667
551.284	165177
551.347	107283
551.411	119301
551.475	139318
551.538	78761
551.602	68470
551.666	63623
551.729	60936
551.793	59138
551.856	58115
551.920	56169
551.983	56684
552.047	57729
552.110	56602
552.174	55397
552.237	56946
552.301	54948
552.364	51200
552.428	51948
552.491	53847
552.554	56079
552.618	55330
552.681	58689
552.745	59924
552.808	76499
552.871	105819
552.934	80855
552.998	60407
553.061	57360
553.124	55373
553.187	52169
553.251	54084
553.314	54406
553.377	52278
553.440	56125
553.503	63555
553.567	70836
553.630	56829
553.693	54295
553.756	54699
553.819	53177
553.882	51163
553.945	52038
554.008	51544
554.071	50523
554.134	52455
554.197	50288
554.260	47782
554.323	50834
554.386	50636
554.449	51838
554.512	52520
554.575	48943
554.638	50058
554.701	50664
554.764	48285
554.827	48042
554.889	45275
554.952	42963
555.015	42244
555.078	42521
555.141	44319
555.203	44381
555.266	42916
555.329	43614
555.391	43453
555.454	43577
555.517	44089
555.580	40159
555.642	38433
555.705	38020
555.768	38454
555.830	38981
555.893	35918
555.955	35782
556.018	35274
556.080	36335
556.143	36156
556.206	36749
556.268	35735
556.330	36411
556.393	36146
556.455	35091
556.518	42506
556.580	46248
556.643	33569
556.705	32592
556.767	32214
556.830	33562
556.892	35421
556.955	47589
557.017	42734
557.079	32420
557.142	31371
557.204	34061
557.266	54786
557.328	55883
557.391	31155
557.453	28448
557.515	28862
557.577	33820
557.639	36202
557.701	29988
557.764	29675
557.826	31277
557.888	34275
557.950	35557
558.012	36282
558.074	45943
558.136	90364
558.198	267690
558.260	130547
558.322	44950
558.384	44062
558.446	49430
558.508	55508
558.570	66826
558.632	92428
558.694	137067
558.756	145348
558.818	380909
558.880	1140031
558.942	496128
559.003	291956
559.065	186975
559.127	64627
559.189	60728
559.251	63721
559.312	82913
559.374	186909
559.436	703567
559.498	488773
559.559	85205
559.621	61462
559.683	62819
559.744	96860
559.806	302228
559.868	594404
559.929	150607
559.991	65104
560.052	83484
560.114	243744
560.176	202596
560.237	131206
560.299	267317
560.360	82409
560.422	32881
560.483	27737
560.545	25197
560.606	24440
560.667	23531
560.729	22499
560.790	22589
560.852	22102
560.913	21659
560.974	21795
561.036	21963
561.097	21649
561.158	22279
561.220	22591
561.281	22582
561.342	23290
561.403	26703
561.465	29485
561.526	61491
561.587	98486
561.648	35470
561.709	22883
561.771	22414
561.832	20826
561.893	21055
561.954	21223
562.015	21313
562.076	20692
562.137	21216
562.198	21685
562.259	21123
562.320	21736
562.381	23432
562.442	32850
562.503	31229
562.564	22048
562.625	21376
562.686	21267
562.747	24435
562.808	23631
562.869	21724
562.930	23921
562.991	25174
563.051	23240
563.112	22131
563.173	21382
563.234	19275
563.294	21137
563.355	21116
563.416	21723
563.477	20536
563.537	20390
563.598	21644
563.659	21200
563.720	20534
563.780	22837
563.841	22650
563.901	22976
563.962	20537
564.023	21590
564.083	22108
564.144	21477
564.204	21394
564.265	21774
564.325	23954
564.386	38536
564.446	41543
564.507	22664
564.567	20976
564.628	22402
564.688	20389
564.749	22400
564.809	23302
564.869	27064
564.930	23478
564.990	21206
565.050	21161
565.111	21161
565.171	22679
565.231	21838
565.292	21815
565.352	21344
565.412	22947
565.472	23256
565.532	24803
565.593	22502
565.653	22978
565.713	23680
565.773	25766
565.833	28370
565.893	35443
565.953	26219
566.013	25338
566.074	26498
566.134	29713
566.194	40267
566.254	46535
566.314	35976
566.374	29984
566.434	29463
566.494	29864
566.554	30157
566.614	32031
566.673	33393
566.733	35896
566.793	37649
566.853	39112
566.913	39311
566.973	40877
567.033	42581
567.092	43901
567.152	41176
567.212	43014
567.272	42881
567.331	45049
567.391	47011
567.451	50113
567.511	56095
567.570	57596
567.630	44961
567.690	42722
567.749	43760
567.809	48065
567.868	53453
567.928	59459
567.988	69737
568.047	80192
568.107	98042
568.166	129390
568.226	194995
568.285	276915
568.345	269449
568.404	226989
568.464	195863
568.523	178370
568.582	177074
568.642	187480
568.701	222485
568.761	300921
568.820	451032
568.879	490762
568.939	403850
568.998	314172
569.057	245348
569.116	192017
569.176	153193
569.235	126460
569.294	106482
569.353	91594
569.413	80325
569.472	70674
569.531	63475
569.590	55904
569.649	52035
569.708	48141
569.767	45902
569.827	49748
569.886	45829
569.945	37206
570.004	36867
570.063	34692
570.122	34024
570.181	34406
570.240	33653
570.299	34867
570.358	37620
570.417	29786
570.475	26065
570.534	27667
570.593	27013
570.652	28456
570.711	29221
570.770	25545
570.829	27049
570.887	26336
570.946	28509
571.005	24737
571.064	23734
571.122	24824
571.181	27452
571.240	23297
571.299	21677
571.357	22134
571.416	23364
571.475	25320
571.533	25545
571.592	20998
571.650	22720
571.709	20338
571.768	20800
571.826	21710
571.885	20117
571.943	19736
572.002	19954
572.060	19429
572.119	17757
572.177	18566
572.236	18142
572.294	18457
572.352	18378
572.411	18258
572.469	18503
572.528	18458
572.586	19793
572.644	21643
572.703	30929
572.761	23260
572.819	18229
572.877	17321
572.936	17806
572.994	16090
573.052	17976
573.110	19285
573.169	19013
573.227	17167
573.285	16844
573.343	16939
573.401	17003
573.459	17075
573.517	17745
573.576	16721
573.634	17656
573.692	18783
573.750	17968
573.808	17111
573.866	16497
573.924	20633
573.982	20971
574.040	17234
574.098	16458
574.155	16101
574.213	16488
574.271	16300
574.329	17403
574.387	16286
574.445	15159
574.503	15720
574.560	15155
574.618	14847
574.676	14638
574.734	16144
574.792	15602
574.849	16475
574.907	14235
574.965	14789
575.022	14299
575.080	15232
575.138	13572
575.195	15584
575.253	15946
575.311	18060
575.368	15559
575.426	15741
575.483	15372
575.541	15055
575.598	14328
575.656	15329
575.713	14847
575.771	15396
575.828	14941
575.886	15437
575.943	16548
576.001	15736
576.058	15215
576.115	16636
576.173	18875
576.230	19860
576.287	21696
576.345	21014
576.402	16125
576.459	17140
576.517	16938
576.574	18007
576.631	17821
576.688	17342
576.746	16174
576.803	15905
576.860	14575
576.917	16172
576.974	15936
577.031	15205
577.089	15516
577.146	15839
577.203	15448
577.260	17574
577.317	17146
577.374	17671
577.431	17629
577.488	17390
577.545	15816
577.602	15124
577.659	15471
577.716	15341
577.773	15420
577.830	15589
577.886	16097
577.943	14507
578.000	14957
578.057	16275
578.114	16377
578.171	16271
578.227	15817
578.284	15483
578.341	16454
578.398	15876
578.454	16967
578.511	18601
578.568	18863
578.625	17110
578.681	16033
578.738	15751
578.794	16009
578.851	16370
578.908	16115
578.964	17500
579.021	17930
579.077	16701
579.134	17362
579.190	15230
579.247	15366
579.303	14785
579.360	16050
579.416	15161
579.473	15714
579.529	15713
579.586	15289
579.642	16758
579.698	15200
579.755	16032
579.811	16119
579.867	16110
579.924	14958
579.980	15533
580.036	17009
580.093	16972
580.149	16696
580.205	17586
580.261	16990
580.317	17141
580.374	17424
580.430	19765
580.486	17945
580.542	18332
580.598	17784
580.619	17881
580.654	18063
580.692	18110
580.710	18154
580.765	17678
580.767	17673
580.823	18141
580.838	18239
580.879	18541
580.911	18145
580.935	17873
580.984	16888
580.991	16770
581.047	17965
581.057	17937
581.103	17796
581.130	17766
581.159	17762
581.203	18345
581.215	18515
581.270	18696
581.276	18614
581.326	17847
581.349	18118
581.382	18578
581.422	18700
581.438	18726
581.494	19757
581.494	19737
581.550	18396
581.567	18530
581.606	18769
581.640	19120
581.661	19330
581.713	19659
581.717	19701
581.773	19895
581.786	19786
581.829	19326
581.859	19120
581.885	19002
581.932	18942
581.940	18931
581.996	19522
582.004	19707
582.052	20551
582.077	20132
582.107	19797
582.150	20303
582.163	20409
582.219	20491
582.223	20451
582.274	20157
582.296	20362
582.330	20668
582.368	20921
582.386	21028
582.441	20738
582.441	20737
582.497	20594
582.514	20292
582.552	19949
582.587	20351
582.608	20519
582.659	21008
582.663	21039
582.719	21309
582.732	21244
582.774	21078
582.805	21639
582.830	22185
582.877	22202
582.885	22159
582.941	22041
582.950	22072
582.996	22356
583.023	22708
583.052	23260
583.095	23427
583.107	23407
583.162	23217
583.168	23253
583.218	23545
583.240	23668
583.273	23771
583.313	23654
583.328	23679
583.384	23748
583.385	23768
583.439	24206
583.458	24081
583.494	23728
583.531	23589
583.549	23705
583.603	24005
583.605	23997
583.660	24778
583.676	24606
583.715	24547
583.748	25045
583.770	25371
583.820	25747
583.825	25757
583.881	26213
583.893	26087
583.936	25918
583.965	25813
583.991	25656
584.038	26472
584.046	26606
584.101	26516
584.110	26607
584.156	27263
584.183	27448
584.211	27442
584.255	27480
584.266	27558
584.321	27765
584.328	27852
584.376	28780
584.400	28953
584.431	29136
584.472	29226
584.486	29194
584.541	29535
584.545	29583
584.596	30840
584.617	30704
584.651	30908
584.689	31967
584.706	32088
584.761	33061
584.762	33047
584.816	33028
584.834	33310
584.871	34020
584.906	34538
584.926	34863
584.978	35875
584.980	35940
585.035	37525
585.051	38181
585.090	40079
585.123	41106
585.145	41723
585.195	43072
585.200	43309
585.254	46210
585.267	47057
585.309	49879
585.340	52030
585.364	54138
585.412	58833
585.419	59656
585.473	65835
585.484	67417
585.528	78606
585.556	89282
585.583	114710
585.628	168588
585.637	192841
585.692	378825
585.700	414032
585.747	530815
585.772	493248
585.801	342173
585.845	136264
585.856	114695
585.910	74010
585.917	69901
585.965	62036
585.989	59668
586.019	58561
586.061	57311
586.074	57277
586.128	57167
586.133	57188
586.183	59112
586.205	59889
586.237	60078
586.277	59596
586.292	59510
586.346	59684
586.349	59623
586.401	60706
586.421	61625
586.455	63642
586.493	65706
586.509	68918
586.564	81579
586.565	81902
586.618	105794
586.637	110391
586.672	98865
586.709	83118
586.727	79947
586.781	78672
586.781	78742
586.835	76958
586.853	76548
586.889	76564
586.925	76561
586.944	77537
586.996	80021
586.998	80125
587.052	82547
587.068	82876
587.106	85342
587.140	87880
587.161	89538
587.212	93368
587.215	93608
587.269	97757
587.284	98508
587.323	101815
587.356	104759
587.377	106969
587.427	112372
587.431	112861
587.485	117957
587.499	119292
587.539	124511
587.571	129131
587.593	133042
587.643	141014
587.648	141958
587.702	151687
587.715	154043
587.755	163007
587.786	169494
587.810	174975
587.858	186839
587.864	188654
587.917	206083
587.930	209956
587.971	226012
588.001	238108
588.025	248971
588.073	270720
588.079	274351
588.133	306168
588.145	313456
588.187	344505
588.217	366623
588.241	389422
588.288	435381
588.295	443313
588.348	510691
588.360	525018
588.402	590528
588.431	637728
588.456	689838
588.503	794942
588.510	814633
588.564	975226
588.575	1009559
588.617	1201112
588.646	1338519
588.671	1516785
588.718	1866201
588.725	1947614
588.778	2577843
588.789	2701715
588.832	3221225
588.861	3534024
588.886	3504412
588.932	3298382
588.939	3251718
588.993	2821346
589.004	2780959
589.047	3349033
589.075	3678984
589.100	3475629
589.147	2938894
589.154	2868666
589.207	2259200
589.218	2135635
589.261	1960599
589.290	1855191
589.314	1903100
589.361	2016104
589.368	2077188
589.421	2584446
589.433	2690708
589.475	3156105
589.504	3433709
589.528	3343658
589.576	3037214
589.582	3049812
589.635	3266760
589.647	3293208
589.689	2794053
589.718	2364255
589.742	2039780
589.790	1385880
589.795	1349594
589.849	1017390
589.861	942762
589.902	806341
589.932	707932
589.955	651408
590.004	534848
590.009	527995
590.062	452674
590.075	434163
590.115	395666
590.146	365986
590.168	350756
590.218	316888
590.222	314978
590.275	286062
590.289	278394
590.328	262564
590.360	249005
590.381	242393
590.431	225916
590.435	225307
590.488	209780
590.503	205233
590.541	197667
590.574	190635
590.594	186807
590.645	176184
590.647	176144
590.700	167204
590.716	164298
590.753	159954
590.787	155556
590.806	153149
590.859	145523
590.859	145712
590.912	141132
590.930	139375
590.965	136608
591.001	133430
591.018	132506
591.071	128934
591.072	128637
591.124	125505
591.143	123898
591.177	122482
591.214	120687
591.230	121046
591.283	121632
591.285	121371
591.336	119618
591.356	118573
591.389	117026
591.427	114565
591.442	113142
591.495	106798
591.498	106094
591.547	104508
591.569	103470
591.600	103018
591.640	101707
591.653	101678
591.706	100715
591.711	100359
591.759	101757
591.782	102138
591.811	104498
591.853	107265
591.864	106122
591.917	98783
591.924	97471
591.969	95782
591.995	94404
592.022	94267
592.066	93461
592.075	94524
592.127	99614
592.137	100294
592.180	105076
592.208	107632
592.233	102595
592.279	92110
592.285	92179
592.338	90778
592.350	90210
592.390	88904
592.421	87502
592.443	87766
592.491	87579
592.495	87821
592.548	87837
592.562	87592
592.600	86664
592.633	85416
592.653	85526
592.704	84705
592.705	85195
592.775	85238
592.846	85042
592.916	87792
592.987	91414
593.058	86650
593.128	82891
593.199	79640
593.270	81109
593.341	78677
593.411	82870
593.482	81866
593.553	78830
593.623	79280
593.694	80876
593.764	83136
593.835	80035
593.906	78866
593.976	78825
594.047	82780
594.117	89857
594.188	90556
594.258	79140
594.329	77517
594.399	79752
594.470	79117
594.540	78869
594.611	80315
594.681	80052
594.751	81567
594.822	84696
594.892	86683
594.963	87005
595.033	86342
595.103	87182
595.174	90893
595.244	113625
595.314	130185
595.384	92110
595.455	87871
595.525	90828
595.595	93084
595.665	92852
595.736	91230
595.806	89643
595.876	91541
595.946	90221
596.016	91578
596.087	95129
596.157	95996
596.227	93942
596.297	99109
596.367	103372
596.437	110372
596.507	125097
596.577	139451
596.647	110164
596.717	109995
596.787	110878
596.857	108822
596.927	109946
596.997	109767
597.067	111676
597.137	113033
597.207	113372
597.277	113373
597.347	110896
597.417	107934
597.487	109800
597.557	111596
597.626	113825
597.696	117434
597.766	124535
597.836	137415
597.906	110177
597.975	103589
598.045	101995
598.115	105472
598.185	111503
598.254	121891
598.324	130722
598.394	134201
598.464	131006
598.533	125142
598.603	117139
598.672	117534
598.742	117538
598.812	117716
598.881	119964
598.951	116935
599.020	116454
599.090	120885
599.159	123562
599.229	118381
599.299	114592
599.368	116877
599.437	116684
599.507	110729
599.576	109573
599.646	106070
599.715	107187
599.785	106955
599.854	107561
599.924	110823
599.993	106438
600.062	104477
600.132	105067
600.201	111809
600.270	127761
600.340	131790
600.409	124695
600.478	124602
600.547	126035
600.617	120342
600.686	102464
600.755	96946
600.824	97044
600.894	92536
600.963	89724
601.032	88616
601.101	87483
601.170	84413
601.239	85833
601.308	89811
601.378	88842
601.447	83833
601.516	83484
601.585	90827
601.654	96755
601.723	90332
601.792	88345
601.861	92260
601.930	98545
601.999	102206
602.068	98160
602.137	105982
602.206	104273
602.275	100884
602.343	109201
602.412	108267
602.481	99955
602.550	98161
602.619	99034
602.688	103372
602.756	100006
602.825	98227
602.894	101482
602.963	101483
603.032	104118
603.100	103348
603.169	103419
603.238	104089
603.307	103481
603.375	104652
603.444	107054
603.513	107056
603.581	107455
603.650	111450
603.719	104998
603.787	106627
603.856	110880
603.924	115111
603.993	117322
604.061	118491
604.130	123186
604.198	126486
604.267	125974
604.335	128498
604.404	128621
604.472	129108
604.541	132556
604.609	133003
604.678	133635
604.746	133286
604.815	137834
604.883	138878
604.951	138476
605.020	140956
605.088	141826
605.156	142729
605.225	144531
605.293	144277
605.361	145583
605.429	146478
605.498	152156
605.566	155444
605.634	158214
605.702	162425
605.771	167862
605.839	167805
605.907	162612
605.975	158133
606.043	155689
606.111	154847
606.180	156292
606.248	152493
606.316	152702
606.384	156514
606.452	165941
606.520	177431
606.588	162801
606.656	156270
606.724	153324
606.792	144324
606.860	130955
606.928	121580
606.996	117180
607.064	114150
607.132	119149
607.200	126430
607.267	128393
607.335	129676
607.403	133214
607.471	130028
607.539	126625
607.607	125904
607.674	113884
607.742	116627
607.810	118460
607.878	117173
607.946	116217
608.013	122202
608.081	125912
608.149	127258
608.216	126542
608.284	131634
608.352	130758
608.419	132229
608.487	143011
608.555	130264
608.622	128686
608.690	134775
608.757	146460
608.825	151094
608.893	150807
608.960	153622
609.028	157202
609.095	155091
609.163	138099
609.230	123971
609.298	116207
609.365	117832
609.432	127681
609.500	137339
609.567	154902
609.635	173506
609.702	181971
609.769	177935
609.837	150061
609.904	133180
609.971	141556
610.039	169175
610.106	240266
610.173	483081
610.241	1144061
610.308	841173
610.375	375925
610.442	172821
610.509	138813
610.577	133391
610.644	132372
610.711	133030
610.778	136781
610.845	139536
610.912	145555
610.980	152599
611.047	152051
611.114	152982
611.181	146457
611.248	142130
611.315	149740
611.382	151726
611.449	158166
611.516	161815
611.583	160155
611.650	162908
611.717	167273
611.784	174274
611.851	189059
611.918	216113
611.984	264207
612.051	397529
612.118	858496
612.185	2153114
612.252	1303083
612.319	300161
612.386	224820
612.452	200407
612.519	193562
612.586	201432
612.653	189907
612.719	187088
612.786	179537
612.853	166324
612.919	160593
612.986	164542
613.053	153106
613.120	146717
613.186	139527
613.253	143950
613.319	144082
613.386	145417
613.453	150872
613.519	157633
613.586	168320
613.652	197328
613.719	175733
613.785	168782
613.852	149853
613.918	146917
613.985	147472
614.051	154567
614.118	157491
614.184	151537
614.250	145428
614.317	148518
614.383	146154
614.449	149526
614.516	147253
614.582	151379
614.648	147194
614.715	146037
614.781	143050
614.847	146633
614.914	147053
614.980	144346
615.046	142718
615.112	147683
615.179	150465
615.245	159797
615.311	177662
615.377	233425
615.443	245957
615.509	181927
615.575	169685
615.642	164164
615.708	174102
615.774	186678
615.840	212916
615.906	258333
615.972	370952
616.038	665234
616.104	1226381
616.170	2634047
616.236	2161222
616.302	479682
616.368	322929
616.434	231097
616.500	207486
616.565	227789
616.631	289216
616.697	233826
616.763	242794
616.829	373667
616.895	680921
616.961	651818
617.026	271177
617.092	176604
617.158	159960
617.224	155280
617.289	144289
617.355	136998
617.421	136025
617.487	136223
617.552	129157
617.618	125106
617.684	125485
617.749	128098
617.815	120159
617.880	119060
617.946	120051
618.012	122159
618.077	123306
618.143	118261
618.208	119958
618.274	128750
618.339	130074
618.405	110105
618.470	109759
618.536	111902
618.601	114027
618.667	105624
618.732	100006
618.798	99835
618.863	98982
618.928	98399
618.994	102768
619.059	109952
619.124	135081
619.190	109374
619.255	97460
619.320	98602
619.386	96562
619.451	96227
619.516	92795
619.581	95691
619.647	96382
619.712	97461
619.777	93890
619.842	96334
619.907	99856
619.972	98591
620.038	97727
620.103	94328
620.168	93185
620.233	94593
620.298	94375
620.363	94428
620.428	97678
620.493	99229
620.558	99823
620.623	99219
620.688	100697
620.753	98536
620.818	100793
620.883	101946
620.948	101170
621.013	100364
621.078	100626
621.143	101647
621.207	106956
621.272	105267
621.337	106550
621.402	107248
621.467	116098
621.532	116901
621.596	108411
621.661	100719
621.726	97308
621.791	99072
621.855	103208
621.920	106137
621.985	107404
622.049	113452
622.114	111711
622.179	105690
622.243	109103
622.308	109776
622.373	113011
622.437	112086
622.502	103623
622.566	103920
622.631	102539
622.695	106370
622.760	105530
622.824	105879
622.889	108948
622.953	116326
623.018	149826
623.082	146450
623.147	113744
623.211	109800
623.276	111844
623.340	102704
623.404	99381
623.469	99161
623.533	100015
623.597	97427
623.662	97972
623.726	92344
623.790	88048
623.854	88178
623.919	88924
623.983	90296
624.047	91832
624.111	90880
624.176	94007
624.240	101873
624.304	108617
624.368	93797
624.432	93142
624.496	96569
624.560	106187
624.625	111371
624.689	98953
624.753	98871
624.817	95232
624.881	92914
624.945	87186
625.009	85457
625.073	87710
625.137	96732
625.201	112166
625.265	109163
625.329	91507
625.393	96353
625.456	93489
625.520	96397
625.584	102404
625.648	115034
625.712	144986
625.776	245437
625.839	260262
625.903	125157
625.967	89619
626.031	121794
626.095	169683
626.158	96529
626.222	70990
626.286	69080
626.349	66928
626.413	64812
626.477	67529
626.540	64405
626.604	63946
626.668	63046
626.731	61490
626.795	64298
626.858	64703
626.922	62363
626.986	61534
627.049	59234
627.113	63060
627.176	60130
627.240	58355
627.303	59430
627.366	58777
627.430	61507
627.493	59533
627.557	58963
627.620	60385
627.684	62002
627.747	63244
627.810	57259
627.874	55218
627.937	51566
628.000	56741
628.064	54510
628.127	48348
628.190	50729
628.253	49792
628.317	47316
628.380	46869
628.443	47144
628.506	47988
628.569	45351
628.632	41634
628.696	42091
628.759	42090
628.822	41061
628.885	40976
628.948	39501
629.011	41401
629.074	40824
629.137	39144
629.200	40171
629.263	42841
629.326	37805
629.389	37945
629.452	38685
629.515	38987
629.578	39017
629.641	41227
629.704	39811
629.767	40019
629.830	35991
629.892	37503
629.955	35871
630.018	39971
630.081	44576
630.144	52924
630.207	42196
630.269	43102
630.332	41868
630.395	37975
630.458	34413
630.520	35706
630.583	35629
630.646	33554
630.708	34906
630.771	33645
630.834	35391
630.896	33727
630.959	34937
631.021	34863
631.084	35595
631.146	39207
631.209	40403
631.272	34527
631.334	35047
631.397	35387
631.459	36500
631.522	39244
631.584	39762
631.646	41197
631.709	44653
631.771	53536
631.834	44336
631.896	38603
631.958	34811
632.021	35288
632.083	34525
632.145	35013
632.208	35004
632.270	36044
632.332	31725
632.395	31937
632.457	33415
632.519	32185
632.581	32443
632.643	31151
632.706	32401
632.768	30437
632.830	31700
632.892	31604
632.954	32112
633.016	33316
633.078	30674
633.141	30831
633.203	32226
633.265	32831
633.327	31752
633.389	31953
633.451	37237
633.513	43155
633.575	40237
633.637	42404
633.698	39087
633.760	34800
633.822	35188
633.884	36371
633.946	35061
634.008	35297
634.070	37593
634.132	39781
634.193	44340
634.255	45512
634.317	47276
634.379	47873
634.441	42823
634.502	38398
634.564	35439
634.626	32728
634.687	32724
634.749	31090
634.811	31309
634.873	29866
634.934	30339
634.996	30784
635.057	30229
635.119	29780
635.181	32291
635.242	33437
635.304	29524
635.365	33122
635.427	32077
635.488	32199
635.550	31306
635.611	32538
635.673	30804
635.734	35892
635.796	36328
635.857	41905
635.918	40969
635.980	45420
636.041	46461
636.102	51252
636.164	50200
636.225	47649
636.286	41868
636.348	39850
636.409	34888
636.470	33308
636.531	32696
636.593	33941
636.654	31951
636.715	28412
636.776	27025
636.838	25948
636.899	27991
636.960	26334
637.021	25956
637.082	26281
637.143	25993
637.204	23860
637.265	24520
637.326	25011
637.387	25371
637.448	24254
637.509	24289
637.570	25081
637.631	26011
637.692	23053
637.753	23432
637.814	24777
637.875	23537
637.936	26194
637.997	24152
638.058	25283
638.119	25297
638.179	23848
638.240	22680
638.301	24060
638.362	22363
638.423	22831
638.483	24052
638.544	21231
638.605	22646
638.666	22187
638.726	22868
638.787	22301
638.848	21119
638.908	21425
638.969	21864
639.030	21969
639.090	21516
639.151	23131
639.211	26067
639.272	32073
639.332	52680
639.393	31435
639.453	24856
639.514	24783
639.574	22970
639.635	20940
639.695	21476
639.756	20922
639.816	23923
639.877	30417
639.937	46602
639.997	59282
640.058	26028
640.118	20562
640.178	21133
640.239	19912
640.299	19230
640.359	20613
640.420	21990
640.480	23308
640.540	27087
640.600	27402
640.661	26054
640.721	26093
640.781	31650
640.841	23908
640.901	21748
640.961	22825
641.021	24268
641.082	29647
641.142	40602
641.202	27104
641.262	18531
641.322	20922
641.382	18518
641.442	20337
641.502	18236
641.562	20299
641.622	20063
641.682	22229
641.742	24307
641.802	23543
641.861	21909
641.921	22461
641.981	25777
642.041	23901
642.101	31227
642.161	22625
642.221	18046
642.280	18274
642.340	18211
642.400	18214
642.460	19680
642.519	19103
642.579	18751
642.639	19719
642.698	17185
642.758	21605
642.818	19923
642.877	19548
642.937	22251
642.997	25304
643.056	36707
643.116	23685
643.175	21857
643.235	20419
643.294	21631
643.354	24699
643.414	27401
643.473	33931
643.532	42674
643.592	59990
643.651	94781
643.711	162577
643.770	317889
643.830	770317
643.889	1621220
643.948	383128
644.008	66195
644.067	42233
644.126	31423
644.186	27486
644.245	24923
644.304	21116
644.363	22992
644.423	20387
644.482	21386
644.541	22429
644.600	22283
644.659	30197
644.719	36191
644.778	54683
644.837	89468
644.896	180090
644.955	419485
645.014	137352
645.073	33034
645.132	25997
645.191	24734
645.250	21258
645.309	23893
645.368	24110
645.427	31406
645.486	49570
645.545	82529
645.604	28958
645.663	21269
645.722	22201
645.781	24451
645.840	29642
645.898	38291
645.957	55760
646.016	86041
646.075	154079
646.134	297200
646.192	800404
646.251	1180055
646.310	175259
646.369	47505
646.427	36837
646.486	28095
646.545	23823
646.603	21261
646.662	20555
646.721	20443
646.779	19882
646.838	20932
646.896	27805
646.955	35578
647.014	52871
647.072	98548
647.131	266012
647.189	128567
647.248	22740
647.306	18866
647.365	17453
647.423	14897
647.481	16574
647.540	14719
647.598	14796
647.657	14870
647.715	14393
647.773	14265
647.832	15029
647.890	13067
647.948	14279
648.007	14175
648.065	13948
648.123	13372
648.181	15441
648.240	13397
648.298	12994
648.356	13758
648.414	14185
648.472	13717
648.531	14287
648.589	13253
648.647	13609
648.705	12848
648.763	13945
648.821	15927
648.879	15730
648.937	18945
648.995	23805
649.053	29868
649.111	44464
649.169	72097
649.227	122431
649.285	255999
649.343	729042
649.401	355956
649.459	87759
649.516	51172
649.574	24141
649.632	26392
649.690	27607
649.748	30442
649.806	38850
649.863	67953
649.921	182801
649.979	124526
650.037	21945
650.094	14099
650.152	15029
650.210	12119
650.268	13495
650.325	13689
650.383	14176
650.440	11545
650.498	12012
650.556	12098
650.613	11190
650.671	12046
650.728	12525
650.786	13661
650.843	15468
650.901	11802
650.958	11306
651.016	10450
651.073	10751
651.131	10159
651.188	10246
651.246	10531
651.303	10225
651.360	11179
651.418	9658
651.475	10471
651.532	9037
651.590	10389
651.647	9836
651.704	9719
651.762	10564
651.819	11031
651.876	10308
651.933	9333
651.990	10006
652.048	8658
652.105	10089
652.162	9674
652.219	9208
652.276	8547
652.333	9634
652.390	8000
652.448	9425
652.505	9099
652.562	9453
652.619	9262
652.676	10612
652.733	10465
652.790	8871
652.847	8230
652.904	9582
652.961	7915
653.017	8754
653.074	9968
653.131	10294
653.188	8952
653.245	9264
653.302	9039
653.359	9181
653.415	10425
653.472	9039
653.529	9925
653.586	8723
653.642	8781
653.699	9001
653.756	8732
653.813	8326
653.869	9206
653.926	8808
653.983	7867
654.039	9522
654.096	8161
654.152	9888
654.209	7609
654.266	9563
654.322	9151
654.379	11598
654.435	11925
654.492	12409
654.548	16296
654.605	25582
654.661	13206
654.717	9597
654.774	10249
654.830	9797
654.887	9387
654.943	9847
655.000	10504
655.056	9776
655.112	8836
655.168	9139
655.225	10090
655.281	11537
655.337	14158
655.394	20524
655.450	16300
655.506	14365
655.562	21676
655.618	19194
655.675	9705
655.731	9329
655.787	9083
655.843	9186
655.899	8256
655.955	9620
656.011	9016
656.067	8116
656.123	9273
656.179	10019
656.235	10572
656.291	9082
656.347	10336
656.403	9650
656.459	10053
656.515	11408
656.571	10708
656.627	10255
656.683	10034
656.739	9552
656.795	9559
656.850	10341
656.906	12295
656.962	11296
657.018	8858
657.074	9858
657.129	11786
657.185	14802
657.241	24573
657.297	16757
657.352	10666
657.408	9012
657.464	10755
657.519	9696
657.575	7638
657.630	8493
657.686	8002
657.742	8301
657.797	8239
657.853	7925
657.908	9213
657.964	7585
658.019	8353
658.075	8406
658.130	8148
658.186	7110
658.241	8002
658.297	7652
658.352	8555
658.407	8905
658.463	7824
658.518	9006
658.573	8637
658.629	6804
658.684	7905
658.739	8439
658.795	7237
658.850	8171
658.905	7455
658.960	7946
659.016	7435
659.071	8692
659.126	9105
659.181	10921
659.236	18185
659.291	18428
659.346	10952
659.401	9708
659.457	8655
659.512	7869
659.567	9948
659.622	8412
659.677	8409
659.732	8130
659.787	8535
659.842	10219
659.897	11288
659.952	8631
660.007	7916
660.061	8275
660.116	7297
660.171	7784
660.226	7365
660.281	9384
660.336	7436
660.391	8159
660.445	7160
660.500	8370
660.555	8512
660.610	7504
660.664	8458
660.719	7292
660.774	8847
660.828	8522
660.883	8701
660.938	8835
660.992	7076
661.047	8057
661.101	6907
661.156	6443
661.211	7322
661.265	7456
661.320	7499
661.374	6973
661.429	7227
661.483	7844
661.538	7147
661.592	6359
661.647	8799
661.701	8507
661.755	8014
661.810	7667
661.864	7183
661.919	7445
661.973	7646
662.027	7175
662.081	7056
662.136	7085
662.190	7615
662.244	8391
662.299	8081
662.353	7374
662.407	7884
662.461	7434
662.515	8373
662.569	8394
662.624	8252
662.678	7762
662.732	7533
662.786	7911
662.840	8316
662.894	7961
662.948	7874
663.002	7569
663.056	7541
663.110	7094
663.164	7356
663.218	7313
663.272	8554
663.326	8920
663.380	9111
663.434	8862
663.488	7245
663.542	8078
663.595	7872
663.649	7844
663.703	7360
663.757	7771
663.811	7629
663.864	7302
663.918	8696
663.972	7220
664.026	6941
664.079	7077
664.133	7552
664.187	6970
664.240	7397
664.294	7263
664.348	8144
664.401	7901
664.455	7811
664.508	7215
664.562	7753
664.615	7463
664.669	7464
664.722	7368
664.776	6837
664.829	7170
664.883	7065
664.936	7524
664.990	8036
665.043	8691
665.097	8458
665.150	10050
665.203	7852
665.257	8148
665.310	8497
665.363	8314
665.417	8785
665.470	7752
665.523	7929
665.576	8809
665.630	8351
665.683	7980
665.736	9243
665.789	8175
665.842	7780
665.895	7902
665.949	9207
666.002	8087
666.055	8150
666.108	8656
666.161	8687
666.214	8821
666.267	9193
666.320	12211
666.373	8338
666.426	8687
666.479	9102
666.532	9731
666.585	10452
666.638	11678
666.691	10480
666.744	11761
666.796	10260
666.849	10264
666.902	9841
666.955	8091
667.008	7839
667.060	7406
667.113	7575
667.166	7116
667.219	7333
667.271	8340
667.324	7895
667.377	8010
667.430	7340
667.482	8151
667.535	8758
667.587	9229
667.640	10222
667.693	11972
667.745	19206
667.798	19213
667.850	9446
667.903	8720
667.955	9199
668.008	8257
668.060	9721
668.113	9808
668.165	9516
668.218	8968
668.270	8917
668.322	8240
668.375	8248
668.427	9258
668.479	7890
668.532	9016
668.584	9023
668.636	8535
668.689	8357
668.741	7874
668.793	8760
668.845	8283
668.898	9188
668.950	8312
669.002	8985
669.054	8057
669.106	8835
669.158	10198
669.211	9592
669.263	8956
669.315	10346
669.367	9986
669.419	9586
669.471	11581
669.523	11915
669.575	14656
669.627	13537
669.679	10103
669.731	10230
669.783	11380
669.835	12292
669.886	11978
669.938	11086
669.990	11491
670.042	11177
670.094	12571
670.146	13957
670.197	16368
670.249	20524
670.301	26112
670.353	35922
670.404	51276
670.456	73175
670.508	108181
670.560	164075
670.611	259262
670.663	437204
670.715	950901
670.766	1408993
670.818	582489
670.869	125113
670.921	57430
670.972	38822
671.024	29545
671.075	23067
671.127	19608
671.178	17668
671.230	16304
671.281	15545
671.333	15248
671.384	15640
671.436	16944
671.487	19591
671.538	22811
671.590	29070
671.641	42806
671.692	66140
671.744	119600
671.795	87170
671.846	33849
671.897	20074
671.949	15698
672.000	12819
672.051	11474
672.102	10878
672.153	9511
672.204	10268
672.256	9797
672.307	9556
672.358	10152
672.409	9970
672.460	9241
672.511	8301
672.562	8608
672.613	9104
672.664	8838
672.715	9207
672.766	8562
672.817	8054
672.868	8803
672.919	7483
672.970	7286
673.021	7769
673.071	7611
673.122	7649
673.173	8751
673.224	7771
673.275	7465
673.326	7023
673.376	7046
673.427	7756
673.478	7871
673.528	8402
673.579	7776
673.630	7740
673.680	8639
673.731	7098
673.782	7102
673.832	8014
673.883	7533
673.934	7817
673.984	7973
674.035	8092
674.085	7447
674.136	8089
674.186	9095
674.237	11138
674.287	13729
674.338	9851
674.388	8135
674.438	8033
674.489	8904
674.539	8330
674.589	8195
674.640	7649
674.690	8099
674.740	8694
674.791	8794
674.841	7887
674.891	8499
674.942	7546
674.992	8270
675.042	7664
675.092	6508
675.142	6268
675.193	7227
675.243	7269
675.293	8630
675.343	7000
675.393	7157
675.443	7797
675.493	7026
675.543	5841
675.593	7598
675.643	6546
675.693	7271
675.743	7538
675.793	6714
675.843	6358
675.893	7054
675.943	6415
675.993	6896
676.043	6697
676.093	6616
676.142	5872
676.192	6265
676.242	6451
676.292	6774
676.341	6746
676.391	7461
676.441	6114
676.491	6071
676.540	5586
676.590	5981
676.640	5705
676.689	5984
676.739	5243
676.789	5953
676.838	6235
676.888	5959
676.937	5744
676.987	5635
677.037	5828
677.086	5323
677.136	5460
677.185	5278
677.235	5497
677.284	5241
677.333	5528
677.383	5347
677.432	4638
677.482	6023
677.531	5945
677.580	5850
677.630	5940
677.679	5072
677.728	6175
677.778	5639
677.827	5687
677.876	4887
677.925	5600
677.975	6359
678.024	5504
678.073	5069
678.122	6552
678.171	5520
678.220	6550
678.269	8389
678.319	7571
678.368	7104
678.417	6825
678.466	7861
678.515	6160
678.564	6486
678.613	5949
678.662	5499
678.711	6366
678.760	5902
678.809	6374
678.857	6440
678.906	6276
678.955	5971
679.004	6858
679.053	5593
679.102	5746
679.151	5952
679.199	5308
679.248	5209
679.297	6326
679.346	5666
679.394	6182
679.443	6261
679.492	5585
679.540	6267
679.589	6039
679.638	5336
679.686	5447
679.735	5498
679.784	6049
679.832	6812
679.881	6050
679.929	5197
679.978	5273
680.026	5296
680.075	5503
680.123	5424
680.172	5552
680.220	4745
680.268	5448
680.317	5216
680.365	4873
680.414	4911
680.462	5212
680.510	5658
680.559	4408
680.607	4970
680.655	5845
680.703	4700
680.752	4813
680.800	4450
680.848	4642
680.896	4468
680.945	5207
680.993	6035
681.041	5260
681.089	5575
681.137	5191
681.185	4612
681.233	5539
681.258	5324
681.281	5106
681.329	4810
681.377	5163
681.380	5176
681.425	5114
681.473	5596
681.502	5277
681.521	5022
681.569	5922
681.617	5948
681.624	5919
681.665	5634
681.713	5448
681.745	5421
681.761	5381
681.809	5371
681.857	5313
681.867	5359
681.904	5459
681.952	5297
681.989	4816
682.000	4654
682.048	4955
682.096	5624
682.111	5514
682.143	5189
682.191	5645
682.233	6054
682.239	6104
682.286	6127
682.334	4438
682.354	4537
682.382	4635
682.430	5776
682.476	5219
682.477	5192
682.525	5087
682.572	5974
682.598	5569
682.620	5203
682.667	5373
682.715	6307
682.720	6272
682.763	5818
682.810	5736
682.841	5395
682.857	5162
682.905	5055
682.952	5466
682.963	5511
683.000	5691
683.047	5697
683.085	6311
683.095	6443
683.142	5664
683.190	5840
683.206	5776
683.237	5676
683.284	5731
683.328	5855
683.332	5845
683.379	5288
683.426	4880
683.449	5374
683.473	5914
683.521	5751
683.568	5565
683.571	5617
683.615	5969
683.662	6262
683.693	6030
683.709	5916
683.757	5730
683.804	5381
683.814	5494
683.851	5805
683.898	5839
683.936	5997
683.945	6033
683.992	6275
684.039	6541
684.057	6577
684.086	6591
684.133	7075
684.179	5777
684.180	5720
684.227	6428
684.274	7064
684.300	6977
684.321	6925
684.368	6455
684.415	6378
684.422	6357
684.462	6069
684.509	6308
684.543	6092
684.556	6025
684.603	6254
684.649	6341
684.665	6442
684.696	6645
684.743	6416
684.786	6929
684.790	6965
684.837	7007
684.883	7439
684.908	7321
684.930	7158
684.977	7435
685.023	7460
685.029	7376
685.070	6631
685.117	6560
685.150	6873
685.164	7044
685.210	7631
685.257	7995
685.272	8040
685.303	7939
685.350	7202
685.393	7531
685.396	7569
685.443	8415
685.490	9161
685.514	8747
685.536	8164
685.583	7727
685.629	7387
685.636	7356
685.675	7372
685.722	7680
685.757	7937
685.768	8018
685.815	8746
685.861	7972
685.878	8017
685.908	8099
685.954	7923
686.000	8759
686.000	8772
686.047	9369
686.093	10690
686.121	10605
686.139	10268
686.185	9487
686.232	8008
686.242	8049
686.278	8241
686.324	8003
686.363	7360
686.370	7272
686.416	7538
686.463	8266
686.484	7959
686.509	7605
686.555	7614
686.601	6933
686.606	6995
686.647	7754
686.693	8193
686.727	8403
686.739	8372
686.785	8102
686.831	7765
686.848	7810
686.877	8031
686.923	7335
686.969	7297
686.969	7296
687.015	8079
687.061	8502
687.090	8457
687.107	8335
687.153	8121
687.199	7178
687.211	7263
687.245	7710
687.291	8002
687.332	8119
687.336	8125
687.382	8694
687.428	8151
687.453	8643
687.474	8870
687.520	8325
687.565	8116
687.574	7944
687.611	7732
687.657	7957
687.695	8641
687.702	8749
687.748	9306
687.794	9424
687.816	9256
687.839	8882
687.885	8623
687.931	8304
687.937	8210
687.976	7922
688.022	8521
688.058	9022
688.067	9145
688.113	8336
688.158	8624
688.179	8418
688.204	8179
688.249	8809
688.295	8620
688.300	8614
688.340	8758
688.386	9013
688.421	9245
688.431	9237
688.477	8927
688.522	8981
688.542	8874
688.567	8921
688.613	8921
688.658	9102
688.663	9108
688.703	8906
688.749	8885
688.784	8795
688.794	8833
688.839	8771
688.884	9037
688.905	9048
688.930	9016
688.975	8990
689.020	8582
689.026	8603
689.065	8861
689.110	8558
689.146	8798
689.155	8839
689.201	8724
689.246	8650
689.267	8680
689.291	8862
689.336	9205
689.381	9203
689.388	9219
689.426	9095
689.471	9070
689.509	8616
689.516	8581
689.561	9084
689.606	8970
689.630	8974
689.651	8886
689.696	8439
689.741	8820
689.750	8839
689.785	9109
689.830	9034
689.871	9150
689.875	9155
689.920	9015
689.965	9495
689.992	9051
690.010	8804
690.054	8714
690.099	9049
690.112	8953
690.144	8744
690.189	8840
690.233	8725
690.233	8736
690.278	9016
690.323	9379
690.354	9608
690.367	9647
690.412	8830
690.457	8877
690.474	9041
690.501	9325
690.546	8905
690.590	8980
690.595	8974
690.635	9004
690.680	8602
690.716	8667
690.724	8754
690.769	9181
690.813	9618
690.836	9327
690.857	9076
690.902	9525
690.946	9800
690.957	9899
690.991	10241
691.035	10391
691.077	10437
691.080	10447
691.124	10460
691.168	10539
691.198	10600
691.213	10661
691.257	10716
691.301	10295
691.318	10436
691.346	10421
691.390	9433
691.434	9461
691.439	9412
691.478	9727
691.522	10163
691.559	10309
691.567	10322
691.611	10491
691.655	10438
691.680	10498
691.699	10572
691.743	10320
691.787	10679
691.800	10683
691.831	10592
691.875	10575
691.919	10360
691.921	10335
691.964	10538
692.008	10867
692.041	11208
692.052	11260
692.096	11254
692.139	11252
692.162	11391
692.183	11488
692.227	11193
692.271	11037
692.282	11004
692.315	10871
692.359	10798
692.402	10441
692.403	10459
692.447	10921
692.490	11078
692.523	11314
692.534	11315
692.578	11575
692.622	11115
692.643	11075
692.666	10966
692.709	10862
692.753	10622
692.763	10511
692.797	10401
692.840	10462
692.884	10685
692.884	10706
692.928	10653
692.971	10826
693.004	10911
693.015	10948
693.059	10553
693.102	10855
693.124	10701
693.146	10813
693.189	11359
693.233	11855
693.245	11963
693.276	11922
693.320	11690
693.363	11445
693.365	11418
693.407	11530
693.450	11950
693.485	11748
693.493	11714
693.537	11887
693.580	12052
693.605	11981
693.624	11856
693.667	11671
693.710	11520
693.725	11385
693.753	11646
693.797	12443
693.840	13003
693.845	13042
693.883	12845
693.926	12073
693.966	11741
693.970	11720
694.013	11492
694.056	11217
694.086	10773
694.099	10808
694.142	11311
694.185	11374
694.206	11439
694.229	11656
694.272	12217
694.315	12788
694.326	12832
694.358	12998
694.401	13337
694.444	13866
694.446	13868
694.487	13875
694.530	13145
694.566	13034
694.573	12979
694.616	11902
694.659	11393
694.686	10819
694.702	10674
694.745	10657
694.787	10267
694.806	10145
694.830	10475
694.873	10804
694.916	11566
694.926	11597
694.959	11293
695.002	11154
695.044	11084
695.046	11049
695.087	11268
695.130	11659
695.166	11837
695.172	11831
695.215	11799
695.258	11509
695.286	11453
695.301	11535
695.343	11609
695.386	11783
695.406	11744
695.428	11727
695.471	11614
695.514	11733
695.526	11704
695.556	11934
695.599	12506
695.641	12590
695.646	12614
695.684	12208
695.726	11329
695.766	10939
695.769	10990
695.811	10873
695.854	11089
695.886	11206
695.896	11232
695.938	11239
695.981	11062
696.005	11031
696.023	11348
696.065	12037
696.108	12778
696.125	13012
696.150	12976
696.192	13039
696.235	12738
696.245	12759
696.277	12945
696.319	12840
696.361	12646
696.365	12613
696.404	12428
696.446	12270
696.485	11926
696.488	11979
696.530	12257
696.572	12724
696.604	13071
696.614	13025
696.656	12556
696.698	12147
696.724	11872
696.740	11944
696.783	11965
696.825	12143
696.844	12148
696.867	12173
696.909	12247
696.951	12272
696.964	12255
696.992	12358
697.034	12363
697.076	12474
697.083	12448
697.118	12763
697.160	13289
697.202	13581
697.203	13560
697.244	13452
697.286	13199
697.323	12981
697.327	12985
697.369	12640
697.411	12442
697.442	12208
697.453	12347
697.494	12768
697.536	13203
697.562	13489
697.578	13513
697.620	13393
697.661	13305
697.682	13219
697.703	13625
697.744	14429
697.786	15277
697.801	15501
697.828	15283
697.869	14883
697.911	14502
697.921	14388
697.952	14397
697.994	14300
698.035	14221
698.040	14179
698.077	13686
698.118	13081
698.160	12419
698.160	12384
698.201	12887
698.243	13320
698.279	13729
698.284	13754
698.325	13658
698.367	13519
698.399	13397
698.408	13451
698.449	13494
698.491	13617
698.518	13628
698.532	13569
698.573	13314
698.614	13060
698.638	12870
698.656	13146
698.697	13724
698.738	14288
698.757	14537
698.779	14448
698.820	14174
698.862	13919
698.877	13790
698.903	14198
698.944	14793
698.985	15394
698.996	15523
699.026	15365
699.067	15097
699.116	14741
699.235	14124
699.354	13592
699.474	13845
699.593	14793
699.713	15537
699.832	14399
699.951	15683
700.070	13805
700.190	14520
700.309	14567
700.428	15415
700.547	13605
700.667	13801
700.786	14714
700.905	13686
701.024	14630
701.143	13996
701.262	11895
701.381	13349
701.500	13746
701.619	15394
701.738	12714
701.857	12709
701.976	12085
702.095	13061
702.214	13859
702.333	14946
702.452	13652
702.571	11751
702.690	12626
702.809	12442
702.928	12530
703.047	13117
703.165	11933
703.284	12199
703.403	11493
703.522	13650
703.640	13599
703.759	17133
703.878	18627
703.997	13362
704.115	11942
704.234	13206
704.353	11885
704.471	12658
704.590	12359
704.708	11518
704.827	11556
704.946	12062
705.064	12797
705.183	12019
705.301	14394
705.420	18109
705.538	15555
705.656	14676
705.775	13043
705.893	15186
706.012	15376
706.130	14940
706.249	15144
706.367	15321
706.485	15761
706.604	15444
706.722	15657
706.840	17624
706.958	16839
707.077	14963
707.195	14329
707.313	13944
707.431	13282
707.549	12820
707.668	13037
707.786	14738
707.904	13628
708.022	12589
708.140	13204
708.258	13369
708.376	13632
708.494	12774
708.612	14414
708.730	20746
708.848	17214
708.966	17946
709.084	15699
709.202	16481
709.320	15334
709.438	17036
709.556	15645
709.674	16677
709.791	15783
709.909	15596
710.027	14909
710.145	15574
710.263	15195
710.380	15289
710.498	14444
710.616	15001
710.733	14020
710.851	15868
710.969	15627
711.086	15223
711.204	16173
711.322	15931
711.439	14888
711.557	15285
711.674	14643
711.792	15196
711.909	15264
712.027	14104
712.144	14386
712.262	14588
712.379	16069
712.497	21876
712.614	19772
712.732	18342
712.849	18147
712.966	19921
713.084	22022
713.201	18407
713.318	18487
713.436	17273
713.553	17918
713.670	19522
713.787	20743
713.905	20205
714.022	17981
714.139	18855
714.256	22272
714.373	28289
714.490	48189
714.608	130846
714.725	543344
714.842	345187
714.959	30767
715.076	20551
715.193	19288
715.310	18136
715.427	16541
715.544	15742
715.661	16378
715.778	15443
715.895	17142
716.011	17734
716.128	15873
716.245	16364
716.362	19590
716.479	18064
716.596	15279
716.713	16497
716.829	14397
716.946	14507
717.063	14258
717.180	13887
717.296	14115
717.413	14823
717.530	13649
717.646	14460
717.763	13409
717.880	13220
717.996	12974
718.113	13217
718.229	13482
718.346	13307
718.462	14324
718.579	18425
718.695	29154
718.812	19519
718.928	18722
719.045	14570
719.161	13045
719.277	13798
719.394	12785
719.510	13967
719.626	13883
719.743	18567
719.859	23760
719.975	42640
720.092	166928
720.208	249934
720.324	27438
720.440	15500
720.557	17630
720.673	25503
720.789	31936
720.905	58312
721.021	17997
721.137	13440
721.253	13805
721.369	13542
721.486	15615
721.602	19409
721.718	11812
721.834	11367
721.950	12191
722.066	12063
722.181	11091
722.297	12913
722.413	11731
722.529	11856
722.645	10907
722.761	11497
722.877	11032
722.993	11933
723.108	12354
723.224	10848
723.340	11766
723.456	10653
723.571	11266
723.687	10679
723.803	10605
723.918	10960
724.034	9869
724.150	10647
724.265	12906
724.381	26165
724.497	24526
724.612	11326
724.728	9362
724.843	11079
724.959	13030
725.074	24510
725.190	21408
725.305	11531
725.421	9766
725.536	9691
725.651	9573
725.767	8629
725.882	9863
725.997	9074
726.113	9510
726.228	9012
726.343	9036
726.459	9111
726.574	9448
726.689	8605
726.804	9096
726.920	9593
727.035	9007
727.150	8907
727.265	8631
727.380	9448
727.495	8572
727.610	9275
727.725	8507
727.841	8592
727.956	9122
728.071	11446
728.186	8740
728.301	8778
728.416	9038
728.531	8830
728.645	8489
728.760	9488
728.875	9316
728.990	9618
729.105	8146
729.220	9552
729.335	8171
729.449	8248
729.564	7420
729.679	7204
729.794	8104
729.908	9126
730.023	8215
730.138	8023
730.253	7599
730.367	7977
730.482	8373
730.596	8526
730.711	8374
730.826	8935
730.940	7942
731.055	8871
731.169	7393
731.284	7883
731.398	7800
731.513	9464
731.627	9062
731.742	10863
731.856	11117
731.970	9277
732.085	10364
732.199	15698
732.313	24404
732.428	66449
732.542	176941
732.656	68456
732.771	15119
732.885	11215
732.999	10988
733.113	11780
733.227	10549
733.342	9711
733.456	8626
733.570	8662
733.684	8972
733.798	9360
733.912	8779
734.026	7986
734.140	8483
734.254	9638
734.368	17321
734.482	16128
734.596	8361
734.710	8772
734.824	7205
734.938	8548
735.052	8981
735.166	9779
735.280	8076
735.393	8427
735.507	8714
735.621	12200
735.735	17556
735.849	9492
735.962	8522
736.076	9304
736.190	8601
736.303	12329
736.417	12969
736.531	8369
736.644	7901
736.758	7038
736.872	7423
736.985	7162
737.099	7159
737.212	7756
737.326	7623
737.439	7460
737.553	7123
737.666	7729
737.780	6282
737.893	7553
738.007	6495
738.120	7141
738.233	7201
738.347	7727
738.460	6738
738.573	7951
738.687	7161
738.800	8286
738.913	9999
739.026	7199
739.140	7048
739.253	6302
739.366	6344
739.479	6920
739.592	6521
739.705	7386
739.818	6297
739.932	6640
740.045	7463
740.158	6283
740.271	6972
740.384	6629
740.497	6660
740.610	7288
740.723	6526
740.836	7745
740.949	7741
741.062	10319
741.174	7668
741.287	7325
741.400	7142
741.513	5785
741.626	7716
741.739	7160
741.851	5619
741.964	6771
742.077	5939
742.189	6789
742.302	7997
742.415	7270
742.527	7049
742.640	6239
742.753	5408
742.865	7293
742.978	6095
743.090	5755
743.203	6023
743.316	5800
743.428	5367
743.541	5538
743.653	4875
743.766	5931
743.878	5449
743.990	7838
744.103	7203
744.215	6179
744.327	5798
744.440	8036
744.552	10919
744.664	5971
744.777	5420
744.889	5812
745.001	6346
745.113	5579
745.226	5360
745.338	6009
745.450	5860
745.562	4248
745.674	5630
745.786	5928
745.898	5634
746.010	5778
746.122	5185
746.234	5349
746.347	5845
746.459	5560
746.570	4386
746.682	5873
746.794	5902
746.906	4956
747.018	4930
747.130	4894
747.242	4692
747.354	6184
747.466	5659
747.577	5658
747.689	5202
747.801	5016
747.913	4393
748.024	5025
748.136	4461
748.248	5515
748.359	4078
748.471	4631
748.583	4715
748.694	4396
748.806	5399
748.918	6348
749.029	5291
749.141	5951
749.252	5186
749.364	7587
749.475	13045
749.587	6985
749.698	4494
749.809	4317
749.921	4261
750.032	4663
750.144	4134
750.255	4404
750.366	3607
750.478	5100
750.589	5079
750.700	4741
750.811	4999
750.923	7247
751.034	16166
751.145	11597
751.256	4402
751.367	3894
751.479	4553
751.590	3945
751.701	3598
751.812	4455
751.923	4188
752.034	3838
752.145	3961
752.256	4717
752.367	4300
752.478	5060
752.589	3429
752.700	4764
752.811	4426
752.922	5309
753.032	5869
753.143	5681
753.254	3811
753.365	4903
753.476	4097
753.586	3863
753.697	3899
753.808	4885
753.919	4148
754.029	4094
754.140	4062
754.251	4195
754.361	2871
754.472	4489
754.582	3886
754.693	4986
754.804	3998
754.914	3960
755.025	3524
755.135	3795
755.246	3618
755.356	3131
755.466	3437
755.577	3838
755.687	3956
755.798	2817
755.908	4538
756.018	3835
756.129	3812
756.239	4283
756.349	4035
756.460	4314
756.570	3991
756.680	4324
756.790	3427
756.900	4998
757.011	3819
757.121	3894
757.231	3801
757.341	3805
757.451	3088
757.561	3574
757.671	3808
757.781	4266
757.891	3990
758.001	3835
758.111	3891
758.221	4313
758.331	4646
758.441	5632
758.551	7055
758.661	5858
758.771	4530
758.880	4477
758.990	4862
759.100	3950
759.210	4367
759.320	4776
759.429	4111
759.539	4458
759.649	4709
759.758	5765
759.868	5224
759.978	5366
760.087	5321
760.197	5773
760.307	4740
760.416	4792
760.526	3765
760.635	5560
760.745	4207
760.854	5822
760.964	5848
761.073	5323
761.182	4680
761.292	5283
761.401	5258
761.511	5459
761.620	4238
761.729	4201
761.839	4125
761.948	5608
762.057	4667
762.166	4903
762.276	3332
762.385	4806
762.494	3138
762.603	3616
762.712	3842
762.822	4122
762.931	4230
763.040	3757
763.149	3233
763.258	3870
763.367	4114
763.476	4709
763.585	3516
763.694	4648
763.803	4477
763.912	4946
764.021	4093
764.130	4068
764.238	4406
764.347	4621
764.456	4382
764.565	4311
764.674	3730
764.783	4470
764.891	4091
765.000	5507
765.109	3840
765.217	5663
765.326	6598
765.435	8220
765.543	6719
765.652	6869
765.761	7981
765.869	11953
765.978	15932
766.086	32399
766.195	66324
766.303	204365
766.412	594007
766.520	330864
766.629	52110
766.737	22853
766.846	14510
766.954	11992
767.062	9999
767.171	7725
767.279	7690
767.387	5974
767.496	5990
767.604	6365
767.712	6093
767.820	5931
767.928	5236
768.037	5416
768.145	5119
768.253	5185
768.361	3247
768.469	4557
768.577	4905
768.685	5810
768.793	5596
768.901	5191
769.009	6045
769.117	4769
769.225	6408
769.333	9547
769.441	13604
769.549	27754
769.657	70656
769.765	263232
769.873	425369
769.981	77202
770.088	17351
770.196	11202
770.304	8697
770.412	8618
770.519	7084
770.627	6410
770.735	5037
770.842	5849
770.950	6024
771.058	5468
771.165	5447
771.273	5329
771.380	5469
771.488	5954
771.595	5443
771.703	5381
771.810	5753
771.918	5419
772.025	5741
772.133	5015
772.240	5545
772.348	6365
772.455	5749
772.562	5600
772.670	5509
772.777	5618
772.884	5218
772.991	5674
773.099	5337
773.206	5230
773.313	5018
773.420	5476
773.528	4110
773.635	4822
773.742	5005
773.849	5844
773.956	5430
774.063	5685
774.170	4823
774.277	6079
774.384	4890
774.491	5353
774.598	5464
774.705	6249
774.812	6704
774.919	6358
775.026	5174
775.133	4806
775.239	4900
775.346	5104
775.453	4141
775.560	4253
775.667	4996
775.773	4354
775.880	4818
775.987	4401
776.093	5071
776.200	4653
776.307	4028
776.413	4837
776.520	4499
776.627	4924
776.733	5021
776.840	4219
776.946	5595
777.053	5934
777.159	4875
777.266	3595
777.372	5399
777.478	5343
777.585	4514
777.691	3799
777.798	4623
777.904	5584
778.010	6732
778.117	5080
778.223	4019
778.329	4378
778.435	3685
778.542	5064
778.648	3199
778.754	4185
778.860	4102
778.966	4543
779.072	4704
779.178	4919
779.284	3857
779.391	4064
779.497	3410
779.603	5405
779.708	2947
779.815	5587
779.920	9697
780.026	9623
780.132	3628
780.238	3843
780.344	3711
780.450	4846
780.556	3361
780.661	3883
780.767	3765
780.873	3722
780.979	4377
781.085	3529
781.190	3722
781.296	3653
781.402	2721
781.507	3220
781.613	3340
781.719	3853
781.824	3513
781.930	3525
782.035	4141
782.141	4088
782.246	2734
782.352	3811
782.457	2513
782.563	4289
782.668	3348
782.773	2691
782.879	2948
782.984	3949
783.090	5031
783.195	7100
783.300	4488
783.405	3839
783.511	3588
783.616	3791
783.721	3232
783.826	3419
783.932	3859
784.037	4383
784.142	3521
784.247	3902
784.352	3230
784.457	4056
784.562	3421
784.667	4217
784.772	2523
784.877	2754
784.982	3627
785.087	3393
785.192	3737
785.297	3506
785.402	2968
785.507	3321
785.611	3325
785.716	3959
785.821	2714
785.926	3174
786.031	3077
786.135	3040
786.240	2850
786.345	2138
786.450	3204
786.554	2916
786.659	2393
786.763	2120
786.868	3533
786.973	3038
787.077	2103
787.182	2682
787.286	2776
787.391	3603
787.495	2153
787.600	2828
787.704	2117
787.809	3639
787.913	2373
788.017	3356
788.122	2641
788.226	2744
788.330	1896
788.435	3237
788.539	2454
788.643	2448
788.747	2238
788.852	1521
788.956	1983
789.060	2747
789.164	2499
789.268	2540
789.372	3267
789.476	2130
789.580	2426
789.684	2053
789.788	2851
789.892	2457
789.996	2782
790.100	2621
790.204	2139
790.308	3006
790.412	1856
790.516	2120
790.620	2372
790.724	2693
790.828	2294
790.931	2253
791.035	3485
791.139	2338
791.242	2045
791.346	3048
791.450	2428
791.554	2334
791.657	1524
791.761	2572
791.864	2488
791.968	2837
792.072	3069
792.175	2862
792.279	1759
792.382	2503
792.486	2828
792.589	2975
792.693	3081
792.796	1896
792.899	2608
793.003	2506
793.106	1134
793.209	3002
793.313	3516
793.416	1749
793.519	3620
793.623	5540
793.726	5882
793.829	2092
793.932	1794
794.035	2699
794.138	3070
794.242	4058
794.345	2747
794.448	3681
794.551	4898
794.654	7587
794.757	5268
794.860	3587
794.963	2788
795.066	2341
795.169	2797
795.272	2190
795.375	1942
795.477	1545
795.580	2816
795.683	1406
795.786	2138
795.889	2105
795.991	2251
796.094	2363
796.197	1384
796.300	2726
796.402	1536
796.505	1975
796.608	842
796.710	2406
796.813	1508
796.915	2207
797.018	1845
797.120	1972
797.223	329
797.326	2694
797.428	2146
797.530	1225
797.633	2427
797.735	4331
797.838	4708
797.940	4651
798.042	1165
798.145	1262
798.247	1495
798.349	712
798.452	1879
798.554	1262
798.656	1601
798.758	2852
798.860	1164
798.962	1595
799.065	879
799.167	2034
799.269	2631
799.371	3289
799.473	2640
799.575	3002
799.677	2842
799.779	4079
799.881	4057
799.983	3522
800.085	1461
800.187	1743
800.289	950
800.390	2363
800.492	1510
800.594	1968
800.696	197
800.798	2380
800.899	1141
801.001	1356
801.103	772
801.205	1543
801.306	2405
801.408	909
801.509	630
801.611	2323
801.713	1700
801.814	1038
801.916	1179
802.017	2134
802.119	-47
802.220	1947
802.322	-54
802.423	4375
802.525	1806
802.626	1383
802.727	1449
802.829	1493
802.930	-304
803.031	3315
803.133	1775
803.234	1572
803.335	736
803.436	565
803.538	1449
803.639	416
803.740	1551
803.841	915
803.942	1589
804.043	1633
804.144	484
804.245	1533
804.346	1327
804.447	1399
804.548	3542
804.649	3435
804.750	501
804.851	1408
804.952	944
805.053	1790
805.154	147
805.255	1831
805.355	1172
805.456	1277
805.557	781
805.658	721
805.758	1815
805.859	2025
805.960	900
806.061	1139
806.161	687
806.262	1871
806.362	1517
806.463	1147
806.564	1904
806.664	1148
806.765	1173
806.865	1965
806.966	874
807.066	445
807.166	1311
807.267	1088
807.367	601
807.468	1850
807.568	-684
807.668	1561
807.769	1512
807.869	1262
807.969	416
808.069	841
808.170	1309
808.270	1357
808.370	1268
808.470	3430
808.570	530
808.670	827
808.770	879
808.870	1220
808.970	600
809.070	718
809.170	98
809.271	2123
809.370	946
809.470	1601
809.570	438
809.670	-76
809.770	1320
809.870	1623
809.970	938
810.070	1015
810.169	1187
810.269	-342
810.369	1877
810.469	1202
810.568	1467
810.668	1206
810.768	677
810.867	1662
810.967	307
811.066	883
811.166	537
811.265	1428
811.365	490
811.464	1082
811.564	492
811.663	1506
811.763	89
811.862	1397
811.962	1103
812.061	1640
812.160	-328
812.260	1532
812.359	2778
812.458	4181
812.557	11618
812.657	11828
812.756	4013
812.855	1454
812.954	711
813.053	1404
813.153	1031
813.252	743
813.351	1391
813.450	786
813.549	-33
813.648	1724
813.747	116
813.846	1517
813.945	583
814.044	1594
814.143	1539
814.242	2190
814.341	239
814.439	2756
814.538	1546
814.637	1150
814.736	398
814.835	3093
814.933	940
815.032	2787
815.131	1921
815.229	2592
815.328	3829
815.427	2825
815.525	2559
815.624	2980
815.722	2180
815.821	2696
815.919	2262
816.018	2923
816.116	3607
816.215	3117
816.313	3262
816.412	3916
816.510	3265
816.609	6208
816.707	4102
816.805	4240
816.904	4190
817.002	5038
817.100	5616
817.198	6540
817.296	6162
817.395	7615
817.493	8972
817.591	10137
817.689	16087
817.787	22150
817.885	36963
817.983	69618
818.081	154702
818.179	366580
818.277	747803
818.375	461682
818.473	133397
818.571	57198
818.669	40378
818.767	36505
818.865	37284
818.963	47442
819.061	72540
819.158	132137
819.256	279798
819.354	628087
819.452	1002618
819.549	531352
819.647	175614
819.745	80744
819.842	49500
819.940	34323
820.038	24312
820.135	19884
820.233	16234
820.330	12666
820.428	9869
820.525	10601
820.623	8933
820.720	7570
820.818	6838
820.915	6723
821.012	5892
821.110	4691
821.207	5545
821.304	5218
821.402	4916
821.499	4732
821.596	4271
821.693	4657
821.791	3891
821.888	5493
821.985	8024
822.082	6014
822.179	3470
822.276	3855
822.373	2807
822.470	2207
822.567	2249
822.664	2054
822.761	3087
822.858	1804
822.955	1277
823.052	2959
823.149	1938
823.246	2142
823.343	1276
823.440	2821
823.536	1901
823.633	1958
823.730	1423
823.827	1896
823.923	1841
824.020	2741
824.117	1655
824.213	1158
824.310	1551
824.407	1896
824.503	1887
824.600	2442
824.696	1158
824.793	1674
824.889	1372
824.986	1530
825.082	779
825.179	1933
825.275	682
825.371	952
825.468	1365
825.564	206
825.660	1383
825.757	1489
825.853	1104
825.949	826
826.045	763
826.142	1037
826.238	831
826.334	2222
826.430	94
826.526	1076
826.622	691
826.718	1628
826.814	1042
826.910	1524
827.006	-466
827.102	699
827.198	1091
827.294	1302
827.390	102
827.486	1380
827.582	-12
827.678	51
827.774	1031
827.869	543
827.965	1572
828.061	922
828.157	1134
828.252	1572
828.348	-77
828.444	1608
828.539	-539
828.635	1236
828.731	1277
828.826	-675
828.922	584
829.017	784
829.113	730
829.208	812
829.304	-29
829.399	2805
829.495	55
829.590	2234
829.685	-768
829.781	916
829.876	221
829.971	484
830.066	31
830.162	1132
830.257	297
830.352	807
830.447	307
830.543	1865
830.638	-131
830.733	1442
830.828	361
830.923	587
831.018	336
831.113	1206
831.208	-627
831.303	709
831.398	633
831.493	8
831.588	595
831.683	-78
831.778	693
831.873	1302
831.967	1669
832.062	829
832.157	-723
832.252	1148
832.346	549
832.441	2301
832.536	1995
832.631	5637
832.725	3194
832.820	54
832.914	900
833.009	-97
833.104	762
833.198	1758
833.293	270
833.387	594
833.482	355
833.576	-218
833.670	1384
833.765	-206
833.859	261
833.954	1764
834.048	-21
834.142	781
834.237	-9
834.331	494
834.425	1158
834.519	89
834.613	1069
834.708	277
834.802	777
834.896	20
834.990	613
835.084	206
835.178	124
835.272	423
835.366	-741
835.460	1313
835.554	-65
835.648	1059
835.742	24
835.836	630
835.930	-925
836.024	309
836.117	1287
836.211	585
836.305	741
836.399	2096
836.493	-219
836.586	1391
836.680	-23
836.774	-54
836.867	1280
836.961	18
837.055	-366
837.148	26
837.242	300
837.335	1075
837.429	515
837.522	680
837.616	1232
837.709	3561
837.803	1493
837.896	1154
837.989	170
838.083	1874
838.176	3529
838.269	1635
838.363	892
838.456	-118
838.549	2050
838.642	2811
838.735	5469
838.829	2588
838.922	-357
839.015	524
839.108	-298
839.201	899
839.294	728
839.387	-108
839.480	55
839.573	1859
839.666	1195
839.759	735
839.852	-889
839.945	-271
840.038	-91
840.131	-516
840.223	97
840.316	1404
840.409	-336
840.502	320
840.594	311
840.687	-918
840.780	-109
840.873	-313
840.965	442
841.058	1124
841.150	3782
841.243	635
841.336	60
841.428	297
841.521	-504
841.613	166
841.706	739
841.798	451
841.890	-410
841.983	-333
842.075	374
842.167	-358
842.260	236
842.352	1914
842.444	1940
842.537	3614
842.629	4575
842.721	917
842.813	241
842.905	25
842.997	216
843.090	658
843.182	1291
843.274	4382
843.366	10386
843.458	17370
843.550	8659
843.642	609
843.734	540
843.826	1060
843.918	192
844.009	703
844.101	379
844.193	695
844.285	371
844.377	1093
844.469	178
844.560	11
844.652	41
844.744	314
844.835	305
844.927	843
845.019	737
845.110	986
845.202	38
845.293	181
845.385	-1382
845.476	456
845.568	561
845.659	390
845.751	406
845.842	304
845.934	-1161
846.025	-430
846.116	-289
846.208	640
846.299	-168
846.390	409
846.482	-77
846.573	1305
846.664	784
846.755	1789
846.846	1178
846.937	-1137
847.029	115
847.120	170
847.211	57
847.302	459
847.393	-1456
847.484	331
847.575	-132
847.666	-123
847.757	-608
847.847	18
847.938	617
848.029	-527
848.120	-175
848.211	-780
848.302	-238
848.392	-1317
848.483	-209
848.574	-1066
848.664	-1007
848.755	-307
848.846	-117
848.936	-192
849.027	618
849.118	229
849.208	88
849.299	955
849.389	2272
849.480	6455
849.570	11181
849.661	24146
849.751	32493
849.841	9271
849.932	1026
850.022	268
850.112	1075
850.203	-300
850.293	351
850.383	407
850.474	-1499
850.564	-363
850.654	-156
850.744	741
850.834	-73
850.924	222
851.014	-7
851.104	209
851.194	-320
851.284	1168
851.374	605
851.464	606
851.554	746
851.644	681
851.734	452
851.824	383
851.914	-248
852.004	374
852.094	-780
852.183	-435
852.273	361
852.363	-239
852.452	-413
852.542	155
852.632	-411
852.721	939
852.811	-794
852.901	607
852.990	-6
853.080	509
853.169	480
853.259	888
853.348	590
853.438	933
853.527	1576
853.617	3889
853.706	7906
853.795	17048
853.885	39165
853.974	71525
854.063	133811
854.152	180232
854.242	53087
854.331	7178
854.420	2358
854.509	2907
854.598	2408
854.687	1813
854.777	1341
854.866	127
854.955	589
855.044	268
855.133	129
855.222	-141
855.311	-323
855.400	1150
855.488	-984
855.577	864
855.666	-203
855.755	337
855.844	586
855.933	-300
856.021	-147
856.110	262
856.199	-1144
856.288	-286
856.376	-508
856.465	-13
856.554	152
856.642	746
856.731	-582
856.819	-312
856.908	-242
856.996	474
857.085	-656
857.173	471
857.262	-943
857.350	-110
857.438	-253
857.527	-226
857.615	-693
857.703	-224
857.792	-270
857.880	-472
857.968	-1552
858.056	647
858.145	20
858.233	-426
858.321	-1582
858.409	192
858.497	-672
858.585	-253
858.673	-355
858.761	-415
858.849	88
858.937	-129
859.025	386
859.113	346
859.201	-885
859.289	503
859.377	-1120
859.465	-254
859.552	-389
859.640	-1116
859.728	-628
859.816	64
859.903	48
859.991	-466
860.079	-742
860.166	301
860.254	-325
860.342	321
860.429	-654
860.517	-686
860.604	261
860.692	-376
860.779	-739
860.867	-419
860.954	-421
861.042	545
861.129	-494
861.216	416
861.304	-412
861.391	100
861.478	-590
861.565	-423
861.653	226
861.740	-1290
861.827	-480
861.914	-185
862.001	-414
862.089	-502
862.176	-1163
862.263	498
862.350	-501
862.437	-662
862.524	-364
862.611	131
862.698	-483
862.785	317
862.871	-307
862.958	-423
863.045	-773
863.132	140
863.219	-461
863.306	-273
863.392	806
863.479	-348
863.566	-808
863.652	213
863.739	-757
863.826	-92
863.912	-284
863.999	-1113
864.086	-792
864.172	-291
864.259	-321
864.345	-58
864.432	-428
864.518	241
864.604	-861
864.691	-406
864.777	-132
864.863	267
864.950	556
865.036	12
865.122	1226
865.209	1015
865.295	652
865.381	986
865.467	801
865.553	2460
865.639	4405
865.726	8231
865.812	18699
865.898	35431
865.984	49036
866.070	98500
866.156	86306
866.242	17539
866.328	3659
866.414	1669
866.499	2427
866.585	789
866.671	423
866.757	1859
866.843	1396
866.928	1395
867.014	215
867.100	1464
867.186	308
867.271	1781
867.357	1970
867.442	1337
867.528	1351
867.614	257
867.699	-21
867.785	1183
867.870	55
867.956	1072
868.041	761
868.127	1792
868.212	837
868.297	668
868.383	1004
868.468	2413
868.553	3654
868.639	3429
868.724	7625
868.809	5357
868.894	1460
868.979	309
869.065	13
869.150	53
869.235	-436
869.320	328
869.405	-562
869.490	454
869.575	-1184
869.660	215
869.745	1166
869.830	456
869.915	274
870.000	-24
870.085	-475
870.169	260
870.254	62
870.339	-427
870.424	-18
870.509	886
870.593	-422
870.678	298
870.763	-1005
870.847	47
870.932	282
871.016	88
871.101	-297
871.186	336
871.270	609
871.355	327
871.439	-416
871.523	392
871.608	-60
871.692	1123
871.777	-305
871.861	283
871.945	-585
872.030	545
872.114	-814
872.198	-497
872.282	-292
872.367	-399
872.451	-629
872.535	97
872.619	245
872.703	-326
872.787	-548
872.871	-198
872.955	-524
873.039	-145
873.123	-653
873.207	985
873.291	-128
873.375	370
873.459	145
873.543	-538
873.627	-1009
873.711	-878
873.794	-340
873.878	-25
873.962	-597
874.045	59
874.129	-63
874.137	-91
874.213	-371
874.245	-327
874.296	-262
874.352	-243
874.380	-230
874.460	-349
874.464	-356
874.547	-93
874.568	-135
874.631	-246
874.676	36
874.714	274
874.784	121
874.798	91
874.881	472
874.892	301
874.965	-873
874.999	-420
875.048	179
875.107	-21
875.131	-98
875.215	-300
875.215	-300
875.298	-1136
875.323	-660
875.381	504
875.430	594
875.465	658
875.538	-85
875.548	-190
875.631	346
875.646	331
875.714	195
875.753	20
875.798	-119
875.861	57
875.881	95
875.964	-1115
875.968	-1032
876.047	463
876.076	190
876.130	-239
876.183	-199
876.213	-196
876.291	612
876.296	666
876.379	-35
876.398	-36
876.462	-134
876.506	41
876.545	294
876.613	222
876.628	188
876.711	0
876.721	23
876.794	182
876.828	200
876.877	210
876.935	-259
876.960	-406
877.043	1275
877.043	1270
877.125	167
877.150	408
877.208	1004
877.258	1007
877.291	1004
877.365	1033
877.374	1032
877.456	544
877.472	559
877.539	620
877.579	224
877.622	-74
877.687	778
877.704	925
877.787	735
877.794	682
877.869	536
877.901	526
877.952	291
878.008	527
878.034	661
878.115	-368
878.117	-385
878.199	442
878.222	259
878.282	-109
878.329	619
878.364	969
878.437	577
878.447	571
878.529	222
878.544	298
878.611	419
878.651	251
878.694	176
878.758	316
878.776	344
878.858	345
878.865	335
878.941	376
878.972	471
879.023	359
879.078	-272
879.105	-372
879.185	677
879.187	691
879.269	352
879.292	355
879.351	454
879.399	16
879.433	-209
879.506	494
879.516	585
879.598	249
879.613	315
879.680	488
879.720	481
879.762	590
879.827	789
879.844	757
879.926	665
879.933	674
880.007	1278
880.040	1294
880.089	968
880.147	1632
880.171	2081
880.253	3005
880.254	3018
880.335	5168
880.360	5346
880.417	6290
880.467	10144
880.499	12381
880.574	11739
880.580	11493
880.662	3524
880.680	2685
880.744	779
880.787	501
880.825	464
880.893	601
880.907	565
880.989	668
881.000	661
881.070	1231
881.106	1269
881.152	877
881.213	33
881.233	-149
881.315	111
881.319	97
881.396	355
881.426	549
881.478	753
881.532	675
881.559	579
881.639	927
881.641	933
881.722	299
881.745	324
881.803	955
881.852	1106
881.885	1033
881.958	884
881.966	856
882.047	1113
882.064	1072
882.129	1383
882.171	1652
882.210	2001
882.277	3209
882.291	3318
882.372	1653
882.383	1530
882.454	779
882.489	865
882.535	1209
882.596	1079
882.616	1035
882.697	875
882.702	875
882.778	1129
882.808	1211
882.859	1064
882.914	1023
882.940	1098
883.020	931
883.021	935
883.102	1202
883.127	1061
883.183	1010
883.233	1329
883.264	1148
883.339	425
883.345	431
883.426	673
883.445	652
883.507	668
883.551	855
883.587	930
883.657	931
883.668	913
883.749	982
883.763	909
883.830	1122
883.869	1199
883.910	733
883.975	571
883.991	783
884.072	1312
884.081	1363
884.152	1292
884.187	1308
884.233	1282
884.292	1036
884.314	959
884.394	840
884.398	830
884.475	728
884.504	676
884.555	958
884.610	1231
884.636	1229
884.716	1253
884.716	1258
884.797	1118
884.821	1014
884.877	1246
884.927	1356
884.958	1179
885.033	932
885.038	936
885.118	720
885.139	799
885.199	1096
885.244	882
885.279	827
885.350	1055
885.359	1076
885.439	1141
885.456	1144
885.520	1101
885.561	971
885.600	891
885.667	1110
885.680	1206
885.760	1348
885.773	1428
885.840	1431
885.878	1226
885.920	1327
885.984	1505
886.000	1386
886.080	870
886.089	812
886.160	1603
886.195	1945
886.240	1701
886.300	1359
886.320	1369
886.400	1512
886.406	1509
886.480	1741
886.511	1819
886.560	1623
886.616	1367
886.640	1466
886.720	1669
886.722	1669
886.800	1431
886.827	1371
886.879	1846
886.932	2180
886.959	2073
887.038	1732
887.039	1735
887.119	1162
887.143	1080
887.198	1465
887.248	1687
887.278	1693
887.354	1515
887.358	1535
887.437	1833
887.459	1963
887.517	1944
887.564	1741
887.596	1790
887.669	2073
887.676	2087
887.755	2094
887.774	2056
887.835	1859
887.880	1893
887.914	1929
887.985	1545
887.994	1554
888.073	1877
888.090	1896
888.153	2061
888.195	2271
888.232	2304
888.300	2217
888.311	2263
888.391	2537
888.405	2581
888.470	2110
888.510	1805
888.549	1685
888.615	1430
888.628	1441
888.708	1545
888.720	1536
888.787	1331
888.825	1224
888.866	1539
888.930	2020
888.945	1973
889.024	1734
889.035	1684
889.103	2546
889.140	3005
889.182	2548
889.245	1857
889.261	1835
889.340	1679
889.349	1654
889.419	1552
889.454	1501
889.498	1580
889.559	1670
889.577	1695
889.656	1777
889.664	1779
889.735	2063
889.768	2185
889.814	1912
889.873	1537
889.978	2557
890.083	1717
890.187	1843
890.292	925
890.397	1936
890.501	1355
890.606	2434
890.710	2328
890.815	2909
890.919	2640
891.024	3079
891.128	1079
891.233	3008
891.337	2116
891.442	2127
891.546	888
891.650	2535
891.755	1500
891.859	3283
891.963	2154
892.068	2984
892.172	1530
892.276	1816
892.380	1601
892.484	2417
892.589	2005
892.693	1726
892.797	1249
892.901	1928
893.005	1549
893.109	1773
893.213	1849
893.317	2802
893.421	1633
893.525	1313
893.629	1254
893.733	2949
893.837	1527
893.941	1208
894.045	1576
894.148	1856
894.252	2076
894.356	2177
894.460	2014
894.564	2551
894.667	2046
894.771	1168
894.875	1044
894.978	1704
895.082	1215
895.186	2338
895.289	2028
895.393	2077
895.496	2080
895.600	1800
895.703	585
895.807	2325
895.910	1189
896.014	2671
896.117	853
896.221	1901
896.324	1248
896.427	1740
896.531	1957
896.634	1806
896.737	1257
896.840	1720
896.944	2414
897.047	2207
897.150	1812
897.253	2367
897.356	1584
897.460	1141
897.563	2073
897.666	1683
897.769	1501
897.872	2273
897.975	1269
898.078	1304
898.181	1746
898.284	1855
898.387	1317
898.490	2119
898.593	1312
898.695	1336
898.798	1931
898.901	1853
899.004	1502
899.107	1940
899.209	1495
899.312	2199
899.415	2097
899.518	2226
899.620	1444
899.723	1480
899.826	2397
899.928	2762
900.031	1895
900.133	991
900.236	885
900.338	1746
900.441	1436
900.543	1107
900.646	1888
900.748	1124
900.851	2150
900.953	1872
901.055	1855
901.158	1328
901.260	1519
901.362	1610
901.465	1091
901.567	1628
901.669	2170
901.771	1416
901.873	1564
901.976	2208
902.078	1926
902.180	1829
902.282	810
902.384	1669
902.486	1866
902.588	1172
902.690	1104
902.792	1191
902.894	1621
902.996	2505
903.098	1972
903.200	1157
903.302	1620
903.404	1541
903.505	1578
903.607	1786
903.709	1446
903.811	1640
903.913	1153
904.014	1588
904.116	1629
904.218	1927
904.319	1727
904.421	2018
904.523	767
904.624	920
904.726	2266
904.827	1371
904.929	1036
905.030	1582
905.132	1540
905.233	1458
905.335	1160
905.436	1861
905.537	336
905.639	2514
905.740	1328
905.841	1819
905.943	1356
906.044	2071
906.145	1760
906.247	1275
906.348	1294
906.449	2557
906.550	1076
906.651	1392
906.752	2643
906.854	1812
906.955	881
907.056	921
907.157	1773
907.258	1783
907.359	1358
907.460	981
907.561	1617
907.662	1958
907.762	1315
907.863	647
907.964	1196
908.065	1534
908.166	1019
908.267	1480
908.367	1450
908.468	1706
908.569	1530
908.670	1674
908.770	1968
908.871	2239
908.971	1469
909.072	1857
909.173	1362
909.273	1179
909.374	1710
909.474	2027
909.575	1708
909.675	1387
909.776	765
909.876	1435
909.977	1455
910.077	1827
910.177	1907
910.278	936
910.378	997
910.478	1097
910.579	1107
910.679	1586
910.779	1833
910.879	2009
910.980	1435
911.080	1750
911.180	894
911.280	1430
911.380	1398
911.480	1397
911.580	722
911.680	1418
911.780	484
911.880	1044
911.980	935
912.080	1804
912.180	1773
912.280	2071
912.380	1203
912.480	1264
912.580	1091
912.679	1469
912.779	1254
912.879	1720
912.979	825
913.078	1507
913.178	1422
913.278	1776
913.377	784
913.477	1392
913.577	1825
913.676	1740
913.776	753
913.875	1397
913.975	966
914.074	1429
914.174	1368
914.273	941
914.373	1844
914.472	2529
914.572	488
914.671	1704
914.770	447
914.870	1615
914.969	669
915.068	900
915.167	1763
915.267	994
915.366	537
915.465	1142
915.564	1106
915.663	1997
915.763	674
915.862	1163
915.961	1646
916.060	1027
916.159	1263
916.258	1325
916.357	810
916.456	1644
916.555	1648
916.654	1084
916.752	1444
916.851	1135
916.950	965
917.049	932
917.148	4
917.247	2002
917.345	1327
917.444	1262
917.543	1242
917.642	968
917.740	1311
917.839	1743
917.937	1637
918.036	2082
918.135	1958
918.233	1682
918.332	715
918.430	1038
918.529	686
918.627	646
918.726	1306
918.824	2009
918.923	1079
919.021	1090
919.119	870
919.218	1355
919.316	470
919.414	1434
919.512	1022
919.611	1981
919.709	1669
919.807	1214
919.905	1046
920.003	2150
920.102	822
920.200	1894
920.298	1044
920.396	1332
920.494	2216
920.592	1529
920.690	1263
920.788	1746
920.886	1683
920.984	1944
921.082	918
921.180	2603
921.277	2132
921.375	1901
921.473	2001
921.571	2713
921.669	1884
921.766	2448
921.864	1380
921.962	2673
922.060	1640
922.157	1582
922.255	1865
922.352	1657
922.450	2423
922.548	2131
922.645	1797
922.743	3054
922.840	4774
922.938	4903
923.035	3845
923.133	3724
923.230	2807
923.327	5221
923.425	4473
923.522	4070
923.619	3429
923.717	2676
923.814	3220
923.911	2858
924.008	3610
924.106	3546
924.203	2099
924.300	3639
924.397	3589
924.494	4384
924.591	3792
924.688	3157
924.786	3187
924.883	3844
924.979	3268
925.077	4249
925.173	3790
925.270	3029
925.367	3067
925.464	3589
925.561	4034
925.658	3982
925.755	3157
925.852	3914
925.948	4349
926.045	4132
926.142	2897
926.239	3391
926.335	3072
926.432	3666
926.529	3508
926.625	3314
926.722	2066
926.818	2705
926.915	3596
927.011	3633
927.108	2834
927.204	2995
927.301	2709
927.397	3034
927.494	2839
927.590	3588
927.687	2350
927.783	3118
927.879	2433
927.976	2275
928.072	3068
928.168	2660
928.264	2976
928.361	3355
928.457	3681
928.553	3392
928.649	3336
928.745	3091
928.841	2569
928.937	3194
929.033	2297
929.129	2876
929.225	2368
929.321	1770
929.417	2993
929.513	3125
929.609	2289
929.705	2294
929.801	2763
929.897	1950
929.993	2640
930.089	2684
930.184	2763
930.280	2484
930.376	3680
930.471	2248
930.567	2296
930.663	2667
930.758	2362
930.854	2591
930.950	1826
931.045	2307
931.141	1809
931.236	3792
931.332	2203
931.427	2220
931.523	2918
931.618	3120
931.714	2022
931.809	2438
931.905	2677
932.000	2266
932.095	1349
932.191	3176
932.286	2454
932.381	2009
932.476	1423
932.572	2938
932.667	1873
932.762	2146
932.857	1727
932.952	2492
933.047	2744
933.142	1728
933.237	2151
933.332	2301
933.427	2271
933.522	2104
933.617	1907
933.712	1886
933.807	2257
933.902	2387
933.997	2632
934.092	1937
934.187	1730
934.282	2328
934.376	2441
934.471	1723
934.566	1618
934.661	1617
934.755	1351
934.850	2492
934.945	2518
935.039	2346
935.134	3277
935.228	3076
935.323	2712
935.417	2356
935.512	1298
935.606	1562
935.701	2051
935.795	2456
935.890	2144
935.984	1851
936.079	1767
936.173	1531
936.267	1290
936.362	2293
936.456	2343
936.550	2822
936.644	1893
936.738	1743
936.833	1557
936.927	2491
937.021	1828
937.115	3012
937.209	1268
937.303	2017
937.397	1517
937.491	2160
937.585	1821
937.679	1707
937.773	1450
937.867	2647
937.961	2315
938.055	1371
938.149	1294
938.243	750
938.337	1206
938.430	1035
938.524	2827
938.618	2259
938.712	1109
938.805	2219
938.899	2056
938.993	2219
939.086	1216
939.180	1092
939.274	1068
939.367	2238
939.461	2136
939.554	2013
939.648	867
939.741	909
939.835	1127
939.928	1865
940.022	1673
940.115	1200
940.208	2316
940.302	2038
940.395	1654
940.488	1040
940.582	1896
940.675	1590
940.768	1627
940.861	1685
940.954	1912
941.048	1109
941.141	1532
941.234	1565
941.327	1588
941.420	2947
941.513	1901
941.606	1196
941.699	1782
941.792	2228
941.885	961
941.978	1747
942.071	1215
942.164	1536
942.257	1106
942.349	1334
942.442	891
942.535	685
942.628	1427
942.721	2261
942.813	654
942.906	1802
942.999	709
943.091	537
943.184	592
943.277	942
943.369	1540
943.462	940
943.554	1607
943.647	203
943.739	1746
943.832	1574
943.924	646
944.017	1398
944.109	-64
944.201	1570
944.294	1578
944.386	1482
944.478	1142
944.571	1124
944.663	920
944.755	1923
944.847	1478
944.940	1416
945.032	-19
945.124	986
945.216	1771
945.308	2210
945.400	1628
945.492	865
945.584	1076
945.676	1340
945.768	1897
945.860	2216
945.952	578
946.044	1655
946.136	1145
946.228	1691
946.320	649
946.412	711
946.503	1255
946.595	1951
946.687	735
946.779	1232
946.870	421
946.962	1529
947.054	1403
947.145	643
947.237	546
947.329	1010
947.420	181
947.512	931
947.603	353
947.695	571
947.786	375
947.878	1119
947.969	605
948.061	1411
948.152	608
948.243	202
948.335	475
948.426	737
948.517	1161
948.609	1387
948.700	329
948.791	1088
948.882	465
948.973	541
949.065	626
949.156	491
949.247	-274
949.338	1618
949.429	-3
949.520	592
949.611	-210
949.702	1015
949.793	1059
949.884	1091
949.975	551
950.066	655
950.157	744
950.247	1054
950.338	561
950.429	756
950.520	826
950.611	807
950.701	749
950.792	1196
950.883	387
950.973	675
951.064	731
951.155	985
951.245	1008
951.336	355
951.427	283
951.517	2153
951.608	1043
951.698	869
951.788	384
951.879	618
951.969	905
952.060	1663
952.150	166
952.240	1532
952.331	-1015
952.421	1567
952.511	-783
952.602	-173
952.692	-236
952.782	1065
952.872	845
952.962	585
953.052	388
953.143	569
953.233	674
953.323	673
953.413	589
953.503	1726
953.593	307
953.683	531
953.773	-296
953.863	1020
953.953	305
954.042	1510
954.132	551
954.222	1168
954.312	103
954.402	146
954.492	290
954.581	1923
954.671	-668
954.761	-189
954.850	1321
954.940	332
955.030	226
955.119	67
955.209	566
955.298	1404
955.388	1
955.477	1225
955.567	9
955.656	537
955.746	505
955.835	1046
955.925	103
956.014	-151
956.103	572
956.193	982
956.282	130
956.371	436
956.461	-527
956.550	461
956.639	171
956.728	488
956.817	1119
956.906	305
956.995	484
957.085	467
957.174	639
957.263	607
957.352	-139
957.441	356
957.530	44
957.619	493
957.708	709
957.796	446
957.885	-231
957.974	-135
958.063	405
958.152	-290
958.241	230
958.329	-13
958.418	-264
958.507	-810
958.596	490
958.684	-132
958.773	1131
958.861	617
958.950	-27
959.039	415
959.127	161
959.216	108
959.304	127
959.393	234
959.481	-96
959.570	1089
959.658	-806
959.746	39
959.835	235
959.923	1123
960.011	354
960.100	1392
960.188	-288
960.276	-5
960.365	-167
960.453	-153
960.541	-362
960.629	-187
960.717	218
960.805	-218
960.893	406
960.981	-23
961.069	979
961.158	568
961.245	619
961.333	820
961.421	-351
961.509	195
961.597	-425
961.685	62
961.773	529
961.861	-380
961.949	1300
962.036	-1048
962.124	594
962.212	-230
962.299	52
962.387	274
962.475	-428
962.562	-441
962.650	136
962.738	579
962.825	218
962.913	274
963.000	-640
963.088	253
963.175	233
963.263	688
963.350	98
963.438	-203
963.525	-918
963.612	1902
963.700	2857
963.787	4330
963.874	981
963.962	476
964.049	-485
964.136	-23
964.223	-55
964.310	189
964.398	183
964.485	-280
964.572	83
964.659	1750
964.746	-302
964.833	731
964.920	-714
965.007	120
965.094	378
965.181	145
965.268	-344
965.355	285
965.441	-217
965.528	-663
965.615	671
965.702	-93
965.789	-244
965.875	606
965.962	-636
966.049	-5
966.136	234
966.222	-773
966.309	455
966.395	-520
966.482	-543
966.569	16
966.655	-917
966.742	-253
966.828	-313
966.915	-473
967.001	-738
967.087	-316
967.174	-55
967.260	520
967.347	67
967.433	1858
967.519	2947
967.605	483
967.692	262
967.778	568
967.864	188
967.950	-392
968.036	-851
968.123	42
968.209	165
968.295	-683
968.381	701
968.467	-696
968.553	-2202
968.639	1397
968.725	-310
968.811	705
968.897	568
968.983	214
969.069	-1039
969.154	145
969.240	-182
969.326	336
969.412	-608
969.497	537
969.583	-437
969.669	500
969.755	-470
969.840	-333
969.926	662
970.012	551
970.097	862
970.183	7
970.268	-698
970.354	364
970.439	-614
970.525	1939
970.610	-605
970.696	1056
970.781	-52
970.866	-957
970.952	117
971.037	216
971.122	-251
971.208	344
971.293	74
971.378	-1506
971.463	-558
971.549	-281
971.634	44
971.719	309
971.804	-107
971.889	560
971.974	-174
972.059	-232
972.144	-698
972.229	101
972.314	-948
972.399	392
972.484	-876
972.569	787
972.654	-588
972.739	1095
972.824	-408
972.908	553
972.993	-269
973.078	-632
973.163	-201
973.247	-280
973.332	-2041
973.417	1016
973.501	-633
973.586	410
973.671	-411
973.755	-193
973.840	732
973.924	274
974.009	237
974.093	32
974.178	1277
974.262	725
974.346	-538
974.431	-142
974.515	-731
974.600	-26
974.684	-114
974.768	-152
974.852	725
974.937	-1519
975.021	509
975.105	340
975.189	112
975.273	62
975.358	-844
975.442	-792
975.526	120
975.610	-375
975.694	-1053
975.778	384
975.862	-345
975.946	-1301
976.030	1062
976.114	-627
976.198	-331
976.281	-484
976.365	-295
976.449	-231
976.533	-139
976.617	-250
976.700	-66
976.784	-378
976.868	-1426
976.951	442
977.035	-614
977.119	412
977.202	-413
977.286	39
977.369	-369
977.453	302
977.536	-940
977.620	-439
977.703	119
977.787	-1475
977.870	599
977.953	639
978.037	-1141
978.120	581
978.203	167
978.287	139
978.370	-190
978.453	122
978.536	-1084
978.620	1010
978.703	-327
978.786	-189
978.869	-209
978.952	-1019
979.035	838
979.118	-114
979.201	-1682
979.284	664
979.367	-1040
979.450	-215
979.533	-1630
979.616	-176
979.699	-1007
979.782	243
979.865	-507
979.948	-989
980.030	-1431
980.113	481
980.196	-894
980.279	56
980.361	-664
980.444	-295
980.526	-554
980.609	-372
980.692	-946
980.774	-45
980.857	-1614
980.939	82
981.022	-608
981.104	-1193
981.187	-661
981.269	428
981.352	-851
981.434	-653
981.516	-309
981.599	352
981.681	552
981.763	-827
981.846	-693
981.928	-239
982.010	-932
982.092	-558
982.174	-108
982.256	-1046
982.339	-211
982.421	-349
982.503	-270
982.585	-74
982.667	229
982.749	-121
982.831	-494
982.913	-642
982.995	162
983.077	-141
983.158	-251
983.240	-1493
983.322	-716
983.404	-266
983.486	-358
983.568	95
983.649	-408
983.731	-672
983.813	-1226
983.894	316
983.976	-1384
984.058	-285
984.139	-364
984.221	-664
984.302	129
984.384	386
984.465	-907
984.547	-546
984.628	-633
984.710	390
984.791	58
984.872	-458
984.954	-670
985.035	36
985.116	-846
985.198	-386
985.279	-458
985.360	-998
985.441	-661
985.522	-13
985.604	-1150
985.685	-2207
985.766	789
985.847	702
985.928	-543
986.009	-159
986.090	-1173
986.171	-683
986.252	-1032
986.333	-606
986.414	-1218
986.495	46
986.576	-1131
986.656	-576
986.737	-765
986.818	-1151
986.899	-531
986.980	111
987.060	-279
987.141	-591
987.222	-394
987.302	-250
987.383	115
987.464	-457
987.544	-83
987.625	-147
987.705	221
987.786	-437
987.866	-386
987.947	-813
988.027	-728
988.108	-548
988.188	116
988.268	-155
988.349	124
988.429	-1103
988.509	-308
988.589	269
988.670	-1992
988.750	447
988.830	-993
988.910	-825
988.990	-922
989.070	0
989.151	-891
989.231	-1046
989.311	-842
989.391	-281
989.471	-889
989.551	-1021
989.631	-990
989.711	-15
989.791	-1342
989.870	-1527
989.950	178
990.030	-436
990.110	-1435
990.190	-1174
990.269	-766
990.349	-708
990.429	-704
990.509	-404
990.588	-1717
990.668	194
990.747	-1118
990.827	-588
990.907	-555
990.986	-715
991.066	-627
991.145	-1065
991.225	-612
991.304	-690
991.383	-516
991.463	-697
991.542	-1242
991.622	-1174
991.701	-772
991.780	-963
991.859	-1281
991.939	-711
992.018	-1183
992.097	32
992.176	-1523
992.256	-259
992.335	-1322
992.414	-329
992.493	-1821
992.572	-530
992.651	-606
992.730	-1078
992.809	-1150
992.888	-1343
992.967	-1292
993.046	-402
993.125	-1552
993.203	-716
993.282	-895
993.361	-243
993.440	-1092
993.519	-2076
993.597	-1136
993.676	-1392
993.755	-1157
993.834	-242
993.912	-1329
993.991	1069
994.069	-1259
994.148	-621
994.226	-1185
994.305	-525
994.384	-1438
994.462	-696
994.540	-1777
994.619	-956
994.697	-611
994.776	-1363
994.854	-1000
994.932	-879
995.011	-948
995.089	-1800
995.167	-1465
995.245	-1188
995.324	-2274
995.402	-371
995.480	-1466
995.558	-1169
995.636	-1630
995.714	-1451
995.792	-1052
995.870	-1521
995.948	-1781
996.026	-1031
996.104	-1982
996.182	-136
996.260	-1993
996.338	-1289
996.416	-1930
996.494	-1791
996.572	-159
996.649	-1677
996.727	-2272
996.805	-421
996.883	-1375
996.960	-1401
997.038	-621
997.116	-1223
997.193	-2429
997.271	-1010
997.348	-2218
997.426	-1424
997.504	-2048
997.581	-684
997.658	-1007
997.736	-2492
997.813	-2642
997.891	-1334
997.968	-1413
998.046	-322
998.123	-1195
998.200	-487
998.277	-2137
998.355	-920
998.432	-2124
998.509	-1121
998.586	-841
998.663	-1232
998.741	-1615
998.818	-1447
998.895	-2309
998.972	-1172
999.049	-466
999.126	-2104
999.203	-1601
999.280	-1141
999.357	-1570
999.434	-1597
999.511	-981
999.587	-1470
999.664	-2086
999.741	-1129
999.818	-1250
999.895	-2139
999.971	-2792
1000.048	-1562
1000.125	-1036
1000.202	-1969
1000.278	-2094
1000.355	-989
1000.431	-1933
1000.508	-1393
1000.584	-1470
1000.661	-1158
1000.738	-2614
1000.814	-1474
1000.890	-1062
1000.967	-2270
1001.043	-707
1001.120	-2503
1001.196	-709
1001.272	-2013
1001.349	-1454
1001.425	-649
1001.501	-1461
1001.577	-1976
1001.654	-1072
1001.730	-1675
1001.806	-1514
1001.882	-2154
1001.958	-1221
1002.034	-1372
1002.110	-1895
1002.186	-1792
1002.262	-1564
1002.338	-2094
1002.414	-1750
1002.490	-613
1002.566	-2035
1002.642	-2083
1002.718	-878
1002.794	-1582
1002.870	-2462
1002.945	-1225
1003.021	-2330
1003.097	-1543
1003.173	-1831
1003.248	-2087
1003.324	-1378
1003.400	-1279
1003.475	-2263
1003.551	-1787
1003.626	-1421
1003.702	-1353
1003.777	-1812
1003.853	-1630
1003.928	-2217
1004.004	-1594
1004.079	-1569
1004.155	-928
1004.230	-2444
1004.305	-776
1004.381	-2422
1004.456	-1666
1004.531	-2638
1004.607	-1430
1004.682	-2073
1004.757	-1322
1004.832	-2305
1004.907	-2538
1004.982	-1252
1005.057	-2019
1005.133	-1755
1005.208	-2320
1005.283	-1961
1005.358	-789
1005.433	-1926
1005.508	-1804
1005.583	-2055
1005.657	-1697
1005.732	-1636
1005.807	-1850
1005.882	-1791
1005.957	-992
1006.032	-1685
1006.106	-1365
1006.181	-2151
1006.256	-1729
1006.331	-2576
1006.405	-1695
1006.480	-1804
1006.554	-1748
1006.629	-1229
1006.704	-1795
1006.778	-2014
1006.853	-1443
1006.927	-2557
1007.002	-1697
1007.076	-1709
1007.150	-1188
1007.225	-2621
1007.299	-2244
1007.373	-2467
1007.448	-1100
1007.522	-1779
1007.596	-1321
1007.671	-1890
1007.745	-1403
1007.819	-1896
1007.893	-1185
1007.967	-1912
1008.041	-2051
1008.115	-1630
1008.190	-2205
1008.264	-441
1008.338	-2440
1008.412	-2413
1008.486	-1711
1008.560	-1891
1008.633	-2744
1008.707	-2155
1008.781	-704
1008.855	-1447
1008.929	-2488
1009.003	-2344
1009.076	-1518
1009.150	-1480
1009.224	-1571
1009.298	-903
1009.371	-1799
1009.445	-1152
1009.519	-1736
1009.592	-2632
1009.666	-1650
1009.739	-2384
1009.813	-2046
1009.886	-1319
1009.960	-2761
1010.033	-1751
1010.107	-1561
1010.180	-3018
1010.253	-1988
1010.327	-2461
1010.400	-1788
1010.473	-1984
1010.547	-572
1010.620	-2143
1010.693	-1618
1010.766	-2519
1010.840	-1340
1010.913	-2130
1010.986	-2386
1011.059	-2110
1011.132	-2448
1011.205	-1134
1011.278	-1661
1011.351	-1921
1011.424	-1679
1011.497	-2122
1011.570	-2350
1011.643	-2558
1011.716	-2123
1011.789	-1828
1011.862	-1354
1011.934	-1301
1012.007	-2493
1012.080	-2307
1012.153	-2492
1012.225	-832
1012.298	-1859
1012.371	-2552
1012.443	-1672
1012.516	-2181
1012.588	-1204
1012.661	-2463
1012.733	-2549
1012.806	-1679
1012.879	-1718
1012.951	-1600
1013.023	-1712
1013.096	-1800
1013.168	-2322
1013.241	-1430
1013.313	-1112
1013.385	-2589
1013.458	-2573
1013.530	-955
1013.602	-2696
1013.674	-1830
1013.746	-2452
1013.819	-3374
1013.891	-1707
1013.963	-2063
1014.035	-1975
1014.107	-1683
1014.179	-1269
1014.251	-1202
1014.323	-1607
1014.395	-1982
1014.467	-1052
1014.539	-2130
1014.611	-2378
1014.683	-2049
1014.754	-1821
1014.826	-1773
1014.898	-1345
1014.970	-2706
1015.042	-1374
1015.113	-2200
1015.185	-1872
1015.257	-2750
1015.328	-1200
1015.400	-2133
1015.471	-1432
1015.543	-2480
1015.615	-1096
1015.686	-2621
1015.757	-2119
1015.829	-2238
1015.901	-1789
1015.972	-1720
1016.043	-1773
1016.115	-2544
1016.186	-1825
1016.257	-2002
1016.328	-2044
1016.400	-1108
1016.471	-2181
1016.542	-2770
1016.613	-754
1016.685	-1902
1016.756	-1009
1016.827	-1315
1016.898	-2627
1016.969	-1528
1017.040	-2397
1017.111	-2721
1017.182	-1436
1017.253	-1416
1017.324	-1866
1017.395	-2231
1017.466	-1543
1017.537	-2408
1017.608	-1628
1017.678	-2794
1017.749	-1822
1017.820	-2890
1017.891	-1987
1017.961	-1926
1018.032	-2058
1018.103	-1875
1018.173	-2063
1018.244	-1952
1018.315	-920
1018.385	-1752
1018.456	-2110
1018.526	-2576
1018.597	-1109
1018.667	-2213
1018.738	-1453
1018.808	-1256
1018.878	-1220
1018.949	-1802
1019.019	-2086
1019.089	-2107
1019.160	-1846
1019.230	-3522
1019.300	-1499
1019.371	-3203
1019.441	-1088
1019.511	-2111
1019.581	-2147
1019.651	-2099
1019.721	-1604
1019.791	-2271
1019.861	-1780
1019.931	-1280
1020.001	-2453
1020.071	-1405
1020.141	-1556
1020.211	-1512
1020.281	-1848
1020.351	-2048
1020.421	-1424
1020.491	-1964
1020.560	-2025
1020.630	-2552
1020.700	-1451
1020.770	-2487
1020.839	-2227
1020.909	-1542
1020.979	-2679
1021.048	-2217
1021.118	-1947
1021.187	-2038
1021.257	-1964
1021.326	-2049
1021.396	-1214
1021.465	-1803
1021.535	-2649
1021.604	-2884
1021.674	-2055
1021.743	-1500
1021.812	-2248
1021.882	-2723
1021.951	-1543
1022.020	-1823
1022.089	-1658
1022.159	-2101
1022.228	-1840
1022.297	-1923
1022.366	-2020
1022.435	-2112
1022.504	-1477
1022.573	-2577
1022.642	-2106
1022.711	-2070
1022.781	-1520
1022.849	-1581
1022.918	-2495
1022.987	-2380
1023.056	-1617
1023.125	-2469
1023.194	-2029
1023.263	-2162
1023.331	-1865
1023.400	-1847
1023.469	-2208
1023.538	-1852
1023.606	-2382
1023.675	-2081
1023.744	-2276
1023.812	-2390
1023.881	-1642
1023.949	-1971
1024.018	-1843
1024.086	-1724
1024.155	-1225
1024.223	-1906
1024.292	-1746
1024.360	-1704
1024.429	-1416
1024.497	-1701
1024.565	-1327
1024.634	-1751
1024.702	-1350
1024.770	-2004
1024.838	-2851
1024.907	-1569
1024.975	-2281
1025.043	-1678
1025.111	-2420
1025.179	-1680
1025.247	-2147
1025.315	-2247
1025.383	-1252
1025.451	-1800
1025.519	-1738
1025.587	-2599
1025.655	-1057
1025.723	-2342
1025.791	-2413
1025.859	-1966
1025.927	-1489
1025.995	-2810
1026.062	-1992
1026.130	-1942
1026.198	-2278
1026.266	-1924
1026.333	-1473
1026.401	-1314
1026.469	-2230
1026.536	-1570
1026.604	-2468
1026.671	-1934
1026.739	-1528
1026.806	-2674
1026.874	-1551
1026.941	-2606
1027.009	-1950
1027.076	-2346
1027.144	-1392
1027.211	-2165
1027.278	-1999
1027.345	-2300
1027.413	-2374
1027.480	-2406
1027.547	-2269
1027.614	-2004
1027.682	-1589
1027.749	-2399
1027.816	-1748
1027.883	-2467
1027.950	-1903
1028.017	-2326
1028.084	-1847
1028.151	-2343
1028.218	-2235
1028.285	-1287
1028.352	-1450
1028.419	-2453
1028.486	-2563
1028.553	-1434
1028.619	-2023
1028.686	-2378
1028.753	-1984
1028.820	-2439
1028.886	-2592
1028.953	-1844
1029.020	-1760
1029.086	-3113
1029.153	-2356
1029.220	-2303
1029.286	-2237
1029.353	-2713
1029.419	-2251
1029.486	-2501
1029.552	-2043
1029.619	-2395
1029.685	-2394
1029.751	-2631
1029.818	-916
1029.884	-2181
1029.951	-1417
1030.017	-3035
1030.083	-1435
1030.149	-2852
1030.216	-2067
1030.282	-2623
1030.348	-1779
1030.414	-3089
1030.480	-2338
1030.546	-2490
1030.612	-1849
1030.678	-2502
1030.744	-2039
1030.810	-2214
1030.876	-1845
1030.942	-2349
1031.008	-2159
1031.074	-2517
1031.140	-2136
1031.206	-1437
1031.272	-2304
1031.337	-2452
1031.403	-1989
1031.469	-2342
1031.534	-2333
1031.600	-1996
1031.666	-2411
1031.731	-2243
1031.797	-1548
1031.863	-2543
1031.928	-2680
1031.994	-2234
1032.059	-2009
1032.125	-3101
1032.190	-3160
1032.256	-3200
1032.321	-2986
1032.386	-2445
1032.452	-2150
1032.517	-2719
1032.582	-1614
1032.647	-2091
1032.713	-2346
1032.778	-2699
1032.843	-1593
1032.908	-3641
1032.974	-1802
1033.039	-2424
1033.104	-1936
1033.169	-3041
1033.234	-2079
1033.299	-2089
1033.364	-2374
1033.429	-2229
1033.494	-2467
1033.559	-2522
1033.624	-1845
1033.688	-2246
1033.753	-2466
1033.818	-2372
1033.883	-1927
1033.948	-1872
1034.013	-1500
1034.077	-1738
1034.142	-1296
1034.207	-1824
1034.271	-969
1034.336	-1186
1034.400	-752
1034.465	-1610
1034.530	-1470
1034.594	-1774
1034.658	-2364
1034.723	-2494
1034.787	-2448
1034.852	-2829
1034.916	-2437
1034.981	-2917
1035.045	-3149
1035.109	-2496
1035.173	-2121
1035.238	-2722
1035.302	-1364
1035.366	-2207
1035.430	-2165
1035.495	-2600
1035.559	-1819
1035.623	-2475
1035.687	-2264
1035.751	-2385
1035.815	-2317
1035.879	-1414
1035.943	-2351
1036.007	-2537
1036.071	-1851
1036.135	-3109
1036.198	-1961
1036.262	-2224
1036.326	-2372
1036.390	-2498
1036.454	-1723
1036.517	-2924
1036.581	-1647
1036.645	-2100
1036.709	-2065
1036.772	-2219
1036.836	-2332
1036.900	-2339
1036.963	-2245
1037.026	-2543
1037.090	-2477
1037.154	-2139
1037.217	-2077
1037.280	-2983
1037.344	-1911
1037.407	-3309
1037.471	-1878
1037.534	-2895
1037.597	-2619
1037.661	-1910
1037.724	-1642
1037.787	-2770
1037.850	-1968
1037.913	-2351
1037.977	-1728
1038.040	-2574
1038.103	-1282
1038.166	-2259
1038.229	-1495
1038.292	-2581
1038.355	-1659
1038.418	-2034
1038.481	-2179
1038.544	-3037
1038.607	-1829
1038.670	-2965
1038.732	-1999
1038.795	-2553
1038.858	-2140
1038.921	-2151
1038.984	-1943
1039.046	-2777
1039.109	-2364
1039.172	-2130
1039.234	-2679
1039.297	-2672
1039.360	-1955
1039.422	-1947
1039.485	-2440
1039.547	-3014
1039.610	-2950
1039.672	-2916
1039.734	-2299
1039.797	-2842
1039.859	-1923
1039.922	-3085
1039.984	-2144
1040.046	-2583
1040.109	-1649
1040.171	-2741
1040.233	-2512
1040.295	-3183
1040.358	-2885
1040.420	-2868
1040.482	-2200
1040.544	-2746
1040.606	-2281
1040.668	-2917
1040.730	-2566
1040.792	-2735
1040.854	-2795
1040.916	-3426
1040.978	-1998
1041.040	-2107
1041.102	-1268
1041.164	-2855
1041.225	-1528
1041.287	-3115
1041.349	-2025
1041.411	-3475
1041.472	-1921
1041.534	-1640
1041.596	-2566
1041.657	-2417
1041.719	-1289
1041.781	-3567
1041.842	-1714
1041.904	-3200
1041.965	-2932
1042.027	-2288
1042.088	-1881
1042.150	-2555
1042.211	-2331
1042.272	-2525
1042.334	-2300
1042.395	-2925
1042.456	-1921
1042.518	-2362
1042.579	-1378
1042.640	-2748
1042.701	-1915
1042.763	-2492
1042.824	-2485
1042.885	-2506
1042.946	-1692
1043.007	-2793
1043.068	-2648
1043.129	-3002
1043.190	-2758
1043.251	-2234
1043.312	-1574
1043.373	-2157
1043.434	-1912
1043.495	-2098
1043.556	-1600
1043.616	-1747
1043.677	-1688
1043.738	-1375
1043.799	-2535
1043.859	-2059
1043.920	-1808
1043.981	-2516
1044.041	-1556
1044.102	-1937
1044.162	-1902
1044.223	-2732
1044.284	-2717
1044.344	-2293
1044.405	-1969
1044.465	-2187
1044.525	-2468
1044.586	-2363
1044.646	-2267
1044.707	-1540
1044.767	-1903
1044.827	-2025
1044.887	-2002
1044.948	-1856
1045.008	-1619
1045.068	-2298
1045.128	-1565
1045.188	-2260
1045.249	-1932
1045.309	-2538
1045.369	-2194
1045.429	-2394
1045.489	-1509
1045.549	-2621
1045.609	-1497
1045.669	-3074
1045.729	-1046
1045.789	-2275
1045.848	-1906
1045.908	-2189
1045.968	-1783
1046.028	-2141
1046.088	-1157
1046.147	-1827
1046.207	-909
1046.267	-2476
1046.326	-969
1046.386	-1237
1046.446	-1582
1046.505	-1346
1046.565	-1409
1046.624	-1402
1046.684	-1221
1046.743	-749
1046.803	-958
1046.862	-1108
1046.922	0
