'Start Wavelength	183.907
'End Wavelength	1046.922
'Gate Delay	5.000
'Gate Width (ms)	1.050
'Laser Output Level	0.000
'X Position	0.000
'Y Position	0.000
'Z Position	0.000
'Grid Point Number	1.000
'Shot Number	100.000
183.907	296.000
183.977	40.000
184.047	45
184.116	-191
184.186	-292
184.256	-435
184.325	-23
184.395	-911
184.465	801
184.534	41
184.604	-1142
184.674	232
184.743	-792
184.813	187
184.883	-150
184.952	192
185.022	-526
185.092	-305
185.161	-297
185.231	-73
185.301	-164
185.370	432
185.440	-980
185.509	69
185.579	-921
185.649	-304
185.718	-295
185.788	-229
185.857	-563
185.927	-324
185.996	-575
186.066	247
186.136	-216
186.205	158
186.275	-414
186.344	290
186.414	21
186.483	-249
186.553	676
186.622	262
186.692	-454
186.761	-382
186.831	-306
186.900	-228
186.970	-334
187.039	474
187.109	-518
187.178	-257
187.248	-475
187.317	19
187.387	-372
187.456	158
187.526	-233
187.595	-359
187.664	-855
187.734	156
187.803	-258
187.873	433
187.942	-590
188.012	234
188.081	-351
188.150	360
188.220	-298
188.289	889
188.358	-617
188.428	385
188.497	-527
188.567	235
188.636	-283
188.705	-844
188.775	128
188.844	-844
188.913	432
188.983	-392
189.052	-733
189.121	-94
189.191	106
189.260	584
189.329	42
189.399	-633
189.468	-855
189.537	-173
189.606	-645
189.676	241
189.745	193
189.814	155
189.883	-296
189.953	-242
190.022	165
190.091	227
190.161	-51
190.230	780
190.299	-660
190.368	-940
190.437	-833
190.507	-333
190.576	-446
190.645	67
190.714	-1021
190.783	-694
190.853	-323
190.922	774
190.991	-196
191.060	942
191.129	-671
191.198	141
191.268	-593
191.337	89
191.406	-124
191.475	382
191.544	-741
191.613	-272
191.682	-72
191.752	146
191.821	-456
191.890	-1156
191.959	-586
192.028	-432
192.097	-505
192.166	119
192.235	-871
192.304	477
192.373	-445
192.442	88
192.511	-433
192.580	198
192.650	-68
192.719	462
192.788	98
192.857	-257
192.926	-382
192.995	240
193.064	-1075
193.133	-61
193.202	-255
193.271	2
193.340	149
193.409	639
193.478	-195
193.547	633
193.615	-202
193.684	-636
193.753	146
193.822	-599
193.891	-519
193.960	314
194.029	-795
194.098	106
194.167	-629
194.236	862
194.305	145
194.374	170
194.443	-711
194.512	-269
194.580	35
194.649	400
194.718	-298
194.787	462
194.856	-571
194.925	-435
194.994	-674
195.062	605
195.131	120
195.200	394
195.269	202
195.338	518
195.407	-204
195.475	-969
195.544	-197
195.613	-216
195.682	62
195.751	320
195.819	-340
195.888	392
195.957	-6
196.026	167
196.094	-76
196.163	-644
196.232	-226
196.301	106
196.369	-294
196.438	-112
196.507	-449
196.576	-571
196.644	-860
196.713	-143
196.782	-772
196.850	175
196.919	577
196.988	34
197.056	-346
197.125	-1
197.194	-596
197.262	344
197.331	-793
197.400	-231
197.468	-281
197.537	416
197.606	165
197.674	183
197.743	-48
197.812	445
197.880	123
197.949	-17
198.017	-450
198.086	-672
198.155	-17
198.223	-463
198.292	560
198.360	-372
198.429	-667
198.497	-213
198.566	-108
198.635	473
198.703	831
198.772	-61
198.840	97
198.909	194
198.977	-360
199.046	-430
199.114	-79
199.183	-15
199.251	-425
199.320	-521
199.388	-297
199.457	-976
199.525	-1032
199.594	-52
199.662	185
199.731	-268
199.799	219
199.867	-406
199.936	-1439
200.004	418
200.073	253
200.141	17
200.210	-447
200.278	-580
200.346	-261
200.415	-790
200.483	-750
200.552	206
200.620	-86
200.688	-108
200.757	-822
200.825	-687
200.893	211
200.962	-36
201.030	-400
201.098	-198
201.167	-116
201.235	-405
201.303	-326
201.372	-334
201.440	98
201.508	-302
201.577	-56
201.645	399
201.713	196
201.781	-276
201.850	117
201.918	210
201.986	-1013
202.055	48
202.123	-193
202.191	-127
202.259	45
202.327	20
202.396	-384
202.464	-295
202.532	-764
202.600	256
202.669	-589
202.737	-318
202.805	-125
202.873	517
202.941	82
203.009	-277
203.078	-411
203.146	190
203.214	-775
203.282	-215
203.350	59
203.418	-643
203.487	540
203.555	-582
203.623	-386
203.691	-327
203.759	-776
203.827	-640
203.895	46
203.963	39
204.031	-585
204.099	-191
204.168	-641
204.236	-33
204.304	206
204.372	163
204.440	245
204.508	-185
204.576	-1235
204.644	-515
204.712	-1051
204.780	-425
204.848	-700
204.916	-647
204.984	-696
205.052	692
205.120	-878
205.188	-1014
205.256	-911
205.324	-1169
205.392	-522
205.460	68
205.528	-1382
205.596	-330
205.664	-227
205.732	-843
205.799	-496
205.867	663
205.935	-635
206.003	316
206.071	-837
206.139	-425
206.207	-697
206.275	-787
206.343	-546
206.411	135
206.478	106
206.546	-77
206.614	-376
206.682	635
206.750	-982
206.818	-240
206.885	-201
206.953	-1106
207.021	100
207.089	37
207.157	-1310
207.225	-198
207.292	-1715
207.360	-607
207.428	-785
207.496	-375
207.563	-143
207.631	231
207.699	-308
207.767	-545
207.834	-932
207.902	45
207.970	-510
208.038	-358
208.105	-800
208.173	-8
208.241	-334
208.309	-73
208.376	-901
208.444	-375
208.512	-1235
208.579	-825
208.647	-367
208.715	-169
208.782	39
208.850	-556
208.918	-1188
208.985	187
209.053	-1027
209.120	-551
209.188	-806
209.256	-215
209.323	-1084
209.391	-570
209.459	528
209.526	269
209.594	-430
209.661	-251
209.729	-1079
209.796	-160
209.864	-754
209.932	-994
209.999	419
210.067	665
210.134	-719
210.202	-415
210.269	161
210.337	146
210.404	-386
210.472	-221
210.539	-168
210.607	-832
210.674	-518
210.742	-169
210.809	-1090
210.877	-491
210.944	496
211.012	-1356
211.079	861
211.146	-230
211.214	13
211.281	-673
211.349	-450
211.416	-796
211.484	-760
211.551	-44
211.618	428
211.686	-573
211.753	-595
211.821	406
211.888	-650
211.955	247
212.023	-187
212.090	-259
212.157	-642
212.225	-686
212.292	223
212.359	10
212.427	1784
212.494	-319
212.561	-307
212.629	-947
212.696	62
212.763	793
212.831	-421
212.898	136
212.965	-912
213.032	313
213.100	-615
213.167	-1046
213.234	370
213.301	-421
213.369	256
213.436	-403
213.503	-948
213.570	102
213.638	-392
213.705	-272
213.772	-1215
213.839	-269
213.906	277
213.973	-145
214.041	-366
214.108	306
214.175	-108
214.242	-905
214.309	-653
214.376	-495
214.444	-332
214.511	-639
214.578	-604
214.645	671
214.712	-720
214.779	-533
214.846	-1033
214.913	-846
214.980	-556
215.048	319
215.115	248
215.182	-45
215.249	-200
215.316	-1178
215.383	456
215.450	-249
215.517	358
215.584	240
215.651	-342
215.718	52
215.785	-636
215.852	-760
215.919	-168
215.986	-175
216.053	-706
216.120	-1204
216.187	-340
216.254	628
216.321	-569
216.388	-547
216.455	-1078
216.522	-739
216.589	195
216.656	146
216.722	-86
216.789	227
216.856	634
216.923	-178
216.990	-185
217.057	-523
217.124	-658
217.191	-541
217.258	279
217.324	-465
217.391	639
217.458	-396
217.525	-531
217.592	-23
217.659	-1218
217.725	1035
217.792	-792
217.859	90
217.926	-471
217.993	-191
218.059	97
218.126	-203
218.193	-202
218.260	-635
218.327	-613
218.393	-395
218.460	-1149
218.527	-1066
218.594	-397
218.660	75
218.727	777
218.794	-1160
218.860	87
218.927	-934
218.994	-745
219.061	-465
219.127	-889
219.194	-293
219.261	-478
219.327	283
219.394	-137
219.461	-986
219.527	-614
219.594	-359
219.661	-76
219.727	-705
219.794	533
219.860	-1002
219.927	59
219.994	-184
220.060	-1031
220.127	149
220.193	-922
220.260	-364
220.326	-187
220.393	-42
220.460	10
220.526	-527
220.593	-1004
220.659	1647
220.726	-586
220.792	561
220.859	-97
220.925	687
220.992	206
221.058	2331
221.125	1175
221.191	700
221.258	-709
221.324	289
221.391	-901
221.457	232
221.524	-352
221.590	511
221.657	1233
221.723	-68
221.789	-269
221.856	1735
221.922	-1519
221.989	507
222.055	-75
222.121	-1104
222.188	888
222.254	-740
222.321	-751
222.387	238
222.453	-408
222.520	-1209
222.586	-1437
222.652	-123
222.719	-1257
222.785	177
222.851	-562
222.918	-250
222.984	-240
223.050	-1085
223.116	-2000
223.183	551
223.249	-837
223.315	-895
223.382	-536
223.448	-447
223.514	-485
223.580	-34
223.647	-914
223.713	-692
223.779	-340
223.845	-359
223.911	-1183
223.978	-1057
224.044	-470
224.110	-850
224.176	-97
224.242	-359
224.309	-842
224.375	-656
224.441	-528
224.507	-892
224.573	-1567
224.639	468
224.705	-1177
224.772	-1134
224.838	-1108
224.904	393
224.970	-749
225.036	-739
225.102	-1120
225.168	0
225.234	-279
225.300	-528
225.366	-392
225.432	-420
225.499	-518
225.565	-480
225.631	-1601
225.697	-492
225.763	-155
225.829	-140
225.895	-942
225.961	-637
226.027	-576
226.093	-999
226.159	606
226.225	170
226.291	199
226.357	2007
226.423	180
226.489	592
226.554	-390
226.620	4
226.686	-513
226.752	-137
226.818	-207
226.884	2836
226.950	2899
227.016	455
227.082	-116
227.148	-267
227.214	56
227.279	312
227.345	-805
227.411	-889
227.477	-499
227.543	-198
227.609	-742
227.674	377
227.740	-1289
227.806	-12
227.872	-1121
227.938	-136
228.003	120
228.069	23
228.135	-820
228.201	382
228.267	-1198
228.332	-1216
228.398	-1509
228.464	425
228.530	-363
228.595	-203
228.661	-586
228.727	-383
228.792	921
228.858	-490
228.924	-2188
228.990	720
229.055	-1548
229.121	53
229.187	-712
229.252	-93
229.318	-853
229.384	246
229.449	-613
229.515	-1779
229.581	-1923
229.646	811
229.712	-284
229.777	-385
229.843	34
229.909	-300
229.974	-196
230.040	155
230.105	-196
230.171	-1529
230.236	-437
230.302	219
230.368	-1092
230.433	-1398
230.499	-307
230.564	650
230.630	-1079
230.695	-874
230.761	-61
230.826	-1453
230.892	95
230.957	-883
231.023	-1030
231.088	163
231.154	-780
231.219	-15
231.284	-1076
231.350	687
231.415	-998
231.481	-312
231.546	-9
231.612	-342
231.677	-1221
231.742	-704
231.808	28
231.873	-1606
231.939	-2383
232.004	71
232.069	1236
232.135	-1050
232.200	-918
232.265	-469
232.331	-962
232.396	-125
232.461	-2094
232.527	-953
232.592	-956
232.657	-1068
232.723	28
232.788	-224
232.853	-426
232.918	-253
232.984	-541
233.049	-1047
233.114	-1202
233.179	-752
233.245	1273
233.310	580
233.375	-1234
233.440	44
233.506	-1085
233.571	-728
233.636	-898
233.701	-816
233.766	-943
233.832	396
233.897	-1100
233.962	-1850
234.027	520
234.092	661
234.157	-1420
234.222	-1087
234.288	-737
234.353	728
234.418	884
234.483	736
234.548	116
234.613	-506
234.678	43
234.743	-683
234.808	2357
234.873	-958
234.938	888
235.004	-245
235.069	-1023
235.134	-830
235.199	58
235.264	-213
235.329	-2213
235.394	-196
235.459	943
235.524	-552
235.589	273
235.654	-774
235.719	-1511
235.784	579
235.849	-628
235.913	312
235.978	59
236.043	1187
236.108	-414
236.173	-342
236.238	940
236.303	-1274
236.368	-1132
236.433	307
236.498	-344
236.563	121
236.627	160
236.692	4473
236.757	2158
236.822	985
236.887	-373
236.952	696
237.017	-1130
237.081	1002
237.146	-514
237.211	1533
237.276	2765
237.341	7610
237.405	2335
237.470	286
237.535	607
237.600	370
237.664	92
237.729	-395
237.794	-809
237.859	1350
237.923	57
237.988	164
238.053	484
238.118	92
238.182	1518
238.247	3308
238.312	-509
238.376	117
238.441	-976
238.506	644
238.570	-1371
238.635	248
238.700	312
238.764	-697
238.829	667
238.893	464
238.958	-558
239.023	-218
239.087	-981
239.152	-575
239.216	-988
239.281	343
239.346	-73
239.410	-498
239.475	-723
239.539	2040
239.604	561
239.668	-167
239.733	-324
239.797	-26
239.862	253
239.926	1868
239.991	993
240.055	475
240.120	-1087
240.184	547
240.249	-940
240.313	-277
240.378	-1212
240.442	360
240.507	1658
240.571	-12
240.635	-55
240.700	1445
240.764	403
240.829	171
240.893	-1805
240.957	530
241.022	812
241.086	2945
241.151	-745
241.215	-932
241.279	727
241.344	197
241.408	52
241.472	-1421
241.537	460
241.601	-45
241.665	-1688
241.730	-1647
241.794	412
241.858	-1077
241.922	-360
241.987	-219
242.051	-1334
242.115	-784
242.179	-236
242.244	-877
242.308	17
242.372	52
242.436	-1324
242.501	-591
242.565	-1500
242.629	-255
242.693	327
242.757	-995
242.822	-1357
242.886	239
242.950	-136
243.014	-678
243.078	-478
243.142	-492
243.206	-716
243.271	-88
243.335	-1460
243.399	712
243.463	894
243.527	6495
243.591	1106
243.655	-276
243.719	-1478
243.783	1013
243.847	-88
243.911	973
243.975	-133
244.040	-826
244.104	949
244.168	-538
244.232	-1111
244.296	805
244.360	-498
244.424	-1318
244.488	-378
244.552	-63
244.615	-1821
244.679	-23
244.743	-277
244.807	-567
244.871	-125
244.935	148
244.999	-1817
245.063	-463
245.127	202
245.191	844
245.255	-603
245.319	-748
245.383	-1725
245.446	257
245.510	-1031
245.574	246
245.638	-94
245.702	-1025
245.766	695
245.829	1246
245.893	-740
245.957	-98
246.021	492
246.085	-792
246.149	-619
246.212	2665
246.276	2119
246.340	-38
246.404	587
246.467	381
246.531	-989
246.595	772
246.659	869
246.722	-1087
246.786	540
246.850	235
246.913	560
246.977	-1082
247.041	158
247.104	-235
247.168	-836
247.232	1921
247.295	2746
247.359	1784
247.423	-111
247.486	149
247.550	696
247.614	208
247.677	786
247.741	-112
247.804	-703
247.868	1013
247.932	-794
247.995	4566
248.059	517
248.122	-425
248.186	1751
248.249	1901
248.313	5448
248.376	6613
248.440	3180
248.503	-198
248.567	2211
248.630	1004
248.694	1460
248.757	2919
248.821	5903
248.884	4328
248.948	2135
249.011	5640
249.075	7168
249.138	6997
249.202	1594
249.265	1372
249.328	1211
249.392	274
249.455	1061
249.519	208
249.582	640
249.645	799
249.709	972
249.772	369
249.835	122
249.899	751
249.962	69
250.025	-77
250.089	1551
250.152	3757
250.215	884
250.279	-503
250.342	781
250.405	1294
250.468	425
250.532	233
250.595	1983
250.658	4705
250.721	12633
250.785	3555
250.848	2522
250.911	344
250.974	879
251.038	1461
251.101	4189
251.164	1480
251.227	516
251.290	846
251.354	2439
251.417	8886
251.480	10335
251.543	5107
251.606	17448
251.669	13187
251.732	4495
251.795	4741
251.859	5335
251.922	11287
251.985	7154
252.048	3643
252.111	1797
252.174	289
252.237	2662
252.300	8366
252.363	6361
252.426	17580
252.489	6556
252.552	3188
252.615	1606
252.678	3302
252.741	5936
252.804	6495
252.867	16318
252.930	10005
252.993	4551
253.056	2763
253.119	2089
253.182	1128
253.245	887
253.308	2263
253.371	710
253.434	1299
253.497	1597
253.559	4164
253.622	2578
253.685	2528
253.748	2185
253.811	1485
253.874	1201
253.937	368
254.000	237
254.062	1899
254.125	3663
254.188	3750
254.251	2441
254.314	1268
254.376	1907
254.439	2866
254.502	1897
254.565	2258
254.628	4315
254.690	1503
254.753	19
254.816	595
254.878	291
254.941	2777
255.004	2630
255.067	938
255.129	-192
255.192	630
255.255	-688
255.317	-64
255.380	283
255.443	-283
255.505	-590
255.568	-222
255.631	-419
255.693	248
255.756	-1684
255.819	966
255.881	-218
255.944	-290
256.006	-1032
256.069	-381
256.132	-1242
256.194	-197
256.257	1327
256.319	867
256.382	708
256.444	-128
256.507	146
256.569	-973
256.632	-657
256.694	-459
256.757	2326
256.819	6680
256.882	1077
256.944	164
257.007	371
257.069	543
257.132	-745
257.194	322
257.257	-469
257.319	-1377
257.381	-987
257.444	2066
257.506	6679
257.569	8946
257.631	3777
257.693	1986
257.756	350
257.818	-148
257.880	-194
257.943	26
258.005	-760
258.067	48
258.130	128
258.192	-652
258.254	433
258.317	811
258.379	-118
258.441	739
258.503	1968
258.566	2112
258.628	4151
258.690	257
258.753	50
258.815	1886
258.877	-715
258.939	-174
259.001	-282
259.064	-1116
259.126	-615
259.188	-26
259.250	-681
259.312	705
259.375	2127
259.437	1011
259.499	-585
259.561	-509
259.623	36
259.685	-624
259.747	79
259.809	2027
259.872	6214
259.934	7479
259.996	7529
260.058	1774
260.120	-743
260.182	668
260.244	-1399
260.306	-25
260.368	-657
260.430	-166
260.492	652
260.554	2709
260.616	1538
260.678	2243
260.740	5014
260.802	335
260.864	295
260.926	-1327
260.988	850
261.050	-920
261.112	615
261.174	5244
261.236	4483
261.298	1061
261.359	1875
261.421	4059
261.483	-917
261.545	612
261.607	-1394
261.669	161
261.731	250
261.793	3604
261.854	-218
261.916	335
261.978	-627
262.040	208
262.102	130
262.164	140
262.225	397
262.287	-390
262.349	408
262.411	424
262.472	617
262.534	-309
262.596	2436
262.658	991
262.719	-580
262.781	645
262.843	2247
262.904	1284
262.966	-182
263.028	267
263.090	3823
263.151	12329
263.213	3900
263.275	954
263.336	316
263.398	253
263.459	-864
263.521	-92
263.583	404
263.644	589
263.706	-231
263.767	-64
263.829	314
263.891	-52
263.952	-919
264.014	-797
264.075	-132
264.137	1276
264.198	-215
264.260	-615
264.321	-720
264.383	1071
264.444	2928
264.506	100
264.567	-1252
264.629	418
264.690	852
264.752	-252
264.813	39
264.875	-619
264.936	-182
264.998	-924
265.059	-1330
265.120	-1325
265.182	-680
265.243	2044
265.305	1472
265.366	226
265.427	-1247
265.489	60
265.550	-1687
265.611	4
265.673	-1527
265.734	-679
265.795	-62
265.857	-915
265.918	-1104
265.979	765
266.040	3581
266.102	3375
266.163	284
266.224	4
266.286	-723
266.347	-952
266.408	-704
266.469	356
266.530	-813
266.592	-863
266.653	-698
266.714	533
266.775	-296
266.836	-835
266.898	-1468
266.959	-754
267.020	-916
267.081	-147
267.142	-679
267.203	-1231
267.264	-1310
267.326	854
267.387	-1647
267.448	-1506
267.509	-962
267.570	-872
267.631	-1181
267.692	-2037
267.753	-969
267.814	-1214
267.875	324
267.936	1538
267.997	-657
268.058	-635
268.119	-912
268.180	-514
268.241	-824
268.302	-1285
268.363	-1084
268.424	-744
268.485	-658
268.546	-1526
268.607	-686
268.668	-1472
268.729	-819
268.790	-1217
268.851	-567
268.912	100
268.972	490
269.033	-454
269.094	-1240
269.155	-306
269.216	-742
269.277	-1196
269.338	-836
269.398	-576
269.459	-793
269.520	-1034
269.581	492
269.642	182
269.702	-1237
269.763	-869
269.824	-1362
269.885	-403
269.945	-179
270.006	-689
270.067	-1078
270.128	-1138
270.188	-880
270.249	-1084
270.310	-1718
270.370	-162
270.431	-855
270.492	-1685
270.553	311
270.613	-221
270.674	1445
270.734	-191
270.795	-522
270.856	-349
270.916	-535
270.977	-578
271.038	48
271.098	200
271.159	-1071
271.219	-375
271.280	-867
271.340	-986
271.401	-822
271.462	246
271.522	8
271.583	-221
271.643	-1015
271.704	223
271.764	-900
271.825	170
271.885	5208
271.946	10011
272.006	1687
272.066	2981
272.127	7482
272.187	1395
272.248	195
272.308	59
272.369	4796
272.429	2206
272.489	1210
272.550	1102
272.610	1278
272.671	922
272.731	80
272.791	1988
272.852	-289
272.912	-8
272.972	-516
273.033	-86
273.093	-878
273.153	804
273.214	-476
273.274	-200
273.334	1974
273.394	7620
273.455	554
273.515	1927
273.575	4541
273.635	2488
273.696	2440
273.756	6642
273.816	1930
273.876	625
273.936	1925
273.997	6529
274.057	1021
274.117	219
274.177	1336
274.237	7035
274.297	7785
274.358	4666
274.418	4765
274.478	4645
274.538	391
274.598	267
274.658	3487
274.718	6017
274.778	1617
274.838	220
274.898	606
274.958	8539
275.018	8224
275.078	5298
275.138	1563
275.198	-122
275.258	-640
275.318	688
275.378	553
275.438	1193
275.498	662
275.558	2947
275.618	8825
275.678	4975
275.738	2275
275.798	1385
275.858	150
275.918	-593
275.978	-553
276.038	367
276.098	17
276.157	968
276.217	2896
276.277	1467
276.337	425
276.397	-13
276.457	39
276.517	-247
276.576	-601
276.636	-1212
276.696	-660
276.756	1536
276.815	573
276.875	207
276.935	-477
276.995	54
277.055	-239
277.114	-373
277.174	-110
277.234	3537
277.293	39
277.353	2
277.413	281
277.472	-364
277.532	-134
277.592	345
277.651	1312
277.711	4578
277.771	555
277.830	5787
277.890	4359
277.950	2248
278.009	11548
278.069	4382
278.128	3496
278.188	4388
278.248	1296
278.307	4300
278.367	3527
278.426	435
278.486	-343
278.545	-743
278.605	-1611
278.664	-307
278.724	231
278.783	2284
278.843	8697
278.902	2359
278.962	893
279.021	703
279.081	793
279.140	154
279.199	-202
279.259	-368
279.318	162
279.378	990
279.437	1901
279.496	12517
279.556	34169
279.615	32559
279.675	7206
279.734	3146
279.793	4018
279.853	12159
279.912	4617
279.971	1929
280.031	507
280.090	3306
280.149	7783
280.208	4881
280.268	21972
280.327	31377
280.386	5361
280.445	3490
280.505	2870
280.564	1092
280.623	637
280.682	2059
280.742	2876
280.801	904
280.860	74
280.919	551
280.978	178
281.037	44
281.097	-1020
281.156	182
281.215	-382
281.274	-596
281.333	4315
281.392	4502
281.451	-137
281.510	-655
281.569	-309
281.628	-341
281.688	-175
281.747	-125
281.806	-216
281.865	-526
281.924	-946
281.983	-706
282.042	-557
282.101	-772
282.160	-468
282.219	-690
282.278	-1125
282.337	1349
282.396	710
282.454	75
282.513	-693
282.572	2305
282.631	2474
282.690	-35
282.749	-1024
282.808	483
282.867	20
282.926	9
282.985	-653
283.043	-587
283.102	-1594
283.161	-484
283.220	246
283.279	4985
283.338	326
283.396	-81
283.455	-293
283.514	80
283.573	180
283.631	630
283.690	-635
283.749	-445
283.808	759
283.866	1670
283.925	128
283.984	-565
284.043	32
284.101	664
284.160	-1244
284.219	-314
284.277	-253
284.336	1228
284.395	4044
284.453	5570
284.512	1332
284.570	782
284.629	321
284.688	478
284.746	339
284.805	89
284.863	1036
284.922	2122
284.981	2202
285.039	3118
285.098	6372
285.156	18716
285.215	55110
285.273	60915
285.332	25139
285.390	10597
285.449	6108
285.507	3835
285.566	2022
285.624	2357
285.683	895
285.741	1080
285.799	481
285.858	-357
285.916	-722
285.975	-691
286.033	-678
286.091	-331
286.150	-939
286.208	128
286.267	-330
286.325	159
286.383	693
286.442	413
286.500	-145
286.558	-672
286.616	-426
286.675	364
286.733	164
286.791	307
286.850	-40
286.908	710
286.966	1065
287.024	377
287.083	-69
287.141	-271
287.199	-173
287.257	329
287.315	378
287.374	-370
287.432	999
287.490	631
287.548	-1298
287.606	-335
287.664	106
287.723	-316
287.781	-209
287.839	-52
287.897	166
287.955	-498
288.013	363
288.071	3266
288.129	14393
288.187	57355
288.245	28053
288.303	5828
288.361	2234
288.419	1841
288.477	1889
288.535	319
288.593	132
288.651	-410
288.709	-985
288.767	-22
288.825	-1327
288.883	-635
288.941	-896
288.999	-803
289.057	-955
289.115	-1443
289.173	-1271
289.231	-152
289.289	-694
289.346	-613
289.404	-1880
289.462	59
289.520	-362
289.578	-558
289.636	-1574
289.694	-561
289.751	-1156
289.809	-602
289.867	-1004
289.925	-142
289.983	-129
290.040	-963
290.098	-938
290.156	-333
290.214	-789
290.271	-881
290.329	-617
290.387	-924
290.444	-1095
290.502	-1690
290.560	-828
290.617	-1175
290.675	-1391
290.733	-872
290.790	-618
290.848	-1147
290.906	-880
290.963	-342
291.021	-1103
291.078	-841
291.136	-874
291.194	1617
291.251	6522
291.309	1738
291.366	-857
291.424	-299
291.481	-747
291.539	-822
291.596	-829
291.654	-714
291.711	-935
291.769	-530
291.826	523
291.884	335
291.941	-894
291.999	-183
292.056	-1144
292.114	455
292.171	-1441
292.228	-539
292.286	-725
292.343	294
292.401	531
292.458	453
292.515	-36
292.573	-53
292.630	-339
292.687	-694
292.745	-396
292.802	-720
292.859	2737
292.917	5242
292.974	3600
293.031	720
293.089	-258
293.146	-505
293.203	-489
293.260	-573
293.318	-254
293.375	486
293.432	-623
293.489	-808
293.546	-1045
293.604	252
293.661	2173
293.718	11565
293.775	6687
293.832	1881
293.889	393
293.947	1011
294.004	306
294.061	-60
294.118	1504
294.175	6455
294.232	8771
294.289	2832
294.346	-77
294.403	-96
294.460	-242
294.517	242
294.574	-542
294.631	-200
294.688	-59
294.745	2263
294.802	13364
294.859	17354
294.916	6634
294.973	2681
295.030	1060
295.087	1289
295.144	665
295.201	591
295.258	-538
295.315	1260
295.372	3300
295.429	9822
295.486	4332
295.542	1397
295.599	4531
295.656	11412
295.713	6751
295.770	9692
295.827	3417
295.883	1847
295.940	-326
295.997	1550
296.054	1243
296.111	836
296.167	628
296.224	-278
296.281	-293
296.338	-546
296.394	-215
296.451	-32
296.508	3152
296.564	8280
296.621	5790
296.678	9651
296.734	17283
296.791	7334
296.848	1534
296.904	2367
296.961	4843
297.018	10936
297.074	8932
297.131	4135
297.187	1279
297.244	2172
297.301	9569
297.357	23559
297.414	9951
297.470	3008
297.527	986
297.583	917
297.640	240
297.696	-168
297.753	-153
297.809	122
297.866	-1587
297.922	180
297.979	-434
298.035	5
298.092	610
298.148	3861
298.204	6466
298.261	3001
298.317	3808
298.374	14395
298.430	10206
298.486	2849
298.543	617
298.599	1669
298.656	118
298.712	2144
298.768	5920
298.824	5311
298.881	1375
298.937	195
298.993	359
299.050	209
299.106	326
299.162	-112
299.218	-319
299.275	229
299.331	455
299.387	2584
299.443	10496
299.500	15060
299.556	5598
299.612	1834
299.668	1096
299.724	676
299.780	1289
299.837	1040
299.893	2030
299.949	8388
300.005	12868
300.061	10584
300.117	17878
300.173	11894
300.229	3471
300.285	2295
300.341	3792
300.397	2438
300.453	851
300.510	750
300.566	198
300.622	1060
300.678	3032
300.734	9704
300.790	10089
300.845	14417
300.901	8553
300.957	8853
301.013	9468
301.069	2427
301.125	1679
301.181	1804
301.237	1301
301.293	443
301.349	-19
301.405	753
301.461	412
301.516	188
301.572	815
301.628	1680
301.684	1835
301.740	2053
301.796	6495
301.851	4162
301.907	5789
301.963	8353
302.019	11746
302.074	37162
302.130	43314
302.186	21499
302.242	7230
302.297	3879
302.353	2787
302.409	6279
302.464	7477
302.520	5511
302.576	10666
302.631	18445
302.687	9762
302.743	3846
302.798	1141
302.854	583
302.910	90
302.965	837
303.021	2620
303.076	3640
303.132	3303
303.187	4489
303.243	3169
303.299	1138
303.354	130
303.410	130
303.465	55
303.521	152
303.576	173
303.632	1290
303.687	3387
303.743	10225
303.798	12982
303.853	4867
303.909	1288
303.964	1141
304.020	1723
304.075	3268
304.130	2789
304.186	5269
304.241	7320
304.297	5683
304.352	2537
304.358	2336
304.407	709
304.449	862
304.463	914
304.518	552
304.539	827
304.573	1271
304.629	1357
304.630	1355
304.684	1416
304.720	5500
304.739	7540
304.794	16265
304.811	14419
304.850	9976
304.902	3942
304.905	3550
304.960	2079
304.992	880
305.015	13
305.071	1213
305.083	1027
305.126	350
305.173	526
305.181	565
305.236	529
305.264	473
305.292	392
305.347	177
305.354	253
305.402	790
305.445	475
305.457	362
305.512	1118
305.535	1197
305.567	1347
305.622	2613
305.626	2657
305.678	4166
305.716	8084
305.733	9409
305.788	16336
305.807	14618
305.843	11790
305.897	11791
305.898	11772
305.953	15515
305.988	10854
306.008	8232
306.063	3586
306.078	3153
306.118	2321
306.168	1357
306.173	1276
306.228	1038
306.259	1069
306.283	1010
306.338	542
306.349	646
306.393	1154
306.440	880
306.448	853
306.503	1700
306.530	1979
306.558	2696
306.613	6473
306.620	7099
306.668	10813
306.711	12364
306.723	12321
306.778	11806
306.801	9142
306.833	6106
306.888	2001
306.892	1956
306.943	1837
306.982	1189
306.997	903
307.052	1330
307.072	998
307.107	879
307.162	2185
307.163	2205
307.217	4389
307.253	5865
307.272	6216
307.327	7279
307.343	6721
307.381	5527
307.434	3646
307.436	3679
307.491	7837
307.524	11728
307.546	12736
307.600	13113
307.614	11742
307.655	7678
307.704	3642
307.710	3436
307.765	3684
307.795	4960
307.819	6031
307.874	10502
307.885	10788
307.929	9722
307.975	5749
307.984	5379
308.038	5776
308.065	6679
308.093	11197
308.148	22563
308.156	25481
308.202	40123
308.246	56593
308.257	57192
308.312	34003
308.336	23423
308.366	16103
308.421	11156
308.426	10688
308.475	6974
308.517	4039
308.530	3334
308.585	2886
308.607	2747
308.639	2932
308.694	3946
308.697	4008
308.748	7540
308.787	12584
308.803	12913
308.857	10875
308.877	8803
308.912	6468
308.967	4710
308.967	4701
309.021	5598
309.058	7110
309.076	8880
309.130	15567
309.148	18359
309.185	36296
309.238	67185
309.239	67337
309.293	78977
309.328	73157
309.348	64741
309.402	29883
309.418	21575
309.457	13458
309.508	7714
309.511	7498
309.566	7013
309.598	7019
309.620	8299
309.674	12596
309.688	13953
309.729	13404
309.778	10783
309.783	10560
309.837	7048
309.868	5579
309.892	6530
309.946	9624
309.959	10861
310.001	14694
310.049	18896
310.055	18454
310.109	12024
310.139	7549
310.163	5668
310.218	2816
310.229	2410
310.272	2349
310.319	2753
310.326	2703
310.381	2095
310.409	2163
310.435	2287
310.489	1883
310.499	1874
310.543	1862
310.589	1715
310.598	1705
310.652	1885
310.679	1848
310.706	1616
310.760	1207
310.769	1121
310.814	980
310.859	1090
310.868	1132
310.923	1163
310.948	1270
310.977	1487
311.031	1717
311.038	1759
311.085	1388
311.128	977
311.139	1009
311.193	1270
311.218	1339
311.247	1394
311.301	1493
311.308	1500
311.356	986
311.398	613
311.410	711
311.464	1063
311.488	1241
311.518	1094
311.572	817
311.578	788
311.626	1737
311.668	2583
311.680	2532
311.734	2243
311.758	2113
311.788	1943
311.842	1675
311.847	1646
311.896	2519
311.937	3310
311.950	3202
312.004	2752
312.027	2534
312.058	2146
312.112	1477
312.117	1414
312.165	1033
312.207	715
312.297	2094
312.386	1263
312.476	903
312.566	3466
312.656	1161
312.745	641
312.835	1492
312.925	771
313.015	1302
313.104	1959
313.194	1070
313.284	863
313.374	1261
313.463	1514
313.553	1329
313.643	706
313.732	1122
313.822	1068
313.912	1267
314.001	1181
314.091	1144
314.180	1758
314.270	1893
314.360	1594
314.449	1801
314.539	1234
314.628	879
314.718	1674
314.808	1633
314.897	654
314.987	766
315.076	2141
315.166	1394
315.255	2289
315.345	2369
315.434	1792
315.524	1605
315.613	1681
315.703	2069
315.792	3105
315.881	8138
315.971	2949
316.060	4535
316.150	7015
316.239	7847
316.328	2166
316.418	906
316.507	1459
316.597	1556
316.686	1439
316.775	2872
316.865	7929
316.954	1983
317.043	1398
317.133	335
317.222	733
317.311	1569
317.400	-616
317.490	2863
317.579	1956
317.668	1338
317.757	2232
317.847	4928
317.936	14062
318.025	6677
318.114	4121
318.203	2509
318.293	3955
318.382	6738
318.471	5384
318.560	7497
318.649	17459
318.738	3094
318.828	2923
318.917	2929
319.006	2958
319.095	8913
319.184	20824
319.273	9250
319.362	5343
319.451	1609
319.540	2305
319.629	3449
319.718	6369
319.807	3377
319.896	6568
319.985	25498
320.074	7403
320.163	2532
320.252	4502
320.341	3544
320.430	2625
320.519	2939
320.608	1569
320.697	2617
320.786	2138
320.875	2013
320.964	3584
321.053	5195
321.142	6309
321.230	6223
321.319	4898
321.408	11970
321.497	5681
321.586	5155
321.675	7104
321.764	7301
321.852	4729
321.941	7226
322.030	4558
322.119	4331
322.207	12956
322.296	11422
322.385	5355
322.474	5254
322.562	14057
322.651	7619
322.740	6067
322.829	8133
322.917	10005
323.006	4988
323.095	4138
323.183	3260
323.272	4955
323.361	9488
323.449	31780
323.538	10480
323.626	22846
323.715	12875
323.804	5306
323.892	20147
323.981	9331
324.069	3575
324.158	11650
324.246	9815
324.335	3866
324.424	4513
324.512	1859
324.601	3225
324.689	7801
324.778	14937
324.866	7094
324.954	2074
325.043	1637
325.131	4514
325.220	9495
325.308	10303
325.397	6812
325.485	3996
325.574	854
325.662	954
325.750	1410
325.839	1562
325.927	1408
326.015	1454
326.104	3381
326.192	4107
326.280	2183
326.369	1904
326.457	1492
326.545	3260
326.634	1344
326.722	903
326.810	925
326.898	1568
326.987	1450
327.075	3319
327.163	3923
327.251	2571
327.340	5092
327.428	7816
327.516	1345
327.604	1557
327.692	1020
327.781	1619
327.869	3410
327.957	621
328.045	1819
328.133	1408
328.221	1623
328.309	1232
328.397	1341
328.485	2108
328.574	2296
328.662	7180
328.750	4045
328.838	2271
328.926	751
329.014	1413
329.102	1715
329.190	5400
329.278	2751
329.366	904
329.454	578
329.542	606
329.630	496
329.718	1053
329.806	73
329.893	1168
329.981	966
330.069	1215
330.157	3828
330.245	10682
330.333	4587
330.421	1426
330.509	2124
330.597	8658
330.684	5851
330.772	2452
330.860	3737
330.948	4477
331.036	1820
331.123	278
331.211	602
331.299	1402
331.387	3958
331.475	6348
331.562	1074
331.650	728
331.738	785
331.825	2301
331.913	621
332.001	161
332.089	1814
332.176	4013
332.264	11568
332.352	7907
332.439	1756
332.527	1008
332.614	931
332.702	1453
332.790	1187
332.877	4649
332.965	10628
333.052	2342
333.140	1581
333.228	3863
333.315	344
333.403	1101
333.490	5940
333.578	4701
333.665	5245
333.753	3078
333.840	951
333.928	2221
334.015	7479
334.103	9901
334.190	28899
334.278	6510
334.365	3299
334.452	2397
334.540	1066
334.627	1248
334.715	3733
334.802	7281
334.889	39007
334.977	34418
335.064	4432
335.151	1824
335.239	2270
335.326	3395
335.413	13301
335.501	16802
335.588	2468
335.675	1531
335.762	2140
335.850	4299
335.937	2573
336.024	9581
336.111	40762
336.199	16144
336.286	2214
336.373	1215
336.460	448
336.547	982
336.635	1786
336.722	1044
336.809	1137
336.896	2776
336.983	8781
337.070	19844
337.157	28966
337.245	24658
337.332	16877
337.419	2151
337.506	1647
337.593	2597
337.680	6894
337.767	20524
337.854	5738
337.941	5714
338.028	8387
338.115	2038
338.202	3829
338.289	6354
338.376	25548
338.463	7097
338.550	11647
338.637	11767
338.724	5863
338.811	7491
338.898	2417
338.984	1388
339.071	1638
339.158	1938
339.245	5227
339.332	2792
339.419	5281
339.506	5283
339.593	273
339.679	188
339.766	869
339.853	1219
339.940	3693
340.027	1073
340.113	519
340.200	556
340.287	406
340.374	1707
340.460	1931
340.547	58
340.634	2940
340.720	9285
340.807	3896
340.894	1380
340.980	943
341.067	550
341.154	881
341.240	1307
341.327	3607
341.414	1043
341.500	731
341.587	998
341.674	1206
341.760	2631
341.847	3071
341.933	863
342.020	-66
342.106	784
342.193	789
342.279	2451
342.366	1281
342.452	2563
342.539	1091
342.625	3391
342.712	8288
342.798	3573
342.885	1622
342.971	-245
343.058	957
343.144	305
343.230	927
343.317	1361
343.403	206
343.490	226
343.576	39
343.662	333
343.749	587
343.835	1894
343.921	3077
344.008	22280
344.094	48160
344.180	9472
344.267	2877
344.353	12457
344.439	13062
344.525	4175
344.612	1477
344.698	785
344.784	211
344.870	692
344.957	362
345.043	1826
345.129	192
345.215	2337
345.301	347
345.387	34
345.474	716
345.560	822
345.646	393
345.732	858
345.818	740
345.904	434
345.990	858
346.076	1656
346.162	3383
346.249	1276
346.335	838
346.421	789
346.507	3796
346.593	17562
346.679	2902
346.765	1828
346.851	11
346.937	178
347.023	956
347.108	978
347.194	545
347.280	259
347.366	993
347.452	4792
347.538	21697
347.624	15487
347.710	11884
347.796	1572
347.882	1404
347.967	953
348.053	1731
348.139	-151
348.225	76
348.311	-115
348.397	554
348.482	545
348.568	1215
348.654	519
348.740	729
348.825	-639
348.911	2652
348.997	10376
349.083	20095
349.168	2858
349.254	967
349.340	342
349.425	80
349.511	1117
349.597	1192
349.682	1674
349.768	10511
349.854	3354
349.939	1525
350.025	-154
350.110	381
350.196	-133
350.282	-121
350.367	632
350.453	1676
350.538	988
350.624	-28
350.709	1403
350.795	211
350.880	384
350.966	1910
351.051	1311
351.137	1499
351.222	1180
351.308	2968
351.393	8167
351.479	1702
351.564	63
351.649	258
351.735	581
351.820	-61
351.906	468
351.991	939
352.076	5213
352.162	8275
352.247	842
352.332	605
352.418	1690
352.503	3122
352.588	13548
352.673	9369
352.759	1303
352.844	271
352.929	1335
353.014	965
353.100	1259
353.185	2101
353.270	2957
353.355	2632
353.441	1326
353.526	305
353.611	2804
353.696	1360
353.781	2029
353.866	172
353.952	1115
354.037	1907
354.122	5982
354.207	4988
354.292	1384
354.377	560
354.462	614
354.547	-109
354.632	1428
354.717	1895
354.802	1569
354.887	872
354.972	53
355.057	780
355.142	-813
355.227	1413
355.312	1082
355.397	3398
355.482	9287
355.567	3176
355.652	3809
355.737	3928
355.822	13388
355.907	8328
355.991	1227
356.076	39
356.161	858
356.246	-476
356.331	421
356.416	2213
356.501	24465
356.585	21269
356.670	1989
356.755	2634
356.840	3649
356.924	16557
357.009	56192
357.094	18112
357.179	2917
357.263	2053
357.348	2817
357.433	2526
357.517	2110
357.602	1031
357.687	809
357.771	1547
357.856	1598
357.941	2211
358.025	11247
358.110	54859
358.195	22511
358.279	2973
358.364	1772
358.448	8088
358.533	22807
358.617	15597
358.702	16319
358.787	5214
358.871	2507
358.956	1557
359.040	579
359.125	499
359.209	670
359.294	927
359.378	1074
359.462	2256
359.547	1858
359.631	1317
359.716	-826
359.800	170
359.885	2187
359.969	-251
360.053	1621
360.138	102
360.222	790
360.306	2417
360.391	2083
360.475	2441
360.559	5004
360.644	7433
360.728	4787
360.812	13890
360.896	35534
360.981	12452
361.065	5922
361.149	1178
361.233	1818
361.318	290
361.402	624
361.486	1679
361.570	-97
361.654	1868
361.739	4655
361.823	22703
361.907	34950
361.991	4555
362.075	2156
362.159	4308
362.243	4796
362.327	2175
362.411	6226
362.495	2102
362.580	1025
362.664	1242
362.748	6
362.832	1191
362.916	569
363.000	9516
363.084	29203
363.168	40080
363.252	7799
363.336	3529
363.420	4678
363.503	19802
363.587	21039
363.671	3176
363.755	1125
363.839	3448
363.923	138
364.007	3582
364.091	3520
364.175	6193
364.258	31597
364.342	15412
364.426	18895
364.510	8610
364.594	4975
364.677	7246
364.761	31102
364.845	19506
364.929	5277
365.013	4061
365.096	3510
365.180	3672
365.264	8829
365.347	32175
365.431	11003
365.515	1612
365.598	506
365.682	2221
365.766	1551
365.849	2221
365.933	1029
366.017	3165
366.100	802
366.184	-388
366.267	1323
366.351	825
366.435	-284
366.518	-175
366.602	-69
366.685	871
366.769	94
366.852	1247
366.936	3863
367.019	1383
367.103	235
367.186	4789
367.270	766
367.353	-941
367.436	844
367.520	60
367.603	1142
367.687	-37
367.770	2487
367.853	2454
367.937	9080
368.020	13091
368.104	2033
368.187	2773
368.270	3853
368.353	2854
368.437	5901
368.520	17039
368.603	7682
368.687	9208
368.770	15801
368.853	2851
368.936	4007
369.020	3566
369.103	548
369.186	-218
369.269	360
369.352	2678
369.436	2854
369.519	1333
369.602	-782
369.685	2064
369.768	-278
369.851	1006
369.934	74
370.018	815
370.101	2055
370.184	3681
370.267	1881
370.350	2908
370.433	4961
370.516	15823
370.599	19091
370.682	3113
370.765	9172
370.848	11653
370.931	21972
371.014	7997
371.097	-103
371.180	1544
371.263	833
371.346	-1421
371.429	417
371.511	-142
371.594	1300
371.677	4240
371.760	4227
371.843	2299
371.926	19186
372.009	43087
372.091	13595
372.174	8257
372.257	23617
372.340	6574
372.423	5210
372.505	7342
372.588	2416
372.671	7574
372.754	21422
372.836	9747
372.919	8459
373.002	17494
373.085	3153
373.167	3834
373.250	8998
373.332	21265
373.415	30966
373.498	60879
373.580	19608
373.663	30229
373.746	37589
373.828	7188
373.911	3385
373.993	3511
374.076	17641
374.159	15557
374.241	6496
374.324	17761
374.406	12427
374.489	19080
374.571	52395
374.654	18555
374.736	9672
374.819	31872
374.901	46339
374.983	44095
375.066	7431
375.148	3116
375.231	14617
375.313	27777
375.395	8246
375.478	1007
375.560	937
375.643	1860
375.725	8421
375.807	41720
375.890	33070
375.972	13658
376.054	7144
376.136	14192
376.219	4861
376.301	10982
376.383	32261
376.465	10780
376.548	5879
376.630	8605
376.712	26965
376.794	10399
376.877	748
376.959	-597
377.041	505
377.123	3266
377.205	3623
377.287	-300
377.369	759
377.452	-22
377.534	671
377.616	-219
377.698	-291
377.780	-377
377.862	1019
377.944	1698
378.026	-814
378.108	60
378.190	-666
378.272	507
378.354	-344
378.436	-170
378.518	902
378.600	5560
378.682	6154
378.764	11750
378.846	9127
378.928	2308
379.010	2549
379.091	1747
379.173	260
379.255	-389
379.337	582
379.419	5332
379.501	18606
379.583	5940
379.664	1275
379.746	2905
379.828	12630
379.910	15493
379.991	12639
380.073	1507
380.155	669
380.237	98
380.318	-276
380.400	24
380.482	2597
380.564	2836
380.645	3352
380.727	2884
380.809	1396
380.890	-16
380.972	-127
381.053	-144
381.135	1822
381.217	2936
381.298	12778
381.380	5260
381.461	4744
381.543	28433
381.624	30325
381.706	4588
381.787	2195
381.869	3445
381.951	11655
382.032	47701
382.113	30334
382.195	3461
382.276	4456
382.358	8990
382.439	23953
382.521	28607
382.602	45841
382.684	17634
382.765	32608
382.846	30084
382.928	38281
383.009	18281
383.090	13337
383.172	54078
383.253	80223
383.334	29099
383.416	37688
383.497	17394
383.578	6143
383.659	11046
383.741	46074
383.822	122170
383.903	57202
383.984	22322
384.066	43828
384.147	22996
384.228	4755
384.309	3335
384.390	1610
384.471	409
384.553	1138
384.634	3131
384.715	3356
384.796	371
384.877	1266
384.958	10993
385.039	10941
385.120	3706
385.201	2243
385.282	2393
385.363	3547
385.444	1466
385.525	5087
385.606	19077
385.687	15525
385.768	3572
385.849	3779
385.930	22762
386.011	38452
386.092	8345
386.173	1081
386.254	1410
386.335	1330
386.416	1479
386.496	6904
386.577	11517
386.658	3492
386.739	2005
386.820	2509
386.901	450
386.981	1511
387.062	1064
387.143	1806
387.224	10957
387.304	10599
387.385	4280
387.466	844
387.547	3023
387.627	683
387.708	4411
387.789	23573
387.869	26346
387.950	6658
388.031	152
388.111	-1058
388.192	4554
388.273	7361
388.353	2851
388.434	1432
388.514	4013
388.595	24071
388.676	27694
388.756	10653
388.837	10847
388.917	5133
388.998	-644
389.078	972
389.159	830
389.239	-1228
389.320	2386
389.400	-92
389.480	5657
389.561	13077
389.641	6209
389.722	1168
389.802	2079
389.883	5719
389.963	17452
390.043	9250
390.124	2915
390.204	4219
390.284	12630
390.365	7123
390.445	11604
390.525	21409
390.605	15236
390.686	4150
390.766	2019
390.846	1898
390.927	-275
391.007	-759
391.087	1620
391.167	833
391.247	-1017
391.328	3458
391.408	4403
391.488	2252
391.568	-632
391.648	1169
391.728	2232
391.808	1742
391.888	1208
391.969	6872
392.049	10286
392.129	5083
392.209	5473
392.289	16238
392.369	7675
392.449	7119
392.529	4260
392.609	3823
392.689	4961
392.769	15711
392.849	11138
392.929	10503
393.009	22914
393.089	14355
393.169	13850
393.248	43010
393.328	176432
393.408	176057
393.488	42466
393.568	10869
393.648	5463
393.728	2231
393.807	1016
393.887	2302
393.967	1699
394.047	833
394.127	2578
394.206	4303
394.286	18810
394.366	93767
394.446	90428
394.525	16572
394.605	3029
394.685	3665
394.764	10949
394.844	18766
394.924	11569
395.003	2929
395.083	2001
395.163	1354
395.242	892
395.322	1274
395.402	-396
395.481	2650
395.561	6643
395.640	20350
395.720	14298
395.799	22776
395.879	15702
395.958	6665
396.038	26605
396.117	121316
396.197	121645
396.276	28975
396.356	8372
396.435	6450
396.515	5167
396.594	4486
396.673	11532
396.753	50231
396.832	160591
396.912	108268
396.991	23371
397.070	6148
397.150	1290
397.229	2493
397.308	3361
397.388	4587
397.467	2092
397.546	1354
397.625	-1526
397.705	2492
397.784	1135
397.863	-31
397.942	210
398.022	527
398.101	5624
398.180	20992
398.259	9038
398.338	1911
398.417	976
398.497	247
398.576	1353
398.655	-983
398.734	-232
398.813	98
398.892	5708
398.971	22179
399.050	8305
399.129	-152
399.208	337
399.287	118
399.366	-1105
399.445	-597
399.524	223
399.603	-1340
399.682	862
399.761	6025
399.840	24377
399.919	17279
399.998	797
400.077	-912
400.156	-1678
400.235	1706
400.313	-614
400.392	-390
400.471	5875
400.550	8932
400.629	561
400.708	1000
400.786	-163
400.865	3985
400.944	3962
401.023	1820
401.102	-1437
401.180	-103
401.259	-329
401.338	-492
401.416	595
401.495	-473
401.574	189
401.652	-532
401.731	794
401.810	-476
401.888	-683
401.967	-980
402.046	-1252
402.124	617
402.203	-579
402.281	541
402.360	-289
402.438	5502
402.517	1751
402.596	217
402.674	156
402.753	-42
402.831	130
402.910	-278
402.988	4893
403.066	17998
403.145	9048
403.223	6177
403.302	13295
403.380	10728
403.459	9797
403.537	2110
403.615	171
403.694	-1233
403.772	-66
403.850	151
403.929	-1193
404.007	-488
404.085	1636
404.164	548
404.242	-528
404.320	859
404.398	1210
404.477	6180
404.555	35265
404.633	26939
404.711	2865
404.789	831
404.868	-578
404.946	-1351
405.024	-653
405.102	-1649
405.180	-794
405.258	-2076
405.336	33
405.415	-1499
405.493	856
405.571	445
405.649	-1288
405.727	-1891
405.805	679
405.883	116
405.961	492
406.039	782
406.117	-1274
406.195	937
406.273	6342
406.351	29946
406.429	15551
406.507	1679
406.585	-667
406.663	-137
406.740	-36
406.818	-870
406.896	-1087
406.974	58
407.052	1202
407.130	16842
407.208	21514
407.285	4031
407.363	-989
407.441	-308
407.519	-748
407.596	-221
407.674	2119
407.752	9498
407.830	9438
407.907	3096
407.985	-712
408.063	-367
408.141	-1312
408.218	784
408.296	-939
408.373	-421
408.451	119
408.529	-424
408.606	-1348
408.684	-879
408.762	-1032
408.839	-524
408.917	-992
408.994	-616
409.072	-2483
409.149	-1077
409.227	-699
409.304	-463
409.382	-311
409.459	-667
409.537	395
409.614	-162
409.692	-442
409.769	-602
409.846	700
409.924	2185
410.001	-1340
410.079	-306
410.156	525
410.233	-1220
410.311	-687
410.388	-1159
410.465	238
410.543	-1073
410.620	-267
410.697	-195
410.775	-827
410.852	-1910
410.929	-117
411.006	45
411.083	-870
411.161	747
411.238	1554
411.315	-836
411.392	-1611
411.469	904
411.547	-120
411.624	-2012
411.701	-1174
411.778	-703
411.855	714
411.932	-1399
412.009	-1353
412.086	-761
412.163	-324
412.240	-285
412.317	260
412.394	-562
412.471	-364
412.548	-1206
412.625	-1556
412.702	-475
412.779	704
412.856	191
412.933	-1573
413.010	-1035
413.087	184
413.164	4731
413.241	7424
413.318	-34
413.395	614
413.471	802
413.548	-286
413.625	-522
413.702	-1112
413.779	-974
413.855	-1287
413.932	-1439
414.009	-1553
414.086	-2249
414.162	-1047
414.239	-169
414.316	5304
414.393	13184
414.469	2528
414.546	-1404
414.623	-1262
414.699	-756
414.776	-1355
414.853	-509
414.929	-601
415.006	-1145
415.082	-491
415.159	-729
415.236	-690
415.312	-207
415.389	-220
415.465	135
415.542	-583
415.618	-1750
415.695	-393
415.771	-857
415.848	-150
415.924	-377
416.000	-1059
416.077	-96
416.153	-1359
416.230	-1899
416.306	-1954
416.383	-1339
416.459	-495
416.535	-1950
416.612	-1341
416.688	-1279
416.764	-950
416.841	-921
416.917	-1215
416.993	-937
417.069	-373
417.146	-830
417.222	-722
417.298	-577
417.374	-1248
417.451	-313
417.527	-1072
417.603	-1211
417.679	-888
417.755	-1123
417.831	-1298
417.908	-923
417.984	-1268
418.060	-1593
418.136	518
418.212	933
418.288	-718
418.364	-741
418.440	-1344
418.516	-449
418.592	-66
418.668	2154
418.744	2318
418.820	1714
418.896	-1659
418.972	-1857
419.048	-262
419.124	474
419.200	-1387
419.276	-766
419.352	-1571
419.428	-554
419.504	-689
419.579	-1314
419.655	-1341
419.731	-1226
419.807	769
419.883	3660
419.959	1381
420.034	74
420.110	769
420.186	7072
420.262	6255
420.337	-467
420.413	-1177
420.489	-995
420.565	143
420.640	-954
420.716	120
420.792	-1448
420.867	-380
420.943	-1269
421.019	-795
421.094	-1124
421.170	-881
421.245	-1108
421.321	-681
421.397	-908
421.472	1065
421.548	3786
421.623	2911
421.699	-242
421.774	299
421.850	228
421.925	901
422.001	485
422.076	-1301
422.152	-487
422.227	1326
422.302	2124
422.378	3129
422.453	7514
422.529	21782
422.604	70796
422.679	120221
422.755	72599
422.830	21886
422.905	7034
422.981	3251
423.056	1918
423.131	1511
423.207	692
423.282	-99
423.357	2362
423.432	299
423.508	1920
423.583	3907
423.658	2579
423.733	521
423.808	713
423.883	1111
423.959	-188
424.034	-188
424.109	53
424.184	-1400
424.259	-1002
424.334	-903
424.409	-1310
424.484	-278
424.559	-204
424.634	-1248
424.709	129
424.784	949
424.859	-704
424.934	137
425.009	5874
425.084	10535
425.159	1854
425.234	-335
425.309	-2213
425.384	-329
425.459	-927
425.534	-578
425.609	-1152
425.683	-1781
425.758	-797
425.833	-582
425.908	-387
425.983	2672
426.058	11855
426.132	3974
426.207	154
426.282	1758
426.357	500
426.431	-443
426.506	-333
426.581	-782
426.655	-278
426.730	-801
426.805	-1264
426.879	75
426.954	-41
427.029	1753
427.103	10355
427.178	28575
427.253	11160
427.327	588
427.402	190
427.476	1946
427.551	-371
427.625	-685
427.700	350
427.774	-491
427.849	99
427.923	-925
427.998	-589
428.072	-585
428.147	2000
428.221	8702
428.296	24548
428.370	10910
428.444	167
428.519	1347
428.593	5097
428.667	3669
428.742	5401
428.816	5474
428.890	17486
428.965	24815
429.039	8154
429.113	6072
429.188	1018
429.262	-501
429.336	979
429.410	6044
429.485	4353
429.559	4613
429.633	2771
429.707	58
429.781	3278
429.855	20989
429.930	30594
430.004	18320
430.078	27870
430.152	24255
430.226	35944
430.300	34186
430.374	3471
430.448	1719
430.522	7990
430.596	26134
430.670	16561
430.744	31886
430.818	44174
430.892	8531
430.966	606
431.040	-574
431.114	-1033
431.188	-1278
431.262	-960
431.336	-903
431.410	2238
431.484	6602
431.557	5373
431.631	-574
431.705	-366
431.779	3437
431.853	22601
431.927	15342
432.000	683
432.074	-139
432.148	-379
432.222	1
432.295	-135
432.369	-1124
432.443	331
432.516	12592
432.590	31281
432.664	12604
432.737	125
432.811	-1118
432.885	-1509
432.958	-322
433.032	-1371
433.106	-1520
433.179	-827
433.253	-1286
433.326	-1211
433.400	-1896
433.473	-1488
433.547	-1908
433.620	-1029
433.694	-884
433.767	40
433.841	-884
433.914	-1313
433.988	-1183
434.061	-1401
434.134	-451
434.208	-1408
434.281	-1533
434.355	-1564
434.428	-723
434.501	-1478
434.575	-1509
434.648	-1566
434.721	-1575
434.795	-1804
434.868	-1865
434.941	-1926
435.014	-1555
435.088	-1475
435.161	-1125
435.234	-64
435.307	708
435.381	-321
435.454	-595
435.527	172
435.600	237
435.673	-566
435.746	-866
435.819	-810
435.892	-1772
435.966	-1618
436.039	-1477
436.112	-546
436.185	-2023
436.258	-1100
436.331	-1733
436.404	-1340
436.477	-1335
436.550	-1446
436.623	-537
436.696	-1799
436.769	-1029
436.842	-1150
436.915	-543
436.987	385
437.060	-985
437.133	-1499
437.206	-1206
437.279	-632
437.352	-1368
437.425	-1346
437.498	-1080
437.570	841
437.643	-131
437.716	-1139
437.789	-981
437.861	194
437.934	5331
438.007	1512
438.080	-1939
438.152	-244
438.225	1149
438.298	18457
438.370	53349
438.443	24000
438.516	4664
438.588	563
438.661	-841
438.734	-693
438.806	-769
438.879	-12
438.951	-295
439.024	2113
439.096	-868
439.169	-946
439.241	-905
439.314	-1434
439.386	-18
439.459	1416
439.531	2580
439.604	-108
439.676	-1245
439.749	-1422
439.821	-1743
439.893	-787
439.966	-961
440.038	-202
440.110	69
440.183	-637
440.255	-1585
440.327	524
440.400	8200
440.472	35496
440.544	24844
440.617	2891
440.689	1988
440.761	3014
440.833	4816
440.905	2827
440.978	-1032
441.050	-1602
441.122	-1114
441.194	-1069
441.266	-903
441.338	-909
441.411	815
441.483	9723
441.555	17765
441.627	4464
441.699	2532
441.771	1417
441.843	-109
441.915	-1176
441.987	-961
442.059	-920
442.131	236
442.203	1196
442.275	2132
442.347	1503
442.419	3127
442.491	14136
442.563	37992
442.635	20165
442.706	11867
442.778	9756
442.850	825
442.922	-626
442.994	742
443.066	1601
443.137	664
443.209	508
443.281	1323
443.353	4763
443.425	21785
443.496	70659
443.568	73378
443.640	27890
443.711	5870
443.783	1602
443.855	352
443.926	-274
443.998	-241
444.070	1391
444.141	1305
444.213	1649
444.285	2919
444.356	1537
444.428	2024
444.499	-192
444.571	-1288
444.642	-313
444.714	442
444.785	717
444.857	3428
444.928	8686
445.000	6539
445.071	5857
445.143	8325
445.214	4174
445.285	6075
445.357	22021
445.428	57000
445.500	119237
445.571	84987
445.642	42664
445.714	20229
445.785	18913
445.856	6368
445.928	3235
445.999	2919
446.070	1936
446.141	1471
446.213	2682
446.284	172
446.355	2070
446.426	367
446.497	-83
446.569	1988
446.640	4280
446.711	2807
446.782	-104
446.853	1664
446.924	2015
446.995	800
447.066	1189
447.138	3176
447.209	1245
447.280	-916
447.351	-1117
447.422	-958
447.493	13
447.564	1616
447.635	2287
447.706	356
447.777	-1442
447.847	-376
447.918	-316
447.989	1123
448.060	2482
448.131	7866
448.202	7136
448.273	3812
448.344	1593
448.414	30
448.485	89
448.556	-220
448.627	-604
448.698	1167
448.768	-628
448.839	-271
448.910	2750
448.981	2977
449.051	782
449.122	-853
449.193	-584
449.263	-317
449.334	-465
449.405	769
449.475	3145
449.546	3097
449.616	4105
449.687	3496
449.758	-12
449.828	-442
449.899	-908
449.969	-946
450.040	-536
450.110	371
450.181	925
450.251	896
450.322	-475
450.392	59
450.463	670
450.533	-881
450.604	-226
450.674	57
450.744	-304
450.815	-975
450.885	-519
450.955	-123
451.026	-745
451.096	-552
451.166	665
451.237	5305
451.307	14210
451.377	6757
451.447	257
451.518	-454
451.588	-145
451.658	-385
451.728	2008
451.799	14676
451.869	19609
451.939	4468
452.009	331
452.079	0
452.149	260
452.219	3223
452.289	18016
452.360	15505
452.430	2937
452.500	385
452.570	1355
452.640	4569
452.710	12433
452.780	21170
452.850	14083
452.920	10300
452.990	3403
453.060	1670
453.129	2105
453.199	4208
453.269	20295
453.339	45568
453.409	70889
453.479	65358
453.549	102192
453.619	109637
453.688	50759
453.758	6972
453.828	1229
453.898	109
453.968	677
454.037	719
454.087	509
454.107	416
454.168	-7
454.177	-80
454.247	-163
454.249	-166
454.316	-628
454.330	-201
454.386	1430
454.411	4339
454.456	9075
454.492	12367
454.525	15379
454.574	8130
454.595	4990
454.655	934
454.665	289
454.734	1875
454.736	1966
454.804	4616
454.817	7392
454.873	18699
454.898	20026
454.943	22262
454.979	14353
455.013	7267
455.060	3761
455.082	2326
455.141	3382
455.152	3503
455.221	13078
455.222	13231
455.291	23334
455.303	21794
455.360	14837
455.384	15496
455.430	16308
455.465	14546
455.499	12900
455.546	15749
455.569	16885
455.627	13512
455.638	13006
455.707	2115
455.708	2115
455.777	337
455.789	445
455.846	1038
455.869	857
455.916	453
455.950	496
455.985	554
456.031	682
456.054	680
456.112	728
456.124	808
456.193	266
456.193	250
456.262	2096
456.274	2091
456.332	2047
456.355	2399
456.401	2806
456.436	2375
456.470	2074
456.516	504
456.540	-351
456.597	-868
456.609	-921
456.678	199
456.678	192
456.747	-374
456.759	-415
456.817	-280
456.840	129
456.886	563
456.920	285
456.955	377
457.001	320
457.024	239
457.082	830
457.093	997
457.162	2836
457.163	2859
457.232	4423
457.243	4049
457.301	2302
457.324	1593
457.370	349
457.405	365
457.439	609
457.485	738
457.508	687
457.566	488
457.577	473
457.646	780
457.647	792
457.715	2268
457.727	2508
457.784	3894
457.808	5459
457.853	7681
457.889	9309
457.922	10354
457.969	7297
457.991	6573
458.050	7149
458.060	7264
458.129	12881
458.130	13016
458.198	15555
458.211	14050
458.267	8315
458.292	6293
458.336	3708
458.372	2804
458.405	2966
458.453	4975
458.474	5936
458.533	11212
458.543	11809
458.611	22971
458.614	23017
458.680	18260
458.694	15179
458.749	6868
458.775	5297
458.818	2753
458.855	2319
458.887	2019
458.936	1415
458.955	1229
459.016	1418
459.024	1470
459.093	2208
459.097	2197
459.162	1661
459.177	1724
459.230	2071
459.257	2285
459.299	2487
459.338	2478
459.368	2579
459.418	3231
459.437	3244
459.499	2659
459.505	2676
459.574	1594
459.579	1649
459.643	1582
459.659	1323
459.711	928
459.740	1323
459.780	1825
459.820	1648
459.849	1486
459.900	1885
459.917	1991
459.981	1826
459.986	1825
460.054	1242
460.061	1265
460.123	1382
460.141	1556
460.191	2573
460.222	2956
460.260	2893
460.302	3352
460.328	3429
460.382	2589
460.397	2456
460.462	1270
460.465	1287
460.534	3269
460.543	3465
460.602	7588
460.623	9704
460.671	15712
460.703	22347
460.739	22902
460.783	19307
460.808	17453
460.864	5751
460.876	4237
460.944	1871
460.945	1851
461.013	2379
461.024	2463
461.081	2052
461.104	2077
461.150	2286
461.184	2032
461.218	1762
461.264	1473
461.286	1475
461.345	1776
461.355	1800
461.423	1502
461.425	1513
461.491	2276
461.505	2398
461.559	4276
461.585	5098
461.628	9014
461.665	14235
461.696	16334
461.745	22849
461.764	22425
461.825	10204
461.832	9697
461.901	3592
461.905	3557
461.969	2692
461.985	2570
462.037	2842
462.065	2743
462.105	2597
462.145	2826
462.173	4512
462.225	7760
462.241	8323
462.305	13547
462.310	13421
462.378	9625
462.385	8587
462.446	4178
462.465	3515
462.514	2352
462.545	2141
462.582	2225
462.625	2516
462.650	2583
462.705	2414
462.718	2440
462.785	2944
462.786	2962
462.854	3700
462.865	3995
462.922	6081
462.945	6994
462.990	6205
463.025	4303
463.058	3380
463.104	2353
463.126	1919
463.184	1385
463.194	1493
463.262	2386
463.264	2424
463.330	2461
463.344	2438
463.398	3676
463.424	4068
463.466	2916
463.504	2294
463.533	2841
463.583	3546
463.601	3582
463.663	3243
463.669	3340
463.737	5216
463.743	5402
463.805	8344
463.823	9131
463.873	13595
463.903	17103
463.940	18698
463.982	21242
464.008	18898
464.062	9667
464.076	8804
464.142	3149
464.144	3043
464.211	2015
464.221	1980
464.279	2542
464.301	2787
464.347	3562
464.381	4137
464.414	4322
464.461	4615
464.482	4832
464.540	5649
464.550	5461
464.617	3558
464.620	3479
464.685	3890
464.699	4090
464.753	3914
464.779	3826
464.820	4488
464.859	5078
464.888	4803
464.938	4316
464.956	4717
465.018	6386
465.023	6264
465.091	4190
465.098	3969
465.158	3640
465.177	3595
465.226	3918
465.257	4115
465.293	4397
465.336	4622
465.361	4697
465.416	5082
465.428	5747
465.495	9432
465.496	9483
465.563	15536
465.575	16734
465.631	20191
465.654	21870
465.698	14751
465.734	7283
465.765	6025
465.813	4133
465.833	3576
465.893	3116
465.900	3115
465.968	3057
465.972	3051
466.035	3014
466.052	3003
466.102	3494
466.131	3770
466.170	3364
466.210	2898
466.237	3495
466.290	4722
466.304	4481
466.369	3273
466.372	3312
466.439	4360
466.449	4509
466.506	4308
466.528	4199
466.573	7648
466.607	10261
466.641	14996
466.687	21677
466.708	24023
466.766	31032
466.775	28612
466.842	9565
466.845	8657
466.909	5953
466.925	5446
466.977	5346
467.004	5425
467.044	5282
467.083	5127
467.111	5172
467.163	5242
467.178	5565
467.242	6898
467.245	6878
467.312	6308
467.321	6228
467.379	6598
467.400	6716
467.446	6546
467.480	6410
467.559	6526
467.638	4652
467.717	4178
467.796	5635
467.875	7249
467.955	6238
468.034	11742
468.113	26316
468.192	38571
468.271	9017
468.350	5482
468.429	5566
468.508	6896
468.588	4877
468.667	5554
468.746	5461
468.825	5535
468.904	4628
468.983	6348
469.062	10335
469.141	11712
469.220	4625
469.299	5224
469.378	4182
469.456	6502
469.535	5293
469.614	5005
469.693	5620
469.772	8103
469.851	11189
469.930	7631
470.009	4619
470.088	4046
470.166	4717
470.245	7339
470.324	7611
470.403	6042
470.482	4929
470.560	4698
470.639	4754
470.718	6803
470.797	4314
470.875	6050
470.954	8487
471.033	10613
471.111	2756
471.190	3027
471.269	4007
471.347	3835
471.426	3844
471.505	6152
471.583	4216
471.662	5415
471.740	3626
471.819	4667
471.898	2722
471.976	4274
472.055	4449
472.133	5919
472.212	7264
472.290	6883
472.369	3982
472.447	4612
472.526	3810
472.604	4830
472.683	4590
472.761	5891
472.839	4202
472.918	3172
472.996	4590
473.075	5681
473.153	4973
473.231	3651
473.310	4967
473.388	5541
473.466	4232
473.545	5385
473.623	6957
473.701	6092
473.780	4696
473.858	3865
473.936	6292
474.014	4992
474.093	4247
474.171	8406
474.249	11639
474.327	7300
474.405	2824
474.484	4411
474.562	3014
474.640	4170
474.718	4759
474.796	5243
474.874	4085
474.952	2573
475.030	3482
475.108	4370
475.187	4255
475.265	5996
475.343	8208
475.421	8454
475.499	3853
475.577	4980
475.655	7020
475.733	14780
475.811	24124
475.889	21366
475.966	12569
476.044	4465
476.122	5656
476.200	8724
476.278	5780
476.356	4492
476.434	4658
476.512	6559
476.590	8663
476.667	7200
476.745	4833
476.823	4867
476.901	4610
476.979	4354
477.056	4832
477.134	4583
477.212	4635
477.290	5406
477.367	3626
477.445	4205
477.523	3554
477.601	4828
477.678	4361
477.756	5755
477.834	5718
477.911	4899
477.989	4617
478.066	5426
478.144	5430
478.222	6267
478.299	9755
478.377	7882
478.454	3208
478.532	4520
478.609	3604
478.687	4923
478.764	3705
478.842	4577
478.919	4381
478.997	4636
479.074	3545
479.152	5466
479.229	6866
479.307	4432
479.384	3098
479.461	4003
479.539	3954
479.616	5344
479.694	3662
479.771	5276
479.848	3617
479.926	6470
480.003	8183
480.080	4786
480.157	3637
480.235	3659
480.312	3676
480.389	5413
480.467	8097
480.544	10651
480.621	4516
480.698	5403
480.775	5152
480.853	5729
480.930	3742
481.007	4671
481.084	5284
481.161	5883
481.238	4570
481.315	3372
481.392	4185
481.470	4232
481.547	4107
481.624	3308
481.701	4589
481.778	5691
481.855	4411
481.932	8340
482.009	13230
482.086	8246
482.163	3438
482.240	6915
482.317	11701
482.393	8366
482.470	4371
482.547	4557
482.624	3401
482.701	4455
482.778	3377
482.855	3177
482.932	2931
483.009	3242
483.085	2788
483.162	5014
483.239	4801
483.316	3409
483.393	2685
483.469	3550
483.546	4573
483.623	5203
483.699	3737
483.776	4619
483.853	4306
483.930	7969
484.006	21211
484.083	35492
484.160	12030
484.236	15090
484.313	10423
484.389	8766
484.466	7954
484.543	8184
484.619	7956
484.696	10029
484.772	9115
484.849	10965
484.925	7479
485.002	7757
485.078	8787
485.155	9087
485.231	6700
485.308	7364
485.384	7021
485.461	10912
485.537	17821
485.614	23330
485.690	7446
485.766	6680
485.843	6925
485.919	11245
485.995	10147
486.072	7298
486.148	5942
486.224	5965
486.301	6960
486.377	9569
486.453	7767
486.530	7631
486.606	9324
486.682	10668
486.758	15526
486.835	18428
486.911	12465
486.987	24125
487.063	22858
487.139	27140
487.215	17539
487.292	8953
487.368	7354
487.444	8089
487.520	10309
487.596	9081
487.672	13279
487.748	32049
487.824	44479
487.900	13738
487.976	8524
488.052	9013
488.128	10522
488.204	9037
488.280	8327
488.356	9673
488.432	23173
488.508	35780
488.584	9753
488.660	6829
488.736	7304
488.812	6881
488.888	8822
488.964	11497
489.039	25970
489.115	39872
489.191	21402
489.267	7953
489.343	6546
489.418	6130
489.494	5592
489.570	4333
489.646	6147
489.722	5632
489.797	6072
489.873	12479
489.949	27002
490.024	20217
490.100	5406
490.176	5473
490.251	6318
490.327	9058
490.403	4550
490.478	5706
490.554	4275
490.629	4553
490.705	4337
490.781	6064
490.856	5381
490.932	6745
491.007	5554
491.083	5892
491.158	5337
491.234	8697
491.309	19519
491.385	19400
491.460	5547
491.536	7218
491.611	4902
491.686	6923
491.762	8091
491.837	17557
491.913	27239
491.988	42218
492.063	46099
492.139	14086
492.214	9097
492.289	5261
492.365	3487
492.440	5389
492.515	4516
492.590	5964
492.666	4264
492.741	7243
492.816	11052
492.891	5561
492.967	4495
493.042	4703
493.117	3604
493.192	5201
493.267	7268
493.342	20082
493.418	24297
493.493	5467
493.568	3436
493.643	4417
493.718	5520
493.793	9321
493.868	8629
493.943	5244
494.018	4251
494.093	3286
494.168	4549
494.243	3391
494.318	2275
494.393	3913
494.468	3138
494.543	4237
494.618	4060
494.693	3313
494.768	2905
494.842	4166
494.917	2689
494.992	3536
495.067	3288
495.142	3647
495.217	3132
495.292	4472
495.366	4687
495.441	6495
495.516	8178
495.591	11028
495.665	37548
495.740	84399
495.815	29003
495.890	6202
495.964	3297
496.039	7614
496.114	5037
496.188	5892
496.263	5085
496.338	5161
496.412	4610
496.487	6982
496.561	6828
496.636	7461
496.710	5498
496.785	6514
496.860	7378
496.934	5974
497.009	5830
497.083	5641
497.158	5422
497.232	7005
497.307	7419
497.381	6131
497.455	8161
497.530	11934
497.604	7664
497.679	8417
497.753	14119
497.827	17189
497.902	14011
497.976	18236
498.050	47242
498.125	191367
498.199	167401
498.273	21257
498.348	13660
498.422	11444
498.496	9503
498.570	9970
498.645	7728
498.719	8233
498.793	11440
498.867	19507
498.941	23990
499.016	76653
499.090	201188
499.164	55711
499.238	8147
499.312	6784
499.386	8331
499.460	8061
499.534	7198
499.609	10677
499.683	14821
499.757	15162
499.831	33793
499.905	135589
499.979	109621
500.053	18635
500.127	16674
500.201	10898
500.275	7640
500.349	7702
500.422	9380
500.496	12935
500.570	25263
500.644	73989
500.718	129645
500.792	23719
500.866	7806
500.940	10918
501.013	7766
501.087	8506
501.161	14342
501.235	18054
501.309	44332
501.382	122320
501.456	90764
501.530	21780
501.603	37771
501.677	12912
501.751	5211
501.825	9415
501.898	16353
501.972	47564
502.046	25450
502.119	8201
502.193	20859
502.266	51581
502.340	20910
502.413	22316
502.487	42589
502.561	22239
502.634	6533
502.708	6060
502.781	3768
502.855	5146
502.928	2868
503.002	4988
503.075	3636
503.149	4362
503.222	4729
503.295	6036
503.369	6291
503.442	10514
503.516	35745
503.589	90097
503.662	50417
503.736	16492
503.809	41065
503.882	28683
503.956	48785
504.029	36911
504.102	21608
504.175	25001
504.249	7725
504.322	6979
504.395	5795
504.468	4569
504.542	3990
504.615	2524
504.688	3052
504.761	3238
504.834	5115
504.907	6158
504.980	8653
505.053	4671
505.127	3747
505.200	8886
505.273	6723
505.346	3455
505.419	2640
505.492	4584
505.565	1543
505.638	3080
505.711	2089
505.784	2558
505.857	1552
505.930	4021
506.003	2864
506.076	5590
506.149	5407
506.221	5617
506.294	6893
506.367	17232
506.440	63865
506.513	26860
506.586	7111
506.659	3768
506.731	2867
506.804	4497
506.877	4576
506.950	4538
507.022	3832
507.095	4015
507.168	5020
507.241	4372
507.313	2015
507.386	1849
507.459	5118
507.531	2586
507.604	2210
507.677	3184
507.749	1380
507.822	4393
507.894	5763
507.967	7607
508.040	2814
508.112	4065
508.185	3177
508.257	2765
508.330	5367
508.402	3478
508.475	2574
508.547	4349
508.620	2921
508.692	8109
508.765	3786
508.837	2252
508.909	2564
508.982	2657
509.054	3614
509.127	2691
509.199	2521
509.271	2098
509.344	1674
509.416	2593
509.488	1371
509.560	3269
509.633	2407
509.705	3836
509.777	2304
509.849	5799
509.922	1936
509.994	2629
510.066	3181
510.138	2104
510.210	7029
510.283	4455
510.355	4413
510.427	4279
510.499	3051
510.571	3447
510.643	2738
510.715	6575
510.787	3396
510.859	4726
510.931	4993
511.003	5770
511.076	5451
511.148	2091
511.219	2042
511.291	7351
511.363	7553
511.435	3616
511.507	1348
511.579	4117
511.651	2758
511.723	3046
511.795	1940
511.867	2308
511.939	3987
512.010	10628
512.082	7610
512.154	2302
512.226	2305
512.298	4768
512.369	5403
512.441	6012
512.513	5376
512.585	2448
512.656	4395
512.728	3896
512.800	2844
512.871	4378
512.943	3434
513.015	1900
513.086	2441
513.158	4304
513.230	2448
513.301	5594
513.373	7001
513.444	3326
513.516	2561
513.588	2412
513.659	3684
513.731	5203
513.802	3289
513.874	10538
513.945	15993
514.016	3669
514.088	2350
514.159	1863
514.231	4613
514.302	5704
514.374	4062
514.445	3683
514.516	13088
514.588	6824
514.659	3889
514.730	10868
514.802	6440
514.873	2149
514.944	5229
515.016	3938
515.087	4125
515.158	7671
515.229	10168
515.301	4030
515.372	4407
515.443	3152
515.514	2134
515.585	1736
515.656	3666
515.728	3478
515.799	1332
515.870	3288
515.941	2407
516.012	2516
516.083	5502
516.154	4110
516.225	7408
516.296	6768
516.367	4240
516.438	5078
516.509	7291
516.580	11186
516.651	33802
516.722	117562
516.793	42932
516.864	12891
516.935	12688
517.006	13834
517.077	18222
517.148	38703
517.219	126148
517.289	169254
517.360	71020
517.431	21630
517.502	5615
517.573	7966
517.643	5874
517.714	6121
517.785	6960
517.856	6726
517.926	8686
517.997	10568
518.068	11113
518.138	17114
518.209	21392
518.280	80505
518.350	285788
518.421	81689
518.492	12920
518.562	9208
518.633	8921
518.703	6333
518.774	13398
518.845	30472
518.915	26045
518.986	10428
519.056	8759
519.127	15792
519.197	25474
519.268	67562
519.338	36076
519.408	9350
519.479	9211
519.549	6304
519.620	6107
519.690	3534
519.760	3474
519.831	4048
519.901	4438
519.971	4549
520.042	3513
520.112	4764
520.182	6210
520.253	6551
520.323	3692
520.393	3427
520.463	6376
520.534	2322
520.604	8615
520.674	6239
520.744	4688
520.814	7797
520.885	8720
520.955	21268
521.025	79255
521.095	22496
521.165	5899
521.235	4293
521.305	2908
521.375	4457
521.445	3438
521.515	4795
521.585	6359
521.655	5028
521.725	5141
521.795	5306
521.865	1794
521.935	8011
522.005	5237
522.075	3514
522.145	4372
522.215	4419
522.285	7290
522.355	10278
522.424	20047
522.494	14232
522.564	6220
522.634	14728
522.704	39785
522.774	11032
522.843	4816
522.913	4892
522.983	4299
523.053	2871
523.122	4192
523.192	5448
523.262	22256
523.331	15695
523.401	4266
523.471	2712
523.540	3135
523.610	1814
523.680	2475
523.749	4100
523.819	4362
523.888	3210
523.958	2164
524.027	3130
524.097	2984
524.166	3447
524.236	2493
524.305	5910
524.375	2036
524.444	1325
524.514	4815
524.583	2461
524.653	3638
524.722	5601
524.791	1851
524.861	4519
524.930	1050
524.999	2414
525.069	4598
525.138	4568
525.207	3887
525.277	4459
525.346	2050
525.415	3699
525.484	2808
525.554	4464
525.623	3824
525.692	3463
525.761	2519
525.830	4968
525.900	5071
525.969	7386
526.038	10255
526.107	18169
526.176	54885
526.245	37520
526.314	16646
526.383	31591
526.452	33201
526.522	68643
526.591	61261
526.660	22542
526.729	11915
526.797	14351
526.867	27508
526.935	120102
527.004	161775
527.073	68778
527.142	7657
527.211	4845
527.280	4575
527.349	4990
527.418	1216
527.487	3219
527.555	1727
527.624	2940
527.693	1039
527.762	3069
527.831	433
527.899	3074
527.968	1497
528.037	1181
528.106	4194
528.174	6773
528.243	5234
528.312	8938
528.380	8964
528.449	2093
528.518	3030
528.586	770
528.655	2873
528.723	2544
528.792	1241
528.861	1125
528.929	857
528.998	2570
529.066	977
529.135	1814
529.203	1084
529.272	516
529.340	1121
529.409	3409
529.477	1134
529.545	2522
529.614	5470
529.682	2744
529.751	3095
529.819	6860
529.887	3035
529.956	1523
530.024	2248
530.092	1428
530.161	3048
530.229	3908
530.297	1781
530.365	3112
530.434	1379
530.502	839
530.570	1586
530.638	127
530.707	2450
530.775	4037
530.843	945
530.911	2977
530.979	1896
531.047	1819
531.115	2239
531.183	2090
531.252	2657
531.320	1842
531.388	1289
531.456	2780
531.524	-408
531.592	2461
531.660	2953
531.728	914
531.796	409
531.864	2504
531.932	951
532.000	1086
532.067	1472
532.135	2538
532.203	3205
532.271	1967
532.339	5918
532.407	17333
532.475	7667
532.542	5090
532.610	4850
532.678	6472
532.746	32480
532.814	70509
532.881	12665
532.949	3107
533.017	1898
533.084	2722
533.152	1067
533.220	1340
533.287	982
533.355	1801
533.423	1483
533.490	1035
533.558	1234
533.625	2461
533.693	1301
533.761	1989
533.828	1582
533.896	1066
533.963	5644
534.031	6106
534.098	10171
534.166	3363
534.233	598
534.300	2881
534.368	2027
534.435	1149
534.503	1631
534.570	2141
534.637	1680
534.705	2878
534.772	3022
534.840	5518
534.907	26413
534.974	26969
535.041	3347
535.109	3626
535.176	1640
535.243	2379
535.310	2617
535.378	1101
535.445	1563
535.512	2064
535.579	2599
535.646	2103
535.714	1648
535.781	2810
535.848	1856
535.915	2545
535.982	1368
536.049	1772
536.116	2999
536.183	1641
536.250	2121
536.317	2376
536.384	2973
536.451	4287
536.518	4763
536.585	2441
536.652	5071
536.719	7522
536.786	3355
536.853	3545
536.920	7168
536.987	11579
537.053	7648
537.120	39374
537.187	26080
537.254	3437
537.321	1533
537.388	3643
537.454	1518
537.521	2526
537.588	980
537.654	3173
537.721	1193
537.788	3741
537.855	2032
537.921	2718
537.988	1835
538.055	4354
538.121	1404
538.188	2231
538.254	3752
538.321	10148
538.388	6092
538.454	2534
538.521	2567
538.587	2228
538.654	2029
538.720	2637
538.787	2181
538.853	3189
538.920	3889
538.986	3509
539.053	2287
539.119	4415
539.185	2243
539.252	4831
539.318	4355
539.385	5153
539.451	1722
539.517	4218
539.583	4542
539.650	12018
539.716	26316
539.782	5960
539.849	2047
539.915	3852
539.981	2363
540.047	4138
540.114	3149
540.180	4748
540.246	2043
540.312	5238
540.378	10672
540.444	11198
540.510	11204
540.576	30358
540.643	5758
540.709	1532
540.775	2062
540.841	3004
540.907	4653
540.973	6417
541.039	4367
541.105	5924
541.171	2970
541.237	2496
541.303	3375
541.369	5362
541.435	4483
541.500	9543
541.566	3891
541.632	3343
541.698	2089
541.764	3829
541.830	1892
541.896	2553
541.961	3634
542.027	2096
542.093	2850
542.159	3396
542.224	2410
542.290	5228
542.356	8067
542.421	11005
542.487	4263
542.553	2471
542.618	2985
542.684	3455
542.750	2901
542.815	4830
542.881	6437
542.947	28228
543.012	15945
543.078	3366
543.143	1986
543.209	4486
543.274	3229
543.340	4058
543.405	10353
543.471	13808
543.536	2621
543.602	3612
543.667	780
543.732	3620
543.798	697
543.863	3347
543.928	1805
543.994	1682
544.059	2798
544.124	2530
544.190	2278
544.255	3245
544.320	2722
544.386	2709
544.451	4715
544.516	5769
544.581	4480
544.646	18249
544.712	22639
544.777	5790
544.842	4227
544.907	4763
544.972	3343
545.037	3455
545.102	4144
545.168	3957
545.233	4685
545.298	6017
545.363	5191
545.428	5827
545.493	11263
545.558	21671
545.623	7258
545.688	3961
545.753	4760
545.818	4031
545.883	3940
545.947	3303
546.012	4633
546.077	3902
546.142	4952
546.207	4220
546.272	6334
546.337	5926
546.401	4609
546.466	4636
546.531	3883
546.596	5344
546.661	4966
546.725	5913
546.790	3560
546.855	5608
546.919	3692
546.984	6236
547.049	5399
547.113	7680
547.178	6981
547.243	8455
547.307	8969
547.372	11355
547.436	11276
547.501	9644
547.565	9001
547.630	10091
547.695	9502
547.759	11256
547.823	9555
547.888	9564
547.952	8903
548.017	10097
548.081	9928
548.146	13498
548.210	10896
548.274	9578
548.339	8783
548.403	9322
548.468	7295
548.532	7940
548.596	8745
548.660	8616
548.725	9497
548.789	11090
548.853	11205
548.917	10029
548.982	12144
549.046	11591
549.110	7602
549.174	8885
549.238	7710
549.303	9428
549.367	10275
549.431	9632
549.495	9208
549.559	9211
549.623	10075
549.687	11926
549.751	14525
549.815	13172
549.879	11975
549.943	11155
550.007	13391
550.071	13319
550.135	13749
550.199	11819
550.263	11051
550.327	13460
550.391	14616
550.455	12968
550.519	12579
550.582	14499
550.646	16517
550.710	16436
550.774	15478
550.838	14962
550.901	15954
550.965	17588
551.029	16919
551.093	20618
551.156	22602
551.220	36711
551.284	38341
551.347	24274
551.411	37301
551.475	34050
551.538	16858
551.602	13542
551.666	14680
551.729	11411
551.793	12589
551.856	13205
551.920	12509
551.983	12593
552.047	12239
552.110	13281
552.174	11797
552.237	13583
552.301	11532
552.364	12984
552.428	11451
552.491	12102
552.554	11896
552.618	13182
552.681	13089
552.745	13170
552.808	16882
552.871	19767
552.934	14832
552.998	13707
553.061	13268
553.124	11733
553.187	11773
553.251	12815
553.314	12204
553.377	13388
553.440	14402
553.503	20412
553.567	23044
553.630	13484
553.693	12477
553.756	13561
553.819	12810
553.882	12894
553.945	12720
554.008	12163
554.071	12013
554.134	13334
554.197	11348
554.260	11896
554.323	12690
554.386	13577
554.449	11877
554.512	13043
554.575	11334
554.638	13553
554.701	11811
554.764	12341
554.827	11041
554.889	11150
554.952	10034
555.015	10228
555.078	10763
555.141	11931
555.203	9804
555.266	10501
555.329	10431
555.391	10867
555.454	11281
555.517	10952
555.580	10737
555.642	9525
555.705	8224
555.768	9929
555.830	9453
555.893	7985
555.955	8847
556.018	8878
556.080	8260
556.143	9097
556.206	8726
556.268	9659
556.330	9773
556.393	9129
556.455	8493
556.518	12267
556.580	11008
556.643	8546
556.705	8342
556.767	7665
556.830	8786
556.892	9313
556.955	11006
557.017	9380
557.079	7630
557.142	7832
557.204	8444
557.266	15687
557.328	11368
557.391	7365
557.453	6853
557.515	7166
557.577	8848
557.639	8433
557.701	6656
557.764	6797
557.826	8280
557.888	10228
557.950	8455
558.012	10505
558.074	12505
558.136	26647
558.198	54130
558.260	20093
558.322	9955
558.384	11918
558.446	13393
558.508	16156
558.570	20132
558.632	28509
558.694	37622
558.756	43249
558.818	119436
558.880	243932
558.942	68859
559.003	60894
559.065	29408
559.127	15601
559.189	15363
559.251	18236
559.312	25290
559.374	58969
559.436	168057
559.498	68772
559.559	16823
559.621	15802
559.683	18776
559.744	32142
559.806	88900
559.868	111881
559.929	22920
559.991	17852
560.052	25202
560.114	60197
560.176	34919
560.237	37424
560.299	51820
560.360	12698
560.422	7298
560.483	7898
560.545	7977
560.606	6760
560.667	6193
560.729	6850
560.790	5477
560.852	7022
560.913	5116
560.974	6607
561.036	5676
561.097	7141
561.158	6010
561.220	7815
561.281	6950
561.342	7214
561.403	8199
561.465	10169
561.526	22483
561.587	25966
561.648	6623
561.709	6689
561.771	6686
561.832	6020
561.893	5705
561.954	6492
562.015	5345
562.076	6363
562.137	6055
562.198	5829
562.259	6032
562.320	5642
562.381	6836
562.442	9233
562.503	7179
562.564	6147
562.625	5029
562.686	5964
562.747	6264
562.808	7369
562.869	6035
562.930	8805
562.991	8154
563.051	7608
563.112	6092
563.173	6631
563.234	4952
563.294	6226
563.355	5927
563.416	7252
563.477	5399
563.537	6038
563.598	6669
563.659	6619
563.720	6509
563.780	7097
563.841	6421
563.901	7363
563.962	5886
564.023	7157
564.083	6927
564.144	6636
564.204	6683
564.265	8053
564.325	9045
564.386	18285
564.446	14919
564.507	7159
564.567	5162
564.628	6544
564.688	6342
564.749	6260
564.809	7411
564.869	8923
564.930	4837
564.990	7680
565.050	5415
565.111	6248
565.171	6090
565.231	5824
565.292	5427
565.352	5794
565.412	6168
565.472	5690
565.532	6998
565.593	6366
565.653	5863
565.713	7298
565.773	7302
565.833	9562
565.893	11119
565.953	7669
566.013	6499
566.074	7424
566.134	10657
566.194	17827
566.254	16653
566.314	10265
566.374	7446
566.434	7045
566.494	6920
566.554	6903
566.614	6231
566.673	7986
566.733	7418
566.793	8623
566.853	8182
566.913	8060
566.973	8265
567.033	9254
567.092	9648
567.152	8051
567.212	7771
567.272	9605
567.331	9081
567.391	9951
567.451	8768
567.511	14872
567.570	13585
567.630	8836
567.690	8491
567.749	8362
567.809	8703
567.868	9707
567.928	10096
567.988	11478
568.047	11697
568.107	13584
568.166	15234
568.226	23254
568.285	27970
568.345	23622
568.404	19276
568.464	18840
568.523	17755
568.582	18553
568.642	19616
568.701	23160
568.761	32383
568.820	47545
568.879	42636
568.939	34368
568.998	24245
569.057	19221
569.116	16587
569.176	13924
569.235	11602
569.294	11547
569.353	9978
569.413	10872
569.472	9952
569.531	9151
569.590	8610
569.649	9124
569.708	7448
569.767	10180
569.827	11145
569.886	9303
569.945	8124
570.004	8713
570.063	7622
570.122	9271
570.181	8826
570.240	11043
570.299	10414
570.358	10565
570.417	8469
570.475	7809
570.534	8565
570.593	10128
570.652	8924
570.711	9168
570.770	7773
570.829	10165
570.887	8094
570.946	10238
571.005	7433
571.064	7470
571.122	8517
571.181	10321
571.240	7654
571.299	7848
571.357	9183
571.416	9463
571.475	10045
571.533	10661
571.592	8039
571.650	9477
571.709	7452
571.768	8493
571.826	7496
571.885	7807
571.943	6257
572.002	7747
572.060	7783
572.119	7387
572.177	7068
572.236	7017
572.294	6364
572.352	7412
572.411	6579
572.469	7044
572.528	7384
572.586	7131
572.644	8634
572.703	11673
572.761	8237
572.819	7426
572.877	6540
572.936	7152
572.994	5847
573.052	8176
573.110	8255
573.169	6701
573.227	6014
573.285	7321
573.343	6786
573.401	7170
573.459	6913
573.517	6550
573.576	7037
573.634	8042
573.692	7546
573.750	7396
573.808	7314
573.866	8974
573.924	11002
573.982	10861
574.040	6840
574.098	7486
574.155	6545
574.213	6651
574.271	6033
574.329	7488
574.387	6023
574.445	7440
574.503	6346
574.560	5116
574.618	6247
574.676	6226
574.734	5672
574.792	6684
574.849	5867
574.907	6027
574.965	5912
575.022	5855
575.080	5136
575.138	6834
575.195	6192
575.253	7037
575.311	6384
575.368	6914
575.426	5120
575.483	6957
575.541	6057
575.598	6031
575.656	7322
575.713	7487
575.771	5916
575.828	6701
575.886	5851
575.943	8780
576.001	6992
576.058	6689
576.115	8239
576.173	10219
576.230	10762
576.287	11648
576.345	9135
576.402	8062
576.459	7783
576.517	8043
576.574	8864
576.631	10150
576.688	8121
576.746	7779
576.803	7395
576.860	6623
576.917	6741
576.974	7498
577.031	6757
577.089	7697
577.146	7522
577.203	7780
577.260	7679
577.317	9226
577.374	9287
577.431	9379
577.488	8509
577.545	7597
577.602	6464
577.659	7662
577.716	6803
577.773	6896
577.830	6344
577.886	6923
577.943	7068
578.000	5991
578.057	8003
578.114	8000
578.171	6462
578.227	8089
578.284	7218
578.341	8094
578.398	8208
578.454	9517
578.511	9312
578.568	11300
578.625	9751
578.681	7942
578.738	6759
578.794	7880
578.851	7159
578.908	7005
578.964	7428
579.021	7850
579.077	7408
579.134	7158
579.190	6774
579.247	7449
579.303	6418
579.360	6988
579.416	5901
579.473	6560
579.529	6026
579.586	7208
579.642	7595
579.698	7377
579.755	6834
579.811	7480
579.867	7164
579.924	6974
579.980	6345
580.036	7577
580.093	7621
580.149	7660
580.205	8690
580.261	8061
580.317	8553
580.374	9934
580.430	9814
580.486	10173
580.542	8686
580.598	8724
580.619	8606
580.654	8408
580.692	7989
580.710	7792
580.765	7664
580.767	7666
580.823	8333
580.838	8261
580.879	8048
580.911	8021
580.935	8035
580.984	7566
580.991	7510
581.047	8494
581.057	8352
581.103	7706
581.130	7897
581.159	8125
581.203	8499
581.215	8605
581.270	8605
581.276	8511
581.326	7605
581.349	8165
581.382	9056
581.422	8998
581.438	8964
581.494	8404
581.494	8404
581.550	8888
581.567	9105
581.606	9487
581.640	8690
581.661	8244
581.713	9556
581.717	9663
581.773	9027
581.786	8890
581.829	8540
581.859	8701
581.885	8788
581.932	8712
581.940	8721
581.996	8935
582.004	8998
582.052	9214
582.077	8259
582.107	7196
582.150	8222
582.163	8514
582.219	9106
582.223	9073
582.274	8984
582.296	9083
582.330	9016
582.368	9400
582.386	9651
582.441	8829
582.441	8828
582.497	9070
582.514	8827
582.552	8549
582.587	8690
582.608	8662
582.659	8723
582.663	8729
582.719	9481
582.732	9204
582.774	8505
582.805	8698
582.830	8798
582.877	8677
582.885	8639
582.941	9068
582.950	9057
582.996	9183
583.023	9725
583.052	10331
583.095	9359
583.107	9102
583.162	10020
583.168	10041
583.218	9815
583.240	9319
583.273	8841
583.313	9541
583.328	9770
583.384	9594
583.385	9573
583.439	9116
583.458	9285
583.494	9496
583.531	9777
583.549	9997
583.603	10005
583.605	9992
583.660	8995
583.676	9250
583.715	10262
583.748	9945
583.770	9654
583.820	10034
583.825	10062
583.881	10375
583.893	10159
583.936	9318
583.965	9403
583.991	9649
584.038	10149
584.046	10201
584.101	10017
584.110	9996
584.156	10037
584.183	9980
584.211	9682
584.255	9872
584.266	10024
584.321	9872
584.328	9931
584.376	10286
584.400	10302
584.431	10259
584.472	9687
584.486	9505
584.541	9833
584.545	9896
584.596	10905
584.617	10817
584.651	10929
584.689	11573
584.706	11744
584.761	11256
584.762	11257
584.816	11447
584.834	11562
584.871	11915
584.906	11934
584.926	11955
584.978	12089
584.980	12102
585.035	13466
585.051	13682
585.090	14114
585.123	14795
585.145	15316
585.195	15623
585.200	15709
585.254	18171
585.267	18699
585.309	20590
585.340	22514
585.364	23450
585.412	24358
585.419	24528
585.473	27627
585.484	28253
585.528	33454
585.556	39695
585.583	52048
585.628	80876
585.637	91125
585.692	179009
585.700	194505
585.747	242740
585.772	205601
585.801	130361
585.845	45857
585.856	36031
585.910	23681
585.917	22595
585.965	19253
585.989	18478
586.019	18103
586.061	16451
586.074	15893
586.128	16601
586.133	16608
586.183	17985
586.205	18709
586.237	18779
586.277	17576
586.292	17378
586.346	18224
586.349	18208
586.401	17401
586.421	17746
586.455	19402
586.493	21357
586.509	23407
586.564	31502
586.565	31816
586.618	48173
586.637	49358
586.672	40123
586.709	26941
586.727	23160
586.781	21634
586.781	21640
586.835	19111
586.853	18795
586.889	18289
586.925	17039
586.944	16853
586.996	18476
586.998	18523
587.052	18874
587.068	18930
587.106	18863
587.140	18779
587.161	19017
587.212	19939
587.215	19961
587.269	20166
587.284	20244
587.323	20575
587.356	20707
587.377	20918
587.427	21855
587.431	21922
587.485	21795
587.499	22050
587.539	23024
587.571	23391
587.593	23725
587.643	24650
587.648	24710
587.702	25368
587.715	25606
587.755	26949
587.786	27609
587.810	27827
587.858	28741
587.864	28969
587.917	31450
587.930	32101
587.971	35016
588.001	37080
588.025	37978
588.073	39212
588.079	39465
588.133	42226
588.145	43055
588.187	47419
588.217	50990
588.241	53967
588.288	59942
588.295	60930
588.348	70139
588.360	72414
588.402	81370
588.431	87969
588.456	94242
588.503	108394
588.510	110614
588.564	130608
588.575	135382
588.617	158229
588.646	176517
588.671	198810
588.718	247078
588.725	259991
588.778	376524
588.789	404814
588.832	609320
588.861	761662
588.886	923225
588.932	1224903
588.939	1233048
588.993	1179606
589.004	1168708
589.047	966123
589.075	791834
589.100	637246
589.147	372812
589.154	356341
589.207	261849
589.218	245721
589.261	227335
589.290	220533
589.314	230873
589.361	258993
589.368	271602
589.421	393007
589.433	423230
589.475	657937
589.504	837652
589.528	952285
589.576	1118308
589.582	1093706
589.635	804460
589.647	733310
589.689	452301
589.718	272889
589.742	221287
589.790	139723
589.795	136020
589.849	109221
589.861	104428
589.902	96402
589.932	88852
589.955	79004
590.004	58913
590.009	58082
590.062	51746
590.075	50258
590.115	46825
590.146	44356
590.168	43041
590.218	40357
590.222	40310
590.275	39584
590.289	39487
590.328	38683
590.360	37567
590.381	36522
590.431	34143
590.435	34100
590.488	33410
590.503	33159
590.541	32701
590.574	32218
590.594	31742
590.645	30839
590.647	30851
590.700	30181
590.716	29972
590.753	29549
590.787	29165
590.806	29057
590.859	28902
590.859	28929
590.912	28431
590.930	28359
590.965	28161
591.001	27878
591.018	27764
591.071	27167
591.072	27131
591.124	27008
591.143	26924
591.177	27479
591.214	28004
591.230	28195
591.283	28922
591.285	28910
591.336	29042
591.356	28984
591.389	29105
591.427	29075
591.442	28520
591.495	26345
591.498	26152
591.547	25967
591.569	25911
591.600	26193
591.640	26323
591.653	26401
591.706	26705
591.711	26703
591.759	28674
591.782	29673
591.811	30927
591.853	32449
591.864	31752
591.917	27926
591.924	27335
591.969	27004
591.995	26786
592.022	27368
592.066	28244
592.075	28931
592.127	32983
592.137	33684
592.180	36356
592.208	37903
592.233	34877
592.279	28878
592.285	28841
592.338	28316
592.350	28152
592.390	27132
592.421	26334
592.443	26867
592.491	27888
592.495	27892
592.548	27378
592.562	27206
592.600	27809
592.633	28242
592.653	27769
592.704	26293
592.705	26463
592.775	27509
592.846	28019
592.916	29270
592.987	30047
593.058	29435
593.128	27591
593.199	28008
593.270	27140
593.341	27132
593.411	27879
593.482	28128
593.553	29179
593.623	28161
593.694	29943
593.764	31976
593.835	29026
593.906	28674
593.976	28980
594.047	31369
594.117	36855
594.188	35988
594.258	29523
594.329	29802
594.399	30227
594.470	29773
594.540	31392
594.611	31124
594.681	31589
594.751	31561
594.822	33177
594.892	34125
594.963	33939
595.033	35056
595.103	35267
595.174	39362
595.244	50849
595.314	58799
595.384	38075
595.455	38459
595.525	37970
595.595	39165
595.665	39869
595.736	39326
595.806	38236
595.876	38991
595.946	38645
596.016	39200
596.087	40580
596.157	41503
596.227	40424
596.297	42629
596.367	43789
596.437	49126
596.507	57696
596.577	66573
596.647	48482
596.717	48351
596.787	48251
596.857	47932
596.927	48655
596.997	47878
597.067	49055
597.137	51282
597.207	50682
597.277	50054
597.347	48765
597.417	46988
597.487	48943
597.557	49098
597.626	50561
597.696	52980
597.766	57848
597.836	66191
597.906	49666
597.975	45430
598.045	44691
598.115	46272
598.185	48254
598.254	55605
598.324	57830
598.394	59682
598.464	56656
598.533	55469
598.603	52907
598.672	51605
598.742	52914
598.812	53415
598.881	53825
598.951	52346
599.020	53405
599.090	54723
599.159	55563
599.229	53563
599.299	52268
599.368	54200
599.437	53744
599.507	50280
599.576	49748
599.646	48644
599.715	47616
599.785	47846
599.854	48084
599.924	51536
599.993	48047
600.062	47261
600.132	46923
600.201	50245
600.270	58151
600.340	57430
600.409	55964
600.478	56184
600.547	58750
600.617	54016
600.686	45415
600.755	42816
600.824	42295
600.894	41151
600.963	40509
601.032	38724
601.101	38184
601.170	37138
601.239	37366
601.308	39660
601.378	38108
601.447	37144
601.516	35493
601.585	38153
601.654	41027
601.723	37758
601.792	39062
601.861	40253
601.930	42627
601.999	43919
602.068	40158
602.137	44660
602.206	42717
602.275	41962
602.343	45819
602.412	45650
602.481	40273
602.550	41915
602.619	41707
602.688	44251
602.756	43444
602.825	43326
602.894	44274
602.963	45074
603.032	44923
603.100	44905
603.169	45541
603.238	45967
603.307	45501
603.375	46446
603.444	47267
603.513	48093
603.581	47459
603.650	48435
603.719	47350
603.787	47940
603.856	49055
603.924	50723
603.993	51551
604.061	53466
604.130	54463
604.198	55074
604.267	56989
604.335	56533
604.404	58553
604.472	58286
604.541	59287
604.609	59521
604.678	60641
604.746	60936
604.815	61992
604.883	62701
604.951	62286
605.020	63862
605.088	64491
605.156	65744
605.225	66761
605.293	66885
605.361	66608
605.429	67573
605.498	68341
605.566	70963
605.634	72990
605.702	75385
605.771	76887
605.839	78512
605.907	75451
605.975	72537
606.043	71144
606.111	72410
606.180	71639
606.248	73347
606.316	71905
606.384	71508
606.452	77968
606.520	81552
606.588	75362
606.656	75414
606.724	74539
606.792	69320
606.860	61334
606.928	56010
606.996	54416
607.064	53187
607.132	55789
607.200	59200
607.267	61118
607.335	61194
607.403	63776
607.471	60414
607.539	59606
607.607	61153
607.674	53814
607.742	56203
607.810	53789
607.878	54139
607.946	54213
608.013	56831
608.081	59118
608.149	59638
608.216	59935
608.284	62128
608.352	61534
608.419	62677
608.487	72210
608.555	60543
608.622	60777
608.690	64224
608.757	69537
608.825	73375
608.893	71712
608.960	71976
609.028	72692
609.095	74821
609.163	64698
609.230	58655
609.298	54640
609.365	54513
609.432	60272
609.500	64758
609.567	73889
609.635	84349
609.702	86008
609.769	83196
609.837	67982
609.904	57368
609.971	58736
610.039	68099
610.106	92796
610.173	190286
610.241	445586
610.308	209780
610.375	77808
610.442	61539
610.509	57833
610.577	59293
610.644	59650
610.711	61759
610.778	63489
610.845	66269
610.912	69797
610.980	72790
611.047	75202
611.114	73819
611.181	68240
611.248	67017
611.315	72885
611.382	72608
611.449	73912
611.516	77195
611.583	75898
611.650	76198
611.717	77331
611.784	79404
611.851	84068
611.918	92119
611.984	108275
612.051	166207
612.118	370881
612.185	950780
612.252	479136
612.319	119675
612.386	99846
612.452	92895
612.519	91337
612.586	98564
612.653	91860
612.719	91217
612.786	84868
612.853	79080
612.919	77447
612.986	79880
613.053	72612
613.120	69580
613.186	67118
613.253	70536
613.319	66756
613.386	68380
613.453	70397
613.519	73771
613.586	77086
613.652	86669
613.719	79611
613.785	75936
613.852	71580
613.918	69397
613.985	74310
614.051	82012
614.118	102851
614.184	95880
614.250	70814
614.317	71092
614.383	69630
614.449	70474
614.516	71370
614.582	72983
614.648	69864
614.715	69786
614.781	68698
614.847	69692
614.914	69377
614.980	67493
615.046	66964
615.112	67686
615.179	69132
615.245	69816
615.311	72107
615.377	77696
615.443	76516
615.509	72900
615.575	75592
615.642	73504
615.708	76986
615.774	81363
615.840	86934
615.906	98420
615.972	125162
616.038	212027
616.104	466160
616.170	1149266
616.236	813367
616.302	175668
616.368	134335
616.434	96267
616.500	91982
616.565	105361
616.631	128925
616.697	98734
616.763	105933
616.829	169560
616.895	306030
616.961	261949
617.026	103546
617.092	78244
617.158	75466
617.224	73149
617.289	69800
617.355	65544
617.421	65287
617.487	67915
617.552	62096
617.618	60952
617.684	61336
617.749	64248
617.815	59645
617.880	56664
617.946	57800
618.012	61162
618.077	60442
618.143	58172
618.208	59432
618.274	63177
618.339	63152
618.405	52380
618.470	54674
618.536	54880
618.601	57707
618.667	53029
618.732	49908
618.798	49062
618.863	49048
618.928	47975
618.994	50704
619.059	53623
619.124	61365
619.190	53072
619.255	48595
619.320	48706
619.386	48284
619.451	47735
619.516	45912
619.581	47728
619.647	47608
619.712	48863
619.777	46038
619.842	48192
619.907	49041
619.972	50330
620.038	48397
620.103	46983
620.168	45462
620.233	47125
620.298	46813
620.363	47577
620.428	48506
620.493	49181
620.558	49388
620.623	50702
620.688	49270
620.753	49137
620.818	49404
620.883	51252
620.948	51110
621.013	50452
621.078	49099
621.143	50955
621.207	52928
621.272	52260
621.337	52160
621.402	54078
621.467	61481
621.532	61602
621.596	55630
621.661	52384
621.726	49040
621.791	51455
621.855	52679
621.920	52378
621.985	55277
622.049	60432
622.114	56323
622.179	54263
622.243	57168
622.308	56520
622.373	58343
622.437	57390
622.502	54661
622.566	54545
622.631	54006
622.695	55443
622.760	54611
622.824	54010
622.889	55011
622.953	57480
623.018	71254
623.082	66909
623.147	56670
623.211	55915
623.276	55841
623.340	52018
623.404	50684
623.469	50853
623.533	51467
623.597	49530
623.662	50190
623.726	46829
623.790	45848
623.854	44574
623.919	46071
623.983	46422
624.047	46932
624.111	45606
624.176	48866
624.240	49562
624.304	52486
624.368	46813
624.432	48126
624.496	47722
624.560	51670
624.625	53087
624.689	50142
624.753	51138
624.817	49143
624.881	48268
624.945	44815
625.009	44388
625.073	44589
625.137	47986
625.201	54200
625.265	51678
625.329	46530
625.393	47206
625.456	47378
625.520	48145
625.584	51766
625.648	59138
625.712	78826
625.776	146319
625.839	151882
625.903	64620
625.967	47665
626.031	69635
626.095	97950
626.158	48352
626.222	37286
626.286	35068
626.349	33261
626.413	32259
626.477	36417
626.540	33229
626.604	32470
626.668	33035
626.731	30646
626.795	33470
626.858	34266
626.922	31383
626.986	32428
627.049	29602
627.113	32701
627.176	30589
627.240	31394
627.303	30756
627.366	31364
627.430	32411
627.493	29596
627.557	31957
627.620	31931
627.684	33682
627.747	33255
627.810	29311
627.874	28343
627.937	27612
628.000	29109
628.064	28212
628.127	24883
628.190	25490
628.253	25905
628.317	23859
628.380	24684
628.443	23608
628.506	24434
628.569	23093
628.632	21562
628.696	22187
628.759	22529
628.822	20877
628.885	19792
628.948	20297
629.011	20368
629.074	21390
629.137	19722
629.200	19840
629.263	22461
629.326	19219
629.389	18644
629.452	19739
629.515	20601
629.578	19117
629.641	21731
629.704	20344
629.767	19780
629.830	18815
629.892	19813
629.955	17737
630.018	21302
630.081	20601
630.144	24112
630.207	18783
630.269	21109
630.332	21390
630.395	19827
630.458	18250
630.520	16207
630.583	17992
630.646	17669
630.708	16455
630.771	16810
630.834	18390
630.896	17024
630.959	17753
631.021	16396
631.084	17543
631.146	20129
631.209	21642
631.272	17475
631.334	17253
631.397	17381
631.459	16444
631.522	18859
631.584	18849
631.646	20208
631.709	20784
631.771	25020
631.834	20645
631.896	18655
631.958	16193
632.021	17059
632.083	16040
632.145	17198
632.208	17187
632.270	17753
632.332	15611
632.395	15274
632.457	16979
632.519	15348
632.581	16788
632.643	14682
632.706	17190
632.768	15527
632.830	16541
632.892	14910
632.954	15326
633.016	15828
633.078	16253
633.141	14999
633.203	15897
633.265	15749
633.327	14777
633.389	15748
633.451	18579
633.513	18485
633.575	20390
633.637	19269
633.698	17447
633.760	17359
633.822	17314
633.884	16395
633.946	17594
634.008	16553
634.070	18278
634.132	19467
634.193	20397
634.255	21438
634.317	21071
634.379	21799
634.441	19663
634.502	17611
634.564	16499
634.626	15084
634.687	15384
634.749	15099
634.811	14714
634.873	13812
634.934	14998
634.996	15854
635.057	14756
635.119	13767
635.181	14959
635.242	16344
635.304	13039
635.365	16853
635.427	14173
635.488	14589
635.550	14466
635.611	14634
635.673	13768
635.734	17664
635.796	16757
635.857	18418
635.918	17782
635.980	22005
636.041	20259
636.102	23038
636.164	22662
636.225	21850
636.286	17215
636.348	18466
636.409	16004
636.470	14381
636.531	15641
636.593	15760
636.654	15070
636.715	12926
636.776	13163
636.838	11800
636.899	14673
636.960	13051
637.021	11693
637.082	11980
637.143	12563
637.204	11370
637.265	12398
637.326	11346
637.387	13115
637.448	11078
637.509	13617
637.570	12743
637.631	13317
637.692	10564
637.753	11026
637.814	11788
637.875	10351
637.936	12358
637.997	10735
638.058	12061
638.119	13699
638.179	11344
638.240	11329
638.301	11604
638.362	10343
638.423	11989
638.483	12014
638.544	9937
638.605	11622
638.666	10315
638.726	11379
638.787	10920
638.848	10871
638.908	10246
638.969	11107
639.030	10195
639.090	9907
639.151	9831
639.211	12409
639.272	13404
639.332	21445
639.393	13392
639.453	11285
639.514	11539
639.574	10512
639.635	9869
639.695	11135
639.756	9156
639.816	10812
639.877	12456
639.937	18747
639.997	21247
640.058	9962
640.118	9228
640.178	10316
640.239	8933
640.299	9493
640.359	9474
640.420	10283
640.480	11640
640.540	12202
640.600	11635
640.661	11142
640.721	12007
640.781	14929
640.841	9678
640.901	11020
640.961	10416
641.021	11178
641.082	11890
641.142	14925
641.202	11585
641.262	8477
641.322	10515
641.382	7712
641.442	10055
641.502	8685
641.562	10247
641.622	8915
641.682	10516
641.742	10988
641.802	10705
641.861	10128
641.921	9758
641.981	11000
642.041	11083
642.101	13664
642.161	8442
642.221	8283
642.280	8547
642.340	8192
642.400	8398
642.460	10223
642.519	8081
642.579	8431
642.639	10406
642.698	7055
642.758	10952
642.818	8822
642.877	8287
642.937	9342
642.997	10897
643.056	14493
643.116	8800
643.175	10496
643.235	8290
643.294	9509
643.354	10137
643.414	10194
643.473	12532
643.532	15910
643.592	21267
643.651	34516
643.711	63219
643.770	134474
643.830	348335
643.889	682523
643.948	120757
644.008	23570
644.067	15381
644.126	12274
644.186	11012
644.245	10406
644.304	8631
644.363	10736
644.423	7318
644.482	9315
644.541	10285
644.600	9061
644.659	12031
644.719	14764
644.778	21145
644.837	37655
644.896	79199
644.955	175266
645.014	45121
645.073	12893
645.132	10223
645.191	10204
645.250	8917
645.309	11369
645.368	10490
645.427	13595
645.486	21386
645.545	34873
645.604	10919
645.663	9876
645.722	8806
645.781	10046
645.840	11055
645.898	13763
645.957	20512
646.016	30009
646.075	60106
646.134	123816
646.192	364145
646.251	463507
646.310	52664
646.369	17614
646.427	14617
646.486	10833
646.545	9638
646.603	8946
646.662	9174
646.721	8568
646.779	7883
646.838	7661
646.896	10424
646.955	14122
647.014	22961
647.072	41447
647.131	113963
647.189	43473
647.248	8768
647.306	8144
647.365	8065
647.423	5498
647.481	7706
647.540	5395
647.598	6932
647.657	5713
647.715	7026
647.773	6441
647.832	7508
647.890	5257
647.948	6061
648.007	6676
648.065	5607
648.123	6531
648.181	7844
648.240	7269
648.298	5562
648.356	6173
648.414	6025
648.472	6172
648.531	6353
648.589	5577
648.647	5408
648.705	5826
648.763	5580
648.821	7290
648.879	6378
648.937	8073
648.995	8579
649.053	10855
649.111	16195
649.169	26785
649.227	48930
649.285	109212
649.343	311600
649.401	114858
649.459	32420
649.516	20278
649.574	11557
649.632	23477
649.690	24036
649.748	14424
649.806	17558
649.863	32312
649.921	81070
649.979	42927
650.037	8957
650.094	5156
650.152	6912
650.210	4877
650.268	6387
650.325	5713
650.383	5626
650.440	4596
650.498	5711
650.556	5607
650.613	4467
650.671	5184
650.728	5922
650.786	5790
650.843	6313
650.901	3469
650.958	5530
651.016	4837
651.073	4253
651.131	4458
651.188	4412
651.246	4615
651.303	4399
651.360	4578
651.418	4453
651.475	5388
651.532	3551
651.590	5123
651.647	3217
651.704	4115
651.762	3598
651.819	4235
651.876	3967
651.933	3615
651.990	4651
652.048	3605
652.105	3997
652.162	4459
652.219	3572
652.276	4356
652.333	4592
652.390	3432
652.448	3847
652.505	4922
652.562	2925
652.619	4338
652.676	6060
652.733	6357
652.790	3861
652.847	1624
652.904	3751
652.961	2290
653.017	3357
653.074	4422
653.131	3926
653.188	3387
653.245	2918
653.302	3644
653.359	2928
653.415	4380
653.472	2613
653.529	3803
653.586	2857
653.642	4398
653.699	3725
653.756	2700
653.813	3255
653.869	4375
653.926	3204
653.983	3428
654.039	4455
654.096	3368
654.152	4214
654.209	2371
654.266	4675
654.322	3873
654.379	4910
654.435	5652
654.492	4354
654.548	8770
654.605	11601
654.661	5544
654.717	4539
654.774	4447
654.830	4137
654.887	3865
654.943	4312
655.000	4837
655.056	4613
655.112	4332
655.168	3358
655.225	3735
655.281	5452
655.337	7516
655.394	11224
655.450	7304
655.506	6801
655.562	11985
655.618	7647
655.675	2853
655.731	4179
655.787	3618
655.843	3757
655.899	2636
655.955	4055
656.011	4062
656.067	3045
656.123	3764
656.179	3359
656.235	4466
656.291	2796
656.347	4834
656.403	3763
656.459	3652
656.515	4526
656.571	4964
656.627	4905
656.683	3652
656.739	3757
656.795	4055
656.850	3989
656.906	5700
656.962	4692
657.018	3231
657.074	4170
657.129	4799
657.185	6111
657.241	11543
657.297	5473
657.352	3713
657.408	2903
657.464	4885
657.519	3802
657.575	2655
657.630	2869
657.686	3698
657.742	3506
657.797	3297
657.853	4027
657.908	3986
657.964	2627
658.019	3574
658.075	4539
658.130	3791
658.186	2271
658.241	4018
658.297	2964
658.352	3847
658.407	3572
658.463	2187
658.518	3882
658.573	3680
658.629	3394
658.684	2692
658.739	3669
658.795	2428
658.850	2438
658.905	3358
658.960	2977
659.016	2678
659.071	3147
659.126	3520
659.181	3832
659.236	7659
659.291	7253
659.346	3956
659.401	4657
659.457	4247
659.512	4495
659.567	4482
659.622	3720
659.677	2901
659.732	2441
659.787	3916
659.842	4315
659.897	5964
659.952	3391
660.007	2332
660.061	3596
660.116	3149
660.171	3299
660.226	3130
660.281	3603
660.336	3331
660.391	2894
660.445	2750
660.500	3309
660.555	3798
660.610	3440
660.664	3458
660.719	2593
660.774	2955
660.828	3667
660.883	3338
660.938	3505
660.992	2490
661.047	3220
661.101	2413
661.156	2995
661.211	2605
661.265	3216
661.320	2762
661.374	3099
661.429	2200
661.483	4246
661.538	2656
661.592	3338
661.647	2953
661.701	3328
661.755	3508
661.810	3184
661.864	2643
661.919	2471
661.973	3713
662.027	2679
662.081	2753
662.136	3148
662.190	3739
662.244	3762
662.299	2616
662.353	2817
662.407	2991
662.461	3401
662.515	4233
662.569	3784
662.624	3990
662.678	3284
662.732	3217
662.786	2570
662.840	3923
662.894	2850
662.948	2872
663.002	2393
663.056	3079
663.110	2957
663.164	2921
663.218	2848
663.272	3294
663.326	3127
663.380	3448
663.434	3285
663.488	3234
663.542	3340
663.595	2939
663.649	3035
663.703	2900
663.757	3129
663.811	3455
663.864	2955
663.918	3049
663.972	2774
664.026	2813
664.079	2581
664.133	3314
664.187	3448
664.240	2641
664.294	2799
664.348	3660
664.401	3123
664.455	3343
664.508	3668
664.562	2582
664.615	3199
664.669	3299
664.722	3092
664.776	3444
664.829	3509
664.883	2884
664.936	3160
664.990	3122
665.043	3749
665.097	4352
665.150	4589
665.203	3302
665.257	2900
665.310	3432
665.363	4051
665.417	3686
665.470	3317
665.523	3318
665.576	3292
665.630	3828
665.683	3322
665.736	3401
665.789	4038
665.842	2475
665.895	2780
665.949	3221
666.002	3506
666.055	4014
666.108	3740
666.161	4085
666.214	4311
666.267	3490
666.320	5015
666.373	3405
666.426	4018
666.479	4441
666.532	3823
666.585	4850
666.638	5031
666.691	4369
666.744	4980
666.796	4461
666.849	3630
666.902	4573
666.955	3226
667.008	3409
667.060	2089
667.113	2329
667.166	3063
667.219	3100
667.271	2657
667.324	3777
667.377	3297
667.430	3666
667.482	4118
667.535	3452
667.587	3222
667.640	3614
667.693	5076
667.745	7138
667.798	6608
667.850	3706
667.903	3542
667.955	3198
668.008	4143
668.060	4573
668.113	4903
668.165	4383
668.218	4646
668.270	3675
668.322	4628
668.375	3227
668.427	3538
668.479	3482
668.532	3987
668.584	3625
668.636	3061
668.689	4687
668.741	3446
668.793	4826
668.845	3588
668.898	3862
668.950	3566
669.002	4610
669.054	4054
669.106	3938
669.158	4569
669.211	3715
669.263	3125
669.315	4524
669.367	5065
669.419	3798
669.471	4207
669.523	5693
669.575	6143
669.627	4860
669.679	4294
669.731	5033
669.783	4451
669.835	5594
669.886	3331
669.938	3695
669.990	3549
670.042	3054
670.094	3594
670.146	3088
670.197	3374
670.249	4530
670.301	4091
670.353	5173
670.404	6309
670.456	7877
670.508	10772
670.560	18643
670.611	31085
670.663	55594
670.715	148339
670.766	197307
670.818	35681
670.869	8540
670.921	6291
670.972	5382
671.024	4648
671.075	4556
671.127	4075
671.178	3737
671.230	4569
671.281	4607
671.333	4208
671.384	4466
671.436	5177
671.487	6449
671.538	7861
671.590	10608
671.641	16329
671.692	29992
671.744	51952
671.795	24510
671.846	8828
671.897	6712
671.949	4529
672.000	3603
672.051	4724
672.102	5627
672.153	3650
672.204	3861
672.256	3767
672.307	3733
672.358	4607
672.409	4164
672.460	3435
672.511	3587
672.562	4012
672.613	3259
672.664	2347
672.715	4119
672.766	3826
672.817	3791
672.868	3548
672.919	2259
672.970	2928
673.021	2972
673.071	2497
673.122	3463
673.173	3588
673.224	4240
673.275	2539
673.326	3607
673.376	2722
673.427	4063
673.478	2494
673.528	3825
673.579	3120
673.630	2672
673.680	3868
673.731	3158
673.782	2400
673.832	2919
673.883	3553
673.934	3202
673.984	2465
674.035	3067
674.085	3445
674.136	3778
674.186	4040
674.237	5623
674.287	8008
674.338	3735
674.388	2748
674.438	3649
674.489	2746
674.539	3322
674.589	4209
674.640	3539
674.690	3053
674.740	2752
674.791	3339
674.841	3730
674.891	2748
674.942	3559
674.992	2555
675.042	3192
675.092	1954
675.142	2730
675.193	3273
675.243	3011
675.293	2769
675.343	3300
675.393	2660
675.443	4089
675.493	2929
675.543	3155
675.593	2387
675.643	2974
675.693	2338
675.743	2437
675.793	2785
675.843	1601
675.893	2530
675.943	3061
675.993	3002
676.043	2782
676.093	2671
676.142	2758
676.192	2527
676.242	2831
676.292	2005
676.341	3217
676.391	2515
676.441	3205
676.491	3101
676.540	2688
676.590	2483
676.640	2939
676.689	2888
676.739	1435
676.789	2643
676.838	2286
676.888	2131
676.937	2449
676.987	2317
677.037	2492
677.086	1351
677.136	1800
677.185	1388
677.235	1754
677.284	1981
677.333	1562
677.383	2453
677.432	2468
677.482	2596
677.531	2676
677.580	2510
677.630	1737
677.679	2050
677.728	2664
677.778	1566
677.827	2324
677.876	1768
677.925	2048
677.975	2952
678.024	2122
678.073	1997
678.122	2489
678.171	2742
678.220	2315
678.269	3508
678.319	3337
678.368	3149
678.417	2768
678.466	3015
678.515	3421
678.564	2572
678.613	2517
678.662	2288
678.711	2761
678.760	2582
678.809	2570
678.857	2757
678.906	2062
678.955	2542
679.004	3004
679.053	2880
679.102	1172
679.151	2381
679.199	1881
679.248	1728
679.297	2714
679.346	1801
679.394	2723
679.443	2094
679.492	2706
679.540	2620
679.589	2904
679.638	2114
679.686	1676
679.735	2731
679.784	2743
679.832	2601
679.881	1748
679.929	1622
679.978	1586
680.026	1814
680.075	1849
680.123	1900
680.172	1802
680.220	1163
680.268	2643
680.317	2332
680.365	1511
680.414	1518
680.462	2241
680.510	1900
680.559	1249
680.607	1419
680.655	2318
680.703	1796
680.752	1740
680.800	1575
680.848	1747
680.896	1131
680.945	1397
680.993	1601
681.041	1563
681.089	1478
681.137	1193
681.185	1526
681.233	1484
681.258	1790
681.281	2036
681.329	1970
681.377	1910
681.380	1970
681.425	2298
681.473	2726
681.502	2816
681.521	2800
681.569	3009
681.617	2723
681.624	2687
681.665	2142
681.713	2725
681.745	2620
681.761	2511
681.809	2736
681.857	2741
681.867	2668
681.904	2251
681.952	3826
681.989	2954
682.000	2637
682.048	2656
682.096	3194
682.111	3124
682.143	2866
682.191	3117
682.233	4138
682.239	4243
682.286	4001
682.334	3402
682.354	3459
682.382	3495
682.430	4653
682.476	3642
682.477	3583
682.525	2808
682.572	3587
682.598	3677
682.620	3731
682.667	4281
682.715	4437
682.720	4473
682.763	4414
682.810	4739
682.841	4237
682.857	3910
682.905	4017
682.952	5115
682.963	5128
683.000	4994
683.047	4936
683.085	5511
683.095	5648
683.142	4823
683.190	4071
683.206	4388
683.237	4862
683.284	5007
683.328	4833
683.332	4781
683.379	4893
683.426	4403
683.449	4611
683.473	4847
683.521	4670
683.568	5432
683.571	5436
683.615	5003
683.662	5994
683.693	5826
683.709	5704
683.757	4365
683.804	6799
683.814	6738
683.851	6431
683.898	6114
683.936	6002
683.945	5959
683.992	6216
684.039	6906
684.057	6795
684.086	6500
684.133	6584
684.179	6754
684.180	6730
684.227	7046
684.274	7074
684.300	7096
684.321	7059
684.368	6771
684.415	6659
684.422	6685
684.462	6737
684.509	6550
684.543	6356
684.556	6276
684.603	6405
684.649	6190
684.665	6475
684.696	7050
684.743	7273
684.786	7526
684.790	7546
684.837	7726
684.883	8385
684.908	8960
684.930	9279
684.977	9127
685.023	8363
685.029	8384
685.070	8277
685.117	8502
685.150	8436
685.164	8466
685.210	9333
685.257	10120
685.272	9642
685.303	8488
685.350	8498
685.393	9354
685.396	9428
685.443	9838
685.490	10433
685.514	10436
685.536	10145
685.583	10753
685.629	9457
685.636	9475
685.675	9716
685.722	9562
685.757	9987
685.768	10129
685.815	10620
685.861	9917
685.878	9960
685.908	10046
685.954	10519
686.000	11227
686.000	11240
686.047	12071
686.093	14305
686.121	14492
686.139	13755
686.185	11999
686.232	11055
686.242	10920
686.278	10958
686.324	10507
686.363	9676
686.370	9578
686.416	9806
686.463	10251
686.484	10340
686.509	10472
686.555	9596
686.601	9934
686.606	9986
686.647	10450
686.693	10182
686.727	10163
686.739	10140
686.785	10359
686.831	10081
686.848	10234
686.877	10390
686.923	10723
686.969	10231
686.969	10227
687.015	10421
687.061	9919
687.090	10407
687.107	10678
687.153	10791
687.199	10993
687.211	10918
687.245	11007
687.291	11092
687.332	12165
687.336	12237
687.382	11976
687.428	12026
687.453	11842
687.474	11550
687.520	11376
687.565	11158
687.574	11085
687.611	11113
687.657	11091
687.695	11326
687.702	11435
687.748	11962
687.794	12822
687.816	12672
687.839	12012
687.885	11959
687.931	11272
687.937	11139
687.976	11078
688.022	11274
688.058	12072
688.067	12223
688.113	11832
688.158	12112
688.179	11946
688.204	11904
688.249	12005
688.295	12413
688.300	12456
688.340	12659
688.386	12676
688.421	12517
688.431	12480
688.477	12063
688.522	13161
688.542	12804
688.567	12411
688.613	12802
688.658	12575
688.663	12593
688.703	12704
688.749	12748
688.784	12750
688.794	12746
688.839	12613
688.884	12538
688.905	12430
688.930	12485
688.975	13119
689.020	12839
689.026	12835
689.065	12708
689.110	13140
689.146	12977
689.155	12926
689.201	12349
689.246	12421
689.267	12161
689.291	12121
689.336	12677
689.381	12344
689.388	12391
689.426	12540
689.471	12750
689.509	13079
689.516	13159
689.561	12688
689.606	12822
689.630	12817
689.651	12991
689.696	13423
689.741	13693
689.750	13802
689.785	13795
689.830	13263
689.871	12864
689.875	12854
689.920	12603
689.965	12754
689.992	12468
690.010	12425
690.054	13033
690.099	12898
690.112	13058
690.144	13512
690.189	13198
690.233	13088
690.233	13104
690.278	12842
690.323	13182
690.354	12411
690.367	12224
690.412	12704
690.457	12956
690.474	13041
690.501	13186
690.546	12969
690.590	13054
690.595	13021
690.635	12937
690.680	13070
690.716	12934
690.724	12950
690.769	13448
690.813	13427
690.836	13396
690.857	13536
690.902	14086
690.946	14378
690.957	14515
690.991	15535
691.035	16932
691.077	17601
691.080	17622
691.124	17635
691.168	17733
691.198	18014
691.213	17965
691.257	17555
691.301	16770
691.318	16594
691.346	16196
691.390	15189
691.434	14457
691.439	14328
691.478	14345
691.522	14384
691.559	14491
691.567	14586
691.611	15038
691.655	15260
691.680	15371
691.699	15319
691.743	15561
691.787	15077
691.800	15258
691.831	16012
691.875	15970
691.919	16126
691.921	16094
691.964	15897
692.008	16355
692.041	16294
692.052	16325
692.096	16641
692.139	16767
692.162	16781
692.183	16643
692.227	16663
692.271	16023
692.282	15954
692.315	16136
692.359	16210
692.402	16285
692.403	16318
692.447	16476
692.490	16386
692.523	16758
692.534	16942
692.578	17077
692.622	17258
692.643	17295
692.666	16970
692.709	16243
692.753	15517
692.763	15376
692.797	15632
692.840	15561
692.884	15399
692.884	15433
692.928	15815
692.971	16144
693.004	16442
693.015	16451
693.059	16277
693.102	15883
693.124	15844
693.146	16196
693.189	16401
693.233	16982
693.245	17017
693.276	17089
693.320	17569
693.363	17759
693.365	17731
693.407	17377
693.450	16806
693.485	16322
693.493	16478
693.537	17267
693.580	17906
693.605	18330
693.624	18456
693.667	18546
693.710	18778
693.725	18902
693.753	20675
693.797	22838
693.840	25207
693.845	25427
693.883	24190
693.926	22997
693.966	21419
693.970	21250
694.013	19495
694.056	17659
694.086	16228
694.099	16422
694.142	17044
694.185	17725
694.206	17946
694.229	18315
694.272	19136
694.315	19686
694.326	19796
694.358	19646
694.401	19382
694.444	19457
694.446	19399
694.487	19173
694.530	19008
694.566	18743
694.573	18608
694.616	17546
694.659	16520
694.686	15799
694.702	15830
694.745	15669
694.787	15702
694.806	15667
694.830	15779
694.873	15905
694.916	15952
694.926	15971
694.959	16250
695.002	16390
695.044	16478
695.046	16445
695.087	16776
695.130	17099
695.166	17270
695.172	17280
695.215	17016
695.258	17123
695.286	16910
695.301	16923
695.343	17011
695.386	16806
695.406	16791
695.428	16843
695.471	16873
695.514	16779
695.526	16731
695.556	16998
695.599	17406
695.641	17555
695.646	17535
695.684	17073
695.726	16583
695.766	16125
695.769	16186
695.811	16506
695.854	16502
695.886	16777
695.896	16878
695.938	16975
695.981	17056
696.005	16972
696.023	17014
696.065	17143
696.108	17357
696.125	17342
696.150	17421
696.192	17388
696.235	17709
696.245	17659
696.277	17411
696.319	17157
696.361	16942
696.365	16873
696.404	16858
696.446	16837
696.485	16759
696.488	16838
696.530	17274
696.572	17655
696.604	18049
696.614	17970
696.656	17259
696.698	16786
696.724	16279
696.740	16460
696.783	16965
696.825	17473
696.844	17606
696.867	17484
696.909	17197
696.951	16833
696.964	16751
696.992	16626
697.034	16242
697.076	15786
697.083	15693
697.118	16371
697.160	17092
697.202	17672
697.203	17646
697.244	17418
697.286	16942
697.323	16464
697.327	16517
697.369	16537
697.411	16844
697.442	16836
697.453	17020
697.494	17683
697.536	18339
697.562	18675
697.578	18626
697.620	18387
697.661	18132
697.682	17942
697.703	18305
697.744	18999
697.786	19711
697.801	19893
697.828	20029
697.869	20160
697.911	20278
697.921	20243
697.952	19563
697.994	18717
698.035	17768
698.040	17608
698.077	17396
698.118	17086
698.160	16764
698.160	16714
698.201	17091
698.243	17351
698.279	17582
698.284	17682
698.325	18134
698.367	18608
698.399	18878
698.408	18850
698.449	18507
698.491	18180
698.518	17903
698.532	17955
698.573	17957
698.614	17984
698.638	17921
698.656	18054
698.697	18268
698.738	18520
698.757	18572
698.779	18843
698.820	19250
698.862	19677
698.877	19783
698.903	20009
698.944	20277
698.985	20540
698.996	20560
699.026	20151
699.067	19503
699.116	18682
699.235	17724
699.354	18124
699.474	19956
699.593	21568
699.713	20558
699.832	18946
699.951	19349
700.070	18006
700.190	17183
700.309	18648
700.428	20374
700.547	17560
700.667	18871
700.786	21365
700.905	17580
701.024	20144
701.143	17690
701.262	15627
701.381	16686
701.500	18004
701.619	19422
701.738	16562
701.857	15890
701.976	16036
702.095	14811
702.214	18265
702.333	17713
702.452	16955
702.571	15248
702.690	16305
702.809	15126
702.928	14314
703.047	15803
703.165	15658
703.284	14916
703.403	15820
703.522	17419
703.640	18126
703.759	23132
703.878	29228
703.997	17137
704.115	15895
704.234	15268
704.353	14441
704.471	15099
704.590	13505
704.708	13314
704.827	13694
704.946	15036
705.064	16193
705.183	14914
705.301	18413
705.420	26204
705.538	22103
705.656	17959
705.775	18101
705.893	22851
706.012	25482
706.130	19590
706.249	19709
706.367	20987
706.485	22544
706.604	20768
706.722	21056
706.840	26153
706.958	24525
707.077	19321
707.195	16512
707.313	17650
707.431	17114
707.549	17460
707.668	17114
707.786	19019
707.904	17262
708.022	15990
708.140	16646
708.258	17101
708.376	17416
708.494	17003
708.612	19310
708.730	27786
708.848	25115
708.966	23196
709.084	22353
709.202	21288
709.320	22484
709.438	20504
709.556	21618
709.674	21312
709.791	21610
709.909	20010
710.027	20488
710.145	20237
710.263	21845
710.380	21792
710.498	19541
710.616	20293
710.733	22080
710.851	22196
710.969	21907
711.086	20994
711.204	20728
711.322	20249
711.439	20807
711.557	21717
711.674	19784
711.792	19494
711.909	18495
712.027	18996
712.144	18443
712.262	18425
712.379	22227
712.497	31001
712.614	29131
712.732	25332
712.849	22790
712.966	26595
713.084	32515
713.201	25443
713.318	25105
713.436	23406
713.553	25231
713.670	25935
713.787	29051
713.905	28293
714.022	24000
714.139	23018
714.256	27348
714.373	33344
714.490	48893
714.608	117657
714.725	468870
714.842	385465
714.959	38614
715.076	25849
715.193	23499
715.310	21776
715.427	20372
715.544	19545
715.661	20946
715.778	19848
715.895	23497
716.011	23518
716.128	21059
716.245	21137
716.362	24084
716.479	23857
716.596	19596
716.713	20110
716.829	19646
716.946	18295
717.063	17910
717.180	17092
717.296	17267
717.413	17323
717.530	19232
717.646	17516
717.763	18155
717.880	16199
717.996	16704
718.113	17191
718.229	17301
718.346	16107
718.462	17397
718.579	22217
718.695	35886
718.812	27369
718.928	28197
719.045	18117
719.161	16254
719.277	14711
719.394	15222
719.510	16400
719.626	16707
719.743	21193
719.859	24377
719.975	38660
720.092	138959
720.208	266818
720.324	33639
720.440	18924
720.557	22159
720.673	31037
720.789	45237
720.905	98896
721.021	27711
721.137	15885
721.253	16676
721.369	16845
721.486	19633
721.602	28718
721.718	14864
721.834	13389
721.950	14512
722.066	14139
722.181	13235
722.297	14684
722.413	13756
722.529	13166
722.645	13523
722.761	12302
722.877	12934
722.993	12534
723.108	14624
723.224	13539
723.340	13406
723.456	11612
723.571	12805
723.687	11395
723.803	12857
723.918	11813
724.034	12403
724.150	13257
724.265	16658
724.381	37629
724.497	41693
724.612	11418
724.728	11453
724.843	11425
724.959	15248
725.074	36366
725.190	35658
725.305	13589
725.421	11953
725.536	10948
725.651	10411
725.767	10452
725.882	10909
725.997	9515
726.113	10989
726.228	10298
726.343	10268
726.459	8773
726.574	10903
726.689	9971
726.804	11236
726.920	9589
727.035	9873
727.150	10343
727.265	10227
727.380	11159
727.495	9005
727.610	8936
727.725	9288
727.841	9164
727.956	13686
728.071	13131
728.186	9657
728.301	8798
728.416	10208
728.531	7643
728.645	7546
728.760	9406
728.875	9474
728.990	9419
729.105	9750
729.220	9848
729.335	9468
729.449	7825
729.564	7769
729.679	8164
729.794	7761
729.908	10101
730.023	10289
730.138	7398
730.253	8926
730.367	7516
730.482	7355
730.596	8230
730.711	8478
730.826	8331
730.940	8208
731.055	8877
731.169	8035
731.284	7431
731.398	7934
731.513	10520
731.627	9763
731.742	10971
731.856	12410
731.970	8374
732.085	10198
732.199	12981
732.313	21377
732.428	51471
732.542	154298
732.656	74750
732.771	14990
732.885	10856
732.999	10068
733.113	10299
733.227	10443
733.342	7657
733.456	8203
733.570	7362
733.684	8191
733.798	7772
733.912	8050
734.026	6126
734.140	7517
734.254	9810
734.368	20683
734.482	22186
734.596	7972
734.710	7188
734.824	7286
734.938	6782
735.052	7458
735.166	9340
735.280	7438
735.393	6639
735.507	7609
735.621	11452
735.735	23874
735.849	8424
735.962	6985
736.076	7890
736.190	7937
736.303	12786
736.417	15787
736.531	6554
736.644	8214
736.758	5371
736.872	5606
736.985	5990
737.099	5763
737.212	5552
737.326	6553
737.439	5693
737.553	6369
737.666	5835
737.780	5549
737.893	5030
738.007	5678
738.120	4769
738.233	5486
738.347	4882
738.460	5388
738.573	6715
738.687	6258
738.800	6434
738.913	9372
739.026	6072
739.140	6373
739.253	5293
739.366	4995
739.479	5817
739.592	4999
739.705	5871
739.818	5324
739.932	4275
740.045	5720
740.158	5153
740.271	5317
740.384	4920
740.497	5416
740.610	6161
740.723	5441
740.836	5517
740.949	6640
741.062	9714
741.174	7221
741.287	6159
741.400	5272
741.513	5983
741.626	6514
741.739	5308
741.851	5200
741.964	4433
742.077	4977
742.189	4993
742.302	6118
742.415	5405
742.527	5500
742.640	4724
742.753	5263
742.865	4059
742.978	4536
743.090	4439
743.203	5426
743.316	3596
743.428	4336
743.541	4736
743.653	4783
743.766	4576
743.878	6195
743.990	8449
744.103	6710
744.215	4411
744.327	5526
744.440	7658
744.552	11612
744.664	5614
744.777	4648
744.889	4099
745.001	5020
745.113	3823
745.226	3977
745.338	3686
745.450	4851
745.562	3711
745.674	3288
745.786	3747
745.898	4408
746.010	3559
746.122	3344
746.234	3989
746.347	3910
746.459	3635
746.570	3457
746.682	3533
746.794	4556
746.906	3355
747.018	4342
747.130	4433
747.242	3861
747.354	3172
747.466	5649
747.577	3480
747.689	4111
747.801	3481
747.913	4489
748.024	2781
748.136	3823
748.248	3449
748.359	3280
748.471	4146
748.583	3318
748.694	3744
748.806	5258
748.918	7416
749.029	4461
749.141	4596
749.252	4142
749.364	6463
749.475	14098
749.587	7722
749.698	4643
749.809	3809
749.921	3407
750.032	3214
750.144	2728
750.255	2867
750.366	2866
750.478	3407
750.589	4253
750.700	3473
750.811	4816
750.923	5894
751.034	14584
751.145	11715
751.256	3943
751.367	2823
751.479	2884
751.590	2559
751.701	3813
751.812	2319
751.923	3179
752.034	3289
752.145	3431
752.256	2992
752.367	2882
752.478	2734
752.589	3904
752.700	2199
752.811	2821
752.922	3264
753.032	4443
753.143	4164
753.254	2432
753.365	3096
753.476	3288
753.586	2590
753.697	3472
753.808	2528
753.919	2726
754.029	3119
754.140	2799
754.251	2420
754.361	3525
754.472	2899
754.582	3601
754.693	2558
754.804	2596
754.914	1886
755.025	1915
755.135	2276
755.246	3628
755.356	2021
755.466	3093
755.577	3500
755.687	2919
755.798	2482
755.908	2953
756.018	3463
756.129	3051
756.239	2389
756.349	3437
756.460	3266
756.570	3136
756.680	3197
756.790	3663
756.900	3969
757.011	2794
757.121	2308
757.231	2580
757.341	3260
757.451	2300
757.561	2091
757.671	2567
757.781	2345
757.891	3130
758.001	3425
758.111	3681
758.221	2700
758.331	4242
758.441	4147
758.551	6350
758.661	4535
758.771	4613
758.880	3384
758.990	3968
759.100	3289
759.210	3026
759.320	3894
759.429	4162
759.539	2794
759.649	3874
759.758	3707
759.868	4501
759.978	3518
760.087	4242
760.197	4858
760.307	4156
760.416	3965
760.526	3757
760.635	3541
760.745	3540
760.854	3727
760.964	5005
761.073	3706
761.182	4527
761.292	3431
761.401	4770
761.511	3501
761.620	3615
761.729	3365
761.839	3484
761.948	4123
762.057	3685
762.166	3176
762.276	2334
762.385	3097
762.494	4168
762.603	4058
762.712	3803
762.822	3034
762.931	2342
763.040	2204
763.149	2622
763.258	2521
763.367	3989
763.476	3097
763.585	3197
763.694	3201
763.803	3335
763.912	4335
764.021	2853
764.130	3584
764.238	3734
764.347	2693
764.456	3819
764.565	2915
764.674	4312
764.783	3527
764.891	3311
765.000	4961
765.109	5427
765.217	4951
765.326	6297
765.435	7460
765.543	7479
765.652	6488
765.761	8190
765.869	11954
765.978	19665
766.086	31307
766.195	61909
766.303	156685
766.412	383911
766.520	317518
766.629	92582
766.737	36453
766.846	20898
766.954	13606
767.062	11946
767.171	9939
767.279	7671
767.387	6342
767.496	6703
767.604	6031
767.712	5137
767.820	5362
767.928	5097
768.037	4944
768.145	5641
768.253	4950
768.361	4282
768.469	5280
768.577	4638
768.685	4907
768.793	4493
768.901	4838
769.009	5922
769.117	5883
769.225	7299
769.333	9435
769.441	14662
769.549	24212
769.657	56292
769.765	174447
769.873	323969
769.981	113185
770.088	28238
770.196	14296
770.304	10087
770.412	8248
770.519	7228
770.627	6486
770.735	5489
770.842	5346
770.950	5307
771.058	5078
771.165	4862
771.273	3515
771.380	3990
771.488	4819
771.595	4670
771.703	4158
771.810	4644
771.918	4016
772.025	4436
772.133	4262
772.240	4210
772.348	4644
772.455	5336
772.562	3394
772.670	4021
772.777	4135
772.884	3815
772.991	4076
773.099	4604
773.206	2791
773.313	4798
773.420	2694
773.528	3097
773.635	3021
773.742	4123
773.849	3252
773.956	3404
774.063	3805
774.170	2694
774.277	4441
774.384	3243
774.491	2929
774.598	3903
774.705	4039
774.812	5765
774.919	3745
775.026	4824
775.133	3648
775.239	3946
775.346	3006
775.453	3466
775.560	3205
775.667	3955
775.773	1993
775.880	2783
775.987	3544
776.093	4454
776.200	3754
776.307	2800
776.413	3247
776.520	3413
776.627	3564
776.733	4101
776.840	1824
776.946	5127
777.053	3337
777.159	3499
777.266	2145
777.372	4360
777.478	3076
777.585	4048
777.691	3223
777.798	2639
777.904	4382
778.010	6730
778.117	4488
778.223	3449
778.329	2506
778.435	3198
778.542	3114
778.648	3129
778.754	2494
778.860	3530
778.966	2509
779.072	3643
779.178	2302
779.284	3134
779.391	2031
779.497	1876
779.603	4059
779.708	2496
779.815	4524
779.920	7450
780.026	12268
780.132	3158
780.238	2589
780.344	2858
780.450	3490
780.556	2348
780.661	2187
780.767	3199
780.873	2750
780.979	2678
781.085	2119
781.190	2975
781.296	1833
781.402	3056
781.507	2723
781.613	2738
781.719	1813
781.824	2563
781.930	2484
782.035	3180
782.141	3189
782.246	2398
782.352	2353
782.457	2289
782.563	2362
782.668	2667
782.773	2437
782.879	2694
782.984	2632
783.090	4124
783.195	6539
783.300	4296
783.405	2323
783.511	2830
783.616	3016
783.721	2490
783.826	2135
783.932	3232
784.037	2988
784.142	3155
784.247	2233
784.352	2378
784.457	1695
784.562	2771
784.667	2036
784.772	2301
784.877	2543
784.982	2975
785.087	2579
785.192	3233
785.297	2678
785.402	2812
785.507	2044
785.611	3547
785.716	2648
785.821	2524
785.926	1815
786.031	1912
786.135	1724
786.240	2115
786.345	823
786.450	2295
786.554	2596
786.659	1661
786.763	627
786.868	2673
786.973	2989
787.077	2357
787.182	2189
787.286	2258
787.391	873
787.495	1163
787.600	1190
787.704	612
787.809	2334
787.913	1464
788.017	2031
788.122	2139
788.226	2029
788.330	1169
788.435	1597
788.539	1709
788.643	1258
788.747	2170
788.852	428
788.956	1379
789.060	2117
789.164	1626
789.268	593
789.372	2947
789.476	1281
789.580	1224
789.684	1195
789.788	2773
789.892	921
789.996	2030
790.100	1298
790.204	1245
790.308	1830
790.412	1644
790.516	2536
790.620	1173
790.724	1955
790.828	2181
790.931	1254
791.035	3176
791.139	1446
791.242	958
791.346	2424
791.450	1877
791.554	1525
791.657	447
791.761	1566
791.864	2270
791.968	1611
792.072	2183
792.175	1556
792.279	1860
792.382	1246
792.486	1909
792.589	1623
792.693	2843
792.796	820
792.899	2228
793.003	1888
793.106	552
793.209	746
793.313	3086
793.416	602
793.519	3291
793.623	3837
793.726	6190
793.829	1504
793.932	2130
794.035	466
794.138	2480
794.242	2211
794.345	2672
794.448	3555
794.551	5556
794.654	6440
794.757	7050
794.860	4510
794.963	2518
795.066	472
795.169	2164
795.272	780
795.375	2103
795.477	465
795.580	1975
795.683	569
795.786	1014
795.889	-138
795.991	2695
796.094	2148
796.197	2108
796.300	1753
796.402	545
796.505	998
796.608	983
796.710	774
796.813	1796
796.915	417
797.018	1402
797.120	461
797.223	519
797.326	2621
797.428	1101
797.530	665
797.633	1014
797.735	3110
797.838	6636
797.940	3907
798.042	268
798.145	948
798.247	1843
798.349	-33
798.452	1885
798.554	589
798.656	264
798.758	1939
798.860	695
798.962	716
799.065	1155
799.167	-47
799.269	2443
799.371	1628
799.473	1995
799.575	2194
799.677	3479
799.779	2781
799.881	4216
799.983	2848
800.085	1366
800.187	940
800.289	631
800.390	1187
800.492	1391
800.594	1728
800.696	326
800.798	1127
800.899	274
801.001	-111
801.103	853
801.205	483
801.306	435
801.408	-509
801.509	1052
801.611	446
801.713	1563
801.814	94
801.916	938
802.017	543
802.119	293
802.220	768
802.322	516
802.423	3873
802.525	1132
802.626	878
802.727	756
802.829	1498
802.930	-732
803.031	2055
803.133	-325
803.234	352
803.335	511
803.436	-36
803.538	1327
803.639	-539
803.740	430
803.841	-462
803.942	1113
804.043	921
804.144	-131
804.245	1273
804.346	-4
804.447	467
804.548	2762
804.649	2463
804.750	1067
804.851	-205
804.952	14
805.053	705
805.154	-335
805.255	1682
805.355	634
805.456	57
805.557	847
805.658	-432
805.758	932
805.859	3
805.960	753
806.061	-442
806.161	585
806.262	222
806.362	1040
806.463	687
806.564	1474
806.664	795
806.765	2506
806.865	1794
806.966	549
807.066	44
807.166	956
807.267	681
807.367	269
807.468	555
807.568	-276
807.668	489
807.769	426
807.869	-313
807.969	374
808.069	489
808.170	912
808.270	-325
808.370	987
808.470	1434
808.570	775
808.670	63
808.770	-93
808.870	-380
808.970	1016
809.070	-43
809.170	277
809.271	467
809.370	167
809.470	669
809.570	-696
809.670	226
809.770	166
809.870	227
809.970	1138
810.070	-278
810.169	476
810.269	-1136
810.369	1776
810.469	114
810.568	223
810.668	111
810.768	347
810.867	197
810.967	-172
811.066	-150
811.166	240
811.265	789
811.365	-694
811.464	62
811.564	1017
811.663	293
811.763	-384
811.862	420
811.962	1150
812.061	-674
812.160	-407
812.260	569
812.359	-74
812.458	-767
812.557	1579
812.657	737
812.756	696
812.855	872
812.954	26
813.053	613
813.153	760
813.252	-604
813.351	574
813.450	-286
813.549	-229
813.648	-119
813.747	-15
813.846	580
813.945	233
814.044	-766
814.143	958
814.242	533
814.341	464
814.439	654
814.538	895
814.637	-919
814.736	23
814.835	620
814.933	412
815.032	1004
815.131	30
815.229	196
815.328	1437
815.427	559
815.525	1000
815.624	1339
815.722	98
815.821	560
815.919	540
816.018	366
816.116	1003
816.215	1130
816.313	1075
816.412	1087
816.510	1121
816.609	2501
816.707	1673
816.805	746
816.904	1632
817.002	2342
817.100	2730
817.198	2612
817.296	1973
817.395	2005
817.493	3654
817.591	2080
817.689	4403
817.787	5081
817.885	9670
817.983	17705
818.081	41748
818.179	100727
818.277	259840
818.375	197965
818.473	47410
818.571	18611
818.669	12828
818.767	10553
818.865	11325
818.963	13844
819.061	20424
819.158	35304
819.256	82203
819.354	192805
819.452	421896
819.549	245800
819.647	63805
819.745	25716
819.842	16827
819.940	10656
820.038	7561
820.135	5877
820.233	6382
820.330	3156
820.428	2836
820.525	3272
820.623	3014
820.720	1954
820.818	2998
820.915	2070
821.012	2221
821.110	77
821.207	2274
821.304	566
821.402	898
821.499	1162
821.596	2139
821.693	756
821.791	2357
821.888	2711
821.985	6608
822.082	4104
822.179	1588
822.276	-363
822.373	517
822.470	414
822.567	1692
822.664	-301
822.761	1351
822.858	-317
822.955	495
823.052	1
823.149	880
823.246	1226
823.343	613
823.440	200
823.536	384
823.633	203
823.730	282
823.827	-213
823.923	1160
824.020	1223
824.117	541
824.213	-54
824.310	840
824.407	24
824.503	832
824.600	237
824.696	-274
824.793	341
824.889	266
824.986	-370
825.082	277
825.179	-55
825.275	490
825.371	-484
825.468	733
825.564	-653
825.660	1003
825.757	299
825.853	853
825.949	-830
826.045	828
826.142	-366
826.238	21
826.334	827
826.430	-1004
826.526	876
826.622	-747
826.718	-12
826.814	469
826.910	508
827.006	-976
827.102	-833
827.198	1595
827.294	-80
827.390	735
827.486	388
827.582	-781
827.678	-64
827.774	856
827.869	-957
827.965	1091
828.061	-266
828.157	192
828.252	-320
828.348	-742
828.444	806
828.539	-203
828.635	-292
828.731	1727
828.826	-735
828.922	962
829.017	-700
829.113	469
829.208	-263
829.304	-152
829.399	985
829.495	589
829.590	794
829.685	-834
829.781	102
829.876	551
829.971	-539
830.066	-724
830.162	-607
830.257	516
830.352	96
830.447	1319
830.543	-113
830.638	-466
830.733	795
830.828	376
830.923	939
831.018	1241
831.113	644
831.208	-839
831.303	556
831.398	469
831.493	-209
831.588	91
831.683	-1159
831.778	508
831.873	242
831.967	432
832.062	-310
832.157	-799
832.252	581
832.346	318
832.441	861
832.536	2183
832.631	5904
832.725	3909
832.820	-587
832.914	-28
833.009	-58
833.104	343
833.198	1275
833.293	-715
833.387	262
833.482	520
833.576	-563
833.670	1076
833.765	11
833.859	188
833.954	478
834.048	-584
834.142	-777
834.237	-508
834.331	-704
834.425	-239
834.519	-1023
834.613	397
834.708	-527
834.802	349
834.896	-931
834.990	-245
835.084	48
835.178	-299
835.272	-412
835.366	0
835.460	-460
835.554	-108
835.648	-235
835.742	-785
835.836	-66
835.930	-556
836.024	-195
836.117	486
836.211	-282
836.305	2269
836.399	2585
836.493	-75
836.586	728
836.680	-704
836.774	-229
836.867	1583
836.961	-991
837.055	-441
837.148	-568
837.242	-483
837.335	-618
837.429	-727
837.522	-756
837.616	727
837.709	4402
837.803	1684
837.896	611
837.989	770
838.083	2053
838.176	6619
838.269	4219
838.363	1155
838.456	-694
838.549	1640
838.642	1208
838.735	7228
838.829	2227
838.922	-730
839.015	-810
839.108	-879
839.201	636
839.294	-657
839.387	-522
839.480	-286
839.573	1776
839.666	1850
839.759	-556
839.852	-833
839.945	-1001
840.038	-449
840.131	-610
840.223	-343
840.316	-214
840.409	-449
840.502	-1386
840.594	680
840.687	-2298
840.780	1163
840.873	-540
840.965	405
841.058	1223
841.150	5703
841.243	2415
841.336	1204
841.428	84
841.521	45
841.613	-404
841.706	-27
841.798	-509
841.890	-650
841.983	-1222
842.075	-30
842.167	-574
842.260	799
842.352	1634
842.444	1512
842.537	6492
842.629	9289
842.721	310
842.813	606
842.905	-1065
842.997	660
843.090	475
843.182	2670
843.274	5331
843.366	16290
843.458	29800
843.550	17023
843.642	1595
843.734	994
843.826	1113
843.918	757
844.009	488
844.101	-216
844.193	-175
844.285	-138
844.377	341
844.469	441
844.560	-244
844.652	24
844.744	-385
844.835	-29
844.927	333
845.019	1329
845.110	262
845.202	584
845.293	-1386
845.385	-796
845.476	-397
845.568	-177
845.659	-918
845.751	133
845.842	-1721
845.934	-671
846.025	-335
846.116	-456
846.208	-1063
846.299	-471
846.390	-66
846.482	375
846.573	1027
846.664	2410
846.755	2725
846.846	1588
846.937	-1436
847.029	-131
847.120	-682
847.211	-630
847.302	76
847.393	-1037
847.484	-564
847.575	-1402
847.666	-325
847.757	-693
847.847	-757
847.938	-794
848.029	-1067
848.120	-420
848.211	-361
848.302	-669
848.392	-605
848.483	471
848.574	-1645
848.664	-841
848.755	-973
848.846	480
848.936	-975
849.027	-79
849.118	-451
849.208	-363
849.299	824
849.389	1620
849.480	5849
849.570	13341
849.661	24379
849.751	41872
849.841	11820
849.932	618
850.022	-309
850.112	934
850.203	-420
850.293	-795
850.383	282
850.474	-1381
850.564	-701
850.654	805
850.744	-311
850.834	-238
850.924	-413
851.014	361
851.104	-580
851.194	-375
851.284	-524
851.374	1450
851.464	251
851.554	640
851.644	-86
851.734	1610
851.824	642
851.914	-504
852.004	178
852.094	-23
852.183	-1091
852.273	449
852.363	-953
852.452	-432
852.542	-721
852.632	-1002
852.721	-473
852.811	-288
852.901	-677
852.990	-31
853.080	135
853.169	407
853.259	-714
853.348	149
853.438	367
853.527	1897
853.617	2259
853.706	7506
853.795	14271
853.885	35465
853.974	68535
854.063	130848
854.152	196186
854.242	64482
854.331	10083
854.420	4682
854.509	2345
854.598	2350
854.687	2034
854.777	2084
854.866	-342
854.955	809
855.044	-1166
855.133	103
855.222	-166
855.311	-779
855.400	-1139
855.488	-86
855.577	-497
855.666	206
855.755	-93
855.844	-175
855.933	-712
856.021	-348
856.110	-274
856.199	-516
856.288	-1300
856.376	-423
856.465	-1056
856.554	-600
856.642	-1139
856.731	-304
856.819	-737
856.908	-214
856.996	-531
857.085	-612
857.173	-606
857.262	-772
857.350	-595
857.438	-539
857.527	-1189
857.615	-848
857.703	-450
857.792	-1047
857.880	-1267
857.968	-726
858.056	-876
858.145	-483
858.233	-657
858.321	-616
858.409	-437
858.497	-863
858.585	-1211
858.673	-565
858.761	-528
858.849	-1094
858.937	-1396
859.025	-584
859.113	-729
859.201	-664
859.289	-498
859.377	-408
859.465	-568
859.552	-1046
859.640	-1046
859.728	111
859.816	-648
859.903	203
859.991	-1172
860.079	-801
860.166	-1066
860.254	-617
860.342	-9
860.429	-291
860.517	-744
860.604	-705
860.692	-866
860.779	-1164
860.867	-1006
860.954	-783
861.042	-1568
861.129	-79
861.216	-541
861.304	-648
861.391	-1145
861.478	-17
861.565	-157
861.653	182
861.740	-1375
861.827	-624
861.914	-386
862.001	-578
862.089	-176
862.176	-330
862.263	-989
862.350	-1128
862.437	-1514
862.524	-541
862.611	-1138
862.698	-343
862.785	-92
862.871	-84
862.958	-1307
863.045	-584
863.132	-827
863.219	-741
863.306	-703
863.392	-213
863.479	-866
863.566	16
863.652	-743
863.739	-828
863.826	-381
863.912	-1216
863.999	-1139
864.086	-287
864.172	-902
864.259	-593
864.345	-597
864.432	-131
864.518	-1763
864.604	-332
864.691	-1420
864.777	-311
864.863	-577
864.950	-55
865.036	-936
865.122	377
865.209	1120
865.295	269
865.381	872
865.467	1584
865.553	1761
865.639	3577
865.726	7336
865.812	17170
865.898	34674
865.984	53889
866.070	103479
866.156	103041
866.242	22393
866.328	4780
866.414	1349
866.499	626
866.585	944
866.671	945
866.757	542
866.843	14
866.928	-756
867.014	-167
867.100	-326
867.186	800
867.271	866
867.357	1849
867.442	1667
867.528	732
867.614	-1293
867.699	506
867.785	684
867.870	-1058
867.956	-374
868.041	572
868.127	191
868.212	1430
868.297	279
868.383	390
868.468	1097
868.553	2985
868.639	3339
868.724	8707
868.809	5850
868.894	492
868.979	-887
869.065	539
869.150	-1234
869.235	164
869.320	-760
869.405	-695
869.490	-373
869.575	-196
869.660	-1537
869.745	648
869.830	-849
869.915	-327
870.000	-1138
870.085	-17
870.169	-390
870.254	10
870.339	-680
870.424	-929
870.509	-332
870.593	-145
870.678	-242
870.763	44
870.847	-1151
870.932	-296
871.016	-119
871.101	-858
871.186	-644
871.270	-1040
871.355	-842
871.439	-31
871.523	-1273
871.608	-114
871.692	-122
871.777	21
871.861	-527
871.945	-453
872.030	-1002
872.114	-29
872.198	-574
872.282	188
872.367	-1037
872.451	-1688
872.535	-470
872.619	-951
872.703	-1033
872.787	-947
872.871	-876
872.955	-664
873.039	-665
873.123	-638
873.207	-723
873.291	22
873.375	-634
873.459	-235
873.543	-774
873.627	-231
873.711	-1972
873.794	-194
873.878	-1298
873.962	-955
874.045	-1162
874.129	-45
874.137	-217
874.213	-1937
874.245	-1359
874.296	-420
874.352	-858
874.380	-1074
874.460	-796
874.464	-786
874.547	-318
874.568	-294
874.631	-191
874.676	-795
874.714	-1313
874.784	-168
874.798	63
874.881	-336
874.892	-393
874.965	-823
874.999	-758
875.048	-646
875.107	-208
875.131	-33
875.215	-492
875.215	-492
875.298	-846
875.323	-974
875.381	-1227
875.430	-770
875.465	-414
875.538	-414
875.548	-436
875.631	-648
875.646	-679
875.714	-792
875.753	-734
875.798	-566
875.861	-604
875.881	-670
875.964	-1146
875.968	-1134
876.047	-807
876.076	-747
876.130	-637
876.183	-317
876.213	-128
876.291	-25
876.296	-23
876.379	-670
876.398	-701
876.462	-741
876.506	-281
876.545	96
876.613	-237
876.628	-317
876.711	-708
876.721	-670
876.794	-212
876.828	-336
876.877	-613
876.935	-706
876.960	-696
877.043	-844
877.043	-841
877.125	-345
877.150	-472
877.208	-428
877.258	-300
877.291	-293
877.365	-527
877.374	-572
877.456	-151
877.472	-245
877.539	-402
877.579	-320
877.622	-322
877.687	-294
877.704	-303
877.787	-411
877.794	-461
877.869	-724
877.901	-358
877.952	136
878.008	44
878.034	-17
878.115	-271
878.117	-281
878.199	-1332
878.222	-1118
878.282	-107
878.329	-149
878.364	-358
878.437	229
878.447	317
878.529	-609
878.544	-545
878.611	-296
878.651	-556
878.694	-798
878.758	-839
878.776	-848
878.858	-651
878.865	-634
878.941	-346
878.972	-423
879.023	-518
879.078	-73
879.105	116
879.185	206
879.187	205
879.269	49
879.292	-295
879.351	-923
879.399	-528
879.433	-407
879.506	-427
879.516	-404
879.598	-54
879.613	-170
879.680	-526
879.720	-317
879.762	-256
879.827	-784
879.844	-850
879.926	-348
879.933	-313
880.007	-302
880.040	-306
880.089	-134
880.147	444
880.171	643
880.253	1438
880.254	1446
880.335	2499
880.360	2715
880.417	3579
880.467	6700
880.499	8464
880.574	8321
880.580	8261
880.662	1417
880.680	1046
880.744	67
880.787	-10
880.825	-231
880.893	-607
880.907	-618
880.989	-865
881.000	-733
881.070	-198
881.106	-477
881.152	-549
881.213	-403
881.233	-396
881.315	-188
881.319	-192
881.396	-385
881.426	-490
881.478	-539
881.532	-280
881.559	-202
881.639	-1103
881.641	-1126
881.722	-963
881.745	-1046
881.803	-859
881.852	-454
881.885	-326
881.958	-532
881.966	-559
882.047	19
882.064	-131
882.129	-261
882.171	137
882.210	326
882.277	721
882.291	782
882.372	115
882.383	29
882.454	-427
882.489	-437
882.535	-381
882.596	-284
882.616	-333
882.697	-390
882.702	-451
882.778	-718
882.808	-461
882.859	-336
882.914	-379
882.940	-457
883.020	-512
883.021	-508
883.102	-549
883.127	-491
883.183	-352
883.233	-592
883.264	-810
883.339	-858
883.345	-801
883.426	-548
883.445	-301
883.507	-251
883.551	-539
883.587	-476
883.657	173
883.668	230
883.749	-265
883.763	-290
883.830	-216
883.869	-251
883.910	-326
883.975	-284
883.991	-303
884.072	-523
884.081	-549
884.152	-395
884.187	-378
884.233	-401
884.292	10
884.314	-14
884.394	-849
884.398	-862
884.475	-225
884.504	-201
884.555	-380
884.610	-387
884.636	-383
884.716	-302
884.716	-296
884.797	-89
884.821	-32
884.877	-221
884.927	-390
884.958	-394
885.033	-347
885.038	-348
885.118	-527
885.139	-551
885.199	-423
885.244	-410
885.279	-406
885.350	21
885.359	44
885.439	-207
885.456	-322
885.520	-584
885.561	-564
885.600	-544
885.667	-396
885.680	-386
885.760	-573
885.773	-586
885.840	-472
885.878	-445
885.920	-344
885.984	-385
886.000	-462
886.080	-146
886.089	-188
886.160	-214
886.195	-192
886.240	-249
886.300	-167
886.320	-164
886.400	-224
886.406	-240
886.480	-956
886.511	-1131
886.560	-655
886.616	-424
886.640	-399
886.720	-34
886.722	-31
886.800	-170
886.827	-200
886.879	4
886.932	160
886.959	136
887.038	74
887.039	75
887.119	-251
887.143	-277
887.198	-91
887.248	-73
887.278	-122
887.354	-87
887.358	-85
887.437	-210
887.459	-278
887.517	-189
887.564	-21
887.596	59
887.669	284
887.676	275
887.755	13
887.774	-31
887.835	245
887.880	337
887.914	138
887.985	-127
887.994	-116
888.073	-156
888.090	-177
888.153	-137
888.195	-26
888.232	46
888.300	144
888.311	251
888.391	881
888.405	998
888.470	537
888.510	242
888.549	-29
888.615	-453
888.628	-330
888.708	266
888.720	366
888.787	604
888.825	714
888.866	346
888.930	-150
888.945	-82
889.024	134
889.035	169
889.103	16
889.140	-64
889.182	-221
889.245	-459
889.261	-391
889.340	-88
889.349	-49
889.419	-220
889.454	-314
889.498	-352
889.559	-393
889.577	-429
889.656	-582
889.664	-594
889.735	-224
889.768	-45
889.814	-28
889.873	-5
889.978	-597
890.083	233
890.187	321
890.292	-198
890.397	-283
890.501	86
890.606	-246
890.710	443
890.815	212
890.919	50
891.024	-250
891.128	-413
891.233	221
891.337	171
891.442	-638
891.546	-162
891.650	-19
891.755	594
891.859	1957
891.963	287
892.068	239
892.172	1071
892.276	-804
892.380	151
892.484	-639
892.589	-487
892.693	207
892.797	97
892.901	387
893.005	134
893.109	605
893.213	180
893.317	-272
893.421	657
893.525	-258
893.629	-299
893.733	-274
893.837	-349
893.941	-253
894.045	-98
894.148	-500
894.252	280
894.356	284
894.460	350
894.564	-20
894.667	46
894.771	21
894.875	-467
894.978	-871
895.082	384
895.186	11
895.289	131
895.393	51
895.496	-15
895.600	295
895.703	522
895.807	453
895.910	-447
896.014	-698
896.117	59
896.221	31
896.324	-586
896.427	-182
896.531	433
896.634	551
896.737	322
896.840	371
896.944	-180
897.047	320
897.150	-71
897.253	-240
897.356	125
897.460	-1053
897.563	142
897.666	-174
897.769	134
897.872	-341
897.975	151
898.078	279
898.181	46
898.284	-595
898.387	-284
898.490	209
898.593	730
898.695	-132
898.798	-620
898.901	512
899.004	378
899.107	-369
899.209	-39
899.312	-313
899.415	-210
899.518	347
899.620	-765
899.723	-165
899.826	10
899.928	-416
900.031	-277
900.133	-6
900.236	-821
900.338	-748
900.441	-331
900.543	51
900.646	-353
900.748	-530
900.851	-459
900.953	61
901.055	-771
901.158	-543
901.260	-208
901.362	-758
901.465	15
901.567	-498
901.669	-281
901.771	-21
901.873	-474
901.976	10
902.078	-555
902.180	472
902.282	330
902.384	283
902.486	-565
902.588	92
902.690	-731
902.792	-131
902.894	-299
902.996	12
903.098	-92
903.200	-573
903.302	-491
903.404	-57
903.505	-1357
903.607	-752
903.709	-414
903.811	-591
903.913	-499
904.014	-129
904.116	-586
904.218	-378
904.319	-236
904.421	455
904.523	622
904.624	-19
904.726	-773
904.827	147
904.929	234
905.030	-97
905.132	-159
905.233	68
905.335	-867
905.436	-791
905.537	-19
905.639	76
905.740	-190
905.841	18
905.943	-395
906.044	-75
906.145	-433
906.247	-748
906.348	-79
906.449	-48
906.550	231
906.651	-200
906.752	754
906.854	-334
906.955	362
907.056	-434
907.157	-283
907.258	-495
907.359	-582
907.460	-811
907.561	-980
907.662	-825
907.762	-875
907.863	4
907.964	-261
908.065	-578
908.166	-987
908.267	-772
908.367	-469
908.468	-550
908.569	-628
908.670	174
908.770	-443
908.871	-680
908.971	-622
909.072	-722
909.173	-1368
909.273	-1111
909.374	-371
909.474	-270
909.575	-412
909.675	-51
909.776	-235
909.876	-572
909.977	-698
910.077	509
910.177	-1044
910.278	530
910.378	-711
910.478	-1208
910.579	553
910.679	-596
910.779	-732
910.879	226
910.980	-1327
911.080	-539
911.180	-20
911.280	-68
911.380	-672
911.480	-632
911.580	-715
911.680	-419
911.780	-871
911.880	-979
911.980	-1071
912.080	-1153
912.180	-87
912.280	-31
912.380	-754
912.480	255
912.580	-628
912.679	-987
912.779	-425
912.879	-1494
912.979	-758
913.078	-64
913.178	-89
913.278	-350
913.377	-334
913.477	-508
913.577	-1095
913.676	-633
913.776	-503
913.875	-1226
913.975	-1035
914.074	-473
914.174	-764
914.273	-621
914.373	-460
914.472	-819
914.572	-1155
914.671	-103
914.770	-913
914.870	-790
914.969	-486
915.068	91
915.167	-365
915.267	-718
915.366	-983
915.465	-1155
915.564	-394
915.663	-268
915.763	-293
915.862	-190
915.961	-1029
916.060	-478
916.159	-882
916.258	-1909
916.357	-486
916.456	-685
916.555	-1317
916.654	-996
916.752	-838
916.851	-106
916.950	-924
917.049	-642
917.148	-825
917.247	-163
917.345	-1139
917.444	-611
917.543	-726
917.642	-787
917.740	-1948
917.839	10
917.937	-6
918.036	-539
918.135	-959
918.233	184
918.332	-1492
918.430	-837
918.529	-1018
918.627	-976
918.726	-574
918.824	-473
918.923	-249
919.021	-1208
919.119	-820
919.218	-1015
919.316	-353
919.414	-1034
919.512	-165
919.611	79
919.709	-157
919.807	-945
919.905	-1265
920.003	-169
920.102	-1133
920.200	-874
920.298	1
920.396	-109
920.494	-1191
920.592	-483
920.690	-952
920.788	-667
920.886	-973
920.984	-1080
921.082	-1033
921.180	-619
921.277	-237
921.375	-1107
921.473	-431
921.571	-861
921.669	-812
921.766	-1683
921.864	-685
921.962	-693
922.060	-1102
922.157	-885
922.255	-230
922.352	-1044
922.450	-92
922.548	-957
922.645	-331
922.743	-727
922.840	-607
922.938	-623
923.035	-526
923.133	-649
923.230	-1058
923.327	443
923.425	-769
923.522	-79
923.619	-1128
923.717	-653
923.814	-827
923.911	-661
924.008	-334
924.106	-764
924.203	-391
924.300	-1083
924.397	-645
924.494	-519
924.591	-703
924.688	-1174
924.786	-583
924.883	-612
924.979	-1158
925.077	-247
925.173	-1041
925.270	-1013
925.367	-419
925.464	406
925.561	-856
925.658	-916
925.755	-623
925.852	-445
925.948	-698
926.045	-374
926.142	-817
926.239	-754
926.335	-1128
926.432	-222
926.529	-365
926.625	-267
926.722	-952
926.818	-1034
926.915	-1230
927.011	-876
927.108	-1286
927.204	-375
927.301	-1529
927.397	-1118
927.494	-296
927.590	-974
927.687	-661
927.783	-992
927.879	-743
927.976	-1614
928.072	-632
928.168	-798
928.264	-426
928.361	-1395
928.457	-12
928.553	-702
928.649	-873
928.745	-98
928.841	-1266
928.937	-1394
929.033	-531
929.129	-573
929.225	-372
929.321	-1204
929.417	-1253
929.513	-1141
929.609	-1289
929.705	-1206
929.801	-471
929.897	-1035
929.993	-733
930.089	-852
930.184	-474
930.280	-998
930.376	-866
930.471	-1156
930.567	-950
930.663	-1393
930.758	-1340
930.854	-1435
930.950	-526
931.045	-352
931.141	-1607
931.236	-876
931.332	-1110
931.427	-1424
931.523	-724
931.618	-554
931.714	-1049
931.809	-774
931.905	-1638
932.000	-765
932.095	-1889
932.191	-444
932.286	-1193
932.381	-1194
932.476	-794
932.572	-905
932.667	-756
932.762	-510
932.857	-1086
932.952	-1196
933.047	-1471
933.142	-1543
933.237	-1752
933.332	-1161
933.427	-124
933.522	-742
933.617	-1468
933.712	241
933.807	-1059
933.902	-2065
933.997	-1022
934.092	-1453
934.187	-1995
934.282	-1275
934.376	-956
934.471	-1362
934.566	-2070
934.661	-931
934.755	-1136
934.850	-691
934.945	-1029
935.039	-1193
935.134	-1329
935.228	-696
935.323	-856
935.417	-433
935.512	-1187
935.606	-909
935.701	-1789
935.795	-1382
935.890	-783
935.984	-726
936.079	-1665
936.173	-669
936.267	-1434
936.362	-2082
936.456	-675
936.550	-1026
936.644	-1633
936.738	-1058
936.833	-1422
936.927	-264
937.021	-1362
937.115	-1226
937.209	-2194
937.303	-342
937.397	-1565
937.491	-661
937.585	-957
937.679	-1318
937.773	-1932
937.867	-1168
937.961	-656
938.055	-896
938.149	-687
938.243	-1745
938.337	-1268
938.430	-988
938.524	-816
938.618	-1139
938.712	-759
938.805	-1978
938.899	-1120
938.993	-1768
939.086	-872
939.180	-1043
939.274	-482
939.367	-1525
939.461	-1581
939.554	-954
939.648	-1267
939.741	-550
939.835	-1987
939.928	-502
940.022	-1184
940.115	-767
940.208	-1181
940.302	-802
940.395	-856
940.488	-2122
940.582	-1525
940.675	-738
940.768	-685
940.861	-1251
940.954	-973
941.048	-1426
941.141	-1396
941.234	-1128
941.327	-1166
941.420	-452
941.513	-278
941.606	-1049
941.699	-462
941.792	-756
941.885	-595
941.978	-1332
942.071	-1170
942.164	-1707
942.257	-1281
942.349	-1345
942.442	-1293
942.535	-1240
942.628	-879
942.721	-1221
942.813	-1979
942.906	-1097
942.999	-1733
943.091	-1632
943.184	-1257
943.277	-2274
943.369	-1440
943.462	-967
943.554	-546
943.647	-1556
943.739	-1428
943.832	-1221
943.924	-2010
944.017	-847
944.109	-2040
944.201	-629
944.294	-1651
944.386	-852
944.478	-1924
944.571	-1048
944.663	-1486
944.755	-1121
944.847	-1127
944.940	-1599
945.032	-1984
945.124	-1350
945.216	70
945.308	-1950
945.400	-1298
945.492	-1333
945.584	-1312
945.676	-1105
945.768	-841
945.860	-1524
945.952	-1886
946.044	-1192
946.136	-1585
946.228	-1202
946.320	-930
946.412	-841
946.503	-997
946.595	-878
946.687	-1508
946.779	-1982
946.870	-1417
946.962	-1300
947.054	-1841
947.145	-1418
947.237	-1583
947.329	-1293
947.420	-1710
947.512	-294
947.603	-936
947.695	-1524
947.786	-1750
947.878	-1583
947.969	-1031
948.061	-1968
948.152	-2285
948.243	-1387
948.335	-1218
948.426	-1699
948.517	-1737
948.609	-1443
948.700	-1915
948.791	-1238
948.882	-1107
948.973	-751
949.065	-1561
949.156	-1398
949.247	-1575
949.338	-603
949.429	-2118
949.520	-1696
949.611	-1911
949.702	-1409
949.793	-1678
949.884	-1442
949.975	-1183
950.066	-1643
950.157	-1920
950.247	-1209
950.338	-1500
950.429	-1559
950.520	-1566
950.611	-1034
950.701	-1672
950.792	-1518
950.883	-886
950.973	-1153
951.064	-1205
951.155	-1494
951.245	-1650
951.336	-1947
951.427	-2238
951.517	-990
951.608	-1276
951.698	-1608
951.788	-1758
951.879	-464
951.969	-2012
952.060	-1146
952.150	-1860
952.240	-961
952.331	-3077
952.421	-276
952.511	-1459
952.602	-1273
952.692	-1591
952.782	-781
952.872	-1266
952.962	-1382
953.052	-1735
953.143	-2237
953.233	-1611
953.323	-1141
953.413	-2014
953.503	-1753
953.593	-1403
953.683	-2117
953.773	-1986
953.863	-1503
953.953	-668
954.042	-1365
954.132	-1706
954.222	-978
954.312	-1651
954.402	-2013
954.492	-1732
954.581	-1637
954.671	-2577
954.761	-1759
954.850	-845
954.940	-1122
955.030	-1716
955.119	-1260
955.209	-1187
955.298	-1491
955.388	-2803
955.477	-897
955.567	-1854
955.656	-1586
955.746	-1459
955.835	-1591
955.925	-1553
956.014	-1432
956.103	-1617
956.193	-1407
956.282	-1360
956.371	-1332
956.461	-1902
956.550	-1225
956.639	-1154
956.728	-1450
956.817	-1770
956.906	-1834
956.995	-1553
957.085	-560
957.174	-2079
957.263	-1354
957.352	-1263
957.441	-2727
957.530	-1277
957.619	-1394
957.708	-1788
957.796	-1992
957.885	-1679
957.974	-1262
958.063	-960
958.152	-1421
958.241	-1904
958.329	-1120
958.418	-2303
958.507	-2366
958.596	-1136
958.684	-1511
958.773	-1431
958.861	-2213
958.950	-1671
959.039	-803
959.127	-2533
959.216	-1090
959.304	-2047
959.393	-1541
959.481	-1335
959.570	-1748
959.658	-2073
959.746	-1058
959.835	-1329
959.923	-1171
960.011	-2006
960.100	-1443
960.188	-1504
960.276	-1499
960.365	-1546
960.453	-1929
960.541	-2120
960.629	-1529
960.717	-1865
960.805	-2044
960.893	-2060
960.981	-2401
961.069	-266
961.158	-2414
961.245	-1742
961.333	-1889
961.421	-1061
961.509	-960
961.597	-2212
961.685	-1196
961.773	-2029
961.861	-2269
961.949	-1120
962.036	-2073
962.124	-1637
962.212	-2158
962.299	-2267
962.387	-2052
962.475	-1551
962.562	-2908
962.650	-1262
962.738	-1651
962.825	-1823
962.913	-1577
963.000	-2312
963.088	-1729
963.175	-2225
963.263	-1238
963.350	-2155
963.438	-2127
963.525	-2725
963.612	-1136
963.700	-1343
963.787	1448
963.874	-986
963.962	-1229
964.049	-1150
964.136	-2083
964.223	-2070
964.310	-1678
964.398	-2417
964.485	-1820
964.572	-1870
964.659	-1565
964.746	-1871
964.833	-1646
964.920	-2385
965.007	-1335
965.094	-1870
965.181	-1129
965.268	-1818
965.355	-1889
965.441	-2171
965.528	-2198
965.615	-1264
965.702	-1414
965.789	-1902
965.875	-1475
965.962	-2030
966.049	-2806
966.136	-1893
966.222	-2039
966.309	-1568
966.395	-2321
966.482	-1828
966.569	-1815
966.655	-1495
966.742	-1521
966.828	-1660
966.915	-2175
967.001	-1354
967.087	-2805
967.174	-2409
967.260	-1136
967.347	-1504
967.433	-1167
967.519	-175
967.605	-1946
967.692	-2638
967.778	-1174
967.864	-1928
967.950	-2681
968.036	-2550
968.123	-1278
968.209	-2414
968.295	-2557
968.381	-791
968.467	-1158
968.553	-2354
968.639	-1510
968.725	-2419
968.811	-1137
968.897	-939
968.983	-2124
969.069	-2682
969.154	-1623
969.240	-1499
969.326	-2245
969.412	-2417
969.497	-2297
969.583	-1779
969.669	-1504
969.755	-2104
969.840	-2218
969.926	-2056
970.012	-1595
970.097	-1829
970.183	-2026
970.268	-2435
970.354	-2205
970.439	-3023
970.525	-682
970.610	-2173
970.696	-1246
970.781	-2179
970.866	-2640
970.952	-2235
971.037	-2397
971.122	-1701
971.208	-1944
971.293	-1670
971.378	-2827
971.463	-2184
971.549	-2052
971.634	-2011
971.719	-1912
971.804	-2190
971.889	-1762
971.974	-2385
972.059	-2293
972.144	-1712
972.229	-2085
972.314	-2599
972.399	-1616
972.484	-2764
972.569	-986
972.654	-2371
972.739	-690
972.824	-2437
972.908	-1823
972.993	-1717
973.078	-2302
973.163	-1885
973.247	-1365
973.332	-3492
973.417	-1129
973.501	-3548
973.586	-2205
973.671	-1712
973.755	-2136
973.840	-1585
973.924	-1098
974.009	-1696
974.093	-2719
974.178	-1396
974.262	-1815
974.346	-1721
974.431	-1900
974.515	-2529
974.600	-1997
974.684	-1615
974.768	-2119
974.852	-1483
974.937	-2822
975.021	-992
975.105	-1441
975.189	-2492
975.273	-1193
975.358	-2303
975.442	-3152
975.526	-1487
975.610	-2675
975.694	-2674
975.778	-947
975.862	-1892
975.946	-3845
976.030	-634
976.114	-2288
976.198	-2578
976.281	-2333
976.365	-1726
976.449	-2717
976.533	-2265
976.617	-2675
976.700	-1850
976.784	-1086
976.868	-1981
976.951	-1493
977.035	-1778
977.119	-2252
977.202	-2162
977.286	-1483
977.369	-1682
977.453	-1513
977.536	-2112
977.620	-2029
977.703	-1403
977.787	-3398
977.870	-1845
977.953	-941
978.037	-3199
978.120	-1372
978.203	-2306
978.287	-1632
978.370	-1716
978.453	-2154
978.536	-2249
978.620	-1044
978.703	-1868
978.786	-2420
978.869	-2958
978.952	-2914
979.035	-1161
979.118	-1986
979.201	-2284
979.284	-2610
979.367	-2621
979.450	-1156
979.533	-2114
979.616	-2407
979.699	-2766
979.782	-1231
979.865	-2269
979.948	-2164
980.030	-1961
980.113	-2216
980.196	-2966
980.279	-1083
980.361	-2113
980.444	-2845
980.526	-1468
980.609	-2100
980.692	-2300
980.774	-1929
980.857	-2791
980.939	-569
981.022	-2504
981.104	-2028
981.187	-2551
981.269	-1217
981.352	-2982
981.434	-2465
981.516	-2346
981.599	-552
981.681	-2138
981.763	-1149
981.846	-2496
981.928	-1732
982.010	-1916
982.092	-2829
982.174	-1747
982.256	-1350
982.339	-3079
982.421	-1634
982.503	-1497
982.585	-2374
982.667	-2655
982.749	-2402
982.831	-1935
982.913	-2834
982.995	-1072
983.077	-2694
983.158	-1034
983.240	-3253
983.322	-1593
983.404	-1651
983.486	-3119
983.568	-1444
983.649	-2778
983.731	-1407
983.813	-1933
983.894	-2030
983.976	-2443
984.058	-2481
984.139	-1524
984.221	-3212
984.302	-1147
984.384	-2360
984.465	-3023
984.547	-1588
984.628	-2269
984.710	-1590
984.791	-2834
984.872	-2422
984.954	-2486
985.035	-2218
985.116	-2187
985.198	-3092
985.279	-1210
985.360	-1760
985.441	-2513
985.522	-1965
985.604	-2993
985.685	-3979
985.766	-946
985.847	-1627
985.928	-2820
986.009	-2648
986.090	-1894
986.171	-1777
986.252	-2529
986.333	-2524
986.414	-2013
986.495	-2004
986.576	-2608
986.656	-1776
986.737	-3184
986.818	-2855
986.899	-2777
986.980	-2493
987.060	-1414
987.141	-3028
987.222	-1971
987.302	-2560
987.383	-2759
987.464	-2475
987.544	-1607
987.625	-2745
987.705	-2203
987.786	-2393
987.866	-2269
987.947	-2308
988.027	-1813
988.108	-2445
988.188	-1742
988.268	-2060
988.349	-3110
988.429	-2756
988.509	-2158
988.589	-2358
988.670	-3537
988.750	-1112
988.830	-2729
988.910	-2580
988.990	-2682
989.070	-2971
989.151	-2557
989.231	-3053
989.311	-2319
989.391	-2605
989.471	-2138
989.551	-1835
989.631	-2796
989.711	-2342
989.791	-2678
989.870	-1989
989.950	-1522
990.030	-2912
990.110	-2097
990.190	-3443
990.269	-2888
990.349	-1735
990.429	-2255
990.509	-2069
990.588	-2517
990.668	-2120
990.747	-2404
990.827	-2189
990.907	-1845
990.986	-2638
991.066	-2336
991.145	-2555
991.225	-1741
991.304	-2147
991.383	-1429
991.463	-2059
991.542	-1683
991.622	-1644
991.701	-2140
991.780	-2897
991.859	-2170
991.939	-2220
992.018	-2536
992.097	-1465
992.176	-2200
992.256	-1758
992.335	-2946
992.414	-1316
992.493	-2575
992.572	-2039
992.651	-2211
992.730	-1909
992.809	-1929
992.888	-2895
992.967	-2119
993.046	-1732
993.125	-3232
993.203	-2453
993.282	-2338
993.361	-2706
993.440	-2063
993.519	-3147
993.597	-1612
993.676	-2575
993.755	-1609
993.834	-2614
993.912	-3470
993.991	-2101
994.069	-3271
994.148	-2529
994.226	-2299
994.305	-2552
994.384	-2585
994.462	-1405
994.540	-2886
994.619	-2915
994.697	-2068
994.776	-2784
994.854	-1995
994.932	-2155
995.011	-2686
995.089	-2035
995.167	-2264
995.245	-2326
995.324	-3638
995.402	-1563
995.480	-2328
995.558	-2519
995.636	-2563
995.714	-2835
995.792	-1577
995.870	-2748
995.948	-2140
996.026	-2042
996.104	-2968
996.182	-1805
996.260	-2938
996.338	-2397
996.416	-3777
996.494	-2387
996.572	-1118
996.649	-2270
996.727	-2678
996.805	-2063
996.883	-2511
996.960	-2787
997.038	-2347
997.116	-2368
997.193	-3534
997.271	-2348
997.348	-3218
997.426	-2450
997.504	-2618
997.581	-2568
997.658	-2265
997.736	-3306
997.813	-3456
997.891	-1588
997.968	-2570
998.046	-2214
998.123	-2110
998.200	-2660
998.277	-2921
998.355	-2034
998.432	-3339
998.509	-1976
998.586	-1581
998.663	-1930
998.741	-2350
998.818	-1360
998.895	-3035
998.972	-2522
999.049	-2018
999.126	-3099
999.203	-1450
999.280	-2627
999.357	-2211
999.434	-2965
999.511	-2476
999.587	-1728
999.664	-2570
999.741	-2387
999.818	-1752
999.895	-3029
999.971	-3197
1000.048	-2999
1000.125	-2009
1000.202	-3794
1000.278	-2799
1000.355	-2384
1000.431	-2622
1000.508	-2538
1000.584	-2983
1000.661	-1795
1000.738	-2450
1000.814	-2419
1000.890	-2762
1000.967	-2862
1001.043	-2720
1001.120	-3492
1001.196	-2413
1001.272	-3324
1001.349	-3157
1001.425	-1302
1001.501	-2580
1001.577	-2328
1001.654	-2016
1001.730	-3172
1001.806	-2268
1001.882	-3098
1001.958	-2018
1002.034	-2284
1002.110	-1910
1002.186	-2458
1002.262	-2471
1002.338	-2838
1002.414	-2494
1002.490	-2229
1002.566	-3015
1002.642	-3065
1002.718	-2895
1002.794	-2709
1002.870	-2109
1002.945	-2903
1003.021	-2297
1003.097	-2848
1003.173	-1894
1003.248	-3604
1003.324	-1820
1003.400	-2395
1003.475	-3032
1003.551	-2773
1003.626	-2214
1003.702	-2489
1003.777	-1702
1003.853	-2711
1003.928	-3383
1004.004	-2265
1004.079	-2424
1004.155	-1709
1004.230	-3689
1004.305	-1878
1004.381	-3300
1004.456	-1679
1004.531	-3078
1004.607	-2427
1004.682	-2360
1004.757	-2728
1004.832	-2593
1004.907	-2848
1004.982	-1648
1005.057	-2344
1005.133	-2626
1005.208	-3078
1005.283	-2441
1005.358	-2392
1005.433	-3101
1005.508	-2354
1005.583	-2806
1005.657	-3044
1005.732	-2273
1005.807	-2505
1005.882	-2514
1005.957	-2075
1006.032	-2089
1006.106	-2391
1006.181	-2540
1006.256	-2248
1006.331	-3071
1006.405	-3475
1006.480	-3132
1006.554	-2313
1006.629	-1526
1006.704	-1898
1006.778	-2670
1006.853	-2451
1006.927	-3023
1007.002	-2379
1007.076	-2239
1007.150	-3298
1007.225	-3084
1007.299	-1396
1007.373	-2827
1007.448	-2558
1007.522	-2026
1007.596	-2661
1007.671	-3742
1007.745	-2452
1007.819	-3653
1007.893	-2918
1007.967	-2202
1008.041	-2778
1008.115	-2566
1008.190	-3591
1008.264	-2355
1008.338	-3703
1008.412	-3333
1008.486	-2610
1008.560	-2801
1008.633	-3124
1008.707	-2334
1008.781	-3110
1008.855	-3055
1008.929	-2900
1009.003	-2141
1009.076	-3131
1009.150	-2338
1009.224	-2051
1009.298	-2038
1009.371	-3021
1009.445	-2080
1009.519	-2237
1009.592	-3592
1009.666	-2472
1009.739	-2558
1009.813	-3648
1009.886	-1993
1009.960	-3692
1010.033	-2298
1010.107	-2688
1010.180	-3478
1010.253	-1914
1010.327	-2884
1010.400	-2728
1010.473	-2377
1010.547	-2197
1010.620	-3289
1010.693	-2691
1010.766	-2554
1010.840	-2389
1010.913	-1807
1010.986	-2792
1011.059	-2615
1011.132	-2134
1011.205	-2497
1011.278	-2763
1011.351	-3645
1011.424	-3243
1011.497	-2675
1011.570	-2485
1011.643	-3220
1011.716	-2236
1011.789	-3180
1011.862	-1901
1011.934	-2374
1012.007	-2829
1012.080	-3403
1012.153	-2068
1012.225	-2167
1012.298	-2633
1012.371	-2551
1012.443	-2319
1012.516	-3334
1012.588	-2365
1012.661	-2274
1012.733	-3348
1012.806	-2025
1012.879	-3077
1012.951	-2587
1013.023	-2579
1013.096	-2322
1013.168	-3447
1013.241	-1041
1013.313	-2460
1013.385	-3133
1013.458	-2130
1013.530	-2898
1013.602	-3146
1013.674	-2364
1013.746	-2765
1013.819	-3656
1013.891	-2065
1013.963	-2735
1014.035	-1857
1014.107	-2829
1014.179	-2395
1014.251	-3037
1014.323	-2015
1014.395	-2634
1014.467	-2788
1014.539	-2561
1014.611	-2729
1014.683	-2227
1014.754	-2371
1014.826	-2942
1014.898	-2463
1014.970	-3814
1015.042	-2636
1015.113	-2102
1015.185	-2084
1015.257	-3990
1015.328	-2670
1015.400	-2870
1015.471	-2502
1015.543	-2644
1015.615	-2350
1015.686	-3468
1015.757	-1341
1015.829	-2430
1015.901	-2713
1015.972	-2885
1016.043	-2150
1016.115	-2338
1016.186	-2558
1016.257	-3475
1016.328	-2441
1016.400	-2493
1016.471	-3099
1016.542	-2481
1016.613	-2567
1016.685	-2295
1016.756	-1925
1016.827	-2976
1016.898	-3093
1016.969	-2698
1017.040	-2541
1017.111	-2404
1017.182	-2565
1017.253	-2314
1017.324	-3404
1017.395	-2758
1017.466	-2360
1017.537	-2100
1017.608	-2551
1017.678	-2699
1017.749	-2412
1017.820	-3143
1017.891	-2828
1017.961	-2681
1018.032	-2149
1018.103	-2914
1018.173	-2345
1018.244	-2832
1018.315	-2967
1018.385	-2521
1018.456	-2293
1018.526	-3203
1018.597	-2114
1018.667	-2993
1018.738	-2712
1018.808	-1793
1018.878	-2393
1018.949	-3541
1019.019	-2735
1019.089	-2732
1019.160	-2854
1019.230	-3017
1019.300	-2767
1019.371	-3102
1019.441	-2228
1019.511	-2607
1019.581	-2439
1019.651	-2188
1019.721	-2143
1019.791	-2451
1019.861	-2434
1019.931	-3042
1020.001	-2268
1020.071	-3000
1020.141	-2324
1020.211	-2998
1020.281	-2918
1020.351	-3019
1020.421	-2507
1020.491	-2359
1020.560	-3391
1020.630	-2465
1020.700	-1866
1020.770	-2512
1020.839	-2366
1020.909	-1910
1020.979	-3000
1021.048	-2630
1021.118	-2180
1021.187	-2662
1021.257	-2857
1021.326	-3276
1021.396	-2975
1021.465	-2369
1021.535	-2478
1021.604	-3750
1021.674	-2571
1021.743	-3008
1021.812	-2007
1021.882	-3035
1021.951	-2496
1022.020	-3289
1022.089	-2187
1022.159	-2928
1022.228	-2650
1022.297	-2689
1022.366	-2860
1022.435	-2688
1022.504	-2541
1022.573	-3014
1022.642	-2527
1022.711	-3270
1022.781	-2402
1022.849	-2390
1022.918	-2678
1022.987	-2522
1023.056	-2089
1023.125	-2359
1023.194	-3375
1023.263	-2768
1023.331	-2526
1023.400	-2470
1023.469	-2789
1023.538	-2044
1023.606	-2985
1023.675	-2976
1023.744	-3204
1023.812	-2652
1023.881	-1995
1023.949	-2128
1024.018	-2561
1024.086	-2718
1024.155	-2190
1024.223	-2341
1024.292	-2251
1024.360	-2631
1024.429	-2585
1024.497	-2914
1024.565	-2626
1024.634	-3055
1024.702	-2664
1024.770	-2171
1024.838	-2416
1024.907	-2099
1024.975	-2508
1025.043	-2348
1025.111	-3130
1025.179	-2745
1025.247	-2331
1025.315	-2453
1025.383	-2944
1025.451	-2452
1025.519	-2398
1025.587	-3409
1025.655	-2891
1025.723	-3170
1025.791	-3304
1025.859	-2711
1025.927	-2039
1025.995	-3015
1026.062	-2328
1026.130	-2014
1026.198	-2465
1026.266	-3381
1026.333	-1912
1026.401	-2161
1026.469	-2636
1026.536	-2894
1026.604	-2342
1026.671	-2933
1026.739	-2570
1026.806	-3255
1026.874	-2646
1026.941	-2857
1027.009	-1996
1027.076	-2495
1027.144	-2786
1027.211	-2458
1027.278	-2892
1027.345	-2602
1027.413	-2022
1027.480	-2959
1027.547	-2384
1027.614	-3341
1027.682	-2347
1027.749	-2633
1027.816	-2865
1027.883	-2532
1027.950	-2466
1028.017	-2064
1028.084	-1806
1028.151	-3317
1028.218	-2641
1028.285	-2635
1028.352	-2222
1028.419	-3399
1028.486	-2320
1028.553	-2419
1028.619	-2404
1028.686	-2398
1028.753	-2910
1028.820	-2970
1028.886	-2659
1028.953	-2865
1029.020	-2585
1029.086	-2849
1029.153	-2227
1029.220	-2745
1029.286	-2941
1029.353	-2071
1029.419	-2738
1029.486	-2601
1029.552	-2455
1029.619	-2407
1029.685	-2912
1029.751	-2313
1029.818	-2612
1029.884	-2770
1029.951	-1326
1030.017	-3185
1030.083	-2536
1030.149	-2562
1030.216	-2614
1030.282	-1376
1030.348	-3028
1030.414	-3739
1030.480	-2112
1030.546	-2466
1030.612	-1545
1030.678	-2356
1030.744	-2749
1030.810	-2332
1030.876	-2710
1030.942	-2566
1031.008	-3013
1031.074	-2497
1031.140	-2812
1031.206	-2076
1031.272	-2858
1031.337	-2488
1031.403	-1920
1031.469	-2643
1031.534	-2691
1031.600	-2770
1031.666	-2770
1031.731	-2946
1031.797	-2223
1031.863	-3353
1031.928	-2981
1031.994	-2736
1032.059	-1985
1032.125	-2554
1032.190	-2480
1032.256	-3525
1032.321	-2847
1032.386	-3581
1032.452	-1794
1032.517	-2861
1032.582	-3237
1032.647	-2657
1032.713	-2388
1032.778	-2198
1032.843	-2643
1032.908	-3479
1032.974	-2464
1033.039	-2812
1033.104	-2146
1033.169	-2791
1033.234	-2760
1033.299	-2633
1033.364	-3506
1033.429	-2795
1033.494	-2549
1033.559	-3397
1033.624	-3135
1033.688	-3216
1033.753	-2436
1033.818	-2517
1033.883	-1924
1033.948	-2736
1034.013	-1821
1034.077	-2451
1034.142	-2160
1034.207	-2393
1034.271	-2537
1034.336	-2751
1034.400	-2357
1034.465	-2755
1034.530	-3048
1034.594	-2797
1034.658	-3179
1034.723	-2619
1034.787	-2572
1034.852	-3571
1034.916	-3373
1034.981	-2571
1035.045	-2513
1035.109	-2251
1035.173	-2112
1035.238	-2768
1035.302	-2145
1035.366	-2544
1035.430	-2429
1035.495	-2967
1035.559	-2351
1035.623	-1946
1035.687	-2433
1035.751	-1879
1035.815	-2589
1035.879	-3112
1035.943	-2324
1036.007	-2970
1036.071	-2517
1036.135	-2717
1036.198	-2658
1036.262	-3442
1036.326	-2435
1036.390	-3003
1036.454	-3043
1036.517	-2894
1036.581	-2012
1036.645	-2491
1036.709	-2815
1036.772	-2480
1036.836	-2684
1036.900	-2568
1036.963	-2284
1037.026	-2939
1037.090	-2551
1037.154	-2728
1037.217	-2512
1037.280	-2869
1037.344	-2226
1037.407	-3981
1037.471	-2946
1037.534	-2715
1037.597	-3371
1037.661	-2997
1037.724	-3369
1037.787	-2963
1037.850	-2924
1037.913	-3071
1037.977	-2204
1038.040	-2616
1038.103	-2558
1038.166	-2842
1038.229	-2494
1038.292	-2665
1038.355	-1931
1038.418	-3089
1038.481	-2764
1038.544	-3062
1038.607	-2228
1038.670	-2206
1038.732	-2411
1038.795	-3401
1038.858	-2212
1038.921	-1677
1038.984	-1877
1039.046	-2793
1039.109	-2997
1039.172	-2764
1039.234	-2854
1039.297	-2412
1039.360	-3488
1039.422	-3096
1039.485	-2672
1039.547	-3170
1039.610	-2441
1039.672	-3299
1039.734	-2766
1039.797	-2875
1039.859	-2468
1039.922	-2677
1039.984	-2756
1040.046	-2892
1040.109	-2446
1040.171	-2765
1040.233	-2891
1040.295	-3026
1040.358	-3155
1040.420	-3645
1040.482	-2411
1040.544	-2669
1040.606	-2766
1040.668	-2603
1040.730	-2145
1040.792	-2400
1040.854	-2725
1040.916	-2542
1040.978	-2820
1041.040	-2367
1041.102	-2513
1041.164	-2362
1041.225	-3604
1041.287	-2829
1041.349	-2494
1041.411	-2362
1041.472	-2108
1041.534	-3231
1041.596	-2902
1041.657	-1998
1041.719	-2479
1041.781	-3028
1041.842	-2760
1041.904	-2380
1041.965	-2486
1042.027	-2828
1042.088	-2241
1042.150	-2974
1042.211	-2867
1042.272	-2211
1042.334	-2149
1042.395	-2520
1042.456	-3494
1042.518	-2084
1042.579	-2674
1042.640	-2192
1042.701	-1839
1042.763	-2396
1042.824	-2822
1042.885	-3573
1042.946	-3287
1043.007	-2642
1043.068	-2521
1043.129	-2250
1043.190	-2553
1043.251	-1589
1043.312	-2791
1043.373	-2600
1043.434	-2856
1043.495	-2938
1043.556	-2160
1043.616	-2258
1043.677	-2698
1043.738	-2855
1043.799	-2624
1043.859	-2083
1043.920	-2239
1043.981	-2862
1044.041	-2304
1044.102	-2590
1044.162	-2759
1044.223	-3416
1044.284	-2840
1044.344	-2912
1044.405	-2905
1044.465	-2269
1044.525	-2156
1044.586	-2962
1044.646	-2360
1044.707	-2771
1044.767	-2466
1044.827	-2873
1044.887	-3031
1044.948	-2066
1045.008	-1883
1045.068	-2871
1045.128	-1949
1045.188	-2875
1045.249	-1835
1045.309	-1946
1045.369	-1822
1045.429	-2901
1045.489	-2406
1045.549	-2734
1045.609	-2329
1045.669	-3195
1045.729	-2038
1045.789	-3219
1045.848	-2373
1045.908	-1545
1045.968	-2520
1046.028	-1975
1046.088	-2071
1046.147	-2083
1046.207	-1971
1046.267	-1920
1046.326	-1575
1046.386	-3058
1046.446	-1248
1046.505	-1692
1046.565	-2593
1046.624	-1319
1046.684	-1292
1046.743	-980
1046.803	-865
1046.862	-376
1046.922	0
