'Start Wavelength	183.907
'End Wavelength	1046.922
'Gate Delay	5.000
'Gate Width (ms)	1.050
'Laser Output Level	0.000
'X Position	0.000
'Y Position	0.000
'Z Position	0.000
'Grid Point Number	1.000
'Shot Number	100.000
183.907	361.000
183.977	-295.000
184.047	-1175
184.116	816
184.186	15
184.256	-35
184.325	-83
184.395	-553
184.465	-302
184.534	1046
184.604	293
184.674	448
184.743	-208
184.813	938
184.883	222
184.952	-164
185.022	69
185.092	253
185.161	88
185.231	815
185.301	-198
185.370	512
185.440	-433
185.509	-91
185.579	-17
185.649	464
185.718	-335
185.788	367
185.857	-490
185.927	251
185.996	-520
186.066	678
186.136	39
186.205	59
186.275	-325
186.344	94
186.414	-355
186.483	-811
186.553	30
186.622	902
186.692	155
186.761	265
186.831	-760
186.900	535
186.970	333
187.039	-350
187.109	400
187.178	138
187.248	-9
187.317	195
187.387	-891
187.456	-225
187.526	-234
187.595	503
187.664	-303
187.734	204
187.803	406
187.873	874
187.942	771
188.012	361
188.081	-843
188.150	274
188.220	-91
188.289	694
188.358	-123
188.428	135
188.497	87
188.567	539
188.636	288
188.705	-422
188.775	248
188.844	826
188.913	-48
188.983	531
189.052	-92
189.121	479
189.191	-375
189.260	279
189.329	106
189.399	330
189.468	336
189.537	416
189.606	354
189.676	-28
189.745	103
189.814	920
189.883	-6
189.953	451
190.022	-250
190.091	1395
190.161	774
190.230	1246
190.299	-26
190.368	965
190.437	-393
190.507	548
190.576	-501
190.645	482
190.714	-163
190.783	668
190.853	274
190.922	-28
190.991	104
191.060	1067
191.129	-395
191.198	495
191.268	-82
191.337	379
191.406	643
191.475	127
191.544	797
191.613	110
191.682	246
191.752	247
191.821	-244
191.890	652
191.959	842
192.028	-1
192.097	231
192.166	-42
192.235	172
192.304	796
192.373	-509
192.442	324
192.511	-185
192.580	118
192.650	-102
192.719	636
192.788	324
192.857	199
192.926	265
192.995	1192
193.064	103
193.133	632
193.202	1286
193.271	921
193.340	785
193.409	635
193.478	304
193.547	1292
193.615	774
193.684	1059
193.753	1064
193.822	264
193.891	-412
193.960	935
194.029	-84
194.098	42
194.167	-1
194.236	612
194.305	213
194.374	-106
194.443	-18
194.512	143
194.580	315
194.649	1082
194.718	-399
194.787	777
194.856	80
194.925	24
194.994	-274
195.062	648
195.131	462
195.200	582
195.269	133
195.338	649
195.407	402
195.475	878
195.544	797
195.613	615
195.682	283
195.751	933
195.819	182
195.888	812
195.957	541
196.026	1337
196.094	468
196.163	691
196.232	-97
196.301	55
196.369	255
196.438	840
196.507	-360
196.576	833
196.644	561
196.713	9
196.782	776
196.850	536
196.919	567
196.988	990
197.056	133
197.125	-44
197.194	222
197.262	645
197.331	352
197.400	512
197.468	79
197.537	788
197.606	259
197.674	855
197.743	1559
197.812	564
197.880	1271
197.949	658
198.017	1352
198.086	1133
198.155	710
198.223	1056
198.292	1786
198.360	678
198.429	217
198.497	371
198.566	1530
198.635	2070
198.703	9
198.772	1379
198.840	2671
198.909	1721
198.977	437
199.046	597
199.114	634
199.183	951
199.251	548
199.320	918
199.388	397
199.457	576
199.525	145
199.594	555
199.662	163
199.731	627
199.799	208
199.867	365
199.936	-720
200.004	1428
200.073	271
200.141	510
200.210	273
200.278	1104
200.346	166
200.415	639
200.483	471
200.552	503
200.620	162
200.688	685
200.757	-220
200.825	1517
200.893	49
200.962	1033
201.030	-58
201.098	465
201.167	718
201.235	461
201.303	14
201.372	1009
201.440	338
201.508	1405
201.577	357
201.645	857
201.713	580
201.781	578
201.850	615
201.918	351
201.986	400
202.055	768
202.123	474
202.191	1061
202.259	278
202.327	972
202.396	561
202.464	1022
202.532	546
202.600	2549
202.669	950
202.737	978
202.805	384
202.873	460
202.941	-30
203.009	796
203.078	259
203.146	768
203.214	526
203.282	776
203.350	613
203.418	388
203.487	121
203.555	774
203.623	328
203.691	510
203.759	-231
203.827	461
203.895	969
203.963	839
204.031	131
204.099	889
204.168	185
204.236	851
204.304	566
204.372	1047
204.440	385
204.508	813
204.576	366
204.644	389
204.712	501
204.780	1318
204.848	988
204.916	727
204.984	734
205.052	648
205.120	593
205.188	452
205.256	724
205.324	716
205.392	442
205.460	815
205.528	815
205.596	1045
205.664	-141
205.732	1057
205.799	1958
205.867	2411
205.935	1095
206.003	994
206.071	72
206.139	843
206.207	491
206.275	883
206.343	906
206.411	795
206.478	535
206.546	801
206.614	661
206.682	1005
206.750	75
206.818	724
206.885	79
206.953	44
207.021	564
207.089	704
207.157	1013
207.225	603
207.292	-404
207.360	1395
207.428	245
207.496	1499
207.563	998
207.631	1015
207.699	502
207.767	518
207.834	126
207.902	1481
207.970	567
208.038	1306
208.105	373
208.173	901
208.241	-155
208.309	2052
208.376	1207
208.444	1872
208.512	1255
208.579	1310
208.647	228
208.715	1792
208.782	745
208.850	719
208.918	549
208.985	1240
209.053	1548
209.120	705
209.188	634
209.256	803
209.323	732
209.391	1358
209.459	784
209.526	1453
209.594	1211
209.661	763
209.729	1126
209.796	534
209.864	1231
209.932	304
209.999	924
210.067	1180
210.134	837
210.202	1790
210.269	938
210.337	1596
210.404	954
210.472	524
210.539	894
210.607	825
210.674	457
210.742	1470
210.809	390
210.877	979
210.944	1086
211.012	1146
211.079	1344
211.146	1148
211.214	980
211.281	1628
211.349	409
211.416	1113
211.484	871
211.551	802
211.618	744
211.686	1051
211.753	899
211.821	1762
211.888	803
211.955	1321
212.023	439
212.090	1226
212.157	1072
212.225	1815
212.292	2312
212.359	5411
212.427	9361
212.494	3927
212.561	1404
212.629	1791
212.696	1173
212.763	1551
212.831	1192
212.898	1264
212.965	544
213.032	1168
213.100	1196
213.167	2031
213.234	1148
213.301	1169
213.369	841
213.436	1231
213.503	644
213.570	1148
213.638	1098
213.705	653
213.772	581
213.839	1410
213.906	499
213.973	1816
214.041	1372
214.108	1075
214.175	773
214.242	1076
214.309	1072
214.376	1372
214.444	474
214.511	1467
214.578	739
214.645	1432
214.712	629
214.779	1340
214.846	1315
214.913	2064
214.980	1260
215.048	1362
215.115	1836
215.182	1812
215.249	1372
215.316	1765
215.383	1401
215.450	1182
215.517	1287
215.584	1531
215.651	482
215.718	1029
215.785	1428
215.852	1732
215.919	891
215.986	1400
216.053	874
216.120	641
216.187	489
216.254	1466
216.321	320
216.388	1600
216.455	843
216.522	1416
216.589	1461
216.656	2799
216.722	1753
216.789	1970
216.856	1674
216.923	2059
216.990	1469
217.057	1155
217.124	1407
217.191	1853
217.258	1566
217.324	2615
217.391	2433
217.458	2039
217.525	981
217.592	1489
217.659	1214
217.725	1699
217.792	1854
217.859	1924
217.926	768
217.993	729
218.059	1136
218.126	729
218.193	552
218.260	644
218.327	520
218.393	1213
218.460	908
218.527	558
218.594	1307
218.660	2427
218.727	2056
218.794	1457
218.860	155
218.927	166
218.994	759
219.061	899
219.127	1430
219.194	2315
219.261	260
219.327	1205
219.394	664
219.461	1224
219.527	109
219.594	1744
219.661	776
219.727	1019
219.794	1182
219.860	726
219.927	1351
219.994	2207
220.060	1789
220.127	1438
220.193	1643
220.260	2187
220.326	2867
220.393	3969
220.460	3461
220.526	2965
220.593	2083
220.659	2383
220.726	2762
220.792	6392
220.859	4652
220.925	6203
220.992	6187
221.058	7825
221.125	6947
221.191	4615
221.258	2125
221.324	1913
221.391	1903
221.457	1726
221.524	702
221.590	3032
221.657	6595
221.723	3333
221.789	4156
221.856	3199
221.922	1831
221.989	1137
222.055	919
222.121	1347
222.188	864
222.254	1022
222.321	418
222.387	1044
222.453	452
222.520	730
222.586	929
222.652	927
222.719	701
222.785	743
222.851	781
222.918	598
222.984	1010
223.050	894
223.116	388
223.183	850
223.249	-49
223.315	333
223.382	177
223.448	620
223.514	13
223.580	-91
223.647	502
223.713	554
223.779	434
223.845	1069
223.911	925
223.978	285
224.044	622
224.110	484
224.176	192
224.242	183
224.309	181
224.375	962
224.441	490
224.507	576
224.573	37
224.639	779
224.705	542
224.772	288
224.838	-144
224.904	1146
224.970	-43
225.036	501
225.102	261
225.168	814
225.234	162
225.300	1344
225.366	396
225.432	1066
225.499	526
225.565	606
225.631	562
225.697	962
225.763	818
225.829	1071
225.895	996
225.961	2122
226.027	1366
226.093	1648
226.159	1953
226.225	3320
226.291	8152
226.357	10333
226.423	4862
226.489	3520
226.554	1530
226.620	2936
226.686	2962
226.752	5020
226.818	7981
226.884	14673
226.950	9387
227.016	4331
227.082	2379
227.148	2733
227.214	1477
227.279	2372
227.345	919
227.411	1571
227.477	858
227.543	1863
227.609	1642
227.674	717
227.740	1243
227.806	1455
227.872	431
227.938	1113
228.003	1386
228.069	869
228.135	527
228.201	1237
228.267	1164
228.332	1230
228.398	1140
228.464	1029
228.530	141
228.595	1247
228.661	1121
228.727	1562
228.792	643
228.858	823
228.924	-231
228.990	1307
229.055	758
229.121	406
229.187	-263
229.252	1000
229.318	931
229.384	697
229.449	828
229.515	187
229.581	-371
229.646	746
229.712	598
229.777	2904
229.843	1504
229.909	1590
229.974	1916
230.040	1366
230.105	963
230.171	1800
230.236	1315
230.302	2829
230.368	1456
230.433	1603
230.499	750
230.564	1518
230.630	367
230.695	637
230.761	694
230.826	205
230.892	1689
230.957	691
231.023	647
231.088	1007
231.154	242
231.219	1528
231.284	1735
231.350	1925
231.415	1103
231.481	717
231.546	276
231.612	639
231.677	466
231.742	523
231.808	843
231.873	301
231.939	-292
232.004	2133
232.069	463
232.135	1024
232.200	147
232.265	1099
232.331	427
232.396	126
232.461	935
232.527	1231
232.592	382
232.657	1240
232.723	1117
232.788	778
232.853	694
232.918	471
232.984	952
233.049	505
233.114	754
233.179	1732
233.245	3017
233.310	2172
233.375	390
233.440	901
233.506	127
233.571	821
233.636	531
233.701	1073
233.766	2188
233.832	1672
233.897	389
233.962	993
234.027	905
234.092	946
234.157	1439
234.222	1511
234.288	2723
234.353	6315
234.418	4051
234.483	2416
234.548	1060
234.613	1657
234.678	411
234.743	1907
234.808	6135
234.873	3353
234.938	1032
235.004	1464
235.069	1337
235.134	1629
235.199	740
235.264	1478
235.329	555
235.394	1124
235.459	322
235.524	1680
235.589	959
235.654	1329
235.719	530
235.784	1663
235.849	1403
235.913	3666
235.978	3206
236.043	2887
236.108	1320
236.173	2078
236.238	1087
236.303	1463
236.368	1602
236.433	3242
236.498	3411
236.563	3506
236.627	7609
236.692	20108
236.757	12415
236.822	6265
236.887	3993
236.952	3400
237.017	3114
237.081	4036
237.146	4743
237.211	10225
237.276	22145
237.341	27639
237.405	11284
237.470	5969
237.535	4599
237.600	3423
237.664	2011
237.729	1860
237.794	2897
237.859	5280
237.923	3505
237.988	2181
238.053	2462
238.118	2716
238.182	9358
238.247	5755
238.312	2780
238.376	1808
238.441	1018
238.506	1648
238.570	1014
238.635	1822
238.700	922
238.764	1017
238.829	3634
238.893	2999
238.958	2269
239.023	1692
239.087	959
239.152	1350
239.216	923
239.281	1644
239.346	798
239.410	1199
239.475	2013
239.539	8378
239.604	3328
239.668	2134
239.733	441
239.797	1405
239.862	2080
239.926	5041
239.991	1553
240.055	1121
240.120	1365
240.184	1918
240.249	603
240.313	1372
240.378	1173
240.442	5227
240.507	5755
240.571	2582
240.635	3354
240.700	4050
240.764	1129
240.829	683
240.893	574
240.957	1695
241.022	4474
241.086	6386
241.151	2466
241.215	844
241.279	1891
241.344	3229
241.408	821
241.472	1758
241.537	1079
241.601	1848
241.665	-97
241.730	1284
241.794	1378
241.858	1815
241.922	1330
241.987	1376
242.051	586
242.115	1226
242.179	756
242.244	1242
242.308	1009
242.372	1621
242.436	1376
242.501	1675
242.565	514
242.629	1433
242.693	1208
242.757	984
242.822	244
242.886	1062
242.950	385
243.014	1506
243.078	1306
243.142	1374
243.206	849
243.271	1927
243.335	813
243.399	3653
243.463	14742
243.527	23369
243.591	4987
243.655	3129
243.719	1372
243.783	2092
243.847	3197
243.911	4429
243.975	5384
244.040	2186
244.104	2224
244.168	1937
244.232	2982
244.296	3973
244.360	3610
244.424	2325
244.488	1895
244.552	1946
244.615	502
244.679	1376
244.743	2074
244.807	1413
244.871	160
244.935	1335
244.999	695
245.063	1324
245.127	1936
245.191	2860
245.255	1837
245.319	1798
245.383	1755
245.446	1618
245.510	506
245.574	1740
245.638	633
245.702	2232
245.766	3448
245.829	2376
245.893	1145
245.957	1929
246.021	892
246.085	1750
246.149	1943
246.212	6808
246.276	7513
246.340	2966
246.404	2299
246.467	3149
246.531	3390
246.595	2754
246.659	1868
246.722	1747
246.786	2434
246.850	3324
246.913	2873
246.977	1820
247.041	1432
247.104	1367
247.168	2109
247.232	6644
247.295	10942
247.359	4014
247.423	2687
247.486	3754
247.550	2185
247.614	1517
247.677	1344
247.741	1318
247.804	1084
247.868	2911
247.932	6567
247.995	9834
248.059	3396
248.122	2564
248.186	2849
248.249	6609
248.313	21759
248.376	15901
248.440	9603
248.503	3639
248.567	4234
248.630	5843
248.694	6884
248.757	11344
248.821	19632
248.884	10425
248.948	11718
249.011	15629
249.075	23083
249.138	15942
249.202	6488
249.265	5088
249.328	5774
249.392	4367
249.455	3292
249.519	2966
249.582	3754
249.645	6460
249.709	4102
249.772	3301
249.835	3319
249.899	2969
249.962	2234
250.025	3159
250.089	9884
250.152	8051
250.215	4030
250.279	3420
250.342	3537
250.405	3858
250.468	2729
250.532	4745
250.595	8190
250.658	34868
250.721	34261
250.785	11592
250.848	8037
250.911	4051
250.974	4572
251.038	8231
251.101	10975
251.164	6468
251.227	6278
251.290	6192
251.354	10898
251.417	43629
251.480	27664
251.543	30246
251.606	72136
251.669	35835
251.732	16441
251.795	18691
251.859	20900
251.922	42627
251.985	17229
252.048	8192
252.111	5971
252.174	6881
252.237	13346
252.300	23511
252.363	31949
252.426	48167
252.489	16655
252.552	9553
252.615	6680
252.678	8854
252.741	19983
252.804	32114
252.867	51445
252.930	25213
252.993	12484
253.056	9526
253.119	6110
253.182	5752
253.245	8432
253.308	6437
253.371	5435
253.434	5871
253.497	5831
253.559	11237
253.622	6207
253.685	9985
253.748	6411
253.811	3724
253.874	6107
253.937	4797
254.000	3930
254.062	9518
254.125	9075
254.188	10325
254.251	6126
254.314	3989
254.376	8047
254.439	8118
254.502	5550
254.565	9711
254.628	12151
254.690	6272
254.753	3228
254.816	3464
254.878	4315
254.941	9915
255.004	6111
255.067	3649
255.129	3153
255.192	1414
255.255	1141
255.317	2933
255.380	1105
255.443	1260
255.505	955
255.568	516
255.631	1847
255.693	2093
255.756	789
255.819	2795
255.881	862
255.944	1143
256.006	958
256.069	727
256.132	986
256.194	3222
256.257	5738
256.319	4458
256.382	3098
256.444	2565
256.507	1987
256.569	1674
256.632	1483
256.694	3855
256.757	15174
256.819	27110
256.882	9425
256.944	4112
257.007	3704
257.069	3831
257.132	2050
257.194	2261
257.257	1922
257.319	2333
257.381	2172
257.444	12472
257.506	40622
257.569	29507
257.631	11788
257.693	7907
257.756	3777
257.818	3546
257.880	2254
257.943	2301
258.005	1583
258.067	2109
258.130	1605
258.192	3486
258.254	4505
258.317	2349
258.379	1881
258.441	7027
258.503	4433
258.566	10142
258.628	7086
258.690	1808
258.753	2872
258.815	4649
258.877	2240
258.939	2496
259.001	1849
259.064	1836
259.126	2211
259.188	2393
259.250	1900
259.312	2535
259.375	4956
259.437	2616
259.499	1627
259.561	1050
259.623	1575
259.685	2249
259.747	2348
259.809	9911
259.872	11881
259.934	24210
259.996	13224
260.058	3828
260.120	2093
260.182	2244
260.244	1085
260.306	1363
260.368	1871
260.430	1205
260.492	4008
260.554	6011
260.616	4015
260.678	12535
260.740	8648
260.802	2761
260.864	1673
260.926	2159
260.988	2116
261.050	2641
261.112	7225
261.174	17351
261.236	7363
261.298	3575
261.359	7066
261.421	6412
261.483	1568
261.545	2363
261.607	906
261.669	1837
261.731	4522
261.793	8097
261.854	1718
261.916	2365
261.978	2147
262.040	1878
262.102	1402
262.164	3447
262.225	2241
262.287	2176
262.349	4692
262.411	2805
262.472	1533
262.534	5598
262.596	6207
262.658	2573
262.719	374
262.781	3132
262.843	7292
262.904	2508
262.966	2621
263.028	4262
263.090	23736
263.151	34724
263.213	10186
263.275	5478
263.336	2251
263.398	2593
263.459	1612
263.521	2127
263.583	5352
263.644	2449
263.706	1078
263.767	1011
263.829	778
263.891	1391
263.952	715
264.014	641
264.075	3425
264.137	6470
264.198	1968
264.260	1459
264.321	1428
264.383	5885
264.444	9177
264.506	1822
264.567	1483
264.629	5767
264.690	6570
264.752	2268
264.813	1475
264.875	677
264.936	1674
264.998	1004
265.059	202
265.120	1776
265.182	3588
265.243	19754
265.305	10027
265.366	2812
265.427	2621
265.489	1592
265.550	600
265.611	1873
265.673	899
265.734	1118
265.795	729
265.857	1583
265.918	2665
265.979	6945
266.040	29257
266.102	14996
266.163	5685
266.224	3176
266.286	1721
266.347	1582
266.408	1144
266.469	1129
266.530	765
266.592	2121
266.653	3050
266.714	3687
266.775	1064
266.836	1206
266.898	799
266.959	2683
267.020	746
267.081	2025
267.142	785
267.203	577
267.264	-98
267.326	2147
267.387	619
267.448	82
267.509	915
267.570	1384
267.631	446
267.692	146
267.753	797
267.814	861
267.875	4406
267.936	5366
267.997	3804
268.058	3045
268.119	994
268.180	1733
268.241	771
268.302	1386
268.363	187
268.424	1395
268.485	725
268.546	812
268.607	494
268.668	1235
268.729	259
268.790	579
268.851	2199
268.912	4904
268.972	3913
269.033	1338
269.094	104
269.155	1602
269.216	1025
269.277	686
269.338	692
269.398	1576
269.459	469
269.520	2480
269.581	2521
269.642	3569
269.702	1829
269.763	1217
269.824	952
269.885	2802
269.945	2436
270.006	1199
270.067	600
270.128	1812
270.188	649
270.249	1038
270.310	179
270.370	1952
270.431	459
270.492	888
270.553	1632
270.613	3341
270.674	5215
270.734	1864
270.795	1206
270.856	3249
270.916	1204
270.977	1749
271.038	1896
271.098	1683
271.159	3504
271.219	1826
271.280	664
271.340	1820
271.401	1259
271.462	4237
271.522	1793
271.583	1131
271.643	1500
271.704	1748
271.764	2418
271.825	6426
271.885	21757
271.946	17857
272.006	6198
272.066	13965
272.127	14620
272.187	4641
272.248	2951
272.308	4322
272.369	13358
272.429	4330
272.489	4872
272.550	4189
272.610	5080
272.671	3645
272.731	4366
272.791	5202
272.852	2440
272.912	3237
272.972	1258
273.033	2038
273.093	2036
273.153	2687
273.214	1738
273.274	2474
273.334	12091
273.394	14203
273.455	4838
273.515	8886
273.575	11639
273.635	5113
273.696	10364
273.756	14662
273.816	4569
273.876	2982
273.936	11499
273.997	11034
274.057	2618
274.117	2623
274.177	5886
274.237	24232
274.297	13625
274.358	10947
274.418	13042
274.478	7212
274.538	3167
274.598	3467
274.658	13241
274.718	12206
274.778	3675
274.838	3382
274.898	10113
274.958	19360
275.018	16915
275.078	8246
275.138	2329
275.198	2179
275.258	1986
275.318	3142
275.378	4549
275.438	4383
275.498	3251
275.558	13157
275.618	16969
275.678	8680
275.738	6687
275.798	4706
275.858	2471
275.918	1646
275.978	1944
276.038	2252
276.098	1871
276.157	4918
276.217	9732
276.277	3458
276.337	3006
276.397	1892
276.457	2030
276.517	2589
276.576	463
276.636	1134
276.696	2979
276.756	7810
276.815	3460
276.875	2183
276.935	1903
276.995	1860
277.055	543
277.114	1832
277.174	3706
277.234	7990
277.293	2739
277.353	1604
277.413	1144
277.472	1845
277.532	1573
277.592	2990
277.651	9303
277.711	9983
277.771	4457
277.830	18268
277.890	8774
277.950	13453
278.009	23925
278.069	7360
278.128	11225
278.188	10871
278.248	6782
278.307	15151
278.367	6443
278.426	2702
278.486	2389
278.545	1882
278.605	2396
278.664	2351
278.724	2305
278.783	9843
278.843	14356
278.902	3827
278.962	3195
279.021	4135
279.081	4534
279.140	3600
279.199	3298
279.259	4025
279.318	3014
279.378	5117
279.437	9145
279.496	32177
279.556	89885
279.615	42255
279.675	13029
279.734	8639
279.793	14477
279.853	15682
279.912	5279
279.971	4455
280.031	3246
280.090	7872
280.149	10068
280.208	15573
280.268	66621
280.327	38228
280.386	9912
280.445	9454
280.505	6626
280.564	4444
280.623	3409
280.682	7242
280.742	6243
280.801	3090
280.860	1915
280.919	2623
280.978	1897
281.037	2467
281.097	1749
281.156	2766
281.215	1293
281.274	2989
281.333	12277
281.392	5034
281.451	1828
281.510	2034
281.569	1456
281.628	1429
281.688	1614
281.747	2234
281.806	1499
281.865	1363
281.924	1614
281.983	1767
282.042	734
282.101	1168
282.160	524
282.219	661
282.278	1906
282.337	6907
282.396	2473
282.454	2562
282.513	2889
282.572	9075
282.631	4110
282.690	1698
282.749	1068
282.808	2724
282.867	1349
282.926	1954
282.985	851
283.043	797
283.102	2297
283.161	2266
283.220	5905
283.279	8673
283.338	2202
283.396	1989
283.455	2134
283.514	2918
283.573	2891
283.631	1986
283.690	2001
283.749	2441
283.808	4211
283.866	4147
283.925	1605
283.984	2352
284.043	2404
284.101	2863
284.160	780
284.219	3385
284.277	2204
284.336	5151
284.395	13422
284.453	7842
284.512	3229
284.570	5133
284.629	4035
284.688	4275
284.746	3662
284.805	4601
284.863	5165
284.922	7427
284.981	8600
285.039	13909
285.098	26026
285.156	61591
285.215	108007
285.273	84918
285.332	44978
285.390	25375
285.449	16335
285.507	11640
285.566	8780
285.624	6870
285.683	4822
285.741	4449
285.799	2965
285.858	3672
285.916	2954
285.975	2479
286.033	1976
286.091	2487
286.150	1715
286.208	2514
286.267	2236
286.325	2653
286.383	4698
286.442	3384
286.500	1283
286.558	1589
286.616	1764
286.675	2781
286.733	1576
286.791	1567
286.850	2636
286.908	3682
286.966	4519
287.024	2528
287.083	2170
287.141	1935
287.199	2210
287.257	3519
287.315	1991
287.374	3104
287.432	5923
287.490	3385
287.548	2536
287.606	2849
287.664	2283
287.723	4181
287.781	3021
287.839	1544
287.897	2963
287.955	3533
288.013	7288
288.071	19740
288.129	74212
288.187	126713
288.245	46869
288.303	18249
288.361	10979
288.419	8237
288.477	5337
288.535	4396
288.593	3481
288.651	3303
288.709	1565
288.767	2361
288.825	1585
288.883	2429
288.941	1557
288.999	1664
289.057	1847
289.115	660
289.173	927
289.231	1993
289.289	1047
289.346	2196
289.404	1972
289.462	2968
289.520	2780
289.578	1322
289.636	1489
289.694	1515
289.751	613
289.809	1092
289.867	489
289.925	2523
289.983	1478
290.040	1969
290.098	927
290.156	1729
290.214	1737
290.271	958
290.329	791
290.387	746
290.444	566
290.502	557
290.560	676
290.617	1310
290.675	1504
290.733	1262
290.790	1529
290.848	543
290.906	1206
290.963	1574
291.021	992
291.078	2078
291.136	1213
291.194	8147
291.251	9855
291.309	3023
291.366	733
291.424	1234
291.481	827
291.539	1248
291.596	1309
291.654	1456
291.711	987
291.769	1891
291.826	2825
291.884	1625
291.941	876
291.999	1807
292.056	990
292.114	1840
292.171	703
292.228	1282
292.286	1490
292.343	3575
292.401	2916
292.458	1830
292.515	1414
292.573	2573
292.630	1041
292.687	2092
292.745	1673
292.802	3508
292.859	8106
292.917	11630
292.974	3828
293.031	2235
293.089	2198
293.146	1395
293.203	850
293.260	1327
293.318	2046
293.375	2735
293.432	1357
293.489	2039
293.546	1381
293.604	3017
293.661	11105
293.718	19359
293.775	8032
293.832	4544
293.889	2954
293.947	3855
294.004	1969
294.061	3176
294.118	6245
294.175	12422
294.232	13493
294.289	5316
294.346	3207
294.403	4046
294.460	2934
294.517	1726
294.574	1364
294.631	2578
294.688	3407
294.745	10192
294.802	25293
294.859	21109
294.916	7409
294.973	5025
295.030	3236
295.087	2814
295.144	2554
295.201	2748
295.258	1564
295.315	3835
295.372	10919
295.429	13976
295.486	6512
295.542	5478
295.599	14856
295.656	17264
295.713	13463
295.770	13074
295.827	4795
295.883	3899
295.940	3076
295.997	5413
296.054	4236
296.111	2805
296.167	1540
296.224	2095
296.281	1818
296.338	1788
296.394	1874
296.451	3191
296.508	8669
296.564	12428
296.621	10182
296.678	23445
296.734	23418
296.791	8752
296.848	5553
296.904	6703
296.961	12912
297.018	17883
297.074	10080
297.131	5325
297.187	4413
297.244	7423
297.301	23568
297.357	26230
297.414	9740
297.470	3970
297.527	3102
297.583	2927
297.640	2730
297.696	1760
297.753	2018
297.809	1975
297.866	1086
297.922	1701
297.979	2099
298.035	2547
298.092	4641
298.148	10976
298.204	7791
298.261	5303
298.317	11772
298.374	23170
298.430	11381
298.486	6244
298.543	3968
298.599	5074
298.656	5334
298.712	9729
298.768	19751
298.824	10806
298.881	4581
298.937	3203
298.993	2444
299.050	3600
299.106	2327
299.162	3046
299.218	2823
299.275	2058
299.331	3003
299.387	7732
299.443	21689
299.500	15949
299.556	5501
299.612	4234
299.668	2589
299.724	2737
299.780	2439
299.837	3280
299.893	5619
299.949	16756
300.005	15060
300.061	18737
300.117	24285
300.173	11213
300.229	5499
300.285	7880
300.341	7699
300.397	4539
300.453	3070
300.510	2604
300.566	2906
300.622	3034
300.678	6012
300.734	12631
300.790	15552
300.845	17012
300.901	10367
300.957	15233
301.013	9674
301.069	4718
301.125	3211
301.181	4130
301.237	2993
301.293	2587
301.349	2166
301.405	2176
301.461	1845
301.516	3684
301.572	2903
301.628	5779
301.684	5175
301.740	8772
301.796	9778
301.851	8763
301.907	12817
301.963	14464
302.019	27907
302.074	57749
302.130	47649
302.186	22678
302.242	9649
302.297	6546
302.353	6835
302.409	12461
302.464	9980
302.520	10713
302.576	22133
302.631	20890
302.687	11525
302.743	5549
302.798	3922
302.854	4229
302.910	3260
302.965	6104
303.021	6830
303.076	7117
303.132	8620
303.187	9261
303.243	5489
303.299	3527
303.354	2540
303.410	3200
303.465	2365
303.521	2122
303.576	2928
303.632	4363
303.687	8629
303.743	19767
303.798	13407
303.853	5619
303.909	3845
303.964	4169
304.020	5843
304.075	8561
304.130	7470
304.186	13229
304.241	12216
304.297	10108
304.352	4745
304.358	4637
304.407	3760
304.449	3539
304.463	3468
304.518	3954
304.539	3612
304.573	3059
304.629	4276
304.630	4321
304.684	6539
304.720	13542
304.739	17149
304.794	19681
304.811	16852
304.850	9647
304.902	4971
304.905	4696
304.960	4064
304.992	4167
305.015	4222
305.071	3800
305.083	3498
305.126	2388
305.173	2067
305.181	2022
305.236	1733
305.264	2254
305.292	2852
305.347	3184
305.354	3223
305.402	3332
305.445	3743
305.457	3880
305.512	5428
305.535	5062
305.567	4432
305.622	5362
305.626	5561
305.678	10124
305.716	18120
305.733	21165
305.788	20312
305.807	18646
305.843	15379
305.897	20378
305.898	20438
305.953	17976
305.988	12554
306.008	9377
306.063	6303
306.078	5509
306.118	4003
306.168	2594
306.173	2485
306.228	2204
306.259	2397
306.283	2492
306.338	2463
306.349	2389
306.393	2311
306.440	3269
306.448	3404
306.503	3521
306.530	3976
306.558	5154
306.613	10593
306.620	11157
306.668	15138
306.711	19389
306.723	19844
306.778	14549
306.801	12204
306.833	8896
306.888	3930
306.892	3783
306.943	3414
306.982	2496
306.997	2208
307.052	2782
307.072	2759
307.107	2958
307.162	4540
307.163	4553
307.217	6116
307.253	7231
307.272	7536
307.327	7918
307.343	7668
307.381	6604
307.434	5623
307.436	5748
307.491	11627
307.524	16376
307.546	18143
307.600	17556
307.614	16287
307.655	10388
307.704	6164
307.710	6050
307.765	5870
307.795	7167
307.819	9547
307.874	16090
307.885	16388
307.929	12646
307.975	9712
307.984	9915
308.038	14041
308.065	18094
308.093	28693
308.148	59550
308.156	65884
308.202	113717
308.246	140700
308.257	134583
308.312	74992
308.336	52805
308.366	41148
308.421	24501
308.426	23145
308.475	15046
308.517	10502
308.530	9833
308.585	8521
308.607	7737
308.639	7250
308.694	8206
308.697	8338
308.748	14090
308.787	19455
308.803	19830
308.857	16348
308.877	15136
308.912	12919
308.967	10724
308.967	10721
309.021	14502
309.058	17715
309.076	21646
309.130	37967
309.148	45043
309.185	82797
309.238	146370
309.239	147279
309.293	177582
309.328	179003
309.348	152503
309.402	74767
309.418	54626
309.457	38751
309.508	21976
309.511	21519
309.566	17264
309.598	15468
309.620	16288
309.674	19524
309.688	20390
309.729	19841
309.778	18041
309.783	17671
309.837	13299
309.868	11554
309.892	13028
309.946	17316
309.959	18924
310.001	27322
310.049	34609
310.055	33535
310.109	20736
310.139	13910
310.163	11138
310.218	6269
310.229	5457
310.272	4402
310.319	3462
310.326	3406
310.381	3230
310.409	3235
310.435	3154
310.489	2852
310.499	2820
310.543	3195
310.589	3657
310.598	3655
310.652	3697
310.679	3589
310.706	3239
310.760	2632
310.769	2533
310.814	2216
310.859	2008
310.868	2039
310.923	2084
310.948	2313
310.977	2604
311.031	2810
311.038	2860
311.085	3023
311.128	3015
311.139	2895
311.193	2389
311.218	2147
311.247	2274
311.301	2574
311.308	2595
311.356	2437
311.398	2472
311.410	2468
311.464	2287
311.488	2238
311.518	2023
311.572	1552
311.578	1521
311.626	2770
311.668	3797
311.680	3766
311.734	3647
311.758	3562
311.788	3448
311.842	3312
311.847	3297
311.896	3497
311.937	3757
311.950	3948
312.004	4741
312.027	5093
312.058	4079
312.112	2277
312.117	2102
312.165	2132
312.207	2169
312.297	2884
312.386	3600
312.476	2027
312.566	5189
312.656	3616
312.745	2251
312.835	1760
312.925	2477
313.015	2145
313.104	3442
313.194	1766
313.284	2951
313.374	1950
313.463	2317
313.553	2096
313.643	1808
313.732	1209
313.822	1504
313.912	1879
314.001	2669
314.091	2108
314.180	3338
314.270	2781
314.360	3534
314.449	2813
314.539	2315
314.628	1561
314.718	2954
314.808	2608
314.897	2035
314.987	1861
315.076	2328
315.166	3848
315.255	4226
315.345	2611
315.434	3429
315.524	2894
315.613	3946
315.703	3773
315.792	4506
315.881	4506
315.971	3232
316.060	5619
316.150	9955
316.239	10873
316.328	6142
316.418	1616
316.507	2004
316.597	2234
316.686	3365
316.775	4214
316.865	12016
316.954	3312
317.043	2096
317.133	1778
317.222	1731
317.311	2178
317.400	1669
317.490	2627
317.579	3147
317.668	2691
317.757	3502
317.847	4829
317.936	7765
318.025	8158
318.114	4993
318.203	3708
318.293	5181
318.382	10742
318.471	8981
318.560	11599
318.649	24117
318.738	8185
318.828	3654
318.917	4760
319.006	5394
319.095	13223
319.184	29495
319.273	21327
319.362	10683
319.451	3553
319.540	3575
319.629	5291
319.718	13801
319.807	6695
319.896	9142
319.985	36931
320.074	20932
320.163	4292
320.252	6945
320.341	5232
320.430	5075
320.519	5493
320.608	4127
320.697	2189
320.786	3077
320.875	3592
320.964	5473
321.053	7756
321.142	11043
321.230	13360
321.319	8650
321.408	18871
321.497	11352
321.586	7861
321.675	9988
321.764	11585
321.852	6419
321.941	10895
322.030	9941
322.119	7433
322.207	20976
322.296	18435
322.385	8407
322.474	7993
322.562	22015
322.651	16959
322.740	8262
322.829	13626
322.917	15624
323.006	10020
323.095	6479
323.183	5646
323.272	8944
323.361	13487
323.449	48328
323.538	23474
323.626	28751
323.715	28130
323.804	7874
323.892	26600
323.981	22268
324.069	5599
324.158	12239
324.246	18893
324.335	4282
324.424	7682
324.512	3236
324.601	3773
324.689	4717
324.778	9642
324.866	11241
324.954	4675
325.043	2421
325.131	5147
325.220	12528
325.308	14371
325.397	9492
325.485	8281
325.574	2104
325.662	2083
325.750	2706
325.839	1274
325.927	2414
326.015	2922
326.104	3803
326.192	8562
326.280	2811
326.369	1968
326.457	2649
326.545	5668
326.634	3499
326.722	1047
326.810	2318
326.898	1755
326.987	2223
327.075	4597
327.163	6999
327.251	3383
327.340	3175
327.428	4714
327.516	2127
327.604	1782
327.692	2463
327.781	2237
327.869	4893
327.957	4093
328.045	3501
328.133	1327
328.221	2679
328.309	1594
328.397	1893
328.485	2826
328.574	4319
328.662	11737
328.750	9720
328.838	3685
328.926	2696
329.014	1572
329.102	2230
329.190	6727
329.278	6452
329.366	1378
329.454	1002
329.542	1666
329.630	1107
329.718	1763
329.806	2965
329.893	2743
329.981	3552
330.069	5823
330.157	16442
330.245	50638
330.333	33524
330.421	6098
330.509	5619
330.597	15037
330.684	14216
330.772	4181
330.860	5601
330.948	6187
331.036	3779
331.123	912
331.211	1332
331.299	2165
331.387	5207
331.475	10007
331.562	4905
331.650	1572
331.738	2311
331.825	2597
331.913	2015
332.001	901
332.089	2839
332.176	6009
332.264	12985
332.352	14141
332.439	4143
332.527	2368
332.614	1972
332.702	3131
332.790	2086
332.877	4898
332.965	14624
333.052	4830
333.140	2945
333.228	7527
333.315	2495
333.403	2250
333.490	7782
333.578	7370
333.665	7904
333.753	5343
333.840	2897
333.928	2401
334.015	8276
334.103	12507
334.190	42856
334.278	16399
334.365	4528
334.452	1842
334.540	2083
334.627	1875
334.715	5078
334.802	8651
334.889	44675
334.977	70829
335.064	7733
335.151	1908
335.239	3005
335.326	3616
335.413	14381
335.501	31594
335.588	4936
335.675	2064
335.762	2653
335.850	5594
335.937	4457
336.024	9033
336.111	50599
336.199	29048
336.286	4473
336.373	1503
336.460	1426
336.547	842
336.635	3150
336.722	2213
336.809	1906
336.896	2640
336.983	10158
337.070	27996
337.157	44340
337.245	34596
337.332	35107
337.419	4290
337.506	2594
337.593	2096
337.680	7809
337.767	27057
337.854	9887
337.941	8491
338.028	12041
338.115	5118
338.202	4372
338.289	7995
338.376	34640
338.463	17324
338.550	12443
338.637	20492
338.724	5862
338.811	11875
338.898	3063
338.984	1509
339.071	2074
339.158	2487
339.245	6961
339.332	6391
339.419	6020
339.506	8558
339.593	1427
339.679	1282
339.766	1433
339.853	1797
339.940	5004
340.027	2030
340.113	1421
340.200	2475
340.287	2886
340.374	2233
340.460	5708
340.547	2581
340.634	3188
340.720	12227
340.807	12579
340.894	1744
340.980	1451
341.067	1255
341.154	2870
341.240	1842
341.327	7481
341.414	2176
341.500	2906
341.587	2335
341.674	2025
341.760	4049
341.847	6410
341.933	2090
342.020	892
342.106	338
342.193	1336
342.279	3119
342.366	2609
342.452	4802
342.539	3447
342.625	5264
342.712	16414
342.798	8201
342.885	3368
342.971	159
343.058	994
343.144	956
343.230	1344
343.317	1257
343.403	1322
343.490	225
343.576	1083
343.662	1288
343.749	1681
343.835	3600
343.921	5967
344.008	26779
344.094	87616
344.180	25958
344.267	6061
344.353	15701
344.439	25108
344.525	9634
344.612	4476
344.698	3331
344.784	3614
344.870	1300
344.957	1255
345.043	2047
345.129	1865
345.215	3780
345.301	2876
345.387	1378
345.474	70
345.560	1231
345.646	1386
345.732	1380
345.818	1501
345.904	1367
345.990	2034
346.076	1616
346.162	4578
346.249	2330
346.335	992
346.421	666
346.507	5903
346.593	29372
346.679	10424
346.765	1823
346.851	1394
346.937	1668
347.023	815
347.108	1544
347.194	1603
347.280	918
347.366	1886
347.452	5728
347.538	33088
347.624	28551
347.710	22678
347.796	4512
347.882	1938
347.967	1090
348.053	2053
348.139	1253
348.225	1074
348.311	961
348.397	797
348.482	1455
348.568	2340
348.654	455
348.740	752
348.825	625
348.911	3054
348.997	11629
349.083	36301
349.168	8138
349.254	1286
349.340	1088
349.425	1344
349.511	2042
349.597	3338
349.682	4089
349.768	17245
349.854	11611
349.939	1775
350.025	862
350.110	1488
350.196	711
350.282	502
350.367	698
350.453	1705
350.538	4107
350.624	1883
350.709	2600
350.795	1777
350.880	1438
350.966	1708
351.051	2389
351.137	2857
351.222	1272
351.308	4052
351.393	15897
351.479	6378
351.564	1360
351.649	1459
351.735	1128
351.820	1342
351.906	952
351.991	2147
352.076	7377
352.162	18180
352.247	3637
352.332	1186
352.418	3510
352.503	4837
352.588	18712
352.673	23330
352.759	4330
352.844	2020
352.929	1527
353.014	2975
353.100	837
353.185	2135
353.270	4247
353.355	6950
353.441	1757
353.526	2216
353.611	3899
353.696	7242
353.781	3144
353.866	1733
353.952	772
354.037	3878
354.122	11117
354.207	10813
354.292	4451
354.377	1910
354.462	1165
354.547	1492
354.632	1938
354.717	2080
354.802	1950
354.887	1369
354.972	648
355.057	1330
355.142	1155
355.227	2523
355.312	3051
355.397	7287
355.482	17294
355.567	12729
355.652	5525
355.737	8332
355.822	18099
355.907	23466
355.991	3687
356.076	1789
356.161	632
356.246	897
356.331	1251
356.416	4889
356.501	30235
356.585	52135
356.670	7663
356.755	2875
356.840	4007
356.924	18860
357.009	91015
357.094	52545
357.179	7312
357.263	4636
357.348	3610
357.433	4988
357.517	3113
357.602	2566
357.687	2685
357.771	4015
357.856	11760
357.941	10934
358.025	14383
358.110	88468
358.195	61161
358.279	8333
358.364	4003
358.448	12234
358.533	38173
358.617	33396
358.702	29083
358.787	14137
358.871	4931
358.956	5448
359.040	1699
359.125	1045
359.209	720
359.294	4556
359.378	10684
359.462	5488
359.547	3394
359.631	1726
359.716	1079
359.800	1651
359.885	2907
359.969	1968
360.053	1026
360.138	1946
360.222	2074
360.306	5017
360.391	5013
360.475	6733
360.559	17560
360.644	15536
360.728	14046
360.812	14487
360.896	61017
360.981	29264
361.065	13053
361.149	3155
361.233	2662
361.318	1788
361.402	2527
361.486	2496
361.570	1670
361.654	2041
361.739	6644
361.823	28507
361.907	69490
361.991	15235
362.075	3627
362.159	10711
362.243	8816
362.327	4523
362.411	2866
362.495	2239
362.580	2164
362.664	713
362.748	1078
362.832	924
362.916	1425
363.000	4470
363.084	22431
363.168	73953
363.252	22071
363.336	4730
363.420	6297
363.503	21922
363.587	38795
363.671	7433
363.755	3016
363.839	5307
363.923	2681
364.007	4071
364.091	6776
364.175	6874
364.258	37208
364.342	27731
364.426	6302
364.510	4647
364.594	4234
364.677	8336
364.761	43535
364.845	48616
364.929	10586
365.013	8526
365.096	5828
365.180	9343
365.264	7721
365.347	42711
365.431	25808
365.515	5072
365.598	1951
365.682	2104
365.766	2803
365.849	5599
365.933	2142
366.017	3309
366.100	2402
366.184	279
366.267	1669
366.351	1503
366.435	1172
366.518	536
366.602	907
366.685	1746
366.769	507
366.852	2841
366.936	5787
367.019	4649
367.103	2288
367.186	5953
367.270	2038
367.353	881
367.436	689
367.520	904
367.603	1692
367.687	2266
367.770	6389
367.853	3740
367.937	9672
368.020	25663
368.104	7159
368.187	3341
368.270	7132
368.353	5985
368.437	6971
368.520	22682
368.603	16594
368.687	12264
368.770	32532
368.853	10118
368.936	5818
369.020	6642
369.103	2988
369.186	1577
369.269	1121
369.352	3496
369.436	6360
369.519	4359
369.602	1212
369.685	1542
369.768	1883
369.851	1840
369.934	1222
370.018	2061
370.101	4652
370.184	4676
370.267	2711
370.350	5032
370.433	7520
370.516	18809
370.599	33457
370.682	7944
370.765	13189
370.848	18082
370.931	37675
371.014	19629
371.097	3160
371.180	1842
371.263	146
371.346	860
371.429	751
371.511	1364
371.594	2063
371.677	5156
371.760	5451
371.843	5818
371.926	22159
372.009	82724
372.091	31333
372.174	12164
372.257	36701
372.340	19612
372.423	6772
372.505	12188
372.588	4823
372.671	7977
372.754	35280
372.836	24708
372.919	9429
373.002	26539
373.085	10204
373.167	4692
373.250	11858
373.332	34126
373.415	40790
373.498	111271
373.580	49958
373.663	32801
373.746	72530
373.828	19333
373.911	5674
373.993	5169
374.076	20018
374.159	28425
374.241	9117
374.324	27135
374.406	24958
374.489	20665
374.571	82237
374.654	46221
374.736	13033
374.819	45067
374.901	68153
374.983	92751
375.066	18682
375.148	3946
375.231	13607
375.313	42443
375.395	17533
375.478	4987
375.560	1706
375.643	3171
375.725	9454
375.807	57869
375.890	62718
375.972	26389
376.054	10463
376.136	18881
376.219	10478
376.301	11412
376.383	54395
376.465	29137
376.548	10845
376.630	12658
376.712	41653
376.794	28990
376.877	3046
376.959	959
377.041	1225
377.123	3037
377.205	5900
377.287	1480
377.369	646
377.452	1476
377.534	362
377.616	851
377.698	44
377.780	795
377.862	1451
377.944	1351
378.026	512
378.108	547
378.190	285
378.272	671
378.354	866
378.436	303
378.518	1323
378.600	8531
378.682	8439
378.764	17678
378.846	19606
378.928	4569
379.010	4980
379.091	3295
379.173	1554
379.255	690
379.337	2111
379.419	6669
379.501	29143
379.583	16991
379.664	2333
379.746	5983
379.828	16760
379.910	26606
379.991	29449
380.073	6615
380.155	2406
380.237	1718
380.318	571
380.400	1007
380.482	2811
380.564	6847
380.645	5342
380.727	5652
380.809	3229
380.890	1493
380.972	928
381.053	1432
381.135	1759
381.217	3793
381.298	19444
381.380	13662
381.461	6889
381.543	35304
381.624	66652
381.706	14621
381.787	4329
381.869	3937
381.951	12133
382.032	72027
382.113	64129
382.195	12017
382.276	5094
382.358	8812
382.439	36764
382.521	41503
382.602	77667
382.684	37775
382.765	47371
382.846	57691
382.928	57153
383.009	40503
383.090	20141
383.172	66311
383.253	148349
383.334	60266
383.416	59463
383.497	41056
383.578	12050
383.659	18917
383.741	56393
383.822	198206
383.903	138937
383.984	40086
384.066	71372
384.147	57487
384.228	11956
384.309	6363
384.390	4834
384.471	3135
384.553	2527
384.634	4720
384.715	5403
384.796	3036
384.877	3013
384.958	13380
385.039	25935
385.120	9897
385.201	2951
385.282	3403
385.363	3793
385.444	4030
385.525	5606
385.606	24368
385.687	32415
385.768	7841
385.849	5149
385.930	23748
386.011	68617
386.092	24097
386.173	3188
386.254	2451
386.335	1851
386.416	2856
386.496	8513
386.577	22509
386.658	8648
386.739	4251
386.820	2540
386.901	2420
386.981	2274
387.062	1308
387.143	2957
387.224	15261
387.304	22456
387.385	6585
387.466	2622
387.547	4759
387.627	2346
387.708	4719
387.789	26649
387.869	51430
387.950	16135
388.031	1880
388.111	357
388.192	4772
388.273	8935
388.353	5986
388.434	2309
388.514	4616
388.595	28024
388.676	52312
388.756	24504
388.837	18588
388.917	14090
388.998	1915
389.078	2019
389.159	1626
389.239	1138
389.320	2753
389.400	2470
389.480	4455
389.561	19623
389.641	14338
389.722	2385
389.802	5225
389.883	6558
389.963	23557
390.043	20648
390.124	6055
390.204	4222
390.284	20393
390.365	18307
390.445	13611
390.525	46657
390.605	58206
390.686	16949
390.766	4927
390.846	1632
390.927	544
391.007	758
391.087	2486
391.167	1843
391.247	523
391.328	2629
391.408	5452
391.488	4143
391.568	662
391.648	427
391.728	3180
391.808	2256
391.888	3635
391.969	7020
392.049	18887
392.129	8767
392.209	6123
392.289	21865
392.369	15621
392.449	9505
392.529	7074
392.609	3957
392.689	4191
392.769	18198
392.849	24014
392.929	9666
393.009	27955
393.089	26386
393.169	7871
393.248	13805
393.328	100805
393.408	185440
393.488	43765
393.568	7451
393.648	4768
393.728	2515
393.807	2729
393.887	2899
393.967	1965
394.047	2709
394.127	4440
394.206	8565
394.286	26717
394.366	152509
394.446	253718
394.525	71459
394.605	14669
394.685	7016
394.764	12399
394.844	23005
394.924	22461
395.003	5689
395.083	3913
395.163	2932
395.242	3328
395.322	3087
395.402	1160
395.481	3661
395.561	6796
395.640	27060
395.720	22016
395.799	27123
395.879	32251
395.958	15367
396.038	42544
396.117	203778
396.197	333637
396.276	109747
396.356	28310
396.435	14847
396.515	9192
396.594	6783
396.673	9177
396.753	19511
396.832	112812
396.912	129488
396.991	35979
397.070	6693
397.150	3214
397.229	2004
397.308	2037
397.388	1747
397.467	1861
397.546	100
397.625	291
397.705	2584
397.784	2605
397.863	1092
397.942	852
398.022	892
398.101	4502
398.180	25925
398.259	18613
398.338	2940
398.417	2108
398.497	610
398.576	1819
398.655	172
398.734	572
398.813	954
398.892	4528
398.971	26584
399.050	20490
399.129	1484
399.208	417
399.287	562
399.366	542
399.445	832
399.524	135
399.603	-546
399.682	2346
399.761	5594
399.840	27318
399.919	31866
399.998	4773
400.077	1087
400.156	-243
400.235	1224
400.313	313
400.392	335
400.471	6518
400.550	17684
400.629	6068
400.708	1661
400.786	1664
400.865	3617
400.944	7197
401.023	3597
401.102	180
401.180	-20
401.259	95
401.338	369
401.416	1948
401.495	1114
401.574	572
401.652	829
401.731	1741
401.810	1018
401.888	565
401.967	-226
402.046	310
402.124	999
402.203	2330
402.281	1204
402.360	1281
402.438	5768
402.517	6504
402.596	818
402.674	570
402.753	434
402.831	659
402.910	472
402.988	2090
403.066	10972
403.145	9102
403.223	2814
403.302	9085
403.380	7192
403.459	5785
403.537	2741
403.615	1424
403.694	-828
403.772	-514
403.850	215
403.929	-4
404.007	-947
404.085	1268
404.164	953
404.242	1102
404.320	2812
404.398	12922
404.477	17429
404.555	46057
404.633	65713
404.711	18296
404.789	7836
404.868	1556
404.946	385
405.024	293
405.102	-239
405.180	-411
405.258	-47
405.336	1156
405.415	-40
405.493	1365
405.571	1432
405.649	228
405.727	-310
405.805	1795
405.883	856
405.961	1283
406.039	1877
406.117	135
406.195	1404
406.273	5721
406.351	40576
406.429	38909
406.507	5708
406.585	1623
406.663	144
406.740	1601
406.818	1024
406.896	840
406.974	425
407.052	1287
407.130	17278
407.208	44836
407.285	12061
407.363	480
407.441	764
407.519	417
407.596	277
407.674	1403
407.752	6431
407.830	9955
407.907	4716
407.985	1176
408.063	348
408.141	-441
408.218	1156
408.296	1113
408.373	166
408.451	1017
408.529	996
408.606	-52
408.684	105
408.762	-525
408.839	-721
408.917	-199
408.994	-335
409.072	-92
409.149	-103
409.227	-302
409.304	-82
409.382	-487
409.459	-253
409.537	-230
409.614	-344
409.692	-375
409.769	-878
409.846	109
409.924	553
410.001	117
410.079	-98
410.156	243
410.233	186
410.311	274
410.388	-411
410.465	-63
410.543	-484
410.620	864
410.697	-113
410.775	1277
410.852	-633
410.929	527
411.006	1139
411.083	-10
411.161	1108
411.238	2682
411.315	1202
411.392	-834
411.469	-3
411.547	729
411.624	-69
411.701	-315
411.778	-614
411.855	2064
411.932	1698
412.009	358
412.086	-219
412.163	963
412.240	555
412.317	655
412.394	537
412.471	405
412.548	-694
412.625	346
412.702	779
412.779	1615
412.856	1182
412.933	-145
413.010	27
413.087	1634
413.164	4848
413.241	14645
413.318	3672
413.395	1264
413.471	1252
413.548	1895
413.625	0
413.702	446
413.779	822
413.855	73
413.932	-1952
414.009	-580
414.086	-121
414.162	-206
414.239	-250
414.316	4781
414.393	20167
414.469	11651
414.546	143
414.623	-348
414.699	-833
414.776	54
414.853	122
414.929	626
415.006	-627
415.082	632
415.159	896
415.236	877
415.312	-35
415.389	1160
415.465	1420
415.542	1545
415.618	-1319
415.695	1238
415.771	611
415.848	854
415.924	-31
416.000	34
416.077	-106
416.153	-1067
416.230	-841
416.306	-433
416.383	-797
416.459	-65
416.535	-1245
416.612	-559
416.688	-194
416.764	170
416.841	-575
416.917	182
416.993	-382
417.069	682
417.146	458
417.222	2510
417.298	968
417.374	344
417.451	979
417.527	479
417.603	1302
417.679	887
417.755	39
417.831	-1276
417.908	-590
417.984	11
418.060	-1321
418.136	1490
418.212	2675
418.288	1386
418.364	-152
418.440	87
418.516	669
418.592	1026
418.668	2611
418.744	5639
418.820	4535
418.896	1530
418.972	-847
419.048	-160
419.124	1300
419.200	2037
419.276	-509
419.352	-830
419.428	-1021
419.504	-804
419.579	-102
419.655	802
419.731	84
419.807	2236
419.883	5761
419.959	6091
420.034	1051
420.110	870
420.186	8926
420.262	13968
420.337	1749
420.413	566
420.489	-548
420.565	-109
420.640	-729
420.716	27
420.792	-2087
420.867	252
420.943	-738
421.019	850
421.094	1187
421.170	123
421.245	-579
421.321	895
421.397	-325
421.472	628
421.548	1876
421.623	3811
421.699	954
421.774	489
421.850	-672
421.925	1171
422.001	1292
422.076	480
422.152	7
422.227	884
422.302	1366
422.378	797
422.453	1539
422.529	5595
422.604	21474
422.679	87771
422.755	66068
422.830	13161
422.905	2690
422.981	1004
423.056	-463
423.131	41
423.207	-66
423.282	-406
423.357	2421
423.432	2507
423.508	622
423.583	4027
423.658	5194
423.733	1206
423.808	635
423.883	1058
423.959	593
424.034	54
424.109	-510
424.184	-453
424.259	-962
424.334	382
424.409	-570
424.484	-283
424.559	-118
424.634	-484
424.709	303
424.784	1249
424.859	-299
424.934	73
425.009	4911
425.084	14145
425.159	7275
425.234	944
425.309	-664
425.384	982
425.459	4599
425.534	2076
425.609	-74
425.683	-235
425.758	-535
425.833	-48
425.908	-93
425.983	1420
426.058	14210
426.132	11079
426.207	615
426.282	1064
426.357	1011
426.431	813
426.506	698
426.581	-356
426.655	-1153
426.730	-640
426.805	-943
426.879	383
426.954	950
427.029	1367
427.103	7102
427.178	34792
427.253	27169
427.327	3250
427.402	650
427.476	4250
427.551	3959
427.625	571
427.700	-159
427.774	-368
427.849	262
427.923	-164
427.998	-1235
428.072	-756
428.147	215
428.221	2337
428.296	8575
428.370	4884
428.444	40
428.519	1246
428.593	3051
428.667	4602
428.742	3946
428.816	4006
428.890	5281
428.965	12552
429.039	5793
429.113	6213
429.188	3214
429.262	341
429.336	638
429.410	5117
429.485	6038
429.559	3301
429.633	3668
429.707	-12
429.781	88
429.855	7772
429.930	17370
430.004	13609
430.078	22188
430.152	24497
430.226	11130
430.300	14850
430.374	2581
430.448	747
430.522	2816
430.596	22196
430.670	20024
430.744	13878
430.818	42553
430.892	17938
430.966	886
431.040	783
431.114	-452
431.188	-533
431.262	-708
431.336	-470
431.410	734
431.484	4924
431.557	5863
431.631	509
431.705	-829
431.779	-35
431.853	3512
431.927	5470
432.000	551
432.074	-255
432.148	-567
432.222	367
432.295	122
432.369	-544
432.443	-4
432.516	6514
432.590	36331
432.664	26230
432.737	2171
432.811	-103
432.885	-374
432.958	-388
433.032	-1520
433.106	-482
433.179	-660
433.253	-377
433.326	-90
433.400	-842
433.473	-756
433.547	-943
433.620	-377
433.694	-85
433.767	918
433.841	-472
433.914	-870
433.988	259
434.061	-294
434.134	-320
434.208	-1076
434.281	-1060
434.355	-1622
434.428	68
434.501	-305
434.575	-45
434.648	-432
434.721	-448
434.795	-1377
434.868	-547
434.941	-1153
435.014	-546
435.088	-468
435.161	181
435.234	-406
435.307	1125
435.381	-346
435.454	-323
435.527	-930
435.600	-533
435.673	-919
435.746	-930
435.819	-932
435.892	20
435.966	-723
436.039	-670
436.112	-424
436.185	-1173
436.258	-573
436.331	-727
436.404	-1019
436.477	-1115
436.550	-356
436.623	-789
436.696	-1130
436.769	-240
436.842	-413
436.915	-587
436.987	-304
437.060	-335
437.133	-112
437.206	-687
437.279	171
437.352	-964
437.425	-1320
437.498	-565
437.570	404
437.643	1416
437.716	-919
437.789	138
437.861	-336
437.934	2701
438.007	2423
438.080	24
438.152	-792
438.225	1142
438.298	7384
438.370	52358
438.443	41415
438.516	7247
438.588	1203
438.661	-772
438.734	150
438.806	107
438.879	101
438.951	-96
439.024	492
439.096	84
439.169	101
439.241	226
439.314	-935
439.386	-24
439.459	785
439.531	2092
439.604	948
439.676	90
439.749	-1076
439.821	-529
439.893	-819
439.966	-276
440.038	-324
440.110	649
440.183	-466
440.255	-485
440.327	514
440.400	2330
440.472	24082
440.544	35166
440.617	5350
440.689	947
440.761	922
440.833	2820
440.905	2700
440.978	281
441.050	-504
441.122	67
441.194	-979
441.266	-61
441.338	-577
441.411	-397
441.483	4010
441.555	16054
441.627	6276
441.699	768
441.771	293
441.843	559
441.915	-262
441.987	-522
442.059	-826
442.131	-262
442.203	391
442.275	741
442.347	1101
442.419	-360
442.491	-316
442.563	3133
442.635	3351
442.706	4599
442.778	6883
442.850	1281
442.922	-415
442.994	-128
443.066	376
443.137	847
443.209	-604
443.281	-186
443.353	38
443.425	2533
443.496	5809
443.568	9259
443.640	4160
443.711	996
443.783	-228
443.855	33
443.926	-412
443.998	91
444.070	226
444.141	714
444.213	396
444.285	1435
444.356	615
444.428	2196
444.499	-177
444.571	-439
444.642	-676
444.714	-650
444.785	-193
444.857	1234
444.928	2684
445.000	3729
445.071	1596
445.143	3287
445.214	926
445.285	1343
445.357	5364
445.428	8303
445.500	15535
445.571	17943
445.642	7660
445.714	3744
445.785	7786
445.856	3629
445.928	1358
445.999	1266
446.070	979
446.141	-6
446.213	1513
446.284	1131
446.355	-363
446.426	-624
446.497	-839
446.569	346
446.640	1433
446.711	2445
446.782	68
446.853	399
446.924	998
446.995	103
447.066	-605
447.138	1045
447.209	984
447.280	-935
447.351	-1226
447.422	-721
447.493	-929
447.564	322
447.635	241
447.706	736
447.777	-664
447.847	-910
447.918	-1244
447.989	203
448.060	887
448.131	2309
448.202	3534
448.273	2178
448.344	1023
448.414	544
448.485	-1036
448.556	557
448.627	-1289
448.698	127
448.768	-462
448.839	-352
448.910	558
448.981	1443
449.051	65
449.122	-726
449.193	-1149
449.263	457
449.334	-635
449.405	763
449.475	1429
449.546	1867
449.616	596
449.687	2029
449.758	892
449.828	-471
449.899	-557
449.969	-912
450.040	-867
450.110	310
450.181	432
450.251	-257
450.322	-670
450.392	-257
450.463	-46
450.533	393
450.604	0
450.674	-42
450.744	61
450.815	-438
450.885	-270
450.955	-472
451.026	-1129
451.096	-438
451.166	-368
451.237	592
451.307	4550
451.377	3687
451.447	155
451.518	-116
451.588	-965
451.658	21
451.728	-305
451.799	3694
451.869	7619
451.939	2585
452.009	-90
452.079	-251
452.149	-186
452.219	404
452.289	3905
452.360	7274
452.430	2165
452.500	-169
452.570	-72
452.640	1264
452.710	1349
452.780	6517
452.850	4607
452.920	5093
452.990	2442
453.060	-66
453.129	-109
453.199	1524
453.269	3998
453.339	20741
453.409	37525
453.479	23578
453.549	36641
453.619	44706
453.688	29484
453.758	6634
453.828	787
453.898	298
453.968	154
454.037	228
454.087	66
454.107	-33
454.168	182
454.177	181
454.247	-428
454.249	-385
454.316	-149
454.330	-71
454.386	191
454.411	1109
454.456	2068
454.492	4226
454.525	5912
454.574	4012
454.595	3229
454.655	871
454.665	494
454.734	1154
454.736	1223
454.804	2137
454.817	3153
454.873	5607
454.898	7248
454.943	9260
454.979	7062
455.013	5466
455.060	2810
455.082	1924
455.141	3305
455.152	3577
455.221	5737
455.222	6012
455.291	14245
455.303	14687
455.360	16329
455.384	21031
455.430	25331
455.465	24008
455.499	23032
455.546	15112
455.569	10997
455.627	7818
455.638	7414
455.707	2815
455.708	2840
455.777	1520
455.789	1529
455.846	1255
455.869	1374
455.916	1618
455.950	1637
455.985	1621
456.031	1359
456.054	1073
456.112	1346
456.124	1436
456.193	1518
456.193	1488
456.262	1620
456.274	1812
456.332	2329
456.355	2456
456.401	2416
456.436	2381
456.470	2190
456.516	1775
456.540	1648
456.597	1014
456.609	862
456.678	1832
456.678	1812
456.747	535
456.759	664
456.817	1266
456.840	1208
456.886	976
456.920	1339
456.955	1787
457.001	1739
457.024	1735
457.082	2406
457.093	2510
457.162	3017
457.163	3055
457.232	3707
457.243	3640
457.301	2908
457.324	2652
457.370	2454
457.405	2455
457.439	2556
457.485	2445
457.508	2277
457.566	2323
457.577	2405
457.646	3364
457.647	3395
457.715	3217
457.727	3333
457.784	3786
457.808	3893
457.853	4187
457.889	4835
457.922	5074
457.969	4740
457.991	4643
458.050	4944
458.060	4948
458.129	5011
458.130	5063
458.198	5712
458.211	5562
458.267	3938
458.292	3485
458.336	3410
458.372	3294
458.405	3538
458.453	4331
458.474	4794
458.533	5760
458.543	5952
458.611	8345
458.614	8472
458.680	7053
458.694	6567
458.749	5122
458.775	4300
458.818	3660
458.855	3721
458.887	3973
458.936	3918
458.955	3759
459.016	3510
459.024	3508
459.093	4376
459.097	4395
459.162	4682
459.177	4773
459.230	4999
459.257	5489
459.299	6124
459.338	6451
459.368	6872
459.418	7663
459.437	7156
459.499	5268
459.505	5229
459.574	5318
459.579	5292
459.643	4856
459.659	4934
459.711	5107
459.740	5137
459.780	5429
459.820	5961
459.849	6292
459.900	6577
459.917	6622
459.981	7065
459.986	7045
460.054	6516
460.061	6528
460.123	6468
460.141	6376
460.191	7612
460.222	8512
460.260	8876
460.302	9362
460.328	8964
460.382	8493
460.397	8460
460.462	7075
460.465	7062
460.534	8097
460.543	8144
460.602	14510
460.623	17155
460.671	30302
460.703	39463
460.739	36519
460.783	33951
460.808	27712
460.864	9469
460.876	9116
460.944	6930
460.945	6899
461.013	7217
461.024	7255
461.081	7117
461.104	7182
461.150	6977
461.184	6692
461.218	6686
461.264	6654
461.286	6770
461.345	6983
461.355	6919
461.423	7031
461.425	7022
461.491	7319
461.505	7489
461.559	10471
461.585	11768
461.628	19563
461.665	26690
461.696	30848
461.745	38503
461.764	32873
461.825	13558
461.832	13353
461.901	9018
461.905	8835
461.969	8553
461.985	8582
462.037	7865
462.065	7535
462.105	8073
462.145	8605
462.173	11110
462.225	15665
462.241	17717
462.305	26348
462.310	25701
462.378	15902
462.385	14686
462.446	10442
462.465	8947
462.514	8838
462.545	9080
462.582	8985
462.625	8844
462.650	8516
462.705	8050
462.718	8204
462.785	8778
462.786	8832
462.854	11848
462.865	12285
462.922	15903
462.945	17691
462.990	13830
463.025	10133
463.058	9552
463.104	9096
463.126	8939
463.184	8163
463.194	8229
463.262	8816
463.264	8840
463.330	9100
463.344	9136
463.398	9799
463.424	10059
463.466	10146
463.504	10270
463.533	10404
463.583	10413
463.601	10558
463.663	11234
463.669	11491
463.737	14408
463.743	14671
463.805	18526
463.823	19514
463.873	28820
463.903	34680
463.940	39126
463.982	44127
464.008	36193
464.062	19210
464.076	17928
464.142	10186
464.144	10176
464.211	10252
464.221	10292
464.279	10039
464.301	9900
464.347	10534
464.381	11084
464.414	12059
464.461	13389
464.482	14346
464.540	16793
464.550	16484
464.617	13956
464.620	13851
464.685	14833
464.699	15038
464.753	17496
464.779	18667
464.820	21346
464.859	23885
464.888	22797
464.938	20765
464.956	20925
465.018	21186
465.023	20998
465.091	18179
465.098	17873
465.158	18397
465.177	18447
465.226	18422
465.257	18517
465.293	18807
465.336	18858
465.361	19714
465.416	21704
465.428	22432
465.495	26304
465.496	26430
465.563	39069
465.575	41188
465.631	52534
465.654	57430
465.698	40411
465.734	26016
465.765	23186
465.813	18510
465.833	18323
465.893	17877
465.900	17956
465.968	18583
465.972	18586
466.035	18524
466.052	18469
466.102	19625
466.131	20190
466.170	20197
466.210	20159
466.237	20469
466.290	20928
466.304	21057
466.369	21496
466.372	21607
466.439	23505
466.449	23737
466.506	24845
466.528	25199
466.573	27984
466.607	29986
466.641	40973
466.687	56120
466.708	64123
466.766	85898
466.775	80799
466.842	41258
466.845	39292
466.909	30295
466.925	28061
466.977	26845
467.004	26181
467.044	26825
467.083	27335
467.111	29392
467.163	33133
467.178	34324
467.242	38881
467.245	38782
467.312	34951
467.321	34367
467.379	33102
467.400	32534
467.446	33053
467.480	33301
467.559	33414
467.638	27689
467.717	27805
467.796	28783
467.875	30711
467.955	31083
468.034	33698
468.113	60301
468.192	98631
468.271	42102
468.350	24648
468.429	23558
468.508	23847
468.588	23408
468.667	22892
468.746	24795
468.825	25464
468.904	22346
468.983	24206
469.062	31650
469.141	41378
469.220	24215
469.299	21571
469.378	24342
469.456	28584
469.535	28180
469.614	26200
469.693	25695
469.772	28861
469.851	36669
469.930	31180
470.009	23319
470.088	22327
470.166	23358
470.245	24875
470.324	28197
470.403	26996
470.482	23983
470.560	23196
470.639	22645
470.718	26257
470.797	22855
470.875	23766
470.954	28878
471.033	35095
471.111	20683
471.190	21075
471.269	18512
471.347	18912
471.426	20368
471.505	21981
471.583	25702
471.662	24139
471.740	21309
471.819	21970
471.898	19829
471.976	21000
472.055	20789
472.133	21370
472.212	26491
472.290	28081
472.369	22176
472.447	20518
472.526	18266
472.604	20305
472.683	19536
472.761	20026
472.839	20268
472.918	19879
472.996	20040
473.075	22115
473.153	21676
473.231	18735
473.310	21883
473.388	21035
473.466	19887
473.545	22830
473.623	26831
473.701	27033
473.780	20140
473.858	20521
473.936	20152
474.014	19832
474.093	21367
474.171	25945
474.249	35014
474.327	28965
474.405	18853
474.484	17956
474.562	18218
474.640	18847
474.718	20265
474.796	20161
474.874	19856
474.952	18893
475.030	19009
475.108	20123
475.187	21209
475.265	22373
475.343	22575
475.421	25650
475.499	20423
475.577	21506
475.655	22414
475.733	33928
475.811	58047
475.889	58027
475.966	46873
476.044	19234
476.122	18151
476.200	20564
476.278	20472
476.356	17710
476.434	18254
476.512	18763
476.590	20960
476.667	21912
476.745	17047
476.823	18141
476.901	17315
476.979	18468
477.056	18067
477.134	18729
477.212	18335
477.290	18029
477.367	16899
477.445	16197
477.523	15522
477.601	15889
477.678	16524
477.756	19037
477.834	21027
477.911	16781
477.989	17129
478.066	15985
478.144	17133
478.222	18497
478.299	18113
478.377	20304
478.454	16855
478.532	15317
478.609	15752
478.687	18009
478.764	15363
478.842	16358
478.919	17150
478.997	17228
479.074	14547
479.152	16236
479.229	20890
479.307	16578
479.384	13332
479.461	13831
479.539	14249
479.616	17835
479.694	15551
479.771	16280
479.848	17033
479.926	20550
480.003	24287
480.080	15565
480.157	14679
480.235	14460
480.312	14411
480.389	14566
480.467	20665
480.544	29342
480.621	18762
480.698	15941
480.775	17668
480.853	19364
480.930	16373
481.007	15641
481.084	17027
481.161	18833
481.238	18346
481.315	15187
481.392	14481
481.470	15243
481.547	14795
481.624	14803
481.701	14418
481.778	16048
481.855	16608
481.932	20243
482.009	32081
482.086	29195
482.163	14112
482.240	16087
482.317	18775
482.393	19156
482.470	14667
482.547	14910
482.624	14385
482.701	14931
482.778	14998
482.855	13126
482.932	13442
483.009	12598
483.085	13167
483.162	16155
483.239	16751
483.316	13172
483.393	12920
483.469	13039
483.546	14390
483.623	17773
483.699	14804
483.776	15941
483.853	17302
483.930	20910
484.006	41431
484.083	86260
484.160	53967
484.236	80225
484.313	68248
484.389	50862
484.466	43359
484.543	41497
484.619	40662
484.696	40722
484.772	41594
484.849	46073
484.925	40928
485.002	39197
485.078	39196
485.155	42122
485.231	37351
485.308	36757
485.384	38492
485.461	40541
485.537	55760
485.614	74680
485.690	40683
485.766	35786
485.843	36016
485.919	42432
485.995	48759
486.072	35073
486.148	32641
486.224	33085
486.301	33461
486.377	37681
486.453	38992
486.530	37963
486.606	46613
486.682	54549
486.758	55906
486.835	65534
486.911	50369
486.987	69861
487.063	77219
487.139	89162
487.215	72790
487.292	43506
487.368	35887
487.444	37926
487.520	41361
487.596	39827
487.672	36162
487.748	42845
487.824	57670
487.900	43484
487.976	35071
488.052	35558
488.128	42398
488.204	39348
488.280	32367
488.356	36131
488.432	53484
488.508	97043
488.584	47183
488.660	31399
488.736	32486
488.812	31509
488.888	39722
488.964	45035
489.039	69736
489.115	119020
489.191	92430
489.267	35646
489.343	31411
489.418	29626
489.494	28630
489.570	27392
489.646	28599
489.722	27656
489.797	29149
489.873	33671
489.949	63518
490.024	71639
490.100	28661
490.176	27404
490.251	28843
490.327	36901
490.403	27614
490.478	25996
490.554	22044
490.629	24523
490.705	22946
490.781	25848
490.856	24158
490.932	27752
491.007	27004
491.083	26754
491.158	24901
491.234	27541
491.309	47618
491.385	62838
491.460	27350
491.536	26982
491.611	25945
491.686	24128
491.762	30441
491.837	44906
491.913	83155
491.988	95454
492.063	155385
492.139	57953
492.214	36098
492.289	22541
492.365	19915
492.440	23584
492.515	23442
492.590	24576
492.666	20837
492.741	23340
492.816	35938
492.891	25195
492.967	21521
493.042	19053
493.117	21254
493.192	24174
493.267	30080
493.342	80794
493.418	153672
493.493	43153
493.568	19418
493.643	18697
493.718	21390
493.793	28014
493.868	34383
493.943	25134
494.018	20451
494.093	18944
494.168	17982
494.243	18929
494.318	17674
494.393	17392
494.468	17611
494.543	16244
494.618	18596
494.693	19119
494.768	17808
494.842	19655
494.917	16840
494.992	17714
495.067	18455
495.142	15679
495.217	19421
495.292	17717
495.366	20400
495.441	25308
495.516	30357
495.591	34366
495.665	71760
495.740	214833
495.815	141649
495.890	32960
495.964	24319
496.039	25334
496.114	23071
496.188	23584
496.263	24769
496.338	23274
496.412	24135
496.487	30705
496.561	28904
496.636	32512
496.710	27427
496.785	26615
496.860	31782
496.934	29544
497.009	28222
497.083	27523
497.158	30007
497.232	33114
497.307	38171
497.381	36482
497.455	37492
497.530	47564
497.604	41373
497.679	40473
497.753	51994
497.827	68515
497.902	66048
497.976	70705
498.050	94924
498.125	280766
498.199	431517
498.273	108341
498.348	75391
498.422	67609
498.496	63445
498.570	60949
498.645	50822
498.719	48459
498.793	50068
498.867	59646
498.941	71427
499.016	106365
499.090	356879
499.164	209003
499.238	38320
499.312	31451
499.386	33723
499.460	34384
499.534	28514
499.609	31525
499.683	41766
499.757	42778
499.831	52723
499.905	198027
499.979	293888
500.053	55138
500.127	48383
500.201	38982
500.275	28018
500.349	25762
500.422	27952
500.496	34072
500.570	57403
500.644	111465
500.718	278386
500.792	98488
500.866	25310
500.940	29728
501.013	27667
501.087	25344
501.161	36866
501.235	50690
501.309	70879
501.382	198566
501.456	260573
501.530	54461
501.603	84251
501.677	48869
501.751	20809
501.825	23096
501.898	31117
501.972	90125
502.046	85761
502.119	23882
502.193	35778
502.266	104295
502.340	73823
502.413	39399
502.487	96322
502.561	66792
502.634	27514
502.708	18842
502.781	17707
502.855	15977
502.928	14280
503.002	15432
503.075	13990
503.149	15794
503.222	15220
503.295	17952
503.369	20629
503.442	23789
503.516	52063
503.589	171890
503.662	150936
503.736	41021
503.809	75798
503.882	82788
503.956	81706
504.029	107073
504.102	34882
504.175	34187
504.249	19532
504.322	16544
504.395	19586
504.468	15109
504.542	15115
504.615	13459
504.688	12068
504.761	12730
504.834	15587
504.907	16412
504.980	27164
505.053	18575
505.127	17962
505.200	23575
505.273	21128
505.346	16392
505.419	12479
505.492	12166
505.565	10944
505.638	11191
505.711	10695
505.784	11785
505.857	9490
505.930	12564
506.003	11402
506.076	13671
506.149	15050
506.221	21109
506.294	16746
506.367	28427
506.440	113709
506.513	97282
506.586	21693
506.659	15678
506.731	12089
506.804	13401
506.877	18922
506.950	15666
507.022	10883
507.095	13878
507.168	18701
507.241	13568
507.313	10536
507.386	11407
507.459	14604
507.531	12639
507.604	10704
507.677	12945
507.749	10095
507.822	13099
507.894	23434
507.967	37527
508.040	22789
508.112	18192
508.185	17669
508.257	17049
508.330	22336
508.402	18482
508.475	16615
508.547	18071
508.620	16823
508.692	23934
508.765	18800
508.837	15599
508.909	13989
508.982	15102
509.054	15793
509.127	15625
509.199	13710
509.271	14349
509.344	13905
509.416	13345
509.488	13628
509.560	14864
509.633	15339
509.705	16046
509.777	17419
509.849	21550
509.922	19769
509.994	16563
510.066	15441
510.138	17613
510.210	29958
510.283	31787
510.355	24782
510.427	22556
510.499	19882
510.571	18494
510.643	18617
510.715	25256
510.787	26631
510.859	19424
510.931	20537
511.003	26071
511.076	27016
511.148	19575
511.219	18685
511.291	24314
511.363	31510
511.435	19783
511.507	17114
511.579	17010
511.651	17532
511.723	16618
511.795	16070
511.867	17238
511.939	18172
512.010	28654
512.082	30152
512.154	17566
512.226	17470
512.298	21024
512.369	35170
512.441	27339
512.513	24516
512.585	21632
512.656	20519
512.728	22948
512.800	19577
512.871	17652
512.943	17752
513.015	17876
513.086	18071
513.158	18976
513.230	18952
513.301	22780
513.373	26131
513.444	20118
513.516	17683
513.588	17012
513.659	18041
513.731	20542
513.802	19453
513.874	25202
513.945	49949
514.016	29073
514.088	17115
514.159	18112
514.231	20203
514.302	31496
514.374	25422
514.445	22203
514.516	32041
514.588	33585
514.659	21274
514.730	32074
514.802	30561
514.873	26859
514.944	29512
515.016	26016
515.087	27648
515.158	27507
515.229	38892
515.301	28169
515.372	36768
515.443	34429
515.514	27114
515.585	22166
515.656	20254
515.728	18429
515.799	17057
515.870	17643
515.941	17003
516.012	18330
516.083	22932
516.154	24463
516.225	26022
516.296	25069
516.367	22781
516.438	25425
516.509	28977
516.580	36015
516.651	62326
516.722	241455
516.793	208177
516.864	45105
516.935	40548
517.006	40325
517.077	49516
517.148	86276
517.219	192196
517.289	506047
517.360	206872
517.431	90677
517.502	28101
517.573	23461
517.643	22746
517.714	25122
517.785	26707
517.856	24765
517.926	28637
517.997	30961
518.068	34965
518.138	45062
518.209	57214
518.280	123476
518.350	548717
518.421	426287
518.492	61516
518.562	31380
518.633	26510
518.703	23814
518.774	23056
518.845	26279
518.915	29835
518.986	25131
519.056	26595
519.127	39889
519.197	57564
519.268	121141
519.338	121753
519.408	30955
519.479	32068
519.549	28424
519.620	19799
519.690	16697
519.760	17660
519.831	16855
519.901	18010
519.971	14853
520.042	16165
520.112	18777
520.182	18992
520.253	22992
520.323	18585
520.393	20993
520.463	36432
520.534	23641
520.604	45327
520.674	28642
520.744	22070
520.814	42826
520.885	53257
520.955	37163
521.025	135960
521.095	98495
521.165	20119
521.235	17595
521.305	16741
521.375	15140
521.445	14376
521.515	18041
521.585	20397
521.655	24537
521.725	17824
521.795	18153
521.865	13119
521.935	18401
522.005	20385
522.075	14620
522.145	15197
522.215	15574
522.285	21632
522.355	24139
522.424	42668
522.494	48063
522.564	27561
522.634	28736
522.704	93077
522.774	65683
522.843	17153
522.913	15073
522.983	18268
523.053	17248
523.122	15496
523.192	17151
523.262	41018
523.331	70388
523.401	20223
523.471	12761
523.540	13365
523.610	11203
523.680	11599
523.749	12025
523.819	13669
523.888	16046
523.958	12447
524.027	12521
524.097	14173
524.166	12644
524.236	13819
524.305	14258
524.375	11570
524.444	11426
524.514	12688
524.583	12741
524.653	16006
524.722	17633
524.791	12869
524.861	12284
524.930	12061
524.999	12469
525.069	16352
525.138	14428
525.207	15741
525.277	13946
525.346	12661
525.415	12481
525.484	12271
525.554	14098
525.623	14336
525.692	11997
525.761	11927
525.830	10901
525.900	11417
525.969	13481
526.038	14415
526.107	15291
526.176	27611
526.245	31155
526.314	21929
526.383	26740
526.452	27753
526.522	34136
526.591	58127
526.660	53409
526.729	34149
526.797	27248
526.867	41904
526.935	176770
527.004	223520
527.073	109217
527.142	21084
527.211	14258
527.280	13280
527.349	16965
527.418	11199
527.487	12502
527.555	10859
527.624	10856
527.693	9665
527.762	9894
527.831	9445
527.899	10509
527.968	10067
528.037	10729
528.106	11872
528.174	18492
528.243	18464
528.312	18603
528.380	32136
528.449	15379
528.518	10385
528.586	9221
528.655	9377
528.723	8690
528.792	8544
528.861	10273
528.929	9850
528.998	9668
529.066	9301
529.135	9299
529.203	9740
529.272	8865
529.340	10396
529.409	10362
529.477	9658
529.545	11502
529.614	14450
529.682	12521
529.751	17006
529.819	15261
529.887	14729
529.956	10357
530.024	10819
530.092	9723
530.161	10745
530.229	15529
530.297	14074
530.365	10306
530.434	9117
530.502	9474
530.570	9255
530.638	8043
530.707	10381
530.775	10982
530.843	9656
530.911	9618
530.979	9714
531.047	9568
531.115	9925
531.183	9159
531.252	9933
531.320	9773
531.388	9817
531.456	10465
531.524	8965
531.592	10068
531.660	11189
531.728	10460
531.796	10516
531.864	10327
531.932	10713
532.000	9690
532.067	10240
532.135	12270
532.203	12866
532.271	13721
532.339	17690
532.407	39129
532.475	38061
532.542	19970
532.610	19126
532.678	21099
532.746	44942
532.814	188342
532.881	80205
532.949	17256
533.017	12999
533.084	11431
533.152	11023
533.220	10911
533.287	11463
533.355	11346
533.423	10432
533.490	10246
533.558	10208
533.625	9949
533.693	12615
533.761	12891
533.828	12773
533.896	13303
533.963	19449
534.031	27930
534.098	31972
534.166	22964
534.233	13735
534.300	14500
534.368	14499
534.435	13636
534.503	13884
534.570	13272
534.637	12564
534.705	12224
534.772	11169
534.840	13079
534.907	16000
534.974	25061
535.041	12161
535.109	12605
535.176	11078
535.243	10615
535.310	9979
535.378	10714
535.445	10021
535.512	10093
535.579	10288
535.646	11063
535.714	10244
535.781	14486
535.848	13512
535.915	15399
535.982	16187
536.049	16753
536.116	16575
536.183	14292
536.250	13672
536.317	14303
536.384	14983
536.451	17186
536.518	17901
536.585	15263
536.652	16702
536.719	20248
536.786	19895
536.853	16320
536.920	19895
536.987	27716
537.053	26509
537.120	70968
537.187	112636
537.254	17948
537.321	11294
537.388	12605
537.454	10106
537.521	10145
537.588	9317
537.654	11793
537.721	13090
537.788	13720
537.855	11310
537.921	11230
537.988	12037
538.055	11878
538.121	10975
538.188	12337
538.254	14367
538.321	25288
538.388	22142
538.454	12595
538.521	10952
538.587	10281
538.654	10293
538.720	10427
538.787	10513
538.853	11277
538.920	12121
538.986	14101
539.053	13093
539.119	11925
539.185	12950
539.252	12747
539.318	17950
539.385	17166
539.451	16020
539.517	16082
539.583	16060
539.650	23206
539.716	73768
539.782	37591
539.849	13376
539.915	12932
539.981	12803
540.047	13987
540.114	13489
540.180	14085
540.246	12979
540.312	16044
540.378	24353
540.444	29826
540.510	25467
540.576	76376
540.643	46552
540.709	13606
540.775	12018
540.841	13062
540.907	14276
540.973	23224
541.039	19885
541.105	20132
541.171	15121
541.237	11687
541.303	12275
541.369	14992
541.435	15283
541.500	22333
541.566	19498
541.632	13036
541.698	10419
541.764	10863
541.830	11401
541.896	10475
541.961	11466
542.027	11581
542.093	11993
542.159	12973
542.224	12817
542.290	16882
542.356	22503
542.421	28446
542.487	18554
542.553	14604
542.618	14956
542.684	13716
542.750	13412
542.815	15285
542.881	19261
542.947	56766
543.012	73313
543.078	14383
543.143	12445
543.209	14309
543.274	13550
543.340	14650
543.405	21912
543.471	52016
543.536	18823
543.602	12211
543.667	11139
543.732	11409
543.798	9955
543.863	12377
543.928	10587
543.994	10725
544.059	10405
544.124	10964
544.190	10417
544.255	12341
544.320	11740
544.386	12244
544.451	15087
544.516	18184
544.581	17470
544.646	32766
544.712	79436
544.777	25053
544.842	15722
544.907	16252
544.972	14210
545.037	13203
545.102	14238
545.168	15144
545.233	15905
545.298	16070
545.363	18019
545.428	18838
545.493	23769
545.558	54439
545.623	38117
545.688	16680
545.753	13313
545.818	14209
545.883	13651
545.947	14264
546.012	14997
546.077	15629
546.142	15095
546.207	13983
546.272	16741
546.337	17676
546.401	16482
546.466	14961
546.531	12791
546.596	15144
546.661	14643
546.725	14124
546.790	12292
546.855	13521
546.919	12402
546.984	13252
547.049	14160
547.113	15113
547.178	13793
547.243	14562
547.307	15722
547.372	15983
547.436	19011
547.501	15164
547.565	14568
547.630	16664
547.695	17411
547.759	17529
547.823	18026
547.888	14940
547.952	13168
548.017	14632
548.081	15215
548.146	19801
548.210	19893
548.274	13832
548.339	13159
548.403	12886
548.468	13198
548.532	12977
548.596	13184
548.660	13038
548.725	14424
548.789	15750
548.853	17916
548.917	15262
548.982	16534
549.046	21267
549.110	14882
549.174	14433
549.238	12923
549.303	12435
549.367	14254
549.431	13520
549.495	13196
549.559	13231
549.623	14280
549.687	15637
549.751	21323
549.815	18159
549.879	15383
549.943	13236
550.007	15499
550.071	16434
550.135	19354
550.199	18648
550.263	15227
550.327	15334
550.391	19793
550.455	18703
550.519	15327
550.582	16383
550.646	18519
550.710	22603
550.774	16826
550.838	15145
550.901	15622
550.965	16597
551.029	17215
551.093	18663
551.156	20957
551.220	31791
551.284	45133
551.347	23605
551.411	35075
551.475	59541
551.538	21025
551.602	16193
551.666	14242
551.729	13284
551.793	14588
551.856	14918
551.920	14928
551.983	15312
552.047	14069
552.110	13656
552.174	13812
552.237	13970
552.301	14144
552.364	14131
552.428	13629
552.491	13899
552.554	14145
552.618	14660
552.681	15071
552.745	15862
552.808	19023
552.871	25552
552.934	22237
552.998	17634
553.061	16614
553.124	16347
553.187	16906
553.251	18864
553.314	20101
553.377	22052
553.440	26498
553.503	59474
553.567	158367
553.630	50029
553.693	16545
553.756	15153
553.819	14946
553.882	14907
553.945	13319
554.008	13761
554.071	12397
554.134	13651
554.197	13014
554.260	13237
554.323	14678
554.386	13995
554.449	14053
554.512	13550
554.575	13027
554.638	12914
554.701	12709
554.764	12890
554.827	12705
554.889	12471
554.952	12296
555.015	11899
555.078	11448
555.141	12840
555.203	12090
555.266	12174
555.329	13129
555.391	11571
555.454	11685
555.517	13464
555.580	11826
555.642	12246
555.705	11318
555.768	13083
555.830	12473
555.893	11298
555.955	11527
556.018	11563
556.080	12344
556.143	11735
556.206	11602
556.268	12412
556.330	13213
556.393	13298
556.455	12494
556.518	15904
556.580	19066
556.643	13280
556.705	11490
556.767	11533
556.830	13204
556.892	12857
556.955	17508
557.017	18059
557.079	13517
557.142	11929
557.204	12396
557.266	20830
557.328	24099
557.391	13204
557.453	10451
557.515	11518
557.577	12382
557.639	14642
557.701	11815
557.764	10682
557.826	11009
557.888	12509
557.950	11229
558.012	10934
558.074	11267
558.136	12913
558.198	20795
558.260	18471
558.322	11880
558.384	12331
558.446	13651
558.508	14269
558.570	16536
558.632	21495
558.694	37781
558.756	27368
558.818	31010
558.880	84301
558.942	53233
559.003	23023
559.065	19844
559.127	14772
559.189	13286
559.251	13978
559.312	14146
559.374	19129
559.436	45455
559.498	45340
559.559	14332
559.621	13020
559.683	13876
559.744	17770
559.806	28573
559.868	47253
559.929	22302
559.991	15340
560.052	15927
560.114	22804
560.176	21912
560.237	18066
560.299	24410
560.360	18027
560.422	13376
560.483	13245
560.545	12508
560.606	12348
560.667	12837
560.729	12035
560.790	11430
560.852	12248
560.913	12184
560.974	13027
561.036	11727
561.097	12934
561.158	11868
561.220	13231
561.281	13329
561.342	14253
561.403	15329
561.465	16618
561.526	26171
561.587	46871
561.648	22191
561.709	14167
561.771	13387
561.832	14241
561.893	13986
561.954	14108
562.015	11611
562.076	13233
562.137	13483
562.198	13269
562.259	13150
562.320	14277
562.381	14306
562.442	17448
562.503	17660
562.564	14314
562.625	13156
562.686	13465
562.747	13519
562.808	14231
562.869	13813
562.930	15926
562.991	15744
563.051	15924
563.112	14101
563.173	13940
563.234	12384
563.294	13507
563.355	12905
563.416	13943
563.477	13354
563.537	13592
563.598	14202
563.659	13956
563.720	13210
563.780	13738
563.841	15056
563.901	14816
563.962	14403
564.023	14385
564.083	14048
564.144	14397
564.204	14403
564.265	13959
564.325	15334
564.386	21617
564.446	26404
564.507	15232
564.567	14723
564.628	14890
564.688	14384
564.749	13643
564.809	15336
564.869	17673
564.930	16272
564.990	15746
565.050	14613
565.111	15392
565.171	14489
565.231	14544
565.292	15254
565.352	14781
565.412	14957
565.472	15368
565.532	15973
565.593	17047
565.653	14878
565.713	15700
565.773	16810
565.833	17662
565.893	20853
565.953	18448
566.013	17617
566.074	18364
566.134	20577
566.194	25717
566.254	29934
566.314	24778
566.374	20137
566.434	20224
566.494	20400
566.554	20755
566.614	22087
566.673	23116
566.733	22574
566.793	24716
566.853	25763
566.913	25078
566.973	26583
567.033	27091
567.092	26192
567.152	26834
567.212	26086
567.272	26570
567.331	27554
567.391	29053
567.451	30302
567.511	32618
567.570	34607
567.630	29449
567.690	27111
567.749	28272
567.809	27983
567.868	32266
567.928	35034
567.988	39722
568.047	45742
568.107	53905
568.166	66230
568.226	86138
568.285	117292
568.345	126886
568.404	115675
568.464	104413
568.523	99666
568.582	99294
568.642	102571
568.701	114487
568.761	139603
568.820	186428
568.879	218537
568.939	197753
568.998	165670
569.057	135661
569.116	114205
569.176	94033
569.235	80403
569.294	70535
569.353	60627
569.413	53679
569.472	47767
569.531	44118
569.590	38786
569.649	36898
569.708	33474
569.767	31571
569.827	30911
569.886	30505
569.945	25841
570.004	24551
570.063	24240
570.122	23169
570.181	23263
570.240	23150
570.299	22965
570.358	22402
570.417	19907
570.475	18781
570.534	19001
570.593	18220
570.652	18057
570.711	18826
570.770	17145
570.829	17895
570.887	17374
570.946	18845
571.005	15677
571.064	16697
571.122	15314
571.181	16555
571.240	15623
571.299	15098
571.357	15418
571.416	16606
571.475	16263
571.533	18194
571.592	13677
571.650	15051
571.709	14414
571.768	14410
571.826	13236
571.885	13109
571.943	13487
572.002	12369
572.060	13398
572.119	13432
572.177	12007
572.236	13032
572.294	12283
572.352	12231
572.411	13124
572.469	12456
572.528	11855
572.586	13370
572.644	12618
572.703	15753
572.761	13462
572.819	11946
572.877	12250
572.936	11468
572.994	10743
573.052	11123
573.110	12086
573.169	11939
573.227	11216
573.285	11719
573.343	10806
573.401	11211
573.459	11513
573.517	10930
573.576	11408
573.634	11558
573.692	11889
573.750	11621
573.808	11543
573.866	12302
573.924	12919
573.982	13708
574.040	12163
574.098	11414
574.155	10518
574.213	10722
574.271	10496
574.329	11587
574.387	11003
574.445	10680
574.503	10238
574.560	9697
574.618	9596
574.676	10797
574.734	9653
574.792	9924
574.849	10958
574.907	10151
574.965	10578
575.022	10633
575.080	10502
575.138	10623
575.195	10353
575.253	10627
575.311	10594
575.368	11393
575.426	9701
575.483	11093
575.541	10325
575.598	9911
575.656	10064
575.713	10970
575.771	10358
575.828	10582
575.886	10623
575.943	11989
576.001	11591
576.058	11014
576.115	11754
576.173	11464
576.230	12923
576.287	14367
576.345	13052
576.402	11977
576.459	12031
576.517	11405
576.574	12068
576.631	12340
576.688	12009
576.746	10663
576.803	11281
576.860	11394
576.917	11906
576.974	12239
577.031	10762
577.089	11610
577.146	10566
577.203	11261
577.260	11860
577.317	12015
577.374	13482
577.431	13237
577.488	12214
577.545	11717
577.602	11895
577.659	11642
577.716	11899
577.773	13315
577.830	13316
577.886	12635
577.943	12183
578.000	12825
578.057	12142
578.114	14219
578.171	13372
578.227	17934
578.284	19249
578.341	18376
578.398	15240
578.454	14311
578.511	13449
578.568	14749
578.625	13138
578.681	12853
578.738	12286
578.794	13177
578.851	12183
578.908	12634
578.964	13693
579.021	14266
579.077	12649
579.134	12706
579.190	12927
579.247	11651
579.303	12120
579.360	11890
579.416	12264
579.473	12022
579.529	12173
579.586	12712
579.642	12621
579.698	13840
579.755	13224
579.811	14107
579.867	13966
579.924	14324
579.980	14270
580.036	16249
580.093	17543
580.149	22726
580.205	26819
580.261	26019
580.317	21192
580.374	19089
580.430	18146
580.486	17376
580.542	15643
580.598	16335
580.619	15826
580.654	14964
580.692	14599
580.710	14447
580.765	13770
580.767	13768
580.823	14795
580.838	14549
580.879	13975
580.911	13681
580.935	13488
580.984	13686
580.991	13736
581.047	13651
581.057	13699
581.103	13961
581.130	14327
581.159	14780
581.203	15452
581.215	15651
581.270	16998
581.276	16823
581.326	15327
581.349	15143
581.382	14914
581.422	14641
581.438	14550
581.494	14399
581.494	14379
581.550	13737
581.567	13855
581.606	14121
581.640	13819
581.661	13685
581.713	14291
581.717	14350
581.773	13513
581.786	13655
581.829	14165
581.859	13959
581.885	13810
581.932	13927
581.940	13956
581.996	14309
582.004	14257
582.052	14091
582.077	13850
582.107	13596
582.150	13974
582.163	14090
582.219	13659
582.223	13647
582.274	13614
582.296	13490
582.330	13385
582.368	14491
582.386	14962
582.441	13721
582.441	13727
582.497	14301
582.514	14255
582.552	14307
582.587	14696
582.608	14904
582.659	14850
582.663	14852
582.719	15073
582.732	15049
582.774	15041
582.805	14672
582.830	14372
582.877	15531
582.885	15721
582.941	14390
582.950	14502
582.996	15114
583.023	15822
583.052	16624
583.095	16591
583.107	16582
583.162	18981
583.168	19132
583.218	20486
583.240	19951
583.273	19191
583.313	18565
583.328	18238
583.384	16957
583.385	16946
583.439	17023
583.458	16718
583.494	16110
583.531	15851
583.549	15709
583.603	15330
583.605	15314
583.660	15808
583.676	15755
583.715	15699
583.748	16014
583.770	16155
583.820	15790
583.825	15764
583.881	16037
583.893	16015
583.936	15722
583.965	15687
583.991	15717
584.038	15252
584.046	15188
584.101	15691
584.110	15651
584.156	15291
584.183	15490
584.211	15618
584.255	15671
584.266	15744
584.321	15828
584.328	15839
584.376	15434
584.400	15584
584.431	15979
584.472	16139
584.486	16116
584.541	15682
584.545	15708
584.596	16278
584.617	16338
584.651	16150
584.689	16725
584.706	17069
584.761	17262
584.762	17279
584.816	17248
584.834	17019
584.871	16766
584.906	17386
584.926	17536
584.978	17579
584.980	17573
585.035	18009
585.051	18006
585.090	17829
585.123	18572
585.145	19134
585.195	18616
585.200	18565
585.254	20033
585.267	20134
585.309	20480
585.340	21741
585.364	22548
585.412	22818
585.419	22698
585.473	21287
585.484	21097
585.528	20779
585.556	21376
585.583	22130
585.628	23073
585.637	23362
585.692	26689
585.700	27800
585.747	34759
585.772	35216
585.801	32889
585.845	26775
585.856	25297
585.910	22870
585.917	22659
585.965	22800
585.989	23107
586.019	23198
586.061	23258
586.074	23168
586.128	23360
586.133	23423
586.183	24186
586.205	24783
586.237	25449
586.277	25310
586.292	25126
586.346	26142
586.349	26206
586.401	26391
586.421	26632
586.455	26850
586.493	27714
586.509	28282
586.564	31228
586.565	31379
586.618	36724
586.637	39028
586.672	41440
586.709	38063
586.727	35014
586.781	31251
586.781	31172
586.835	31453
586.853	31835
586.889	32220
586.925	32571
586.944	32673
586.996	33793
586.998	33727
587.052	34134
587.068	34690
587.106	35876
587.140	36714
587.161	36974
587.212	38167
587.215	38097
587.269	39141
587.284	39820
587.323	41337
587.356	42417
587.377	42911
587.427	44753
587.431	44725
587.485	46223
587.499	47113
587.539	49215
587.571	50617
587.593	51311
587.643	54394
587.648	54463
587.702	57405
587.715	58532
587.755	61384
587.786	63968
587.810	65400
587.858	69480
587.864	69684
587.917	74804
587.930	76512
587.971	81553
588.001	86116
588.025	89194
588.073	96633
588.079	97088
588.133	106369
588.145	109244
588.187	118506
588.217	125577
588.241	130697
588.288	144614
588.295	146001
588.348	165150
588.360	170352
588.402	187358
588.431	200801
588.456	210890
588.503	236643
588.510	239692
588.564	274776
588.575	284050
588.617	317856
588.646	345165
588.671	370688
588.718	423559
588.725	433244
588.778	520155
588.789	537862
588.832	641075
588.861	704450
588.886	781060
588.932	909072
588.939	911849
588.993	913455
589.004	926585
589.047	937782
589.075	956675
589.100	903868
589.147	758293
589.154	739355
589.207	577740
589.218	546645
589.261	490100
589.290	457633
589.314	447702
589.361	443807
589.368	446893
589.421	497032
589.433	509876
589.475	617814
589.504	687867
589.528	765736
589.576	897449
589.582	893470
589.635	885901
589.647	889017
589.689	759580
589.718	640656
589.742	558314
589.790	384553
589.795	372947
589.849	282745
589.861	264489
589.902	223797
589.932	198783
589.955	182123
590.004	153860
590.009	150328
590.062	126105
590.075	121646
590.115	108651
590.146	101272
590.168	95379
590.218	85163
590.222	83750
590.275	75541
590.289	74187
590.328	68693
590.360	65228
590.381	62045
590.431	56920
590.435	56181
590.488	51887
590.503	51336
590.541	48286
590.574	46337
590.594	44579
590.645	41938
590.647	41466
590.700	38306
590.716	37889
590.753	36228
590.787	35308
590.806	34174
590.859	32419
590.859	32101
590.912	30587
590.930	30411
590.965	28607
591.001	27195
591.018	26474
591.071	25424
591.072	25663
591.124	25029
591.143	25071
591.177	24006
591.214	23408
591.230	22799
591.283	21700
591.285	21873
591.336	21827
591.356	22151
591.389	21827
591.427	21779
591.442	21285
591.495	20171
591.498	20282
591.547	18227
591.569	17618
591.600	17399
591.640	17493
591.653	17214
591.706	16760
591.711	16892
591.759	15971
591.782	15838
591.811	16139
591.853	16945
591.864	16704
591.917	16198
591.924	16288
591.969	14584
591.995	13882
592.022	13705
592.066	13868
592.075	13786
592.127	14254
592.137	14490
592.180	15473
592.208	16376
592.233	15579
592.279	14358
592.285	14017
592.338	12380
592.350	12155
592.390	11293
592.421	10873
592.443	10734
592.491	10937
592.495	10771
592.548	10381
592.562	10414
592.600	10338
592.633	10522
592.653	10108
592.704	9328
592.705	9395
592.775	10290
592.846	9699
592.916	10588
592.987	10880
593.058	11080
593.128	9417
593.199	8701
593.270	8933
593.341	8666
593.411	8955
593.482	7738
593.553	8886
593.623	7347
593.694	7890
593.764	9176
593.835	8874
593.906	7927
593.976	8404
594.047	8220
594.117	8198
594.188	10865
594.258	8059
594.329	7153
594.399	6931
594.470	7086
594.540	6924
594.611	7377
594.681	6889
594.751	7433
594.822	6919
594.892	8197
594.963	8382
595.033	7855
595.103	7818
595.174	7766
595.244	10406
595.314	16322
595.384	12217
595.455	7119
595.525	8070
595.595	7138
595.665	6985
595.736	7665
595.806	7101
595.876	6409
595.946	6516
596.016	6349
596.087	5975
596.157	6974
596.227	7407
596.297	6639
596.367	7210
596.437	7000
596.507	8853
596.577	13798
596.647	11019
596.717	6874
596.787	6647
596.857	6010
596.927	6171
596.997	6139
597.067	6318
597.137	7469
597.207	7778
597.277	6805
597.347	7053
597.417	6314
597.487	6229
597.557	7258
597.626	6644
597.696	7554
597.766	7704
597.836	11760
597.906	10812
597.975	7391
598.045	5994
598.115	6896
598.185	6449
598.254	6679
598.324	7031
598.394	6601
598.464	7581
598.533	6844
598.603	6534
598.672	7080
598.742	7235
598.812	6405
598.881	6064
598.951	6530
599.020	6176
599.090	6551
599.159	5812
599.229	5663
599.299	5264
599.368	5838
599.437	6054
599.507	6159
599.576	6916
599.646	6876
599.715	7076
599.785	6703
599.854	5973
599.924	7522
599.993	8050
600.062	5957
600.132	5579
600.201	6857
600.270	6063
600.340	6427
600.409	5890
600.478	6315
600.547	5995
600.617	5793
600.686	5682
600.755	6121
600.824	6163
600.894	6268
600.963	6507
601.032	5655
601.101	5366
601.170	5394
601.239	4977
601.308	6281
601.378	5745
601.447	5952
601.516	5027
601.585	5908
601.654	5911
601.723	5537
601.792	5420
601.861	5798
601.930	7607
601.999	7850
602.068	6238
602.137	5581
602.206	5735
602.275	6360
602.343	6632
602.412	8654
602.481	5980
602.550	5904
602.619	4734
602.688	5247
602.756	5510
602.825	5479
602.894	4671
602.963	5293
603.032	5192
603.100	5367
603.169	5589
603.238	5210
603.307	4932
603.375	4683
603.444	5564
603.513	5684
603.581	5740
603.650	6076
603.719	4995
603.787	4810
603.856	5207
603.924	5511
603.993	5198
604.061	4972
604.130	5090
604.198	5669
604.267	5354
604.335	4897
604.404	4712
604.472	4897
604.541	5217
604.609	5348
604.678	4438
604.746	4748
604.815	4617
604.883	4678
604.951	5142
605.020	5082
605.088	5157
605.156	4558
605.225	5065
605.293	5410
605.361	5427
605.429	5110
605.498	5378
605.566	5819
605.634	5607
605.702	5749
605.771	5214
605.839	5815
605.907	4759
605.975	5889
606.043	5050
606.111	5314
606.180	5403
606.248	5997
606.316	8771
606.384	7030
606.452	6660
606.520	8635
606.588	8001
606.656	4950
606.724	4701
606.792	4991
606.860	4425
606.928	3795
606.996	4416
607.064	4722
607.132	4043
607.200	4457
607.267	4063
607.335	4404
607.403	4522
607.471	4493
607.539	3273
607.607	4691
607.674	4084
607.742	4601
607.810	4573
607.878	5153
607.946	3959
608.013	5038
608.081	4939
608.149	4850
608.216	4130
608.284	4636
608.352	4575
608.419	4600
608.487	6277
608.555	7969
608.622	4330
608.690	4007
608.757	3907
608.825	5027
608.893	3577
608.960	4662
609.028	6507
609.095	7765
609.163	7391
609.230	4966
609.298	5282
609.365	3971
609.432	4912
609.500	3799
609.567	4448
609.635	5375
609.702	4700
609.769	5027
609.837	5867
609.904	6102
609.971	4991
610.039	6298
610.106	6894
610.173	11666
610.241	23876
610.308	45755
610.375	45150
610.442	17521
610.509	6870
610.577	6424
610.644	4881
610.711	5107
610.778	4657
610.845	4232
610.912	4000
610.980	4081
611.047	7367
611.114	9001
611.181	5339
611.248	4535
611.315	4636
611.382	4472
611.449	4010
611.516	4023
611.583	4720
611.650	4775
611.717	5218
611.784	4313
611.851	5658
611.918	5067
611.984	6111
612.051	7696
612.118	12148
612.185	30593
612.252	54727
612.319	14563
612.386	6033
612.452	5696
612.519	5073
612.586	7257
612.653	8736
612.719	6122
612.786	4871
612.853	4423
612.919	4339
612.986	5169
613.053	4200
613.120	4069
613.186	4111
613.253	5155
613.319	3743
613.386	4343
613.453	4698
613.519	5248
613.586	6869
613.652	10846
613.719	10673
613.785	10295
613.852	5644
613.918	4587
613.985	5634
614.051	8492
614.118	17450
614.184	40945
614.250	15662
614.317	5147
614.383	4241
614.449	4662
614.516	3899
614.582	4456
614.648	4666
614.715	3287
614.781	4406
614.847	4628
614.914	5311
614.980	4821
615.046	5120
615.112	3990
615.179	5283
615.245	5196
615.311	6634
615.377	9996
615.443	19433
615.509	14558
615.575	8805
615.642	6961
615.708	5894
615.774	7383
615.840	7116
615.906	8506
615.972	12042
616.038	23889
616.104	47114
616.170	55944
616.236	91964
616.302	33572
616.368	10586
616.434	7955
616.500	6906
616.565	7355
616.631	7720
616.697	7326
616.763	6248
616.829	7423
616.895	11113
616.961	15824
617.026	11289
617.092	7178
617.158	5214
617.224	4724
617.289	4783
617.355	4258
617.421	4719
617.487	4369
617.552	4272
617.618	4328
617.684	3919
617.749	5326
617.815	4500
617.880	5073
617.946	4038
618.012	5039
618.077	3493
618.143	3810
618.208	4443
618.274	3963
618.339	4571
618.405	4238
618.470	4426
618.536	3865
618.601	5710
618.667	4621
618.732	4501
618.798	4376
618.863	4977
618.928	3610
618.994	5154
619.059	5305
619.124	6786
619.190	9658
619.255	4658
619.320	4454
619.386	4574
619.451	4509
619.516	4222
619.581	4282
619.647	4142
619.712	4806
619.777	4095
619.842	4331
619.907	4743
619.972	4622
620.038	4810
620.103	3817
620.168	3902
620.233	4328
620.298	4194
620.363	4509
620.428	3792
620.493	3888
620.558	3960
620.623	4194
620.688	3747
620.753	4840
620.818	3834
620.883	4351
620.948	3300
621.013	3874
621.078	4629
621.143	3816
621.207	5175
621.272	4729
621.337	4873
621.402	5323
621.467	6381
621.532	8812
621.596	7464
621.661	6198
621.726	4927
621.791	5121
621.855	5024
621.920	6136
621.985	5667
622.049	7836
622.114	7395
622.179	6446
622.243	6038
622.308	5174
622.373	5856
622.437	5884
622.502	4758
622.566	5692
622.631	5005
622.695	6054
622.760	5035
622.824	5716
622.889	4854
622.953	5715
623.018	8545
623.082	13803
623.147	7293
623.211	6007
623.276	5412
623.340	5825
623.404	4670
623.469	4588
623.533	5013
623.597	4745
623.662	5276
623.726	4463
623.790	4314
623.854	4904
623.919	4814
623.983	4828
624.047	4615
624.111	5178
624.176	4105
624.240	5347
624.304	6122
624.368	5502
624.432	4439
624.496	4431
624.560	5810
624.625	6918
624.689	6665
624.753	4936
624.817	5283
624.881	4304
624.945	4298
625.009	3945
625.073	4842
625.137	4578
625.201	6387
625.265	8138
625.329	5381
625.393	5102
625.456	5989
625.520	4722
625.584	5889
625.648	6516
625.712	10010
625.776	21909
625.839	41478
625.903	31759
625.967	7590
626.031	9477
626.095	17576
626.158	15610
626.222	5041
626.286	3351
626.349	4620
626.413	3782
626.477	4198
626.540	4948
626.604	3860
626.668	3928
626.731	3785
626.795	3957
626.858	4457
626.922	4143
626.986	3757
627.049	3209
627.113	3320
627.176	3278
627.240	3522
627.303	3523
627.366	3101
627.430	3505
627.493	3473
627.557	3528
627.620	3914
627.684	4033
627.747	3530
627.810	3849
627.874	3515
627.937	2498
628.000	3312
628.064	3842
628.127	3473
628.190	2965
628.253	3023
628.317	3810
628.380	3238
628.443	3352
628.506	2867
628.569	3521
628.632	2683
628.696	3321
628.759	2809
628.822	2313
628.885	3448
628.948	3087
629.011	3203
629.074	3546
629.137	3454
629.200	3517
629.263	2992
629.326	3576
629.389	3281
629.452	3075
629.515	3113
629.578	3457
629.641	2775
629.704	3057
629.767	3283
629.830	3517
629.892	3197
629.955	2951
630.018	3657
630.081	3530
630.144	5720
630.207	5150
630.269	3645
630.332	3394
630.395	4578
630.458	3224
630.520	1549
630.583	3738
630.646	2642
630.708	3146
630.771	2356
630.834	2321
630.896	1783
630.959	3054
631.021	2902
631.084	2510
631.146	2640
631.209	3608
631.272	3436
631.334	2646
631.397	1826
631.459	2757
631.522	2191
631.584	3179
631.646	2799
631.709	3228
631.771	3696
631.834	4611
631.896	2899
631.958	2020
632.021	2230
632.083	2039
632.145	2746
632.208	2367
632.270	3263
632.332	2228
632.395	1297
632.457	3443
632.519	2246
632.581	3232
632.643	2344
632.706	2374
632.768	2166
632.830	2347
632.892	1635
632.954	2349
633.016	2612
633.078	2189
633.141	2043
633.203	2208
633.265	2203
633.327	2460
633.389	1761
633.451	1954
633.513	3916
633.575	4169
633.637	4124
633.698	3878
633.760	2712
633.822	1844
633.884	2384
633.946	2421
634.008	2429
634.070	2594
634.132	2226
634.193	3235
634.255	3083
634.317	2047
634.379	2319
634.441	2568
634.502	2826
634.564	1970
634.626	2528
634.687	2637
634.749	2391
634.811	1691
634.873	2026
634.934	1916
634.996	1438
635.057	2736
635.119	2183
635.181	1358
635.242	2562
635.304	1295
635.365	2867
635.427	1652
635.488	1895
635.550	1890
635.611	2089
635.673	1245
635.734	2766
635.796	2073
635.857	1869
635.918	1855
635.980	2172
636.041	1817
636.102	2149
636.164	2117
636.225	1793
636.286	1937
636.348	1553
636.409	1524
636.470	1523
636.531	2138
636.593	1498
636.654	3286
636.715	1043
636.776	1156
636.838	1772
636.899	1013
636.960	1605
637.021	1550
637.082	2028
637.143	1336
637.204	1382
637.265	1617
637.326	1445
637.387	1368
637.448	814
637.509	2253
637.570	2022
637.631	2042
637.692	1008
637.753	1155
637.814	858
637.875	1007
637.936	1946
637.997	1281
638.058	1353
638.119	2528
638.179	1652
638.240	1064
638.301	1899
638.362	1192
638.423	1447
638.483	1139
638.544	1426
638.605	813
638.666	111
638.726	1740
638.787	1103
638.848	830
638.908	816
638.969	632
639.030	1525
639.090	1135
639.151	1408
639.211	1237
639.272	2089
639.332	3529
639.393	5988
639.453	1460
639.514	893
639.574	1795
639.635	1577
639.695	620
639.756	1323
639.816	2198
639.877	712
639.937	3836
639.997	6664
640.058	5138
640.118	1336
640.178	1295
640.239	920
640.299	1057
640.359	1071
640.420	1085
640.480	702
640.540	1270
640.600	1390
640.661	2425
640.721	917
640.781	2377
640.841	1832
640.901	2091
640.961	1763
641.021	2129
641.082	1950
641.142	2781
641.202	4330
641.262	1569
641.322	1342
641.382	692
641.442	1388
641.502	1571
641.562	1114
641.622	1415
641.682	1234
641.742	1345
641.802	1329
641.861	1759
641.921	1577
641.981	2001
642.041	1891
642.101	3035
642.161	2173
642.221	1224
642.280	1158
642.340	1085
642.400	1149
642.460	804
642.519	773
642.579	277
642.639	1083
642.698	104
642.758	1481
642.818	695
642.877	234
642.937	1273
642.997	839
643.056	2659
643.116	1896
643.175	1337
643.235	358
643.294	692
643.354	924
643.414	1380
643.473	1010
643.532	1241
643.592	1433
643.651	2376
643.711	3481
643.770	6202
643.830	10754
643.889	35704
643.948	40021
644.008	5399
644.067	1050
644.126	1414
644.186	1014
644.245	1894
644.304	434
644.363	485
644.423	467
644.482	1240
644.541	117
644.600	218
644.659	1141
644.719	1106
644.778	268
644.837	1383
644.896	2399
644.955	5412
645.014	6804
645.073	2675
645.132	1534
645.191	1133
645.250	1077
645.309	1151
645.368	546
645.427	2249
645.486	547
645.545	2540
645.604	1454
645.663	669
645.722	1209
645.781	634
645.840	1280
645.898	1407
645.957	1003
646.016	1813
646.075	3098
646.134	4696
646.192	9761
646.251	30592
646.310	19531
646.369	1986
646.427	1654
646.486	851
646.545	168
646.603	1551
646.662	427
646.721	230
646.779	956
646.838	-174
646.896	1161
646.955	1130
647.014	595
647.072	858
647.131	1843
647.189	4746
647.248	1795
647.306	913
647.365	539
647.423	303
647.481	1328
647.540	252
647.598	751
647.657	215
647.715	492
647.773	800
647.832	674
647.890	265
647.948	304
648.007	808
648.065	177
648.123	325
648.181	1445
648.240	1032
648.298	2017
648.356	1327
648.414	735
648.472	1439
648.531	1121
648.589	1052
648.647	1103
648.705	364
648.763	191
648.821	75
648.879	210
648.937	721
648.995	746
649.053	395
649.111	685
649.169	2011
649.227	1746
649.285	2908
649.343	8704
649.401	17211
649.459	7037
649.516	9001
649.574	4244
649.632	7332
649.690	16233
649.748	9210
649.806	2820
649.863	5089
649.921	5150
649.979	3433
650.037	1849
650.094	652
650.152	1008
650.210	100
650.268	443
650.325	817
650.383	408
650.440	-295
650.498	599
650.556	353
650.613	889
650.671	817
650.728	513
650.786	493
650.843	587
650.901	173
650.958	796
651.016	1530
651.073	-68
651.131	536
651.188	-988
651.246	791
651.303	-832
651.360	1502
651.418	-103
651.475	1075
651.532	-225
651.590	557
651.647	-136
651.704	-340
651.762	284
651.819	201
651.876	-284
651.933	-216
651.990	-422
652.048	-84
652.105	130
652.162	290
652.219	673
652.276	511
652.333	105
652.390	96
652.448	298
652.505	111
652.562	682
652.619	664
652.676	1056
652.733	2595
652.790	589
652.847	-570
652.904	909
652.961	461
653.017	-405
653.074	685
653.131	0
653.188	-180
653.245	-109
653.302	-364
653.359	-392
653.415	634
653.472	-603
653.529	153
653.586	-153
653.642	187
653.699	-75
653.756	-128
653.813	512
653.869	-188
653.926	-229
653.983	-711
654.039	125
654.096	-82
654.152	476
654.209	-236
654.266	301
654.322	-1146
654.379	-577
654.435	703
654.492	234
654.548	1426
654.605	1324
654.661	3195
654.717	551
654.774	1037
654.830	715
654.887	402
654.943	-266
655.000	671
655.056	337
655.112	285
655.168	-53
655.225	-73
655.281	1215
655.337	213
655.394	1967
655.450	2593
655.506	1817
655.562	1342
655.618	4003
655.675	622
655.731	972
655.787	3
655.843	-767
655.899	-91
655.955	49
656.011	641
656.067	-162
656.123	993
656.179	89
656.235	638
656.291	-21
656.347	969
656.403	168
656.459	-116
656.515	698
656.571	716
656.627	440
656.683	336
656.739	248
656.795	553
656.850	1020
656.906	233
656.962	526
657.018	608
657.074	-415
657.129	351
657.185	536
657.241	174
657.297	203
657.352	784
657.408	-864
657.464	744
657.519	252
657.575	-490
657.630	436
657.686	131
657.742	-441
657.797	-684
657.853	-64
657.908	318
657.964	-318
658.019	465
658.075	396
658.130	-7
658.186	-557
658.241	268
658.297	190
658.352	-647
658.407	226
658.463	115
658.518	172
658.573	252
658.629	254
658.684	-259
658.739	236
658.795	-458
658.850	388
658.905	-213
658.960	199
659.016	82
659.071	-757
659.126	623
659.181	-66
659.236	1423
659.291	1994
659.346	1367
659.401	300
659.457	494
659.512	883
659.567	1336
659.622	-270
659.677	713
659.732	299
659.787	-36
659.842	-141
659.897	241
659.952	1254
660.007	512
660.061	-583
660.116	-365
660.171	-319
660.226	-90
660.281	418
660.336	-580
660.391	-44
660.445	270
660.500	441
660.555	427
660.610	-427
660.664	686
660.719	-1056
660.774	260
660.828	206
660.883	450
660.938	435
660.992	-316
661.047	-286
661.101	164
661.156	-364
661.211	-49
661.265	666
661.320	-387
661.374	101
661.429	-121
661.483	33
661.538	-265
661.592	-208
661.647	2
661.701	337
661.755	339
661.810	-55
661.864	-127
661.919	-407
661.973	79
662.027	-22
662.081	-172
662.136	-853
662.190	-268
662.244	1126
662.299	-925
662.353	296
662.407	173
662.461	-616
662.515	337
662.569	538
662.624	243
662.678	146
662.732	-6
662.786	-1023
662.840	-401
662.894	-320
662.948	841
663.002	261
663.056	-22
663.110	-434
663.164	-210
663.218	265
663.272	453
663.326	20
663.380	-78
663.434	834
663.488	-374
663.542	-300
663.595	357
663.649	-793
663.703	479
663.757	-183
663.811	-423
663.864	-637
663.918	360
663.972	-272
664.026	-263
664.079	-344
664.133	260
664.187	-478
664.240	-674
664.294	-197
664.348	-253
664.401	149
664.455	329
664.508	-420
664.562	217
664.615	-133
664.669	-126
664.722	348
664.776	495
664.829	-291
664.883	17
664.936	-214
664.990	-574
665.043	146
665.097	-717
665.150	527
665.203	-28
665.257	204
665.310	332
665.363	-487
665.417	144
665.470	-555
665.523	-97
665.576	-25
665.630	354
665.683	263
665.736	280
665.789	612
665.842	-94
665.895	-681
665.949	-54
666.002	91
666.055	277
666.108	-357
666.161	845
666.214	661
666.267	417
666.320	443
666.373	794
666.426	-179
666.479	-383
666.532	357
666.585	312
666.638	829
666.691	312
666.744	1159
666.796	273
666.849	228
666.902	1359
666.955	-298
667.008	271
667.060	-325
667.113	60
667.166	-13
667.219	30
667.271	733
667.324	500
667.377	-382
667.430	862
667.482	-730
667.535	857
667.587	800
667.640	482
667.693	107
667.745	395
667.798	2162
667.850	1171
667.903	-49
667.955	-448
668.008	188
668.060	818
668.113	1
668.165	225
668.218	594
668.270	480
668.322	152
668.375	-3
668.427	703
668.479	-3
668.532	-72
668.584	295
668.636	356
668.689	173
668.741	48
668.793	514
668.845	-1008
668.898	905
668.950	-392
669.002	36
669.054	-290
669.106	-398
669.158	579
669.211	749
669.263	237
669.315	667
669.367	782
669.419	711
669.471	1271
669.523	779
669.575	1101
669.627	1703
669.679	1201
669.731	758
669.783	837
669.835	915
669.886	839
669.938	692
669.990	891
670.042	207
670.094	586
670.146	730
670.197	867
670.249	1192
670.301	1293
670.353	2523
670.404	3729
670.456	4356
670.508	7967
670.560	13540
670.611	24310
670.663	41885
670.715	77914
670.766	190250
670.818	230032
670.869	60599
670.921	12938
670.972	6564
671.024	3837
671.075	2567
671.127	2022
671.178	1252
671.230	960
671.281	1521
671.333	450
671.384	486
671.436	699
671.487	1456
671.538	955
671.590	717
671.641	486
671.692	1265
671.744	1432
671.795	2668
671.846	814
671.897	688
671.949	165
672.000	391
672.051	1262
672.102	660
672.153	236
672.204	441
672.256	-240
672.307	201
672.358	-501
672.409	489
672.460	32
672.511	852
672.562	280
672.613	778
672.664	335
672.715	444
672.766	120
672.817	-44
672.868	-229
672.919	386
672.970	281
673.021	-28
673.071	-71
673.122	-283
673.173	636
673.224	757
673.275	719
673.326	-215
673.376	152
673.427	-131
673.478	-384
673.528	699
673.579	89
673.630	347
673.680	373
673.731	316
673.782	63
673.832	916
673.883	-254
673.934	23
673.984	675
674.035	100
674.085	-365
674.136	671
674.186	-553
674.237	948
674.287	616
674.338	1806
674.388	278
674.438	195
674.489	7
674.539	-362
674.589	-285
674.640	91
674.690	684
674.740	-433
674.791	-90
674.841	353
674.891	-590
674.942	117
674.992	332
675.042	-170
675.092	-735
675.142	40
675.193	762
675.243	-474
675.293	-565
675.343	-271
675.393	241
675.443	697
675.493	-724
675.543	-21
675.593	339
675.643	-38
675.693	-742
675.743	-34
675.793	354
675.843	-22
675.893	447
675.943	259
675.993	-35
676.043	-281
676.093	621
676.142	-584
676.192	-664
676.242	300
676.292	-258
676.341	65
676.391	-145
676.441	365
676.491	-1303
676.540	202
676.590	795
676.640	-204
676.689	252
676.739	-178
676.789	-661
676.838	13
676.888	382
676.937	-536
676.987	109
677.037	-547
677.086	-403
677.136	-252
677.185	-750
677.235	417
677.284	-879
677.333	-123
677.383	-802
677.432	-65
677.482	-1053
677.531	185
677.580	-898
677.630	-57
677.679	-388
677.728	53
677.778	-832
677.827	107
677.876	-283
677.925	-293
677.975	-222
678.024	293
678.073	-624
678.122	395
678.171	-551
678.220	-417
678.269	151
678.319	346
678.368	-727
678.417	205
678.466	-455
678.515	256
678.564	356
678.613	-77
678.662	49
678.711	-386
678.760	261
678.809	91
678.857	7
678.906	-543
678.955	-260
679.004	-169
679.053	-303
679.102	-1020
679.151	203
679.199	245
679.248	-688
679.297	-337
679.346	-146
679.394	-229
679.443	-210
679.492	-62
679.540	133
679.589	-335
679.638	369
679.686	-844
679.735	-107
679.784	28
679.832	-340
679.881	-692
679.929	-799
679.978	-286
680.026	-601
680.075	422
680.123	-354
680.172	-778
680.220	-42
680.268	-188
680.317	-1238
680.365	-212
680.414	-183
680.462	-329
680.510	-565
680.559	254
680.607	-146
680.655	-627
680.703	-221
680.752	-369
680.800	-262
680.848	-89
680.896	-256
680.945	-125
680.993	-257
681.041	-386
681.089	-175
681.137	-571
681.185	-804
681.233	-451
681.258	-364
681.281	-295
681.329	-307
681.377	-179
681.380	-142
681.425	271
681.473	132
681.502	-164
681.521	-393
681.569	150
681.617	356
681.624	392
681.665	530
681.713	76
681.745	380
681.761	508
681.809	-73
681.857	-166
681.867	-102
681.904	47
681.952	85
681.989	25
682.000	0
682.048	-28
682.096	410
682.111	319
682.143	60
682.191	382
682.233	104
682.239	42
682.286	308
682.334	-487
682.354	-64
682.382	512
682.430	56
682.476	459
682.477	454
682.525	520
682.572	378
682.598	363
682.620	328
682.667	295
682.715	203
682.720	299
682.763	1108
682.810	708
682.841	191
682.857	-105
682.905	425
682.952	956
682.963	855
683.000	461
683.047	88
683.085	648
683.095	792
683.142	530
683.190	344
683.206	716
683.237	1375
683.284	584
683.328	1259
683.332	1298
683.379	407
683.426	758
683.449	987
683.473	1244
683.521	671
683.568	399
683.571	455
683.615	952
683.662	927
683.693	930
683.709	940
683.757	808
683.804	1128
683.814	1120
683.851	1128
683.898	1519
683.936	1340
683.945	1261
683.992	1300
684.039	569
684.057	523
684.086	477
684.133	1259
684.179	1304
684.180	1296
684.227	834
684.274	1477
684.300	1285
684.321	1108
684.368	1301
684.415	1129
684.422	1243
684.462	1873
684.509	1234
684.543	1885
684.556	2108
684.603	1078
684.649	1045
684.665	1235
684.696	1660
684.743	1661
684.786	1267
684.790	1223
684.837	2023
684.883	1467
684.908	1398
684.930	1313
684.977	2401
685.023	1852
685.029	1844
685.070	1726
685.117	1566
685.150	1936
685.164	2094
685.210	2223
685.257	2345
685.272	2381
685.303	2402
685.350	1798
685.393	2301
685.396	2333
685.443	1809
685.490	1899
685.514	2116
685.536	2364
685.583	2387
685.629	2303
685.636	2405
685.675	2756
685.722	2468
685.757	2473
685.768	2500
685.815	2253
685.861	2226
685.878	2446
685.908	2815
685.954	2423
686.000	2791
686.000	2793
686.047	2260
686.093	2885
686.121	3116
686.139	3406
686.185	3002
686.232	3784
686.242	3739
686.278	3025
686.324	3372
686.363	3151
686.370	3134
686.416	2746
686.463	2265
686.484	2489
686.509	2893
686.555	2705
686.601	2769
686.606	2808
686.647	3045
686.693	2758
686.727	2766
686.739	2762
686.785	2719
686.831	2597
686.848	2658
686.877	2741
686.923	2853
686.969	3099
686.969	3100
687.015	2599
687.061	3131
687.090	2910
687.107	2784
687.153	2846
687.199	2962
687.211	3131
687.245	3563
687.291	2890
687.332	2892
687.336	2904
687.382	3491
687.428	3250
687.453	3116
687.474	2905
687.520	3054
687.565	2820
687.574	2897
687.611	3293
687.657	3110
687.695	2952
687.702	2936
687.748	3231
687.794	3162
687.816	3317
687.839	3486
687.885	3134
687.931	3303
687.937	3350
687.976	3401
688.022	3045
688.058	2754
688.067	2750
688.113	3046
688.158	3376
688.179	3430
688.204	3416
688.249	3225
688.295	2930
688.300	2989
688.340	3365
688.386	3369
688.421	3047
688.431	3034
688.477	3214
688.522	3777
688.542	3836
688.567	3786
688.613	3544
688.658	3865
688.663	3827
688.703	3404
688.749	3366
688.784	3567
688.794	3708
688.839	3147
688.884	4123
688.905	3939
688.930	3601
688.975	3868
689.020	3416
689.026	3481
689.065	3950
689.110	3696
689.146	3507
689.155	3473
689.201	3681
689.246	3896
689.267	3729
689.291	3623
689.336	3712
689.381	3620
689.388	3669
689.426	3879
689.471	3803
689.509	3952
689.516	3986
689.561	3434
689.606	3997
689.630	3786
689.651	3587
689.696	3365
689.741	3454
689.750	3501
689.785	3767
689.830	3348
689.871	4143
689.875	4227
689.920	3902
689.965	3983
689.992	3953
690.010	3915
690.054	3744
690.099	3558
690.112	3630
690.144	3860
690.189	3348
690.233	4123
690.233	4134
690.278	3856
690.323	4013
690.354	4003
690.367	4065
690.412	4137
690.457	4402
690.474	4631
690.501	4899
690.546	4707
690.590	4553
690.595	4569
690.635	4871
690.680	5110
690.716	4957
690.724	4936
690.769	5390
690.813	6038
690.836	6017
690.857	6277
690.902	6792
690.946	7663
690.957	7838
690.991	9460
691.035	12007
691.077	14563
691.080	14883
691.124	20981
691.168	25521
691.198	28248
691.213	27068
691.257	23854
691.301	21118
691.318	19958
691.346	17651
691.390	14212
691.434	10524
691.439	10080
691.478	8973
691.522	7893
691.559	6879
691.567	6825
691.611	6458
691.655	6431
691.680	6216
691.699	6136
691.743	6109
691.787	5455
691.800	5435
691.831	5583
691.875	5367
691.919	5561
691.921	5553
691.964	5587
692.008	5830
692.041	5143
692.052	5015
692.096	5339
692.139	5759
692.162	5857
692.183	5732
692.227	5194
692.271	5217
692.282	5090
692.315	5020
692.359	5249
692.402	5184
692.403	5197
692.447	5514
692.490	5701
692.523	5939
692.534	5974
692.578	6158
692.622	6064
692.643	5927
692.666	5766
692.709	5804
692.753	5503
692.763	5536
692.797	5729
692.840	5530
692.884	5599
692.884	5612
692.928	5384
692.971	5338
693.004	5322
693.015	5363
693.059	5459
693.102	5421
693.124	5384
693.146	5468
693.189	5749
693.233	6023
693.245	6033
693.276	5955
693.320	6199
693.363	6232
693.365	6224
693.407	6906
693.450	7111
693.485	7699
693.493	7920
693.537	8887
693.580	9701
693.605	10257
693.624	11004
693.667	12518
693.710	14098
693.725	14798
693.753	18392
693.797	23579
693.840	29299
693.845	29994
693.883	40870
693.926	51746
693.966	61377
693.970	60811
694.013	53955
694.056	47269
694.086	42444
694.099	39669
694.142	31159
694.185	22257
694.206	18018
694.229	16819
694.272	14525
694.315	12050
694.326	11374
694.358	10794
694.401	10216
694.444	9571
694.446	9512
694.487	8950
694.530	8515
694.566	7896
694.573	7824
694.616	7227
694.659	6863
694.686	6604
694.702	6577
694.745	6284
694.787	5914
694.806	5828
694.830	5870
694.873	5970
694.916	5977
694.926	5959
694.959	6071
695.002	6274
695.044	6387
695.046	6372
695.087	6221
695.130	6256
695.166	6132
695.172	6175
695.215	6187
695.258	6509
695.286	6586
695.301	6544
695.343	6429
695.386	6414
695.406	6342
695.428	6449
695.471	6510
695.514	6685
695.526	6700
695.556	6380
695.599	6171
695.641	5405
695.646	5345
695.684	5412
695.726	5507
695.766	5341
695.769	5373
695.811	5984
695.854	6274
695.886	6604
695.896	6564
695.938	6082
695.981	5807
696.005	5539
696.023	5484
696.065	5632
696.108	5503
696.125	5378
696.150	5442
696.192	5834
696.235	6153
696.245	6221
696.277	6339
696.319	6360
696.361	6359
696.365	6353
696.404	6366
696.446	6119
696.485	6102
696.488	6164
696.530	6585
696.572	7087
696.604	7461
696.614	7388
696.656	6916
696.698	6513
696.724	6181
696.740	6140
696.783	6047
696.825	6010
696.844	5971
696.867	5999
696.909	5879
696.951	5858
696.964	5878
696.992	6096
697.034	6097
697.076	6356
697.083	6350
697.118	6238
697.160	6215
697.202	6026
697.203	6007
697.244	6129
697.286	6114
697.323	6171
697.327	6200
697.369	6168
697.411	6154
697.442	6195
697.453	6211
697.494	6125
697.536	6052
697.562	6025
697.578	6039
697.620	6018
697.661	5939
697.682	5876
697.703	5923
697.744	6038
697.786	6129
697.801	6143
697.828	6235
697.869	6345
697.911	6486
697.921	6488
697.952	6452
697.994	6424
698.035	6378
698.040	6352
698.077	6197
698.118	6022
698.160	5844
698.160	5825
698.201	5923
698.243	6064
698.279	6134
698.284	6179
698.325	6444
698.367	6681
698.399	6855
698.408	6784
698.449	6389
698.491	5961
698.518	5681
698.532	5737
698.573	5826
698.614	5909
698.638	5951
698.656	5836
698.697	5510
698.738	5192
698.757	5022
698.779	5264
698.820	5707
698.862	6147
698.877	6295
698.903	6517
698.944	6833
698.985	7152
698.996	7222
699.026	7067
699.067	6820
699.116	6507
699.235	6397
699.354	5754
699.474	5687
699.593	6664
699.713	7898
699.832	6755
699.951	6637
700.070	6047
700.190	6043
700.309	7008
700.428	6488
700.547	6785
700.667	6126
700.786	6797
700.905	7248
701.024	5675
701.143	6920
701.262	6636
701.381	5382
701.500	5671
701.619	6560
701.738	5619
701.857	6068
701.976	5446
702.095	5546
702.214	5656
702.333	6128
702.452	6339
702.571	5657
702.690	5614
702.809	6264
702.928	5434
703.047	5071
703.165	5907
703.284	5362
703.403	5378
703.522	5907
703.640	7118
703.759	6205
703.878	8127
703.997	8557
704.115	5768
704.234	5648
704.353	5064
704.471	4441
704.590	5065
704.708	5299
704.827	4811
704.946	4518
705.064	5762
705.183	5939
705.301	5513
705.420	6365
705.538	7974
705.656	6889
705.775	6624
705.893	8594
706.012	17482
706.130	13296
706.249	6793
706.367	7135
706.485	6771
706.604	6453
706.722	6258
706.840	7383
706.958	8768
707.077	6893
707.195	6650
707.313	5987
707.431	6069
707.549	6231
707.668	6200
707.786	6312
707.904	6080
708.022	5583
708.140	5290
708.258	6466
708.376	6258
708.494	6390
708.612	5330
708.730	5760
708.848	9304
708.966	6965
709.084	6912
709.202	6366
709.320	6972
709.438	6478
709.556	7308
709.674	6991
709.791	7176
709.909	7109
710.027	6631
710.145	7089
710.263	6350
710.380	6757
710.498	7114
710.616	7083
710.733	6037
710.851	7080
710.969	7328
711.086	6912
711.204	6403
711.322	6370
711.439	7233
711.557	6835
711.674	6937
711.792	6750
711.909	6734
712.027	7064
712.144	7553
712.262	5639
712.379	6233
712.497	7433
712.614	8919
712.732	8385
712.849	7654
712.966	6932
713.084	9072
713.201	8473
713.318	8021
713.436	6876
713.553	7480
713.670	7349
713.787	7518
713.905	8274
714.022	8668
714.139	7342
714.256	7762
714.373	7589
714.490	8216
714.608	8711
714.725	13272
714.842	38501
714.959	20782
715.076	7878
715.193	6977
715.310	6918
715.427	6110
715.544	5913
715.661	5728
715.778	5857
715.895	6652
716.011	7158
716.128	6718
716.245	5946
716.362	6879
716.479	7180
716.596	8022
716.713	6370
716.829	6219
716.946	5927
717.063	5771
717.180	5585
717.296	5590
717.413	5323
717.530	6356
717.646	5936
717.763	5427
717.880	5610
717.996	5633
718.113	5436
718.229	5469
718.346	5077
718.462	5290
718.579	5634
718.695	6910
718.812	11386
718.928	7838
719.045	7888
719.161	5267
719.277	5029
719.394	5376
719.510	5611
719.626	5392
719.743	5804
719.859	6576
719.975	5346
720.092	6222
720.208	12254
720.324	15679
720.440	5182
720.557	4684
720.673	7191
720.789	9530
720.905	14436
721.021	26371
721.137	6549
721.253	5142
721.369	5192
721.486	5561
721.602	6626
721.718	8380
721.834	4961
721.950	4061
722.066	4622
722.181	4672
722.297	4640
722.413	5244
722.529	4052
722.645	4741
722.761	4534
722.877	4720
722.993	4180
723.108	4841
723.224	4642
723.340	4489
723.456	4964
723.571	4559
723.687	3273
723.803	3973
723.918	3549
724.034	3699
724.150	3210
724.265	3775
724.381	5116
724.497	12286
724.612	9750
724.728	3382
724.843	4471
724.959	4715
725.074	4816
725.190	11548
725.305	7772
725.421	4453
725.536	4027
725.651	3774
725.767	3950
725.882	3664
725.997	3785
726.113	3546
726.228	4048
726.343	3238
726.459	3840
726.574	3687
726.689	3767
726.804	4269
726.920	3611
727.035	3051
727.150	3585
727.265	3847
727.380	3211
727.495	4372
727.610	3350
727.725	3126
727.841	3971
727.956	4770
728.071	9163
728.186	5081
728.301	3683
728.416	3356
728.531	3627
728.645	3079
728.760	3414
728.875	3752
728.990	3584
729.105	3246
729.220	2835
729.335	3350
729.449	3104
729.564	2957
729.679	2230
729.794	2615
729.908	3498
730.023	4056
730.138	2675
730.253	2348
730.367	2471
730.482	2831
730.596	2833
730.711	2799
730.826	3267
730.940	2524
731.055	2474
731.169	2445
731.284	2598
731.398	2544
731.513	2723
731.627	3155
731.742	2819
731.856	3465
731.970	3274
732.085	2833
732.199	3396
732.313	2792
732.428	3503
732.542	5107
732.656	7776
732.771	4405
732.885	3009
732.999	3351
733.113	2957
733.227	2307
733.342	3112
733.456	2194
733.570	2661
733.684	2283
733.798	1976
733.912	1961
734.026	1692
734.140	1988
734.254	1935
734.368	3733
734.482	6937
734.596	5213
734.710	2577
734.824	2675
734.938	2096
735.052	2308
735.166	2524
735.280	3239
735.393	2508
735.507	2532
735.621	3154
735.735	3769
735.849	6505
735.962	2752
736.076	2564
736.190	3016
736.303	3148
736.417	4263
736.531	4319
736.644	2757
736.758	2044
736.872	2522
736.985	1865
737.099	1679
737.212	1660
737.326	1817
737.439	2175
737.553	2542
737.666	2281
737.780	1834
737.893	2286
738.007	1769
738.120	1859
738.233	2396
738.347	2105
738.460	1737
738.573	2607
738.687	2722
738.800	2334
738.913	2502
739.026	2787
739.140	2838
739.253	3239
739.366	1974
739.479	1578
739.592	1640
739.705	1590
739.818	1917
739.932	1762
740.045	2099
740.158	2254
740.271	2454
740.384	2330
740.497	1727
740.610	2467
740.723	1737
740.836	2030
740.949	1749
741.062	1859
741.174	3304
741.287	2399
741.400	2374
741.513	1989
741.626	2259
741.739	2671
741.851	1894
741.964	1928
742.077	2626
742.189	1826
742.302	1910
742.415	2652
742.527	1610
742.640	1473
742.753	2005
742.865	1933
742.978	1134
743.090	1831
743.203	1416
743.316	1921
743.428	1237
743.541	1646
743.653	1839
743.766	2282
743.878	1474
743.990	2531
744.103	2861
744.215	2931
744.327	1892
744.440	1899
744.552	2980
744.664	3412
744.777	1615
744.889	1464
745.001	1689
745.113	2081
745.226	1362
745.338	1393
745.450	1522
745.562	994
745.674	2050
745.786	1327
745.898	1375
746.010	1652
746.122	1569
746.234	1823
746.347	2021
746.459	1590
746.570	1406
746.682	1813
746.794	2446
746.906	2658
747.018	1706
747.130	1466
747.242	2177
747.354	2334
747.466	1428
747.577	2418
747.689	2113
747.801	1684
747.913	1878
748.024	1010
748.136	1550
748.248	1713
748.359	1008
748.471	2420
748.583	879
748.694	1166
748.806	1994
748.918	2047
749.029	1702
749.141	1982
749.252	1925
749.364	1838
749.475	2086
749.587	4158
749.698	2820
749.809	1620
749.921	1575
750.032	1893
750.144	846
750.255	1272
750.366	1173
750.478	1951
750.589	2061
750.700	419
750.811	1647
750.923	1090
751.034	2249
751.145	4968
751.256	3119
751.367	2326
751.479	731
751.590	1456
751.701	1967
751.812	1702
751.923	1375
752.034	1295
752.145	1059
752.256	1358
752.367	996
752.478	2081
752.589	1991
752.700	629
752.811	1381
752.922	1489
753.032	746
753.143	1496
753.254	1353
753.365	1579
753.476	1425
753.586	1281
753.697	1250
753.808	1283
753.919	1206
754.029	1423
754.140	1968
754.251	785
754.361	944
754.472	1954
754.582	962
754.693	1343
754.804	1598
754.914	986
755.025	1014
755.135	1377
755.246	977
755.356	1356
755.466	1332
755.577	1257
755.687	2341
755.798	1449
755.908	1384
756.018	1140
756.129	1488
756.239	602
756.349	2066
756.460	1529
756.570	1488
756.680	1251
756.790	852
756.900	2192
757.011	2124
757.121	1159
757.231	1361
757.341	1832
757.451	1020
757.561	1925
757.671	1548
757.781	1086
757.891	2052
758.001	1954
758.111	1864
758.221	2245
758.331	1836
758.441	2343
758.551	1878
758.661	2628
758.771	2429
758.880	1791
758.990	1645
759.100	1347
759.210	2040
759.320	2318
759.429	2230
759.539	1981
759.649	2644
759.758	2052
759.868	2128
759.978	2304
760.087	2039
760.197	1758
760.307	2748
760.416	2114
760.526	2389
760.635	1871
760.745	2713
760.854	3575
760.964	2840
761.073	2784
761.182	2739
761.292	3139
761.401	2550
761.511	3440
761.620	2606
761.729	3273
761.839	3170
761.948	3179
762.057	3249
762.166	3666
762.276	2926
762.385	3428
762.494	3246
762.603	4092
762.712	4205
762.822	4571
762.931	3566
763.040	4575
763.149	4506
763.258	4566
763.367	5408
763.476	4921
763.585	5843
763.694	5221
763.803	5917
763.912	6455
764.021	6528
764.130	7301
764.238	7295
764.347	7149
764.456	8641
764.565	9196
764.674	10382
764.783	10967
764.891	12209
765.000	13490
765.109	15548
765.217	17069
765.326	19653
765.435	23784
765.543	28676
765.652	34670
765.761	42570
765.869	54687
765.978	75066
766.086	105145
766.195	155377
766.303	233504
766.412	324844
766.520	318308
766.629	306865
766.737	271819
766.846	181689
766.954	120949
767.062	85094
767.171	64320
767.279	48856
767.387	36888
767.496	30098
767.604	24986
767.712	21494
767.820	18884
767.928	17710
768.037	15781
768.145	14307
768.253	14009
768.361	13691
768.469	13157
768.577	12515
768.685	13052
768.793	14368
768.901	15227
769.009	17334
769.117	19921
769.225	23278
769.333	31688
769.441	43864
769.549	64961
769.657	108012
769.765	189674
769.873	294457
769.981	273412
770.088	240153
770.196	139464
770.304	83501
770.412	55243
770.519	40334
770.627	30295
770.735	23579
770.842	20684
770.950	16673
771.058	14097
771.165	13370
771.273	11442
771.380	10253
771.488	9865
771.595	8418
771.703	8120
771.810	7830
771.918	6681
772.025	6345
772.133	5660
772.240	6019
772.348	4984
772.455	4430
772.562	4255
772.670	4182
772.777	3588
772.884	4143
772.991	3520
773.099	4493
773.206	3652
773.313	3733
773.420	2800
773.528	3279
773.635	2197
773.742	3197
773.849	2145
773.956	2497
774.063	2179
774.170	2648
774.277	2231
774.384	2776
774.491	2740
774.598	2237
774.705	2465
774.812	2331
774.919	2880
775.026	2095
775.133	2340
775.239	2053
775.346	2392
775.453	1208
775.560	2175
775.667	1578
775.773	1635
775.880	1524
775.987	1570
776.093	1674
776.200	1650
776.307	1397
776.413	2200
776.520	1682
776.627	1536
776.733	1376
776.840	1278
776.946	2189
777.053	2015
777.159	3132
777.266	3385
777.372	2325
777.478	3395
777.585	3542
777.691	2115
777.798	1733
777.904	1512
778.010	1863
778.117	2733
778.223	1598
778.329	1234
778.435	842
778.542	1684
778.648	978
778.754	876
778.860	1155
778.966	1201
779.072	1713
779.178	946
779.284	1256
779.391	671
779.497	971
779.603	2080
779.708	1557
779.815	4041
779.920	10058
780.026	37220
780.132	47295
780.238	6622
780.344	2353
780.450	1816
780.556	769
780.661	849
780.767	730
780.873	1230
780.979	671
781.085	74
781.190	660
781.296	1211
781.402	310
781.507	361
781.613	1172
781.719	-56
781.824	374
781.930	710
782.035	657
782.141	0
782.246	603
782.352	1143
782.457	1519
782.563	742
782.668	452
782.773	49
782.879	-120
782.984	484
783.090	1229
783.195	293
783.300	1227
783.405	1418
783.511	503
783.616	906
783.721	923
783.826	577
783.932	1182
784.037	684
784.142	922
784.247	550
784.352	1052
784.457	1170
784.562	562
784.667	460
784.772	742
784.877	115
784.982	864
785.087	192
785.192	445
785.297	886
785.402	-125
785.507	851
785.611	434
785.716	319
785.821	719
785.926	239
786.031	798
786.135	-150
786.240	1047
786.345	69
786.450	-428
786.554	-130
786.659	535
786.763	34
786.868	1001
786.973	102
787.077	-151
787.182	-817
787.286	-207
787.391	-286
787.495	817
787.600	220
787.704	400
787.809	-136
787.913	-443
788.017	1076
788.122	581
788.226	291
788.330	-248
788.435	229
788.539	223
788.643	-199
788.747	283
788.852	-189
788.956	-341
789.060	-198
789.164	22
789.268	-223
789.372	-66
789.476	-40
789.580	34
789.684	427
789.788	-743
789.892	-207
789.996	293
790.100	109
790.204	178
790.308	-312
790.412	550
790.516	-156
790.620	213
790.724	-398
790.828	211
790.931	153
791.035	827
791.139	-436
791.242	-195
791.346	-477
791.450	358
791.554	288
791.657	-659
791.761	712
791.864	616
791.968	843
792.072	444
792.175	-511
792.279	343
792.382	-274
792.486	504
792.589	179
792.693	476
792.796	-432
792.899	-328
793.003	-704
793.106	604
793.209	138
793.313	656
793.416	-71
793.519	219
793.623	678
793.726	817
793.829	1485
793.932	547
794.035	-72
794.138	393
794.242	440
794.345	327
794.448	507
794.551	1643
794.654	6814
794.757	19166
794.860	28186
794.963	4151
795.066	240
795.169	1298
795.272	364
795.375	493
795.477	414
795.580	805
795.683	-51
795.786	498
795.889	-898
795.991	671
796.094	156
796.197	-160
796.300	-77
796.402	-433
796.505	-261
796.608	28
796.710	10
796.813	-516
796.915	-361
797.018	142
797.120	-63
797.223	-554
797.326	200
797.428	-215
797.530	-609
797.633	-680
797.735	374
797.838	80
797.940	1008
798.042	489
798.145	-615
798.247	-263
798.349	-774
798.452	-331
798.554	-954
798.656	-1112
798.758	-489
798.860	-86
798.962	-703
799.065	-256
799.167	-535
799.269	-319
799.371	-795
799.473	20
799.575	122
799.677	-903
799.779	1069
799.881	319
799.983	983
800.085	114
800.187	-258
800.289	-492
800.390	-381
800.492	226
800.594	-789
800.696	-509
800.798	-557
800.899	-551
801.001	-466
801.103	-449
801.205	-789
801.306	32
801.408	-637
801.509	-95
801.611	-547
801.713	-736
801.814	-215
801.916	245
802.017	-1311
802.119	-752
802.220	-588
802.322	-946
802.423	89
802.525	-10
802.626	377
802.727	-1165
802.829	-393
802.930	-1325
803.031	609
803.133	-269
803.234	-909
803.335	285
803.436	-372
803.538	-381
803.639	-1562
803.740	-459
803.841	-491
803.942	-594
804.043	-626
804.144	-673
804.245	-473
804.346	-470
804.447	-455
804.548	344
804.649	479
804.750	-137
804.851	-1075
804.952	-373
805.053	-511
805.154	-1013
805.255	-418
805.355	-733
805.456	-490
805.557	-811
805.658	-843
805.758	-693
805.859	-1147
805.960	-834
806.061	-898
806.161	-111
806.262	-805
806.362	-387
806.463	-403
806.564	61
806.664	-220
806.765	-390
806.865	-149
806.966	-7
807.066	-875
807.166	107
807.267	-416
807.367	-1455
807.468	-267
807.568	-545
807.668	449
807.769	-288
807.869	-228
807.969	-160
808.069	-1044
808.170	-958
808.270	-621
808.370	15
808.470	-201
808.570	-676
808.670	-378
808.770	-289
808.870	-319
808.970	-328
809.070	-876
809.170	-570
809.271	-1231
809.370	-1109
809.470	-1277
809.570	-9
809.670	-746
809.770	-460
809.870	36
809.970	-670
810.070	-687
810.169	-246
810.269	-1198
810.369	-625
810.469	-1091
810.568	-618
810.668	-1237
810.768	-68
810.867	-263
810.967	-733
811.066	-113
811.166	-941
811.265	-271
811.365	-548
811.464	-981
811.564	-958
811.663	-1133
811.763	-1019
811.862	-129
811.962	-250
812.061	199
812.160	-111
812.260	-137
812.359	-793
812.458	20
812.557	97
812.657	1945
812.756	2077
812.855	316
812.954	-122
813.053	107
813.153	-1403
813.252	-671
813.351	-147
813.450	-1004
813.549	-902
813.648	-606
813.747	64
813.846	-275
813.945	-109
814.044	-105
814.143	-386
814.242	256
814.341	-203
814.439	-637
814.538	-323
814.637	-1191
814.736	-179
814.835	-558
814.933	-536
815.032	75
815.131	-388
815.229	-858
815.328	36
815.427	-193
815.525	-113
815.624	-421
815.722	-266
815.821	-499
815.919	-51
816.018	-675
816.116	-182
816.215	-551
816.313	-90
816.412	345
816.510	385
816.609	729
816.707	316
816.805	542
816.904	47
817.002	869
817.100	1152
817.198	1322
817.296	1649
817.395	1398
817.493	2848
817.591	2843
817.689	3962
817.787	6537
817.885	8960
817.983	14382
818.081	26485
818.179	53931
818.277	118182
818.375	235272
818.473	187908
818.571	75133
818.669	35001
818.767	22351
818.865	18902
818.963	18961
819.061	21833
819.158	31447
819.256	51929
819.354	99927
819.452	202671
819.549	307428
819.647	222627
819.745	102264
819.842	49791
819.940	29791
820.038	19572
820.135	15342
820.233	10785
820.330	8047
820.428	5729
820.525	4941
820.623	4512
820.720	3415
820.818	2846
820.915	2497
821.012	2722
821.110	1626
821.207	1747
821.304	1695
821.402	1047
821.499	1998
821.596	1329
821.693	1105
821.791	861
821.888	133
821.985	1198
822.082	1136
822.179	1769
822.276	489
822.373	653
822.470	639
822.567	-44
822.664	-762
822.761	-304
822.858	-332
822.955	34
823.052	-667
823.149	-698
823.246	-776
823.343	-165
823.440	-615
823.536	-310
823.633	-603
823.730	-421
823.827	-234
823.923	94
824.020	504
824.117	-620
824.213	-631
824.310	347
824.407	79
824.503	120
824.600	106
824.696	-612
824.793	-91
824.889	-626
824.986	-786
825.082	-773
825.179	-297
825.275	-841
825.371	-1012
825.468	-183
825.564	-781
825.660	-397
825.757	-994
825.853	-529
825.949	-232
826.045	-528
826.142	-739
826.238	-663
826.334	-1107
826.430	-1024
826.526	117
826.622	-708
826.718	-887
826.814	-1546
826.910	107
827.006	-909
827.102	-676
827.198	-805
827.294	-891
827.390	-418
827.486	-649
827.582	-1227
827.678	-934
827.774	-248
827.869	-1553
827.965	-453
828.061	-427
828.157	-811
828.252	-1110
828.348	-976
828.444	-1091
828.539	-1278
828.635	-1228
828.731	-604
828.826	-1337
828.922	-554
829.017	-471
829.113	-931
829.208	-1626
829.304	-1287
829.399	-572
829.495	-679
829.590	-740
829.685	-469
829.781	-1148
829.876	-1676
829.971	-778
830.066	-954
830.162	-1205
830.257	-1009
830.352	-1115
830.447	-784
830.543	-1190
830.638	-1303
830.733	-356
830.828	-256
830.923	-1159
831.018	-823
831.113	-615
831.208	-1115
831.303	-598
831.398	23
831.493	-981
831.588	-1082
831.683	-953
831.778	-940
831.873	-1539
831.967	-1235
832.062	-771
832.157	-1993
832.252	-1037
832.346	-976
832.441	-1223
832.536	-542
832.631	-599
832.725	969
832.820	164
832.914	-901
833.009	-1676
833.104	-1436
833.198	-503
833.293	-1057
833.387	-1181
833.482	-1313
833.576	-206
833.670	-1245
833.765	-514
833.859	-1184
833.954	-987
834.048	-1075
834.142	-787
834.237	-1201
834.331	-992
834.425	-952
834.519	-1716
834.613	-932
834.708	-861
834.802	-911
834.896	-1074
834.990	-875
835.084	-709
835.178	-1355
835.272	-742
835.366	-1366
835.460	-1113
835.554	-403
835.648	-749
835.742	-1833
835.836	-1563
835.930	-1827
836.024	-1122
836.117	-452
836.211	-531
836.305	-1131
836.399	-519
836.493	-690
836.586	-711
836.680	-1023
836.774	-1411
836.867	-296
836.961	-1326
837.055	-2211
837.148	-966
837.242	-1168
837.335	-1217
837.429	-1066
837.522	-1166
837.616	-1436
837.709	-1391
837.803	-3
837.896	132
837.989	-749
838.083	-201
838.176	-338
838.269	520
838.363	-266
838.456	-811
838.549	-628
838.642	-388
838.735	291
838.829	999
838.922	-870
839.015	-37
839.108	-1563
839.201	-710
839.294	-783
839.387	-1004
839.480	-1435
839.573	-910
839.666	-294
839.759	-569
839.852	-1114
839.945	-912
840.038	-1029
840.131	-1552
840.223	-681
840.316	-929
840.409	-1196
840.502	-1249
840.594	-379
840.687	-2048
840.780	-409
840.873	-1231
840.965	-885
841.058	-1208
841.150	571
841.243	590
841.336	205
841.428	-1293
841.521	-1040
841.613	-1281
841.706	-741
841.798	-974
841.890	-835
841.983	-1682
842.075	-501
842.167	-1444
842.260	-1036
842.352	-444
842.444	-433
842.537	-524
842.629	1631
842.721	786
842.813	-1199
842.905	-950
842.997	-848
843.090	-723
843.182	-703
843.274	-565
843.366	500
843.458	2464
843.550	6917
843.642	3212
843.734	-1013
843.826	-1186
843.918	-449
844.009	-771
844.101	-1484
844.193	-1257
844.285	-1219
844.377	-577
844.469	-488
844.560	-454
844.652	-788
844.744	-127
844.835	-604
844.927	-1181
845.019	-447
845.110	-340
845.202	-898
845.293	-913
845.385	-1800
845.476	-567
845.568	-849
845.659	42
845.751	-1226
845.842	-631
845.934	-1336
846.025	-1210
846.116	-1079
846.208	-1558
846.299	-1411
846.390	-383
846.482	-1346
846.573	-1203
846.664	-572
846.755	-911
846.846	-507
846.937	-771
847.029	-809
847.120	-612
847.211	-858
847.302	-1180
847.393	-1937
847.484	-1259
847.575	-1067
847.666	-1084
847.757	-724
847.847	-948
847.938	-1267
848.029	-936
848.120	-1505
848.211	-1402
848.302	-1556
848.392	-1160
848.483	-805
848.574	-1872
848.664	-1880
848.755	-61
848.846	-1189
848.936	-1851
849.027	-1199
849.118	-1173
849.208	-1322
849.299	-989
849.389	-868
849.480	-1341
849.570	-310
849.661	-283
849.751	-524
849.841	-79
849.932	-1104
850.022	-1476
850.112	-494
850.203	-967
850.293	-1327
850.383	-1753
850.474	-832
850.564	-952
850.654	-745
850.744	-1696
850.834	-1040
850.924	-989
851.014	-1121
851.104	-1424
851.194	-1078
851.284	-796
851.374	-888
851.464	-557
851.554	-676
851.644	-1187
851.734	-814
851.824	-393
851.914	62
852.004	62
852.094	584
852.183	-345
852.273	-256
852.363	-1515
852.452	-1370
852.542	-1303
852.632	-883
852.721	-1500
852.811	-1671
852.901	-892
852.990	-1650
853.080	-508
853.169	-1392
853.259	-1389
853.348	-1679
853.438	-1441
853.527	-1101
853.617	-1339
853.706	-330
853.795	-945
853.885	434
853.974	752
854.063	2796
854.152	6099
854.242	9183
854.331	1479
854.420	-652
854.509	-1499
854.598	-1061
854.687	-1368
854.777	-1061
854.866	-1125
854.955	67
855.044	-1489
855.133	-1111
855.222	-557
855.311	-1150
855.400	-1525
855.488	-1053
855.577	-1892
855.666	-1236
855.755	-1704
855.844	-850
855.933	-1324
856.021	-930
856.110	-1721
856.199	-1744
856.288	-1161
856.376	-1278
856.465	-2010
856.554	-1563
856.642	-476
856.731	-1827
856.819	-1192
856.908	-1292
856.996	-1126
857.085	-427
857.173	-1410
857.262	-1176
857.350	-1310
857.438	-1045
857.527	-778
857.615	-1778
857.703	-663
857.792	-781
857.880	-1644
857.968	-631
858.056	-1083
858.145	-1685
858.233	-1245
858.321	-928
858.409	-1546
858.497	-1245
858.585	-1686
858.673	-536
858.761	-1193
858.849	-653
858.937	-783
859.025	-1164
859.113	-1704
859.201	-1623
859.289	-1265
859.377	-1608
859.465	-1544
859.552	-853
859.640	-1006
859.728	-1912
859.816	-548
859.903	-1081
859.991	-1698
860.079	-386
860.166	-1708
860.254	-1788
860.342	-1345
860.429	-1725
860.517	-1640
860.604	-643
860.692	-1164
860.779	-1234
860.867	-1599
860.954	-1288
861.042	-1057
861.129	-383
861.216	-633
861.304	-1741
861.391	-893
861.478	-633
861.565	-1154
861.653	-1055
861.740	-1001
861.827	-1624
861.914	-1192
862.001	-853
862.089	-821
862.176	-2003
862.263	-957
862.350	-746
862.437	-1546
862.524	-1275
862.611	-1551
862.698	-857
862.785	-1652
862.871	-1383
862.958	-1179
863.045	-897
863.132	-1333
863.219	-1307
863.306	-2020
863.392	-1237
863.479	-1255
863.566	-1115
863.652	-826
863.739	-1057
863.826	-951
863.912	-1181
863.999	-1789
864.086	-1178
864.172	-1420
864.259	-810
864.345	-1611
864.432	-1233
864.518	-1393
864.604	-1514
864.691	-1095
864.777	-765
864.863	-1216
864.950	-1174
865.036	-1912
865.122	-921
865.209	-687
865.295	-1191
865.381	-1572
865.467	-1258
865.553	-975
865.639	-1365
865.726	-1068
865.812	-1150
865.898	-318
865.984	1044
866.070	1455
866.156	3968
866.242	3959
866.328	-166
866.414	-1467
866.499	-794
866.585	-2056
866.671	-1327
866.757	-804
866.843	-1658
866.928	-1365
867.014	-1240
867.100	-1289
867.186	-1850
867.271	-1833
867.357	-942
867.442	-1440
867.528	-686
867.614	-1630
867.699	-1244
867.785	-645
867.870	-815
867.956	-505
868.041	277
868.127	-1449
868.212	-1284
868.297	-481
868.383	-698
868.468	-818
868.553	-849
868.639	-490
868.724	-349
868.809	2030
868.894	915
868.979	-799
869.065	-1398
869.150	-1341
869.235	-1598
869.320	-1260
869.405	-1510
869.490	-1464
869.575	-1329
869.660	-821
869.745	-974
869.830	-1529
869.915	-1751
870.000	-1718
870.085	-1410
870.169	-876
870.254	-1266
870.339	-766
870.424	-1893
870.509	-1112
870.593	-966
870.678	-1257
870.763	-1544
870.847	-744
870.932	-901
871.016	-1840
871.101	-1106
871.186	-1634
871.270	-1350
871.355	-1290
871.439	-834
871.523	-1945
871.608	-963
871.692	-1568
871.777	-845
871.861	-1002
871.945	-1534
872.030	-1309
872.114	-1291
872.198	-1784
872.282	-1178
872.367	-1136
872.451	-1179
872.535	-1562
872.619	-1327
872.703	-1290
872.787	-459
872.871	-1116
872.955	-1901
873.039	-1427
873.123	-923
873.207	-904
873.291	-1045
873.375	-1801
873.459	-1454
873.543	-1020
873.627	-1685
873.711	-1393
873.794	-1115
873.878	-1332
873.962	-1210
874.045	-1516
874.129	-1186
874.137	-1258
874.213	-1976
874.245	-1682
874.296	-1204
874.352	-1377
874.380	-1473
874.460	-1080
874.464	-1064
874.547	-1898
874.568	-1819
874.631	-1597
874.676	-1322
874.714	-1089
874.784	-1877
874.798	-2042
874.881	-783
874.892	-801
874.965	-866
874.999	-1094
875.048	-1420
875.107	-1846
875.131	-2032
875.215	-1601
875.215	-1600
875.298	-1207
875.323	-1382
875.381	-1760
875.430	-1405
875.465	-1175
875.538	-1505
875.548	-1544
875.631	-1466
875.646	-1372
875.714	-1012
875.753	-995
875.798	-927
875.861	-497
875.881	-374
875.964	-1314
875.968	-1321
876.047	-1356
876.076	-1143
876.130	-750
876.183	-798
876.213	-870
876.291	-1466
876.296	-1503
876.379	-1091
876.398	-1122
876.462	-1247
876.506	-966
876.545	-679
876.613	-1157
876.628	-1251
876.711	-1682
876.721	-1502
876.794	-205
876.828	-459
876.877	-851
876.935	-887
876.960	-868
877.043	-479
877.043	-481
877.125	-692
877.150	-587
877.208	-402
877.258	-731
877.291	-920
877.365	-897
877.374	-884
877.456	-524
877.472	-492
877.539	-347
877.579	-318
877.622	-424
877.687	-895
877.704	-972
877.787	-242
877.794	-250
877.869	-434
877.901	-673
877.952	-949
878.008	-568
878.034	-451
878.115	-997
878.117	-1003
878.199	-1100
878.222	-766
878.282	63
878.329	-411
878.364	-765
878.437	-481
878.447	-454
878.529	-926
878.544	-855
878.611	-439
878.651	-484
878.694	-513
878.758	-699
878.776	-764
878.858	-703
878.865	-720
878.941	-786
878.972	-672
879.023	-366
879.078	-313
879.105	-411
879.185	-739
879.187	-739
879.269	-235
879.292	-298
879.351	-706
879.399	-900
879.433	-738
879.506	-206
879.516	-170
879.598	-349
879.613	-293
879.680	-175
879.720	-334
879.762	-565
879.827	-854
879.844	-870
879.926	-444
879.933	-468
880.007	-589
880.040	-430
880.089	-187
880.147	201
880.171	313
880.253	-265
880.254	-265
880.335	438
880.360	349
880.417	250
880.467	736
880.499	1190
880.574	2707
880.580	2781
880.662	2190
880.680	1901
880.744	704
880.787	325
880.825	124
880.893	-466
880.907	-523
880.989	-379
881.000	-349
881.070	-300
881.106	-426
881.152	-372
881.213	75
881.233	71
881.315	-373
881.319	-381
881.396	-61
881.426	-269
881.478	-616
881.532	-275
881.559	-202
881.639	-189
881.641	-180
881.722	-330
881.745	-416
881.803	-500
881.852	-117
881.885	18
881.958	-67
881.966	-46
882.047	-72
882.064	-66
882.129	-93
882.171	-14
882.210	188
882.277	660
882.291	699
882.372	819
882.383	759
882.454	512
882.489	510
882.535	196
882.596	-272
882.616	-141
882.697	330
882.702	359
882.778	379
882.808	353
882.859	258
882.914	356
882.940	396
883.020	173
883.021	177
883.102	80
883.127	-10
883.183	2
883.233	103
883.264	49
883.339	99
883.345	106
883.426	232
883.445	184
883.507	300
883.551	222
883.587	183
883.657	539
883.668	551
883.749	380
883.763	336
883.830	394
883.869	393
883.910	395
883.975	565
883.991	511
884.072	-94
884.081	-143
884.152	506
884.187	753
884.233	596
884.292	591
884.314	696
884.394	741
884.398	744
884.475	711
884.504	616
884.555	456
884.610	334
884.636	227
884.716	-85
884.716	-72
884.797	1050
884.821	1345
884.877	712
884.927	-127
884.958	-73
885.033	497
885.038	508
885.118	661
885.139	570
885.199	159
885.244	-19
885.279	16
885.350	103
885.359	167
885.439	714
885.456	727
885.520	375
885.561	458
885.600	643
885.667	682
885.680	609
885.760	404
885.773	305
885.840	511
885.878	681
885.920	469
885.984	65
886.000	177
886.080	924
886.089	988
886.160	320
886.195	-16
886.240	365
886.300	802
886.320	857
886.400	1287
886.406	1285
886.480	872
886.511	791
886.560	608
886.616	249
886.640	219
886.720	124
886.722	118
886.800	275
886.827	349
886.879	778
886.932	1077
886.959	897
887.038	497
887.039	509
887.119	821
887.143	922
887.198	686
887.248	378
887.278	513
887.354	983
887.358	982
887.437	553
887.459	536
887.517	1188
887.564	1537
887.596	1271
887.669	729
887.676	760
887.755	999
887.774	1057
887.835	1190
887.880	1274
887.914	1327
887.985	1395
887.994	1433
888.073	1654
888.090	1685
888.153	1558
888.195	1498
888.232	1191
888.300	672
888.311	763
888.391	1196
888.405	1287
888.470	871
888.510	533
888.549	947
888.615	1720
888.628	1583
888.708	671
888.720	524
888.787	1148
888.825	1487
888.866	1001
888.930	192
888.945	396
889.024	1473
889.035	1615
889.103	1274
889.140	1070
889.182	1281
889.245	1558
889.261	1526
889.340	1359
889.349	1330
889.419	1212
889.454	1148
889.498	1639
889.559	2322
889.577	2122
889.656	1182
889.664	1087
889.735	1756
889.768	2061
889.814	1885
889.873	1639
889.978	1229
890.083	884
890.187	723
890.292	1744
890.397	1440
890.501	1785
890.606	819
890.710	1302
890.815	1411
890.919	1118
891.024	1267
891.128	1581
891.233	449
891.337	630
891.442	1362
891.546	1300
891.650	1090
891.755	735
891.859	1883
891.963	2486
892.068	1491
892.172	1512
892.276	831
892.380	1009
892.484	1063
892.589	525
892.693	1245
892.797	830
892.901	1424
893.005	926
893.109	1571
893.213	1071
893.317	1564
893.421	1748
893.525	1270
893.629	1299
893.733	1376
893.837	855
893.941	1145
894.045	2053
894.148	1474
894.252	4194
894.356	6695
894.460	1905
894.564	1018
894.667	1470
894.771	1074
894.875	870
894.978	1133
895.082	785
895.186	1090
895.289	1509
895.393	1606
895.496	1917
895.600	1603
895.703	1329
895.807	1824
895.910	1347
896.014	851
896.117	1877
896.221	901
896.324	995
896.427	1064
896.531	807
896.634	873
896.737	1557
896.840	933
896.944	305
897.047	1226
897.150	1036
897.253	998
897.356	1493
897.460	1111
897.563	1432
897.666	670
897.769	1753
897.872	1617
897.975	1195
898.078	736
898.181	870
898.284	697
898.387	1601
898.490	483
898.593	1394
898.695	1644
898.798	1270
898.901	893
899.004	2063
899.107	1413
899.209	1568
899.312	840
899.415	1803
899.518	1292
899.620	1219
899.723	1048
899.826	1068
899.928	1344
900.031	1520
900.133	732
900.236	1177
900.338	330
900.441	1005
900.543	1683
900.646	1181
900.748	488
900.851	831
900.953	364
901.055	1859
901.158	1422
901.260	953
901.362	1002
901.465	1071
901.567	1508
901.669	1126
901.771	1531
901.873	1761
901.976	904
902.078	1402
902.180	804
902.282	1076
902.384	963
902.486	705
902.588	1459
902.690	1121
902.792	1505
902.894	1745
902.996	738
903.098	1590
903.200	1194
903.302	651
903.404	1554
903.505	1275
903.607	1062
903.709	1637
903.811	598
903.913	1600
904.014	519
904.116	1967
904.218	439
904.319	1677
904.421	2156
904.523	854
904.624	1444
904.726	1643
904.827	956
904.929	1538
905.030	1131
905.132	1170
905.233	1486
905.335	1535
905.436	784
905.537	1849
905.639	609
905.740	1509
905.841	1498
905.943	1179
906.044	1870
906.145	1874
906.247	647
906.348	1693
906.449	1070
906.550	1374
906.651	1632
906.752	1297
906.854	996
906.955	1281
907.056	1419
907.157	1050
907.258	939
907.359	1712
907.460	1663
907.561	1424
907.662	783
907.762	1311
907.863	1547
907.964	1101
908.065	2150
908.166	1686
908.267	1636
908.367	1550
908.468	1289
908.569	1139
908.670	749
908.770	899
908.871	736
908.971	1211
909.072	2051
909.173	1203
909.273	1195
909.374	1298
909.474	1419
909.575	1249
909.675	850
909.776	1779
909.876	1290
909.977	1854
910.077	1270
910.177	1414
910.278	986
910.378	977
910.478	1260
910.579	1358
910.679	878
910.779	1681
910.879	1416
910.980	1446
911.080	1042
911.180	666
911.280	1733
911.380	1189
911.480	1787
911.580	1837
911.680	1475
911.780	1184
911.880	1533
911.980	1914
912.080	858
912.180	1016
912.280	1284
912.380	1706
912.480	247
912.580	2009
912.679	1133
912.779	2034
912.879	738
912.979	1741
913.078	1777
913.178	2062
913.278	1438
913.377	1246
913.477	898
913.577	1457
913.676	1476
913.776	1746
913.875	407
913.975	1857
914.074	2029
914.174	1637
914.273	611
914.373	1851
914.472	935
914.572	1278
914.671	628
914.770	1951
914.870	-10
914.969	743
915.068	900
915.167	2188
915.267	1124
915.366	1774
915.465	1006
915.564	229
915.663	1851
915.763	1013
915.862	835
915.961	1300
916.060	1657
916.159	1723
916.258	640
916.357	1422
916.456	833
916.555	1964
916.654	1151
916.752	967
916.851	1022
916.950	2038
917.049	633
917.148	505
917.247	536
917.345	2214
917.444	1178
917.543	950
917.642	1937
917.740	1509
917.839	924
917.937	1533
918.036	1041
918.135	2129
918.233	2067
918.332	1104
918.430	1011
918.529	1233
918.627	517
918.726	1806
918.824	1200
918.923	1622
919.021	777
919.119	1167
919.218	421
919.316	1945
919.414	1137
919.512	999
919.611	1080
919.709	1352
919.807	1738
919.905	1969
920.003	1139
920.102	1748
920.200	1601
920.298	1523
920.396	813
920.494	1165
920.592	1241
920.690	1584
920.788	1560
920.886	1587
920.984	1320
921.082	1265
921.180	792
921.277	1187
921.375	1922
921.473	728
921.571	1431
921.669	2124
921.766	1112
921.864	1083
921.962	1102
922.060	1405
922.157	1264
922.255	1732
922.352	947
922.450	1522
922.548	772
922.645	1320
922.743	947
922.840	225
922.938	1224
923.035	1496
923.133	159
923.230	1515
923.327	1596
923.425	1135
923.522	896
923.619	1328
923.717	831
923.814	1524
923.911	755
924.008	1730
924.106	1373
924.203	1479
924.300	1042
924.397	1574
924.494	1005
924.591	1692
924.688	907
924.786	1561
924.883	1692
924.979	1425
925.077	1313
925.173	1409
925.270	1169
925.367	1089
925.464	1017
925.561	942
925.658	1392
925.755	2262
925.852	803
925.948	1604
926.045	1368
926.142	481
926.239	1492
926.335	1552
926.432	1759
926.529	2079
926.625	1781
926.722	1526
926.818	854
926.915	1068
927.011	1215
927.108	582
927.204	1377
927.301	1701
927.397	933
927.494	838
927.590	935
927.687	1351
927.783	1104
927.879	1143
927.976	1104
928.072	1684
928.168	949
928.264	1674
928.361	1685
928.457	1722
928.553	17
928.649	2249
928.745	1190
928.841	1197
928.937	1228
929.033	1503
929.129	1230
929.225	970
929.321	864
929.417	1098
929.513	1150
929.609	733
929.705	817
929.801	784
929.897	779
929.993	780
930.089	970
930.184	1388
930.280	351
930.376	1474
930.471	528
930.567	677
930.663	1146
930.758	484
930.854	555
930.950	1240
931.045	2014
931.141	1345
931.236	1200
931.332	672
931.427	814
931.523	1478
931.618	885
931.714	1027
931.809	618
931.905	544
932.000	1147
932.095	731
932.191	653
932.286	1217
932.381	532
932.476	906
932.572	1605
932.667	1038
932.762	1145
932.857	352
932.952	863
933.047	1028
933.142	147
933.237	1178
933.332	-1
933.427	1426
933.522	1082
933.617	986
933.712	1508
933.807	1387
933.902	573
933.997	1795
934.092	583
934.187	757
934.282	670
934.376	956
934.471	1264
934.566	1049
934.661	1379
934.755	1720
934.850	1014
934.945	873
935.039	1730
935.134	843
935.228	120
935.323	1077
935.417	1040
935.512	511
935.606	1033
935.701	1439
935.795	271
935.890	745
935.984	1044
936.079	941
936.173	1977
936.267	786
936.362	296
936.456	707
936.550	380
936.644	1499
936.738	500
936.833	1712
936.927	1124
937.021	1932
937.115	1077
937.209	293
937.303	934
937.397	323
937.491	948
937.585	1241
937.679	719
937.773	661
937.867	1201
937.961	1330
938.055	1330
938.149	486
938.243	211
938.337	280
938.430	998
938.524	466
938.618	1193
938.712	1437
938.805	1270
938.899	462
938.993	1150
939.086	824
939.180	1208
939.274	1257
939.367	875
939.461	1154
939.554	1666
939.648	727
939.741	291
939.835	1625
939.928	995
940.022	1045
940.115	564
940.208	1423
940.302	382
940.395	870
940.488	847
940.582	1125
940.675	538
940.768	1229
940.861	551
940.954	1217
941.048	328
941.141	930
941.234	1331
941.327	1217
941.420	562
941.513	752
941.606	530
941.699	700
941.792	1474
941.885	657
941.978	1279
942.071	488
942.164	1234
942.257	766
942.349	608
942.442	1314
942.535	-163
942.628	117
942.721	721
942.813	292
942.906	1443
942.999	475
943.091	-254
943.184	259
943.277	521
943.369	557
943.462	-367
943.554	807
943.647	228
943.739	-104
943.832	581
943.924	1053
944.017	1248
944.109	20
944.201	370
944.294	855
944.386	475
944.478	282
944.571	920
944.663	-111
944.755	798
944.847	933
944.940	319
945.032	1494
945.124	781
945.216	832
945.308	155
945.400	275
945.492	717
945.584	1522
945.676	432
945.768	141
945.860	495
945.952	965
946.044	163
946.136	761
946.228	486
946.320	643
946.412	226
946.503	918
946.595	300
946.687	400
946.779	1131
946.870	-361
946.962	-49
947.054	746
947.145	963
947.237	351
947.329	652
947.420	232
947.512	772
947.603	481
947.695	752
947.786	660
947.878	1164
947.969	81
948.061	-83
948.152	372
948.243	792
948.335	688
948.426	554
948.517	206
948.609	34
948.700	322
948.791	1496
948.882	307
948.973	724
949.065	391
949.156	83
949.247	1704
949.338	875
949.429	787
949.520	-192
949.611	449
949.702	1027
949.793	344
949.884	912
949.975	683
950.066	570
950.157	594
950.247	-172
950.338	731
950.429	83
950.520	372
950.611	183
950.701	884
950.792	323
950.883	933
950.973	-487
951.064	607
951.155	305
951.245	1092
951.336	119
951.427	710
951.517	151
951.608	840
951.698	-271
951.788	424
951.879	290
951.969	1416
952.060	187
952.150	670
952.240	688
952.331	-163
952.421	672
952.511	270
952.602	493
952.692	631
952.782	280
952.872	232
952.962	268
953.052	270
953.143	489
953.233	1045
953.323	435
953.413	501
953.503	874
953.593	743
953.683	628
953.773	513
953.863	519
953.953	77
954.042	714
954.132	-318
954.222	851
954.312	614
954.402	685
954.492	418
954.581	953
954.671	1225
954.761	911
954.850	49
954.940	228
955.030	96
955.119	404
955.209	945
955.298	-334
955.388	1230
955.477	326
955.567	-112
955.656	678
955.746	955
955.835	821
955.925	639
956.014	816
956.103	913
956.193	231
956.282	134
956.371	730
956.461	551
956.550	542
956.639	658
956.728	404
956.817	918
956.906	78
956.995	1249
957.085	592
957.174	989
957.263	353
957.352	942
957.441	1252
957.530	1418
957.619	1381
957.708	1423
957.796	908
957.885	417
957.974	422
958.063	740
958.152	1119
958.241	1664
958.329	1298
958.418	1408
958.507	1187
958.596	1162
958.684	710
958.773	2560
958.861	445
958.950	1221
959.039	1187
959.127	2089
959.216	1415
959.304	1102
959.393	1982
959.481	909
959.570	1206
959.658	1045
959.746	51
959.835	1180
959.923	2074
960.011	2582
960.100	1641
960.188	1638
960.276	1087
960.365	1657
960.453	1426
960.541	1648
960.629	753
960.717	475
960.805	840
960.893	1085
960.981	856
961.069	1598
961.158	77
961.245	1519
961.333	948
961.421	978
961.509	657
961.597	731
961.685	1127
961.773	486
961.861	-74
961.949	989
962.036	772
962.124	704
962.212	0
962.299	8
962.387	97
962.475	1001
962.562	1257
962.650	431
962.738	1245
962.825	744
962.913	316
963.000	738
963.088	-507
963.175	1179
963.263	-367
963.350	773
963.438	1073
963.525	1207
963.612	716
963.700	1945
963.787	3482
963.874	5668
963.962	1087
964.049	1524
964.136	244
964.223	664
964.310	998
964.398	963
964.485	794
964.572	616
964.659	803
964.746	783
964.833	1210
964.920	73
965.007	-322
965.094	421
965.181	-118
965.268	-208
965.355	897
965.441	730
965.528	-156
965.615	170
965.702	-30
965.789	982
965.875	127
965.962	696
966.049	-283
966.136	429
966.222	561
966.309	593
966.395	471
966.482	542
966.569	-463
966.655	195
966.742	393
966.828	62
966.915	270
967.001	693
967.087	346
967.174	946
967.260	437
967.347	398
967.433	905
967.519	2151
967.605	3051
967.692	878
967.778	184
967.864	754
967.950	204
968.036	60
968.123	260
968.209	32
968.295	185
968.381	221
968.467	739
968.553	504
968.639	266
968.725	1195
968.811	884
968.897	1012
968.983	283
969.069	202
969.154	183
969.240	720
969.326	-412
969.412	834
969.497	224
969.583	161
969.669	-586
969.755	41
969.840	-355
969.926	630
970.012	297
970.097	496
970.183	-590
970.268	527
970.354	116
970.439	651
970.525	1076
970.610	1842
970.696	165
970.781	552
970.866	-865
970.952	-398
971.037	462
971.122	861
971.208	-569
971.293	861
971.378	-79
971.463	655
971.549	985
971.634	859
971.719	621
971.804	618
971.889	1101
971.974	263
972.059	-189
972.144	916
972.229	145
972.314	-535
972.399	42
972.484	676
972.569	639
972.654	-132
972.739	676
972.824	1443
972.908	771
972.993	-76
973.078	-106
973.163	45
973.247	-61
973.332	-218
973.417	163
973.501	-72
973.586	527
973.671	615
973.755	225
973.840	548
973.924	-56
974.009	1161
974.093	447
974.178	1130
974.262	227
974.346	873
974.431	581
974.515	614
974.600	175
974.684	-174
974.768	254
974.852	608
974.937	-650
975.021	622
975.105	462
975.189	212
975.273	183
975.358	165
975.442	-94
975.526	238
975.610	-556
975.694	-119
975.778	932
975.862	-32
975.946	-584
976.030	1016
976.114	301
976.198	-196
976.281	322
976.365	687
976.449	-643
976.533	-109
976.617	289
976.700	505
976.784	-565
976.868	136
976.951	709
977.035	538
977.119	362
977.202	211
977.286	-295
977.369	263
977.453	-316
977.536	-139
977.620	-1027
977.703	178
977.787	198
977.870	866
977.953	492
978.037	522
978.120	597
978.203	-104
978.287	1252
978.370	989
978.453	-153
978.536	246
978.620	-1
978.703	545
978.786	1027
978.869	643
978.952	-351
979.035	744
979.118	724
979.201	-361
979.284	-34
979.367	92
979.450	-361
979.533	-280
979.616	-1348
979.699	-327
979.782	301
979.865	538
979.948	-326
980.030	114
980.113	-23
980.196	-758
980.279	176
980.361	-78
980.444	-479
980.526	586
980.609	594
980.692	352
980.774	-511
980.857	-701
980.939	236
981.022	592
981.104	-721
981.187	146
981.269	-321
981.352	380
981.434	-149
981.516	8
981.599	82
981.681	158
981.763	-312
981.846	761
981.928	-488
982.010	386
982.092	-565
982.174	313
982.256	-130
982.339	-262
982.421	325
982.503	-81
982.585	-572
982.667	129
982.749	-183
982.831	367
982.913	-617
982.995	518
983.077	-360
983.158	177
983.240	-10
983.322	75
983.404	109
983.486	-121
983.568	73
983.649	587
983.731	337
983.813	-1070
983.894	-23
983.976	-191
984.058	-439
984.139	-21
984.221	-301
984.302	343
984.384	-471
984.465	8
984.547	-1267
984.628	-269
984.710	-271
984.791	21
984.872	-36
984.954	-492
985.035	-469
985.116	-251
985.198	-565
985.279	139
985.360	47
985.441	-192
985.522	-1255
985.604	415
985.685	-983
985.766	354
985.847	-222
985.928	-644
986.009	-639
986.090	120
986.171	69
986.252	-97
986.333	-107
986.414	-114
986.495	-268
986.576	274
986.656	-216
986.737	519
986.818	351
986.899	-429
986.980	-710
987.060	-834
987.141	-1129
987.222	-73
987.302	-61
987.383	-580
987.464	-690
987.544	407
987.625	4
987.705	77
987.786	292
987.866	270
987.947	-628
988.027	-816
988.108	-472
988.188	201
988.268	-1022
988.349	281
988.429	-283
988.509	161
988.589	-124
988.670	-979
988.750	390
988.830	-725
988.910	-7
988.990	-209
989.070	-754
989.151	-295
989.231	-500
989.311	364
989.391	65
989.471	-253
989.551	-472
989.631	-154
989.711	-90
989.791	50
989.870	-371
989.950	1049
990.030	-749
990.110	-875
990.190	-499
990.269	221
990.349	-204
990.429	240
990.509	644
990.588	-829
990.668	-237
990.747	-153
990.827	-884
990.907	-60
990.986	-474
991.066	486
991.145	-203
991.225	-669
991.304	-1249
991.383	-1063
991.463	20
991.542	-686
991.622	-174
991.701	-721
991.780	-866
991.859	-92
991.939	-1231
992.018	-294
992.097	-518
992.176	281
992.256	-272
992.335	-289
992.414	-966
992.493	-779
992.572	-866
992.651	-675
992.730	-728
992.809	-288
992.888	-588
992.967	257
993.046	-482
993.125	-818
993.203	-550
993.282	-335
993.361	-954
993.440	-593
993.519	-889
993.597	14
993.676	-1041
993.755	-108
993.834	-407
993.912	-548
993.991	-571
994.069	-237
994.148	-1670
994.226	-197
994.305	-780
994.384	-1373
994.462	-1482
994.540	-942
994.619	-1488
994.697	-315
994.776	-803
994.854	244
994.932	-990
995.011	-375
995.089	-1063
995.167	-723
995.245	-713
995.324	-1074
995.402	687
995.480	-963
995.558	-990
995.636	-749
995.714	-762
995.792	-396
995.870	-1651
995.948	-412
996.026	-1370
996.104	-737
996.182	-208
996.260	-378
996.338	-34
996.416	-651
996.494	-1280
996.572	-722
996.649	-1352
996.727	-572
996.805	-366
996.883	-861
996.960	51
997.038	-811
997.116	-573
997.193	-1162
997.271	-1083
997.348	-432
997.426	-1164
997.504	-768
997.581	-1081
997.658	-948
997.736	-1199
997.813	-1816
997.891	-685
997.968	-384
998.046	-1218
998.123	-91
998.200	-1065
998.277	-596
998.355	-612
998.432	-1112
998.509	-913
998.586	-735
998.663	-1056
998.741	-1345
998.818	-1275
998.895	-1299
998.972	-1191
999.049	-585
999.126	-1879
999.203	-859
999.280	-964
999.357	-1178
999.434	-1442
999.511	-383
999.587	-902
999.664	-1259
999.741	-1299
999.818	-1106
999.895	-608
999.971	-966
1000.048	-1824
1000.125	-455
1000.202	-1366
1000.278	-809
1000.355	-1445
1000.431	-558
1000.508	-1981
1000.584	-1551
1000.661	-1733
1000.738	-160
1000.814	-2117
1000.890	-1024
1000.967	-1040
1001.043	-199
1001.120	-1502
1001.196	-803
1001.272	-903
1001.349	-585
1001.425	-1127
1001.501	-834
1001.577	-1118
1001.654	-1097
1001.730	-1707
1001.806	-1039
1001.882	-2093
1001.958	-427
1002.034	-1063
1002.110	-1196
1002.186	-1641
1002.262	-1530
1002.338	-1132
1002.414	-1059
1002.490	-1339
1002.566	-593
1002.642	-2067
1002.718	-1600
1002.794	-1005
1002.870	-807
1002.945	-1255
1003.021	-1047
1003.097	-1153
1003.173	-629
1003.248	-780
1003.324	-1492
1003.400	-800
1003.475	-1731
1003.551	-909
1003.626	-804
1003.702	-139
1003.777	-1021
1003.853	-1237
1003.928	-771
1004.004	-1213
1004.079	-536
1004.155	-2404
1004.230	-1403
1004.305	-489
1004.381	-251
1004.456	-1099
1004.531	-836
1004.607	-1364
1004.682	-1206
1004.757	-1215
1004.832	-1010
1004.907	-1630
1004.982	-709
1005.057	-1070
1005.133	-2347
1005.208	-404
1005.283	-872
1005.358	-735
1005.433	-222
1005.508	-2072
1005.583	-1282
1005.657	-1171
1005.732	-531
1005.807	-1208
1005.882	-2012
1005.957	-1156
1006.032	-1175
1006.106	-775
1006.181	-949
1006.256	-704
1006.331	-1659
1006.405	-1966
1006.480	-1100
1006.554	-993
1006.629	-676
1006.704	-2069
1006.778	-999
1006.853	-876
1006.927	-1120
1007.002	-1377
1007.076	-1038
1007.150	-1937
1007.225	-857
1007.299	-820
1007.373	-201
1007.448	-1455
1007.522	-203
1007.596	-898
1007.671	-1733
1007.745	-650
1007.819	-1675
1007.893	-1468
1007.967	-1508
1008.041	-2924
1008.115	-294
1008.190	-1907
1008.264	-718
1008.338	-1062
1008.412	-1028
1008.486	-845
1008.560	-1387
1008.633	-1371
1008.707	-1624
1008.781	-1108
1008.855	-1174
1008.929	-1659
1009.003	-1276
1009.076	-1689
1009.150	-1021
1009.224	-1652
1009.298	-508
1009.371	-1208
1009.445	-1675
1009.519	-964
1009.592	-968
1009.666	-1796
1009.739	-1514
1009.813	-1120
1009.886	-346
1009.960	-1595
1010.033	-83
1010.107	-1512
1010.180	-1877
1010.253	-1872
1010.327	-1889
1010.400	-1642
1010.473	-1845
1010.547	-876
1010.620	-1092
1010.693	-1124
1010.766	-538
1010.840	-1091
1010.913	-1393
1010.986	-1566
1011.059	-1723
1011.132	-1469
1011.205	-1208
1011.278	-1138
1011.351	-1302
1011.424	-1479
1011.497	-1750
1011.570	-1526
1011.643	-899
1011.716	-989
1011.789	-1944
1011.862	-1380
1011.934	-293
1012.007	-916
1012.080	-849
1012.153	-1934
1012.225	-4
1012.298	-1778
1012.371	-1578
1012.443	-694
1012.516	-1955
1012.588	-977
1012.661	-1142
1012.733	-1679
1012.806	-464
1012.879	-876
1012.951	-1877
1013.023	-1360
1013.096	-1938
1013.168	-351
1013.241	-1390
1013.313	-616
1013.385	-1342
1013.458	-1604
1013.530	-1132
1013.602	-1361
1013.674	-979
1013.746	-1600
1013.819	-1242
1013.891	-1902
1013.963	-1644
1014.035	-1665
1014.107	-1811
1014.179	-1642
1014.251	-672
1014.323	-1035
1014.395	-879
1014.467	-1799
1014.539	-1676
1014.611	-1291
1014.683	-774
1014.754	-733
1014.826	-1810
1014.898	-1297
1014.970	-1873
1015.042	-911
1015.113	-878
1015.185	-1376
1015.257	-1261
1015.328	-1981
1015.400	-1073
1015.471	-1114
1015.543	-1432
1015.615	-1592
1015.686	-1281
1015.757	-1755
1015.829	-643
1015.901	-1027
1015.972	-537
1016.043	-1762
1016.115	-537
1016.186	-1373
1016.257	-1429
1016.328	-992
1016.400	-451
1016.471	-1126
1016.542	-1390
1016.613	-592
1016.685	-1241
1016.756	-1414
1016.827	-1202
1016.898	-1770
1016.969	-609
1017.040	-1134
1017.111	-959
1017.182	-1410
1017.253	-1451
1017.324	-1902
1017.395	-1489
1017.466	-647
1017.537	-1402
1017.608	-1822
1017.678	-872
1017.749	-1855
1017.820	-909
1017.891	-1798
1017.961	-1462
1018.032	-1146
1018.103	-1088
1018.173	-1850
1018.244	-1563
1018.315	-1391
1018.385	-302
1018.456	-1764
1018.526	-1257
1018.597	-1487
1018.667	-639
1018.738	-2134
1018.808	-1295
1018.878	-1130
1018.949	-717
1019.019	-1309
1019.089	-962
1019.160	-1670
1019.230	-2305
1019.300	-1088
1019.371	-2285
1019.441	-1095
1019.511	-1003
1019.581	-1276
1019.651	-1410
1019.721	-1407
1019.791	-991
1019.861	-848
1019.931	-1184
1020.001	-1726
1020.071	-1412
1020.141	-484
1020.211	-937
1020.281	-1766
1020.351	-2130
1020.421	-1230
1020.491	-939
1020.560	-1919
1020.630	-1272
1020.700	-1224
1020.770	-352
1020.839	-1427
1020.909	-1039
1020.979	-1259
1021.048	-1577
1021.118	-1278
1021.187	-1307
1021.257	-927
1021.326	-767
1021.396	-1463
1021.465	-839
1021.535	-1436
1021.604	-1672
1021.674	-1651
1021.743	-1305
1021.812	-1187
1021.882	-1538
1021.951	-1890
1022.020	-831
1022.089	-1232
1022.159	-1902
1022.228	-1182
1022.297	-975
1022.366	-1288
1022.435	-971
1022.504	-1852
1022.573	-2132
1022.642	-1274
1022.711	-1300
1022.781	-1419
1022.849	-1873
1022.918	-1967
1022.987	-1078
1023.056	-1804
1023.125	-1061
1023.194	-1515
1023.263	-1033
1023.331	-1354
1023.400	-1547
1023.469	-1666
1023.538	-1148
1023.606	-2153
1023.675	-916
1023.744	-1770
1023.812	-1263
1023.881	-1313
1023.949	-649
1024.018	-688
1024.086	-1576
1024.155	-720
1024.223	-1704
1024.292	-2026
1024.360	-861
1024.429	-2152
1024.497	-1787
1024.565	-1392
1024.634	-728
1024.702	-938
1024.770	-1109
1024.838	-1418
1024.907	-1064
1024.975	-1644
1025.043	-832
1025.111	-1931
1025.179	-1468
1025.247	-2211
1025.315	-596
1025.383	-1100
1025.451	-1109
1025.519	-2110
1025.587	-1005
1025.655	-1258
1025.723	-1274
1025.791	-1673
1025.859	-1647
1025.927	-611
1025.995	-949
1026.062	-1640
1026.130	-434
1026.198	-992
1026.266	-925
1026.333	-1609
1026.401	-560
1026.469	-1152
1026.536	-1418
1026.604	-2390
1026.671	-1096
1026.739	-1984
1026.806	-1229
1026.874	-1179
1026.941	-1210
1027.009	-1441
1027.076	-1685
1027.144	-2142
1027.211	-1744
1027.278	-1869
1027.345	-905
1027.413	-906
1027.480	-1740
1027.547	-1508
1027.614	-1617
1027.682	-1458
1027.749	-969
1027.816	-1430
1027.883	-1100
1027.950	-1214
1028.017	-1571
1028.084	-1895
1028.151	-1762
1028.218	-1027
1028.285	-1103
1028.352	-1956
1028.419	-1350
1028.486	-1589
1028.553	-926
1028.619	-1487
1028.686	-221
1028.753	-1515
1028.820	-1271
1028.886	-1333
1028.953	-1437
1029.020	-880
1029.086	-1175
1029.153	-1323
1029.220	-1779
1029.286	-1204
1029.353	-1084
1029.419	-1490
1029.486	-1387
1029.552	-1200
1029.619	-1736
1029.685	-1439
1029.751	-870
1029.818	-1009
1029.884	-453
1029.951	-1157
1030.017	-1498
1030.083	-1618
1030.149	-1998
1030.216	-1446
1030.282	-1580
1030.348	-1823
1030.414	-1892
1030.480	-2362
1030.546	-634
1030.612	-1061
1030.678	-1331
1030.744	-1616
1030.810	-783
1030.876	-1532
1030.942	-903
1031.008	-1443
1031.074	-1484
1031.140	-1269
1031.206	-626
1031.272	-1898
1031.337	-650
1031.403	-1600
1031.469	-1251
1031.534	-1454
1031.600	-629
1031.666	-2073
1031.731	-1704
1031.797	-998
1031.863	-1534
1031.928	-1343
1031.994	-1331
1032.059	-884
1032.125	-1737
1032.190	-883
1032.256	-1332
1032.321	-2274
1032.386	-1049
1032.452	-1865
1032.517	-1350
1032.582	-2145
1032.647	-543
1032.713	-1737
1032.778	-1051
1032.843	-2357
1032.908	-867
1032.974	-1013
1033.039	-2059
1033.104	-1891
1033.169	-1068
1033.234	-2354
1033.299	-755
1033.364	-1348
1033.429	-1705
1033.494	-2079
1033.559	-1472
1033.624	-1793
1033.688	-2242
1033.753	-2174
1033.818	-1688
1033.883	-2322
1033.948	-884
1034.013	-1645
1034.077	-1576
1034.142	-1528
1034.207	-1960
1034.271	-2355
1034.336	-390
1034.400	-667
1034.465	-1368
1034.530	-1641
1034.594	-1245
1034.658	-1166
1034.723	-1706
1034.787	-1973
1034.852	-1091
1034.916	-991
1034.981	-1000
1035.045	-1453
1035.109	-1291
1035.173	-1345
1035.238	-1833
1035.302	-1495
1035.366	-1722
1035.430	-1642
1035.495	-1332
1035.559	-2147
1035.623	-1805
1035.687	-1790
1035.751	-2216
1035.815	-1970
1035.879	-1157
1035.943	-1232
1036.007	-2118
1036.071	-2197
1036.135	-1517
1036.198	-1471
1036.262	-1763
1036.326	-848
1036.390	-1277
1036.454	-2539
1036.517	-1308
1036.581	-1406
1036.645	-1502
1036.709	-1717
1036.772	-1605
1036.836	-2000
1036.900	-151
1036.963	-2186
1037.026	-1641
1037.090	-1975
1037.154	-1069
1037.217	-1738
1037.280	-1963
1037.344	-2281
1037.407	-1772
1037.471	-1561
1037.534	-2181
1037.597	-1424
1037.661	-1108
1037.724	-1508
1037.787	-1810
1037.850	-2045
1037.913	-2302
1037.977	-1644
1038.040	-1075
1038.103	-1338
1038.166	-1249
1038.229	-1947
1038.292	-1564
1038.355	-1660
1038.418	-969
1038.481	-1161
1038.544	-1923
1038.607	-1370
1038.670	-1604
1038.732	-2027
1038.795	-1810
1038.858	-2137
1038.921	-1182
1038.984	-993
1039.046	-953
1039.109	-1252
1039.172	-2418
1039.234	-1386
1039.297	-982
1039.360	-2437
1039.422	-2296
1039.485	-2027
1039.547	-1821
1039.610	-2101
1039.672	-1264
1039.734	-2072
1039.797	-1324
1039.859	-1374
1039.922	-1297
1039.984	-1940
1040.046	-1895
1040.109	-2011
1040.171	-1324
1040.233	-1760
1040.295	-1675
1040.358	-2164
1040.420	-1174
1040.482	-1685
1040.544	-1365
1040.606	-1434
1040.668	-1420
1040.730	-1906
1040.792	-2034
1040.854	-1508
1040.916	-1694
1040.978	-1696
1041.040	-1709
1041.102	-1786
1041.164	-1841
1041.225	-2107
1041.287	-1677
1041.349	-2319
1041.411	-1729
1041.472	-1727
1041.534	-1790
1041.596	-1916
1041.657	-1514
1041.719	-2101
1041.781	-2078
1041.842	-1601
1041.904	-1345
1041.965	-1657
1042.027	-1553
1042.088	-2448
1042.150	-1738
1042.211	-1631
1042.272	-878
1042.334	-1963
1042.395	-1597
1042.456	-1707
1042.518	-1781
1042.579	-1053
1042.640	-1281
1042.701	-2251
1042.763	-1392
1042.824	-2213
1042.885	-1975
1042.946	-2114
1043.007	-1771
1043.068	-2246
1043.129	-1256
1043.190	-1780
1043.251	-1650
1043.312	-2040
1043.373	-1494
1043.434	-1970
1043.495	-2329
1043.556	-2111
1043.616	-1238
1043.677	-1730
1043.738	-984
1043.799	-2090
1043.859	-1300
1043.920	-2277
1043.981	-898
1044.041	-2535
1044.102	-1455
1044.162	-1759
1044.223	-1152
1044.284	-2253
1044.344	-1964
1044.405	-1630
1044.465	-1630
1044.525	-2848
1044.586	-1334
1044.646	-1841
1044.707	-1576
1044.767	-2151
1044.827	-1489
1044.887	-700
1044.948	-1238
1045.008	-1466
1045.068	-1125
1045.128	-1789
1045.188	-1354
1045.249	-1718
1045.309	-1440
1045.369	-1730
1045.429	-1660
1045.489	-1276
1045.549	-1549
1045.609	-761
1045.669	-1527
1045.729	-2369
1045.789	-1019
1045.848	-2045
1045.908	-1340
1045.968	-1176
1046.028	-1634
1046.088	-1894
1046.147	-802
1046.207	-1591
1046.267	-1937
1046.326	-1948
1046.386	-455
1046.446	-902
1046.505	-838
1046.565	-1276
1046.624	-79
1046.684	-1687
1046.743	-1106
1046.803	-735
1046.862	-527
1046.922	0
