'Start Wavelength	183.907
'End Wavelength	1046.922
'Gate Delay	5.000
'Gate Width (ms)	1.050
'Laser Output Level	0.000
'X Position	0.000
'Y Position	0.000
'Z Position	0.000
'Grid Point Number	1.000
'Shot Number	100.000
183.907	806.000
183.977	-236.000
184.047	-172
184.116	594
184.186	240
184.256	432
184.325	-228
184.395	52
184.465	879
184.534	-145
184.604	-994
184.674	754
184.743	132
184.813	792
184.883	-623
184.952	-125
185.022	-435
185.092	101
185.161	-258
185.231	-13
185.301	-524
185.370	670
185.440	288
185.509	124
185.579	-290
185.649	-104
185.718	201
185.788	1510
185.857	-413
185.927	-122
185.996	138
186.066	-55
186.136	-33
186.205	399
186.275	870
186.344	812
186.414	-410
186.483	-417
186.553	864
186.622	1368
186.692	530
186.761	538
186.831	-142
186.900	460
186.970	-116
187.039	1044
187.109	269
187.178	1084
187.248	74
187.317	-8
187.387	30
187.456	815
187.526	623
187.595	498
187.664	490
187.734	357
187.803	284
187.873	425
187.942	-470
188.012	1489
188.081	383
188.150	752
188.220	624
188.289	974
188.358	187
188.428	578
188.497	-13
188.567	628
188.636	326
188.705	86
188.775	89
188.844	303
188.913	893
188.983	-43
189.052	162
189.121	998
189.191	10
189.260	412
189.329	305
189.399	507
189.468	316
189.537	725
189.606	463
189.676	434
189.745	522
189.814	881
189.883	626
189.953	570
190.022	-64
190.091	1463
190.161	35
190.230	967
190.299	166
190.368	785
190.437	-28
190.507	306
190.576	-146
190.645	193
190.714	296
190.783	178
190.853	750
190.922	1005
190.991	307
191.060	908
191.129	-93
191.198	810
191.268	-254
191.337	748
191.406	821
191.475	60
191.544	-276
191.613	817
191.682	686
191.752	621
191.821	124
191.890	-30
191.959	340
192.028	1246
192.097	396
192.166	449
192.235	51
192.304	1532
192.373	-250
192.442	363
192.511	1030
192.580	94
192.650	461
192.719	845
192.788	-19
192.857	699
192.926	320
192.995	150
193.064	747
193.133	922
193.202	-41
193.271	1327
193.340	646
193.409	128
193.478	1194
193.547	230
193.615	287
193.684	1183
193.753	-88
193.822	1112
193.891	-20
193.960	1028
194.029	297
194.098	712
194.167	195
194.236	679
194.305	670
194.374	604
194.443	254
194.512	1635
194.580	347
194.649	500
194.718	288
194.787	692
194.856	-281
194.925	773
194.994	80
195.062	1696
195.131	430
195.200	705
195.269	-123
195.338	963
195.407	942
195.475	692
195.544	160
195.613	808
195.682	136
195.751	658
195.819	-269
195.888	153
195.957	1416
196.026	855
196.094	434
196.163	350
196.232	488
196.301	505
196.369	498
196.438	963
196.507	449
196.576	641
196.644	-124
196.713	417
196.782	-74
196.850	1581
196.919	-130
196.988	619
197.056	-286
197.125	1534
197.194	293
197.262	902
197.331	42
197.400	759
197.468	613
197.537	-132
197.606	-712
197.674	1794
197.743	14
197.812	23
197.880	939
197.949	1203
198.017	1481
198.086	825
198.155	108
198.223	1604
198.292	930
198.360	613
198.429	214
198.497	753
198.566	912
198.635	1514
198.703	1249
198.772	1468
198.840	607
198.909	624
198.977	904
199.046	1300
199.114	-192
199.183	485
199.251	319
199.320	723
199.388	-58
199.457	557
199.525	369
199.594	276
199.662	594
199.731	727
199.799	296
199.867	657
199.936	-193
200.004	975
200.073	560
200.141	602
200.210	-233
200.278	880
200.346	276
200.415	1447
200.483	307
200.552	2209
200.620	775
200.688	931
200.757	730
200.825	791
200.893	1030
200.962	814
201.030	281
201.098	-160
201.167	-48
201.235	1096
201.303	581
201.372	995
201.440	963
201.508	649
201.577	394
201.645	1033
201.713	-17
201.781	698
201.850	525
201.918	1042
201.986	434
202.055	1361
202.123	-293
202.191	608
202.259	1094
202.327	1010
202.396	744
202.464	1122
202.532	33
202.600	1554
202.669	227
202.737	519
202.805	-516
202.873	1481
202.941	530
203.009	1536
203.078	774
203.146	892
203.214	11
203.282	-42
203.350	49
203.418	1031
203.487	629
203.555	-70
203.623	192
203.691	1210
203.759	62
203.827	453
203.895	551
203.963	938
204.031	366
204.099	1296
204.168	716
204.236	1180
204.304	669
204.372	1288
204.440	674
204.508	636
204.576	-204
204.644	1050
204.712	-154
204.780	678
204.848	974
204.916	966
204.984	316
205.052	1281
205.120	310
205.188	661
205.256	-301
205.324	635
205.392	862
205.460	1248
205.528	406
205.596	1375
205.664	1631
205.732	704
205.799	-30
205.867	1148
205.935	-115
206.003	1711
206.071	145
206.139	1212
206.207	455
206.275	922
206.343	591
206.411	1500
206.478	915
206.546	937
206.614	799
206.682	1047
206.750	545
206.818	1447
206.885	1258
206.953	709
207.021	1756
207.089	1373
207.157	38
207.225	1300
207.292	268
207.360	1175
207.428	-458
207.496	903
207.563	36
207.631	1309
207.699	301
207.767	403
207.834	156
207.902	867
207.970	412
208.038	1282
208.105	368
208.173	1140
208.241	451
208.309	1112
208.376	-122
208.444	1312
208.512	300
208.579	1071
208.647	1106
208.715	2218
208.782	1156
208.850	937
208.918	-363
208.985	1169
209.053	200
209.120	933
209.188	-91
209.256	465
209.323	-40
209.391	894
209.459	1520
209.526	680
209.594	174
209.661	1052
209.729	614
209.796	1146
209.864	109
209.932	-23
209.999	1741
210.067	813
210.134	183
210.202	1188
210.269	1230
210.337	2637
210.404	1984
210.472	803
210.539	16
210.607	418
210.674	561
210.742	861
210.809	478
210.877	2035
210.944	1696
211.012	302
211.079	1973
211.146	1978
211.214	1509
211.281	2540
211.349	1486
211.416	1729
211.484	796
211.551	1006
211.618	1355
211.686	1951
211.753	440
211.821	1206
211.888	371
211.955	1713
212.023	1860
212.090	1476
212.157	895
212.225	847
212.292	1457
212.359	2430
212.427	5200
212.494	2678
212.561	1155
212.629	1280
212.696	594
212.763	2127
212.831	517
212.898	1256
212.965	283
213.032	950
213.100	1439
213.167	1061
213.234	1415
213.301	1473
213.369	381
213.436	1661
213.503	67
213.570	1063
213.638	435
213.705	973
213.772	-24
213.839	813
213.906	1116
213.973	1319
214.041	-100
214.108	1640
214.175	371
214.242	832
214.309	1402
214.376	1460
214.444	433
214.511	1457
214.578	1020
214.645	2372
214.712	1644
214.779	748
214.846	831
214.913	1404
214.980	2245
215.048	1720
215.115	1895
215.182	2506
215.249	1758
215.316	1914
215.383	1366
215.450	1161
215.517	864
215.584	2046
215.651	629
215.718	976
215.785	1151
215.852	973
215.919	1292
215.986	1191
216.053	395
216.120	811
216.187	-248
216.254	1472
216.321	786
216.388	1226
216.455	264
216.522	1781
216.589	212
216.656	1125
216.722	875
216.789	1769
216.856	857
216.923	1437
216.990	1571
217.057	1964
217.124	1255
217.191	760
217.258	1504
217.324	1386
217.391	1705
217.458	1134
217.525	1289
217.592	1507
217.659	-618
217.725	1135
217.792	1124
217.859	2114
217.926	221
217.993	1835
218.059	1075
218.126	1215
218.193	393
218.260	1253
218.327	-583
218.393	1142
218.460	429
218.527	137
218.594	829
218.660	1111
218.727	1193
218.794	821
218.860	1234
218.927	572
218.994	610
219.061	568
219.127	565
219.194	1756
219.261	1090
219.327	1398
219.394	1219
219.461	51
219.527	200
219.594	2146
219.661	275
219.727	656
219.794	2243
219.860	1593
219.927	2085
219.994	4790
220.060	4282
220.127	5372
220.193	4033
220.260	2492
220.326	3180
220.393	3257
220.460	2524
220.526	2938
220.593	1048
220.659	3030
220.726	1149
220.792	4153
220.859	3166
220.925	3855
220.992	3785
221.058	5057
221.125	4213
221.191	3700
221.258	870
221.324	1218
221.391	362
221.457	969
221.524	1288
221.590	1887
221.657	3570
221.723	2252
221.789	1625
221.856	2896
221.922	627
221.989	1596
222.055	1142
222.121	1188
222.188	2728
222.254	1773
222.321	1637
222.387	1710
222.453	1381
222.520	931
222.586	397
222.652	1463
222.719	696
222.785	1185
222.851	1185
222.918	873
222.984	1029
223.050	387
223.116	-510
223.183	2068
223.249	141
223.315	844
223.382	656
223.448	753
223.514	115
223.580	1233
223.647	63
223.713	929
223.779	350
223.845	972
223.911	257
223.978	120
224.044	26
224.110	780
224.176	578
224.242	632
224.309	-267
224.375	1455
224.441	461
224.507	494
224.573	-172
224.639	1819
224.705	189
224.772	1074
224.838	361
224.904	1160
224.970	406
225.036	405
225.102	-299
225.168	2296
225.234	1344
225.300	1789
225.366	141
225.432	2012
225.499	803
225.565	1031
225.631	757
225.697	1690
225.763	1346
225.829	2029
225.895	1134
225.961	2277
226.027	1848
226.093	1796
226.159	2742
226.225	4202
226.291	5729
226.357	8709
226.423	4739
226.489	3552
226.554	2214
226.620	2660
226.686	2030
226.752	4074
226.818	5344
226.884	12582
226.950	9813
227.016	5182
227.082	4598
227.148	2823
227.214	2448
227.279	3230
227.345	2917
227.411	5029
227.477	7284
227.543	7848
227.609	9890
227.674	9442
227.740	5390
227.806	4119
227.872	2840
227.938	3055
228.003	2376
228.069	1723
228.135	1043
228.201	2532
228.267	1143
228.332	1370
228.398	18
228.464	1146
228.530	-105
228.595	1700
228.661	27
228.727	1468
228.792	1913
228.858	1227
228.924	-633
228.990	2927
229.055	646
229.121	2434
229.187	327
229.252	1195
229.318	821
229.384	1045
229.449	1190
229.515	-783
229.581	-225
229.646	2796
229.712	1307
229.777	1615
229.843	969
229.909	1883
229.974	1182
230.040	1310
230.105	1586
230.171	91
230.236	1662
230.302	2050
230.368	816
230.433	1736
230.499	744
230.564	2463
230.630	1031
230.695	1761
230.761	1824
230.826	-136
230.892	2532
230.957	914
231.023	561
231.088	1082
231.154	445
231.219	1612
231.284	1130
231.350	1636
231.415	-92
231.481	1649
231.546	74
231.612	1267
231.677	847
231.742	-480
231.808	1846
231.873	642
231.939	-931
232.004	2269
232.069	1584
232.135	865
232.200	958
232.265	1521
232.331	1286
232.396	868
232.461	264
232.527	1138
232.592	-40
232.657	1485
232.723	977
232.788	829
232.853	457
232.918	1941
232.984	-181
233.049	827
233.114	-409
233.179	2428
233.245	2572
233.310	1351
233.375	158
233.440	1759
233.506	525
233.571	1250
233.636	716
233.701	1567
233.766	708
233.832	1594
233.897	404
233.962	706
234.027	1945
234.092	1459
234.157	294
234.222	2899
234.288	1345
234.353	1918
234.418	1103
234.483	2074
234.548	1151
234.613	2019
234.678	1670
234.743	1170
234.808	2905
234.873	1161
234.938	1399
235.004	790
235.069	548
235.134	1326
235.199	1701
235.264	1540
235.329	-594
235.394	2366
235.459	1814
235.524	677
235.589	1657
235.654	1100
235.719	-243
235.784	2018
235.849	713
235.913	1151
235.978	1960
236.043	1450
236.108	1427
236.173	1299
236.238	1941
236.303	1347
236.368	306
236.433	2617
236.498	2236
236.563	4039
236.627	5402
236.692	20400
236.757	15577
236.822	5909
236.887	2011
236.952	4217
237.017	1014
237.081	4214
237.146	3375
237.211	9817
237.276	18974
237.341	27888
237.405	11921
237.470	6205
237.535	3335
237.600	3393
237.664	3586
237.729	2238
237.794	946
237.859	5212
237.923	2816
237.988	2037
238.053	1832
238.118	1696
238.182	2909
238.247	3705
238.312	486
238.376	3186
238.441	-108
238.506	2631
238.570	-231
238.635	2961
238.700	1751
238.764	1485
238.829	2253
238.893	1447
238.958	2048
239.023	1774
239.087	2210
239.152	3667
239.216	1004
239.281	2892
239.346	2019
239.410	2289
239.475	1621
239.539	5110
239.604	2707
239.668	5527
239.733	7321
239.797	14999
239.862	17740
239.926	20159
239.991	11738
240.055	7173
240.120	4797
240.184	4338
240.249	2135
240.313	2230
240.378	1674
240.442	3913
240.507	2534
240.571	3169
240.635	1041
240.700	2270
240.764	2115
240.829	1793
240.893	810
240.957	1645
241.022	1677
241.086	2790
241.151	1200
241.215	562
241.279	1734
241.344	1902
241.408	2194
241.472	1281
241.537	1743
241.601	2434
241.665	323
241.730	569
241.794	1287
241.858	1598
241.922	849
241.987	1987
242.051	1411
242.115	466
242.179	1137
242.244	1732
242.308	2067
242.372	2250
242.436	883
242.501	2144
242.565	810
242.629	1195
242.693	2011
242.757	1678
242.822	1131
242.886	1927
242.950	2032
243.014	598
243.078	1109
243.142	1696
243.206	1126
243.271	2089
243.335	1085
243.399	3706
243.463	7452
243.527	20403
243.591	5475
243.655	2945
243.719	654
243.783	2883
243.847	2894
243.911	3743
243.975	2411
244.040	972
244.104	2428
244.168	2404
244.232	965
244.296	1966
244.360	2347
244.424	333
244.488	1059
244.552	2232
244.615	-423
244.679	2042
244.743	1538
244.807	464
244.871	1028
244.935	2066
244.999	-170
245.063	1927
245.127	1828
245.191	2708
245.255	1852
245.319	2185
245.383	11
245.446	3432
245.510	984
245.574	2073
245.638	1888
245.702	188
245.766	2954
245.829	2552
245.893	834
245.957	1513
246.021	2969
246.085	2047
246.149	1193
246.212	4353
246.276	3917
246.340	2622
246.404	2115
246.467	2631
246.531	-101
246.595	2692
246.659	2918
246.722	1727
246.786	1752
246.850	2818
246.913	1726
246.977	1176
247.041	1503
247.104	2622
247.168	1652
247.232	3548
247.295	5177
247.359	3869
247.423	886
247.486	3299
247.550	3299
247.614	1890
247.677	1537
247.741	2093
247.804	1973
247.868	4056
247.932	2014
247.995	7191
248.059	2028
248.122	968
248.186	2207
248.249	3422
248.313	9216
248.376	9908
248.440	5410
248.503	1538
248.567	2975
248.630	2469
248.694	2610
248.757	5521
248.821	10365
248.884	6326
248.948	4781
249.011	7958
249.075	11189
249.138	10360
249.202	3626
249.265	2803
249.328	3708
249.392	1782
249.455	3113
249.519	3370
249.582	2449
249.645	5088
249.709	3829
249.772	3309
249.835	3165
249.899	3142
249.962	3710
250.025	2795
250.089	4871
250.152	6292
250.215	3001
250.279	2356
250.342	2393
250.405	3115
250.468	2408
250.532	4205
250.595	6503
250.658	21200
250.721	32345
250.785	10214
250.848	6805
250.911	3980
250.974	3956
251.038	4963
251.101	6996
251.164	4208
251.227	5036
251.290	4899
251.354	8230
251.417	30948
251.480	26650
251.543	19086
251.606	52081
251.669	37505
251.732	12810
251.795	12086
251.859	12815
251.922	33118
251.985	16797
252.048	8768
252.111	4763
252.174	4197
252.237	7536
252.300	14057
252.363	15881
252.426	40934
252.489	14105
252.552	6026
252.615	4544
252.678	6361
252.741	11399
252.804	18054
252.867	41924
252.930	18830
252.993	7844
253.056	6341
253.119	3625
253.182	3905
253.245	4937
253.308	5100
253.371	2378
253.434	3461
253.497	3650
253.559	6918
253.622	3995
253.685	4250
253.748	2617
253.811	3290
253.874	3213
253.937	3363
254.000	1931
254.062	4912
254.125	6360
254.188	6498
254.251	4220
254.314	2935
254.376	3273
254.439	3377
254.502	2880
254.565	3335
254.628	7599
254.690	3323
254.753	2210
254.816	2900
254.878	2055
254.941	5488
255.004	4955
255.067	2848
255.129	1160
255.192	2609
255.255	482
255.317	2748
255.380	2144
255.443	2359
255.505	2198
255.568	2051
255.631	1847
255.693	4031
255.756	3254
255.819	4461
255.881	3320
255.944	3712
256.006	1801
256.069	2413
256.132	1888
256.194	2689
256.257	2625
256.319	2956
256.382	4934
256.444	8351
256.507	5869
256.569	3940
256.632	2535
256.694	3962
256.757	11830
256.819	33571
256.882	11549
256.944	5871
257.007	5255
257.069	3679
257.132	3498
257.194	4192
257.257	2666
257.319	3400
257.381	4159
257.444	10461
257.506	38687
257.569	35828
257.631	11327
257.693	6586
257.756	3902
257.818	3162
257.880	1736
257.943	3566
258.005	1589
258.067	3171
258.130	2835
258.192	3148
258.254	3090
258.317	3211
258.379	2855
258.441	3648
258.503	3340
258.566	3423
258.628	4724
258.690	2490
258.753	3068
258.815	3191
258.877	2530
258.939	3217
259.001	3043
259.064	2553
259.126	2471
259.188	2931
259.250	2141
259.312	4160
259.375	2800
259.437	2173
259.499	2910
259.561	3401
259.623	3082
259.685	2506
259.747	2468
259.809	4564
259.872	5156
259.934	8328
259.996	7947
260.058	4352
260.120	2154
260.182	3207
260.244	2095
260.306	2819
260.368	3423
260.430	1939
260.492	3249
260.554	6532
260.616	2017
260.678	5123
260.740	4108
260.802	2746
260.864	3093
260.926	2573
260.988	4296
261.050	2926
261.112	5438
261.174	8736
261.236	4049
261.298	3946
261.359	3530
261.421	4916
261.483	2849
261.545	3944
261.607	1242
261.669	3387
261.731	3651
261.793	5810
261.854	1913
261.916	3537
261.978	3385
262.040	4476
262.102	3271
262.164	3789
262.225	3497
262.287	3849
262.349	3345
262.411	2813
262.472	3490
262.534	3202
262.596	3150
262.658	4442
262.719	2495
262.781	3937
262.843	2768
262.904	4130
262.966	3827
263.028	4390
263.090	10702
263.151	21018
263.213	6935
263.275	4728
263.336	2978
263.398	4351
263.459	2417
263.521	3598
263.583	4518
263.644	3874
263.706	2335
263.767	2028
263.829	3192
263.891	2503
263.952	3120
264.014	2426
264.075	3478
264.137	5711
264.198	3973
264.260	3919
264.321	2771
264.383	3764
264.444	7737
264.506	3981
264.567	3456
264.629	6048
264.690	6395
264.752	2906
264.813	3894
264.875	2780
264.936	3676
264.998	3087
265.059	3984
265.120	5858
265.182	4499
265.243	17010
265.305	15653
265.366	6332
265.427	4068
265.489	5131
265.550	1968
265.611	4479
265.673	2515
265.734	3339
265.795	4133
265.857	3712
265.918	2677
265.979	7829
266.040	27803
266.102	20698
266.163	6003
266.224	5165
266.286	3273
266.347	3023
266.408	2985
266.469	3990
266.530	3489
266.592	2916
266.653	3504
266.714	4521
266.775	2365
266.836	3690
266.898	1479
266.959	4001
267.020	2153
267.081	3889
267.142	2397
267.203	3645
267.264	1605
267.326	4828
267.387	2992
267.448	2775
267.509	3151
267.570	2824
267.631	2126
267.692	2612
267.753	3497
267.814	2745
267.875	3167
267.936	5063
267.997	3609
268.058	2862
268.119	2090
268.180	3332
268.241	1553
268.302	2962
268.363	1936
268.424	2534
268.485	2773
268.546	3444
268.607	2355
268.668	2685
268.729	2454
268.790	3492
268.851	2566
268.912	3484
268.972	3410
269.033	2551
269.094	2164
269.155	3735
269.216	2406
269.277	3724
269.338	2159
269.398	3019
269.459	1124
269.520	3401
269.581	2360
269.642	3932
269.702	2135
269.763	3427
269.824	2726
269.885	3344
269.945	3014
270.006	3088
270.067	1951
270.128	3149
270.188	1616
270.249	2948
270.310	1799
270.370	4015
270.431	3119
270.492	2635
270.553	2834
270.613	3238
270.674	3721
270.734	2455
270.795	2423
270.856	3262
270.916	2946
270.977	3188
271.038	3229
271.098	3547
271.159	3507
271.219	2385
271.280	2998
271.340	3218
271.401	2626
271.462	2871
271.522	3107
271.583	2989
271.643	1731
271.704	3125
271.764	3294
271.825	5060
271.885	9938
271.946	11877
272.006	4913
272.066	8267
272.127	12688
272.187	17299
272.248	8516
272.308	5345
272.369	8764
272.429	6201
272.489	3986
272.550	4250
272.610	4652
272.671	4515
272.731	3840
272.791	4281
272.852	3606
272.912	4121
272.972	2935
273.033	4130
273.093	2788
273.153	4579
273.214	3322
273.274	4125
273.334	6616
273.394	9255
273.455	4212
273.515	5874
273.575	6866
273.635	5173
273.696	6450
273.756	9215
273.816	4778
273.876	3940
273.936	4920
273.997	5707
274.057	3409
274.117	3153
274.177	5130
274.237	10773
274.297	7867
274.358	6114
274.418	7292
274.478	5442
274.538	3841
274.598	3089
274.658	5832
274.718	5717
274.778	3640
274.838	3928
274.898	4542
274.958	6825
275.018	9195
275.078	7069
275.138	4188
275.198	4132
275.258	3576
275.318	3847
275.378	3134
275.438	4237
275.498	3514
275.558	5386
275.618	6937
275.678	6648
275.738	6346
275.798	5363
275.858	3302
275.918	3665
275.978	3715
276.038	5066
276.098	4374
276.157	5004
276.217	6838
276.277	4445
276.337	3476
276.397	4235
276.457	4164
276.517	4361
276.576	3328
276.636	4455
276.696	4285
276.756	5491
276.815	3876
276.875	5194
276.935	3999
276.995	4446
277.055	5347
277.114	5574
277.174	4961
277.234	5875
277.293	4737
277.353	3912
277.413	3406
277.472	4141
277.532	2839
277.592	5069
277.651	11471
277.711	15771
277.771	7846
277.830	19523
277.890	12610
277.950	14345
278.009	29707
278.069	12795
278.128	15008
278.188	16605
278.248	9741
278.307	20890
278.367	11470
278.426	7397
278.486	4856
278.545	4762
278.605	4810
278.664	4967
278.724	4340
278.783	7070
278.843	10506
278.902	5379
278.962	3991
279.021	5764
279.081	6260
279.140	6082
279.199	5118
279.259	6259
279.318	6935
279.378	8427
279.437	9892
279.496	23692
279.556	67423
279.615	45646
279.675	15420
279.734	11470
279.793	11605
279.853	15126
279.912	9024
279.971	7963
280.031	6639
280.090	10298
280.149	11896
280.208	13155
280.268	47698
280.327	41058
280.386	12100
280.445	9875
280.505	5919
280.564	7087
280.623	5394
280.682	7155
280.742	6868
280.801	4605
280.860	4073
280.919	4660
280.978	3783
281.037	4485
281.097	3692
281.156	5706
281.215	4553
281.274	5068
281.333	7868
281.392	6190
281.451	2524
281.510	4590
281.569	3633
281.628	4014
281.688	3872
281.747	4253
281.806	3798
281.865	5361
281.924	3406
281.983	4070
282.042	3704
282.101	4139
282.160	3593
282.219	5510
282.278	3835
282.337	5470
282.396	3535
282.454	5367
282.513	4087
282.572	6582
282.631	3615
282.690	5089
282.749	2509
282.808	4626
282.867	4402
282.926	4082
282.985	3521
283.043	4856
283.102	3721
283.161	5093
283.220	5998
283.279	7602
283.338	4306
283.396	4129
283.455	3918
283.514	4444
283.573	4953
283.631	5643
283.690	3892
283.749	4566
283.808	5416
283.866	5481
283.925	3941
283.984	5428
284.043	4764
284.101	5269
284.160	4416
284.219	6205
284.277	5440
284.336	4918
284.395	7528
284.453	6586
284.512	6121
284.570	5343
284.629	5266
284.688	7255
284.746	7601
284.805	9508
284.863	9385
284.922	12225
284.981	15009
285.039	21427
285.098	33372
285.156	63809
285.215	79188
285.273	85782
285.332	62076
285.390	34816
285.449	22425
285.507	17753
285.566	12032
285.624	12194
285.683	9730
285.741	9198
285.799	7512
285.858	7121
285.916	7045
285.975	6314
286.033	4845
286.091	5140
286.150	5209
286.208	5936
286.267	5400
286.325	5318
286.383	5278
286.442	5962
286.500	5018
286.558	5200
286.616	3890
286.675	5888
286.733	4826
286.791	3915
286.850	4503
286.908	5773
286.966	5120
287.024	5468
287.083	4377
287.141	4915
287.199	4692
287.257	6108
287.315	4609
287.374	4889
287.432	4854
287.490	4945
287.548	4627
287.606	5183
287.664	5283
287.723	6032
287.781	4545
287.839	5626
287.897	5815
287.955	7604
288.013	8285
288.071	13395
288.129	38228
288.187	86047
288.245	37700
288.303	15711
288.361	9815
288.419	8265
288.477	6829
288.535	6421
288.593	5771
288.651	5505
288.709	5211
288.767	5568
288.825	4105
288.883	5737
288.941	4447
288.999	4707
289.057	4839
289.115	5105
289.173	4608
289.231	4311
289.289	3794
289.346	4378
289.404	4805
289.462	5300
289.520	5068
289.578	4463
289.636	3821
289.694	5557
289.751	4299
289.809	4714
289.867	4703
289.925	5626
289.983	4881
290.040	5541
290.098	4081
290.156	4644
290.214	4022
290.271	3944
290.329	5125
290.387	5416
290.444	4648
290.502	5926
290.560	5296
290.617	5092
290.675	4463
290.733	4334
290.790	3551
290.848	5778
290.906	4536
290.963	4885
291.021	4251
291.078	5425
291.136	4673
291.194	6683
291.251	6858
291.309	5342
291.366	5198
291.424	4649
291.481	4416
291.539	5323
291.596	5044
291.654	5274
291.711	5643
291.769	5597
291.826	5025
291.884	5734
291.941	4228
291.999	4786
292.056	4660
292.114	4161
292.171	4661
292.228	5918
292.286	5104
292.343	5769
292.401	4983
292.458	5814
292.515	5140
292.573	6621
292.630	4946
292.687	5381
292.745	3749
292.802	4501
292.859	6514
292.917	7698
292.974	5119
293.031	5763
293.089	4392
293.146	4503
293.203	4842
293.260	4735
293.318	4569
293.375	5239
293.432	4170
293.489	5766
293.546	4806
293.604	5446
293.661	6446
293.718	11208
293.775	7540
293.832	6558
293.889	5871
293.947	6849
294.004	4771
294.061	5019
294.118	6354
294.175	8481
294.232	10201
294.289	6931
294.346	6141
294.403	6188
294.460	5174
294.517	6043
294.574	4375
294.631	4633
294.688	4774
294.745	6643
294.802	13288
294.859	13288
294.916	6991
294.973	5346
295.030	4909
295.087	5456
295.144	4132
295.201	5453
295.258	4598
295.315	5644
295.372	7254
295.429	9064
295.486	5487
295.542	6231
295.599	8209
295.656	11777
295.713	8372
295.770	9918
295.827	5462
295.883	5167
295.940	5016
295.997	4984
296.054	5032
296.111	4482
296.167	4915
296.224	4094
296.281	3744
296.338	4547
296.394	4519
296.451	5522
296.508	6129
296.564	6744
296.621	6682
296.678	11730
296.734	12844
296.791	7369
296.848	5372
296.904	4940
296.961	6256
297.018	10175
297.074	6886
297.131	6125
297.187	4983
297.244	5994
297.301	10636
297.357	15492
297.414	7066
297.470	5956
297.527	4499
297.583	4782
297.640	4672
297.696	4438
297.753	4847
297.809	5187
297.866	4339
297.922	4763
297.979	3865
298.035	4715
298.092	4391
298.148	7102
298.204	6274
298.261	5707
298.317	8041
298.374	12749
298.430	8137
298.486	4922
298.543	5574
298.599	5627
298.656	5069
298.712	6418
298.768	10792
298.824	8210
298.881	5199
298.937	5927
298.993	5058
299.050	5611
299.106	5534
299.162	5400
299.218	5339
299.275	5908
299.331	5577
299.387	8519
299.443	16372
299.500	31116
299.556	21772
299.612	11927
299.668	11593
299.724	26691
299.780	27666
299.837	13634
299.893	11208
299.949	24510
300.005	28924
300.061	25323
300.117	34022
300.173	17459
300.229	8473
300.285	8708
300.341	7922
300.397	6978
300.453	6029
300.510	6864
300.566	8278
300.622	14988
300.678	39199
300.734	44781
300.790	22486
300.845	18413
300.901	25874
300.957	32343
301.013	15960
301.069	9035
301.125	7654
301.181	5170
301.237	5921
301.293	5697
301.349	5335
301.405	5885
301.461	5689
301.516	5686
301.572	4414
301.628	5409
301.684	4684
301.740	5702
301.796	6999
301.851	6249
301.907	6214
301.963	6349
302.019	10069
302.074	24050
302.130	20638
302.186	12375
302.242	7672
302.297	6027
302.353	5216
302.409	6948
302.464	5871
302.520	6869
302.576	9270
302.631	10244
302.687	6117
302.743	4769
302.798	4480
302.854	5168
302.910	4637
302.965	5268
303.021	5329
303.076	5809
303.132	4645
303.187	5856
303.243	4547
303.299	4844
303.354	3560
303.410	5450
303.465	4293
303.521	4783
303.576	4318
303.632	5064
303.687	5175
303.743	10427
303.798	8869
303.853	5803
303.909	4457
303.964	4303
304.020	4293
304.075	4927
304.130	4981
304.186	4886
304.241	6982
304.297	6504
304.352	4248
304.358	4297
304.407	4698
304.449	4367
304.463	4257
304.518	5017
304.539	4608
304.573	3948
304.629	5218
304.630	5200
304.684	4570
304.720	7300
304.739	8610
304.794	10470
304.811	9612
304.850	7532
304.902	5102
304.905	4949
304.960	5102
304.992	4528
305.015	4087
305.071	5229
305.083	4873
305.126	3623
305.173	4647
305.181	4829
305.236	4190
305.264	4411
305.292	4589
305.347	4342
305.354	4419
305.402	5087
305.445	5116
305.457	5069
305.512	5250
305.535	4982
305.567	4746
305.622	5058
305.626	5087
305.678	6186
305.716	9375
305.733	10351
305.788	9583
305.807	8890
305.843	8332
305.897	10929
305.898	10945
305.953	10039
305.988	7279
306.008	5980
306.063	5430
306.078	5243
306.118	4836
306.168	4125
306.173	4079
306.228	4147
306.259	4451
306.283	4639
306.338	4012
306.349	4152
306.393	4863
306.440	5255
306.448	5318
306.503	5006
306.530	5131
306.558	5569
306.613	7099
306.620	7301
306.668	8454
306.711	9434
306.723	9350
306.778	6990
306.801	6280
306.833	5801
306.888	5446
306.892	5398
306.943	4986
306.982	4454
306.997	4284
307.052	4225
307.072	4158
307.107	4465
307.162	5856
307.163	5856
307.217	6112
307.253	6781
307.272	6857
307.327	6038
307.343	5948
307.381	6070
307.434	5553
307.436	5613
307.491	8554
307.524	9953
307.546	9705
307.600	8603
307.614	8021
307.655	6758
307.704	6120
307.710	6225
307.765	6678
307.795	7733
307.819	8518
307.874	10409
307.885	10585
307.929	10412
307.975	10756
307.984	11541
308.038	16955
308.065	19970
308.093	34977
308.148	72005
308.156	79170
308.202	103466
308.246	114905
308.257	109492
308.312	57154
308.336	36381
308.366	27067
308.421	15705
308.426	14922
308.475	12518
308.517	9560
308.530	8733
308.585	8572
308.607	8114
308.639	8277
308.694	9397
308.697	9429
308.748	11834
308.787	14400
308.803	14130
308.857	11201
308.877	10442
308.912	11339
308.967	12900
308.967	12920
309.021	17933
309.058	21182
309.076	26928
309.130	46538
309.148	53813
309.185	97066
309.238	168129
309.239	168393
309.293	159438
309.328	138858
309.348	119334
309.402	59004
309.418	43441
309.457	32425
309.508	21678
309.511	21495
309.566	20355
309.598	19741
309.620	21127
309.674	26369
309.688	27478
309.729	25523
309.778	22301
309.783	21934
309.837	16775
309.868	14197
309.892	14457
309.946	15212
309.959	15527
310.001	16235
310.049	16172
310.055	15702
310.109	11789
310.139	9110
310.163	8105
310.218	7003
310.229	6667
310.272	6932
310.319	7650
310.326	7616
310.381	6862
310.409	6785
310.435	6771
310.489	6058
310.499	6002
310.543	6278
310.589	6368
310.598	6386
310.652	6710
310.679	6659
310.706	6368
310.760	6235
310.769	6116
310.814	6521
310.859	7368
310.868	7376
310.923	6938
310.948	6808
310.977	6856
311.031	6856
311.038	6857
311.085	6660
311.128	6325
311.139	6378
311.193	6687
311.218	6760
311.247	6925
311.301	7435
311.308	7449
311.356	6844
311.398	6497
311.410	6554
311.464	6567
311.488	6611
311.518	6778
311.572	6987
311.578	7004
311.626	6530
311.668	6086
311.680	6277
311.734	7073
311.758	7404
311.788	7540
311.842	7786
311.847	7795
311.896	8717
311.937	9537
311.950	9333
312.004	8280
312.027	7826
312.058	7575
312.112	7088
312.117	7025
312.165	7327
312.207	7564
312.297	7304
312.386	7575
312.476	6937
312.566	8238
312.656	7585
312.745	6794
312.835	8541
312.925	8667
313.015	8236
313.104	8563
313.194	8734
313.284	8520
313.374	10298
313.463	10490
313.553	10705
313.643	9801
313.732	10876
313.822	11887
313.912	11941
314.001	12265
314.091	14101
314.180	14388
314.270	15315
314.360	13549
314.449	13070
314.539	12711
314.628	13633
314.718	13900
314.808	14698
314.897	14285
314.987	15567
315.076	16537
315.166	16202
315.255	15541
315.345	16528
315.434	15475
315.524	16214
315.613	17780
315.703	23669
315.792	67847
315.881	173669
315.971	48552
316.060	21999
316.150	20042
316.239	18641
316.328	15141
316.418	15745
316.507	15987
316.597	18807
316.686	19329
316.775	19918
316.865	19965
316.954	13900
317.043	13962
317.133	12758
317.222	11635
317.311	11050
317.400	11714
317.490	14190
317.579	14461
317.668	17151
317.757	30494
317.847	109424
317.936	246834
318.025	73691
318.114	72684
318.203	30628
318.293	20281
318.382	31432
318.471	28233
318.560	30799
318.649	37181
318.738	15176
318.828	12515
318.917	10712
319.006	12265
319.095	18082
319.184	37026
319.273	17779
319.362	12215
319.451	9884
319.540	10204
319.629	11642
319.718	13299
319.807	12792
319.896	18896
319.985	44238
320.074	17489
320.163	12555
320.252	14401
320.341	14203
320.430	13346
320.519	14659
320.608	15568
320.697	17774
320.786	19333
320.875	21066
320.964	21912
321.053	23970
321.142	26019
321.230	29441
321.319	30544
321.408	37093
321.497	30734
321.586	29460
321.675	27242
321.764	28337
321.852	25771
321.941	28660
322.030	27348
322.119	31060
322.207	37198
322.296	40487
322.385	40186
322.474	42227
322.562	44790
322.651	34039
322.740	28749
322.829	27463
322.917	26407
323.006	21870
323.095	19446
323.183	19672
323.272	19961
323.361	23447
323.449	38358
323.538	20377
323.626	30724
323.715	20128
323.804	15846
323.892	26107
323.981	16046
324.069	13266
324.158	20733
324.246	17084
324.335	12521
324.424	13258
324.512	11240
324.601	12852
324.689	13017
324.778	15462
324.866	14071
324.954	10128
325.043	10654
325.131	12066
325.220	16152
325.308	14690
325.397	13217
325.485	10403
325.574	9300
325.662	9955
325.750	9018
325.839	9472
325.927	9673
326.015	10259
326.104	10973
326.192	11717
326.280	9948
326.369	8512
326.457	9685
326.545	10432
326.634	9532
326.722	9089
326.810	9654
326.898	11608
326.987	12347
327.075	12056
327.163	12023
327.251	11327
327.340	12798
327.428	16570
327.516	18085
327.604	14075
327.692	12294
327.781	11801
327.869	11125
327.957	8428
328.045	8900
328.133	9409
328.221	8330
328.309	8620
328.397	9309
328.485	11507
328.574	17231
328.662	24719
328.750	17437
328.838	12393
328.926	10091
329.014	9011
329.102	9018
329.190	12929
329.278	9553
329.366	9064
329.454	7569
329.542	7834
329.630	7541
329.718	8113
329.806	8895
329.893	9213
329.981	8532
330.069	9887
330.157	18399
330.245	30135
330.333	16095
330.421	8912
330.509	8702
330.597	12249
330.684	11047
330.772	10261
330.860	11125
330.948	11733
331.036	8974
331.123	7651
331.211	8779
331.299	9387
331.387	14507
331.475	13736
331.562	10280
331.650	8921
331.738	9038
331.825	10077
331.913	8898
332.001	8547
332.089	10043
332.176	11784
332.264	16699
332.352	12848
332.439	9980
332.527	10331
332.614	8602
332.702	9746
332.790	9629
332.877	13305
332.965	17036
333.052	12193
333.140	13553
333.228	18684
333.315	12413
333.403	12276
333.490	16066
333.578	16271
333.665	24091
333.753	18702
333.840	15576
333.928	18544
334.015	23963
334.103	35525
334.190	61677
334.278	45702
334.365	50381
334.452	47087
334.540	38501
334.627	40335
334.715	51311
334.802	72960
334.889	124999
334.977	123109
335.064	68905
335.151	43639
335.239	33113
335.326	30496
335.413	48305
335.501	48135
335.588	33856
335.675	37917
335.762	47186
335.850	63074
335.937	86114
336.024	127916
336.111	180778
336.199	127746
336.286	69605
336.373	44169
336.460	31586
336.547	25973
336.635	22895
336.722	19142
336.809	17651
336.896	17655
336.983	25354
337.070	40591
337.157	50615
337.245	36260
337.332	26179
337.419	15449
337.506	15313
337.593	15815
337.680	22542
337.767	33587
337.854	16972
337.941	16877
338.028	16817
338.115	12773
338.202	15308
338.289	19052
338.376	29373
338.463	16557
338.550	25313
338.637	21665
338.724	14463
338.811	14171
338.898	10233
338.984	11015
339.071	10963
339.158	10499
339.245	12873
339.332	10975
339.419	12920
339.506	12419
339.593	9550
339.679	9727
339.766	10014
339.853	10378
339.940	11747
340.027	9596
340.113	9682
340.200	9682
340.287	9091
340.374	9444
340.460	10374
340.547	8623
340.634	10443
340.720	14411
340.807	10181
340.894	9445
340.980	9531
341.067	9647
341.154	9965
341.240	9715
341.327	11236
341.414	10715
341.500	9638
341.587	9982
341.674	8944
341.760	10751
341.847	10781
341.933	9381
342.020	8847
342.106	8958
342.193	9950
342.279	9715
342.366	9471
342.452	10171
342.539	9152
342.625	11258
342.712	13325
342.798	10099
342.885	8731
342.971	7941
343.058	8889
343.144	8895
343.230	8774
343.317	9301
343.403	9032
343.490	8817
343.576	9132
343.662	10064
343.749	9302
343.835	10240
343.921	12187
344.008	37718
344.094	57300
344.180	16111
344.267	11296
344.353	18986
344.439	16384
344.525	11114
344.612	12675
344.698	12684
344.784	9308
344.870	9173
344.957	8279
345.043	9837
345.129	9388
345.215	10771
345.301	9046
345.387	9008
345.474	8068
345.560	9383
345.646	8524
345.732	9867
345.818	8798
345.904	9313
345.990	9097
346.076	9771
346.162	10349
346.249	9557
346.335	7926
346.421	10023
346.507	14744
346.593	23361
346.679	10589
346.765	13181
346.851	20626
346.937	15436
347.023	11514
347.108	10169
347.194	10004
347.280	11447
347.366	15978
347.452	38690
347.538	54407
347.624	29806
347.710	18912
347.796	11976
347.882	10891
347.967	10348
348.053	10367
348.139	9885
348.225	9862
348.311	9503
348.397	9312
348.482	10808
348.568	13641
348.654	20262
348.740	51462
348.825	51892
348.911	24450
348.997	24008
349.083	27967
349.168	11894
349.254	11078
349.340	10077
349.425	10257
349.511	11837
349.597	10869
349.682	12284
349.768	17642
349.854	12745
349.939	10928
350.025	10513
350.110	10119
350.196	9323
350.282	9224
350.367	10623
350.453	10377
350.538	9785
350.624	9653
350.709	10076
350.795	8271
350.880	9601
350.966	10496
351.051	11169
351.137	9369
351.222	10173
351.308	11774
351.393	15022
351.479	9747
351.564	8580
351.649	9148
351.735	9501
351.820	8881
351.906	9838
351.991	9365
352.076	13490
352.162	13228
352.247	10093
352.332	8965
352.418	9522
352.503	11003
352.588	17930
352.673	13275
352.759	10021
352.844	9039
352.929	9537
353.014	8815
353.100	10172
353.185	9702
353.270	10790
353.355	10103
353.441	9933
353.526	9071
353.611	10283
353.696	8862
353.781	10981
353.866	8011
353.952	9998
354.037	9831
354.122	12431
354.207	11640
354.292	9437
354.377	8773
354.462	9344
354.547	9108
354.632	10745
354.717	10206
354.802	9143
354.887	8771
354.972	9520
355.057	9308
355.142	9274
355.227	9836
355.312	9600
355.397	11738
355.482	14369
355.567	11706
355.652	11839
355.737	12503
355.822	19379
355.907	15517
355.991	11053
356.076	8461
356.161	9845
356.246	9865
356.331	11043
356.416	13568
356.501	36017
356.585	28793
356.670	12514
356.755	12515
356.840	12695
356.924	30228
357.009	64044
357.094	24869
357.179	11973
357.263	11057
357.348	11798
357.433	11607
357.517	11804
357.602	10749
357.687	11202
357.771	13845
357.856	23805
357.941	18057
358.025	29385
358.110	76523
358.195	32973
358.279	13456
358.364	14217
358.448	18157
358.533	27657
358.617	21191
358.702	21653
358.787	13729
358.871	12294
358.956	12491
359.040	11662
359.125	10832
359.209	12224
359.294	19827
359.378	29782
359.462	18392
359.547	12182
359.631	10974
359.716	10683
359.800	10960
359.885	12989
359.969	9859
360.053	10895
360.138	10976
360.222	11907
360.306	12129
360.391	12146
360.475	16771
360.559	22243
360.644	16755
360.728	14426
360.812	26517
360.896	45956
360.981	22393
361.065	16234
361.149	13428
361.233	13443
361.318	13257
361.402	14006
361.486	15069
361.570	14876
361.654	16255
361.739	19354
361.823	41711
361.907	52132
361.991	27592
362.075	30323
362.159	44403
362.243	79939
362.327	152577
362.411	165623
362.495	73900
362.580	47078
362.664	46095
362.748	57266
362.832	93328
362.916	180118
363.000	349411
363.084	368137
363.168	177732
363.252	69173
363.336	44087
363.420	39334
363.503	56988
363.587	54210
363.671	30340
363.755	29614
363.839	36447
363.923	38639
364.007	51736
364.091	71838
364.175	121761
364.258	250721
364.342	426918
364.426	517532
364.510	283133
364.594	115447
364.677	67055
364.761	69990
364.845	47848
364.929	28070
365.013	22985
365.096	21401
365.180	20679
365.264	32455
365.347	59272
365.431	29772
365.515	16455
365.598	15277
365.682	16692
365.766	17800
365.849	17437
365.933	15910
366.017	17787
366.100	15762
366.184	14701
366.267	15258
366.351	14243
366.435	12938
366.518	14142
366.602	13794
366.685	14194
366.769	14508
366.852	16440
366.936	17798
367.019	14424
367.103	15537
367.186	18498
367.270	15028
367.353	14787
367.436	16276
367.520	15687
367.603	16936
367.687	16305
367.770	15887
367.853	16288
367.937	22154
368.020	23792
368.104	14442
368.187	14804
368.270	14282
368.353	13665
368.437	16346
368.520	23621
368.603	17061
368.687	18091
368.770	22399
368.853	13955
368.936	15316
369.020	15253
369.103	11341
369.186	11823
369.269	11457
369.352	12698
369.436	12320
369.519	12190
369.602	10679
369.685	12485
369.768	10322
369.851	12516
369.934	11617
370.018	11029
370.101	11043
370.184	14350
370.267	14007
370.350	14736
370.433	19625
370.516	54214
370.599	104959
370.682	43649
370.765	21656
370.848	23885
370.931	29181
371.014	17618
371.097	11399
371.180	12086
371.263	11946
371.346	10810
371.429	11060
371.511	9860
371.594	12599
371.677	14240
371.760	17079
371.843	16094
371.926	38492
372.009	60018
372.091	26103
372.174	20424
372.257	32510
372.340	18846
372.423	18986
372.505	19331
372.588	13537
372.671	17871
372.754	27023
372.836	19547
372.919	24285
373.002	32524
373.085	15965
373.167	15342
373.250	20155
373.332	31935
373.415	52562
373.498	84747
373.580	64926
373.663	163474
373.746	137489
373.828	32316
373.911	20434
373.993	20929
374.076	37859
374.159	31884
374.241	20499
374.324	27354
374.406	24494
374.489	38284
374.571	66019
374.654	31709
374.736	27857
374.819	48716
374.901	67749
374.983	60942
375.066	23084
375.148	21311
375.231	38071
375.313	49407
375.395	27484
375.478	19483
375.560	19155
375.643	20037
375.725	29217
375.807	58391
375.890	45426
375.972	24631
376.054	21471
376.136	24242
376.219	18005
376.301	27278
376.383	42454
376.465	22606
376.548	16930
376.630	21530
376.712	35981
376.794	19892
376.877	12705
376.959	11971
377.041	13316
377.123	15268
377.205	15628
377.287	12249
377.369	13389
377.452	12880
377.534	12983
377.616	12345
377.698	11898
377.780	11667
377.862	12417
377.944	13797
378.026	12097
378.108	12816
378.190	11599
378.272	12536
378.354	11421
378.436	11571
378.518	13576
378.600	17801
378.682	16434
378.764	19855
378.846	17267
378.928	12632
379.010	12502
379.091	12552
379.173	12402
379.255	11723
379.337	11973
379.419	16971
379.501	23739
379.583	15259
379.664	12623
379.746	13172
379.828	20119
379.910	21394
379.991	20425
380.073	12402
380.155	12030
380.237	11757
380.318	12357
380.400	11961
380.482	12992
380.564	13222
380.645	13615
380.727	12911
380.809	12458
380.890	12552
380.972	10879
381.053	12236
381.135	13306
381.217	15230
381.298	21069
381.380	15543
381.461	17655
381.543	38108
381.624	38111
381.706	15686
381.787	15092
381.869	16014
381.951	29423
382.032	65779
382.113	41256
382.195	15898
382.276	18158
382.358	21728
382.439	35943
382.521	46292
382.602	61085
382.684	36884
382.765	52569
382.846	81481
382.928	119371
383.009	72438
383.090	80222
383.172	208854
383.253	231272
383.334	84596
383.416	60875
383.497	41772
383.578	39491
383.659	74980
383.741	215904
383.822	368986
383.903	174025
383.984	61154
384.066	61298
384.147	40939
384.228	28322
384.309	27577
384.390	28876
384.471	26290
384.553	24276
384.634	23209
384.715	22888
384.796	19520
384.877	21962
384.958	28920
385.039	27505
385.120	20845
385.201	19350
385.282	22085
385.363	25016
385.444	25424
385.525	28905
385.606	40588
385.687	36666
385.768	26635
385.849	27527
385.930	49541
386.011	63173
386.092	32262
386.173	27346
386.254	24683
386.335	24506
386.416	24230
386.496	28013
386.577	29871
386.658	25246
386.739	24985
386.820	26926
386.901	27444
386.981	30021
387.062	30481
387.143	35046
387.224	39293
387.304	41331
387.385	38639
387.466	37431
387.547	39909
387.627	39924
387.708	43634
387.789	56015
387.869	54118
387.950	39276
388.031	32425
388.111	32125
388.192	37519
388.273	39991
388.353	32022
388.434	24071
388.514	26827
388.595	44784
388.676	44265
388.756	29011
388.837	26188
388.917	22333
388.998	18841
389.078	20743
389.159	19720
389.239	18221
389.320	21109
389.400	18220
389.480	22736
389.561	27887
389.641	21789
389.722	20069
389.802	20091
389.883	24380
389.963	32378
390.043	26233
390.124	19588
390.204	22633
390.284	26677
390.365	24925
390.445	37735
390.525	66083
390.605	51677
390.686	24453
390.766	21441
390.846	21998
390.927	19884
391.007	21105
391.087	22143
391.167	22315
391.247	21826
391.328	25481
391.408	26446
391.488	27078
391.568	23835
391.648	26240
391.728	28482
391.808	30011
391.888	31055
391.969	35794
392.049	39103
392.129	38758
392.209	42225
392.289	52323
392.369	50821
392.449	55551
392.529	57309
392.609	62504
392.689	73236
392.769	92167
392.849	109608
392.929	140674
393.009	196084
393.089	280989
393.169	466230
393.248	786331
393.328	1033969
393.408	1009035
393.488	705465
393.568	381719
393.648	222084
393.728	148853
393.807	106397
393.887	86766
393.967	70998
394.047	60359
394.127	53896
394.206	60945
394.286	117419
394.366	299052
394.446	273278
394.525	85291
394.605	44247
394.685	41023
394.764	52524
394.844	85822
394.924	86703
395.003	42720
395.083	32643
395.163	30724
395.242	29403
395.322	30095
395.402	28470
395.481	35367
395.561	52091
395.640	121551
395.720	179638
395.799	114973
395.879	65575
395.958	63142
396.038	147979
396.117	375385
396.197	364122
396.276	140831
396.356	91196
396.435	101882
396.515	126746
396.594	193812
396.673	363411
396.753	700681
396.832	958884
396.912	791036
396.991	390118
397.070	192875
397.150	120017
397.229	106033
397.308	171795
397.388	248118
397.467	126424
397.546	55627
397.625	40203
397.705	38535
397.784	32555
397.863	30257
397.942	28225
398.022	26869
398.101	32680
398.180	46293
398.259	30024
398.338	23407
398.417	20266
398.497	19210
398.576	20105
398.655	18170
398.734	18396
398.813	18436
398.892	26040
398.971	42532
399.050	26577
399.129	15268
399.208	15848
399.287	16163
399.366	14420
399.445	15248
399.524	14859
399.603	12501
399.682	15829
399.761	23149
399.840	43374
399.919	33941
399.998	14420
400.077	12444
400.156	11074
400.235	15345
400.313	12875
400.392	12403
400.471	17049
400.550	17796
400.629	12089
400.708	12969
400.786	12342
400.865	15683
400.944	15073
401.023	14309
401.102	10269
401.180	11593
401.259	10243
401.338	10644
401.416	11466
401.495	10233
401.574	11518
401.652	9359
401.731	11570
401.810	9189
401.888	9518
401.967	9336
402.046	10278
402.124	10490
402.203	9937
402.281	10746
402.360	10039
402.438	16191
402.517	13257
402.596	10765
402.674	9949
402.753	10170
402.831	11109
402.910	11787
402.988	13999
403.066	19524
403.145	16152
403.223	16139
403.302	18423
403.380	18074
403.459	16520
403.537	14046
403.615	12908
403.694	11595
403.772	12866
403.850	12951
403.929	11220
404.007	11165
404.085	13254
404.164	11373
404.242	12680
404.320	23091
404.398	41579
404.477	38100
404.555	49545
404.633	42905
404.711	31926
404.789	21658
404.868	10764
404.946	10485
405.024	9504
405.102	8997
405.180	8330
405.258	8742
405.336	9049
405.415	9248
405.493	11655
405.571	10856
405.649	8482
405.727	9424
405.805	12812
405.883	11854
405.961	13298
406.039	10828
406.117	8629
406.195	11717
406.273	15639
406.351	31721
406.429	21515
406.507	10598
406.585	8498
406.663	9898
406.740	8895
406.818	9428
406.896	9428
406.974	9961
407.052	10671
407.130	23293
407.208	25492
407.285	12750
407.363	9461
407.441	9818
407.519	10349
407.596	13253
407.674	35449
407.752	84285
407.830	55238
407.907	17454
407.985	11268
408.063	9511
408.141	9715
408.218	11476
408.296	9800
408.373	11256
408.451	12714
408.529	12545
408.606	11699
408.684	13963
408.762	13076
408.839	14826
408.917	14614
408.994	17230
409.072	18967
409.149	24711
409.227	35966
409.304	47549
409.382	54984
409.459	62835
409.537	73604
409.614	71816
409.692	61510
409.769	62366
409.846	78010
409.924	87673
410.001	74164
410.079	56532
410.156	43805
410.233	35592
410.311	29138
410.388	25324
410.465	24514
410.543	22812
410.620	21070
410.697	18659
410.775	17864
410.852	18026
410.929	18883
411.006	20223
411.083	18316
411.161	18944
411.238	18446
411.315	17029
411.392	15400
411.469	15597
411.547	14455
411.624	12720
411.701	12973
411.778	12577
411.855	13431
411.932	11277
412.009	11357
412.086	12768
412.163	12071
412.240	11329
412.317	12417
412.394	11716
412.471	11443
412.548	9825
412.625	9955
412.702	11104
412.779	11715
412.856	9806
412.933	8408
413.010	9766
413.087	9655
413.164	12538
413.241	13453
413.318	10357
413.395	9305
413.471	9945
413.548	9408
413.625	9205
413.702	8045
413.779	9632
413.855	7793
413.932	7893
414.009	7756
414.086	8174
414.162	8429
414.239	9501
414.316	12840
414.393	16650
414.469	8987
414.546	7866
414.623	8201
414.699	7628
414.776	7702
414.853	7349
414.929	8710
415.006	8485
415.082	8278
415.159	7931
415.236	7602
415.312	7621
415.389	7977
415.465	7595
415.542	7565
415.618	7727
415.695	8213
415.771	7988
415.848	7697
415.924	8040
416.000	7773
416.077	8602
416.153	7209
416.230	7655
416.306	7262
416.383	7238
416.459	8147
416.535	7813
416.612	7637
416.688	7860
416.764	7786
416.841	7662
416.917	7442
416.993	8350
417.069	8433
417.146	8416
417.222	9157
417.298	7781
417.374	6397
417.451	8112
417.527	7545
417.603	7982
417.679	8270
417.755	8196
417.831	7460
417.908	8393
417.984	7843
418.060	7996
418.136	9667
418.212	8480
418.288	7952
418.364	8450
418.440	7880
418.516	9920
418.592	9875
418.668	10647
418.744	9206
418.820	10215
418.896	9500
418.972	8525
419.048	8788
419.124	11380
419.200	8667
419.276	9920
419.352	8983
419.428	10158
419.504	10157
419.579	10708
419.655	10850
419.731	12041
419.807	13643
419.883	13950
419.959	13481
420.034	13154
420.110	14603
420.186	17751
420.262	17544
420.337	16112
420.413	15755
420.489	16001
420.565	18104
420.640	17870
420.716	19732
420.792	19311
420.867	21417
420.943	20577
421.019	23672
421.094	24746
421.170	26292
421.245	28328
421.321	31495
421.397	35575
421.472	54842
421.548	79235
421.623	60867
421.699	52586
421.774	56076
421.850	64747
421.925	76801
422.001	90760
422.076	108257
422.152	134372
422.227	173435
422.302	229676
422.378	300888
422.453	397720
422.529	449448
422.604	349396
422.679	238056
422.755	383940
422.830	478624
422.905	398257
422.981	299660
423.056	227760
423.131	175003
423.207	138385
423.282	113159
423.357	93707
423.432	78234
423.508	69141
423.583	60818
423.658	54211
423.733	47815
423.808	46374
423.883	45400
423.959	46858
424.034	51143
424.109	46014
424.184	35519
424.259	30437
424.334	27619
424.409	25183
424.484	23225
424.559	21820
424.634	20137
424.709	19175
424.784	19029
424.859	17850
424.934	17656
425.009	19057
425.084	20552
425.159	15499
425.234	14040
425.309	14258
425.384	16915
425.459	17819
425.534	14412
425.609	13094
425.683	12656
425.758	12279
425.833	11880
425.908	12407
425.983	12812
426.058	16249
426.132	13277
426.207	11718
426.282	12879
426.357	11817
426.431	9694
426.506	10242
426.581	10228
426.655	10569
426.730	9121
426.805	8660
426.879	9994
426.954	9335
427.029	9327
427.103	17300
427.178	25241
427.253	15324
427.327	10578
427.402	11714
427.476	15329
427.551	11438
427.625	10490
427.700	10444
427.774	9335
427.849	10053
427.923	10601
427.998	13125
428.072	16691
428.147	36034
428.221	123874
428.296	251288
428.370	129824
428.444	30307
428.519	18748
428.593	18693
428.667	19258
428.742	25065
428.816	61215
428.890	184960
428.965	218129
429.039	64794
429.113	22748
429.188	14035
429.262	11509
429.336	11804
429.410	12580
429.485	13196
429.559	15992
429.633	17367
429.707	19621
429.781	56292
429.855	176212
429.930	198100
430.004	77269
430.078	79710
430.152	168635
430.226	341586
430.300	292462
430.374	88566
430.448	34839
430.522	35005
430.596	50247
430.670	87718
430.744	215617
430.818	188493
430.892	44336
430.966	14243
431.040	11210
431.114	9110
431.188	8631
431.262	8946
431.336	8192
431.410	10997
431.484	12960
431.557	12116
431.631	13248
431.705	29767
431.779	105406
431.853	244714
431.927	146653
432.000	31002
432.074	13348
432.148	8852
432.222	7358
432.295	6792
432.369	6123
432.443	7035
432.516	14309
432.590	23417
432.664	10068
432.737	5129
432.811	4509
432.885	4823
432.958	5105
433.032	4355
433.106	4903
433.179	5061
433.253	4794
433.326	4628
433.400	4843
433.473	5435
433.547	4637
433.620	4965
433.694	5131
433.767	6058
433.841	5439
433.914	5569
433.988	5982
434.061	6486
434.134	5956
434.208	5759
434.281	4082
434.355	4353
434.428	5049
434.501	5332
434.575	4915
434.648	4365
434.721	4997
434.795	5717
434.868	5198
434.941	5846
435.014	6961
435.088	7962
435.161	9076
435.234	10423
435.307	12033
435.381	15806
435.454	21171
435.527	31921
435.600	36445
435.673	33078
435.746	27230
435.819	21986
435.892	17541
435.966	15050
436.039	12321
436.112	11385
436.185	9179
436.258	8735
436.331	7342
436.404	7459
436.477	7372
436.550	5508
436.623	6369
436.696	5333
436.769	5739
436.842	5765
436.915	5734
436.987	5379
437.060	5623
437.133	5349
437.206	4230
437.279	4930
437.352	4746
437.425	4250
437.498	4610
437.570	5031
437.643	3622
437.716	4571
437.789	4438
437.861	3953
437.934	6004
438.007	4529
438.080	4210
438.152	4301
438.225	6671
438.298	19104
438.370	34468
438.443	14597
438.516	6288
438.588	4699
438.661	3815
438.734	4280
438.806	4570
438.879	4680
438.951	4918
439.024	5747
439.096	3891
439.169	3822
439.241	3687
439.314	3828
439.386	4598
439.459	5236
439.531	5014
439.604	4250
439.676	3596
439.749	3824
439.821	3703
439.893	4447
439.966	3962
440.038	4373
440.110	4557
440.183	3970
440.255	3807
440.327	5659
440.400	9550
440.472	19218
440.544	12131
440.617	5684
440.689	5730
440.761	6181
440.833	6105
440.905	5680
440.978	4023
441.050	4038
441.122	5081
441.194	5245
441.266	4963
441.338	5355
441.411	6458
441.483	8994
441.555	9455
441.627	6859
441.699	7035
441.771	6787
441.843	6425
441.915	6633
441.987	7109
442.059	9576
442.131	11443
442.203	13973
442.275	19445
442.347	32121
442.419	81814
442.491	246237
442.563	358851
442.635	153128
442.706	45958
442.778	25519
442.850	17054
442.922	15881
442.994	17218
443.066	19512
443.137	24493
443.209	33142
443.281	53724
443.353	115073
443.425	286683
443.496	520031
443.568	508981
443.640	235664
443.711	72651
443.783	36281
443.855	24436
443.926	17227
443.998	14786
444.070	13217
444.141	12281
444.213	11169
444.285	11570
444.356	10115
444.428	9561
444.499	9824
444.571	9926
444.642	10865
444.714	11213
444.785	12995
444.857	15221
444.928	20189
445.000	21362
445.071	27280
445.143	34797
445.214	52868
445.285	92845
445.357	204535
445.428	417117
445.500	561077
445.571	514658
445.642	342572
445.714	138253
445.785	56346
445.856	30844
445.928	21685
445.999	17167
446.070	14343
446.141	12286
446.213	11319
446.284	8082
446.355	9084
446.426	7929
446.497	6809
446.569	6972
446.640	5984
446.711	5831
446.782	4151
446.853	5130
446.924	5067
446.995	4536
447.066	5281
447.138	5386
447.209	4232
447.280	3645
447.351	2867
447.422	3691
447.493	3681
447.564	2716
447.635	3258
447.706	2958
447.777	2625
447.847	2952
447.918	3053
447.989	3335
448.060	3736
448.131	5817
448.202	4420
448.273	2893
448.344	3096
448.414	2643
448.485	2715
448.556	2764
448.627	2116
448.698	3768
448.768	2721
448.839	2543
448.910	2808
448.981	3596
449.051	2389
449.122	2476
449.193	2252
449.263	2172
449.334	3284
449.405	2159
449.475	3154
449.546	3621
449.616	5611
449.687	4407
449.758	2914
449.828	2912
449.899	2766
449.969	3066
450.040	2981
450.110	2097
450.181	2728
450.251	2452
450.322	2186
450.392	3328
450.463	3249
450.533	2576
450.604	3769
450.674	2631
450.744	3863
450.815	5138
450.885	5273
450.955	5164
451.026	5177
451.096	4692
451.166	5975
451.237	8038
451.307	11258
451.377	6678
451.447	4330
451.518	3649
451.588	3614
451.658	2824
451.728	4413
451.799	8838
451.869	7144
451.939	3705
452.009	3232
452.079	3355
452.149	4776
452.219	5889
452.289	9856
452.360	7084
452.430	5821
452.500	9148
452.570	15702
452.640	32922
452.710	69618
452.780	70676
452.850	40461
452.920	20586
452.990	12669
453.060	9304
453.129	6467
453.199	6795
453.269	14275
453.339	17685
453.409	21133
453.479	25103
453.549	31927
453.619	30274
453.688	9924
453.758	3896
453.828	2850
453.898	2073
453.968	3119
454.037	2439
454.087	2314
454.107	2249
454.168	2659
454.177	2701
454.247	2720
454.249	2716
454.316	2266
454.330	2344
454.386	2544
454.411	3164
454.456	4153
454.492	5004
454.525	5745
454.574	3533
454.595	2564
454.655	2855
454.665	2878
454.734	3146
454.736	3212
454.804	4949
454.817	5508
454.873	7701
454.898	7293
454.943	6532
454.979	5160
455.013	3931
455.060	3568
455.082	3413
455.141	3770
455.152	3808
455.221	7109
455.222	7161
455.291	8725
455.303	9323
455.360	11790
455.384	15261
455.430	21069
455.465	15283
455.499	10024
455.546	7935
455.569	6852
455.627	4781
455.638	4428
455.707	2871
455.708	2890
455.777	2773
455.789	2847
455.846	3122
455.869	3090
455.916	2926
455.950	2986
455.985	3037
456.031	2742
456.054	2530
456.112	2357
456.124	2336
456.193	3351
456.193	3336
456.262	3014
456.274	3270
456.332	4485
456.355	4304
456.401	3879
456.436	3715
456.470	3392
456.516	3331
456.540	3309
456.597	3448
456.609	3478
456.678	3271
456.678	3249
456.747	4185
456.759	4063
456.817	3715
456.840	3889
456.886	3969
456.920	4174
456.955	4497
457.001	4735
457.024	4728
457.082	4666
457.093	4650
457.162	5550
457.163	5572
457.232	5493
457.243	5517
457.301	6033
457.324	5982
457.370	5572
457.405	6200
457.439	7164
457.485	7785
457.508	8046
457.566	9718
457.577	10531
457.646	15742
457.647	15870
457.715	32121
457.727	36502
457.784	57808
457.808	77831
457.853	107612
457.889	120368
457.922	124234
457.969	87984
457.991	80664
458.050	89734
458.060	91136
458.129	158796
458.130	160223
458.198	176643
458.211	160017
458.267	90620
458.292	67917
458.336	44558
458.372	42513
458.405	52100
458.453	74394
458.474	85910
458.533	145278
458.543	150561
458.611	241754
458.614	241532
458.680	166532
458.694	138959
458.749	63589
458.775	47527
458.818	28519
458.855	22127
458.887	18447
458.936	15122
458.955	13858
459.016	11027
459.024	10795
459.093	10337
459.097	10324
459.162	9041
459.177	8690
459.230	7902
459.257	7860
459.299	7770
459.338	7745
459.368	7696
459.418	7562
459.437	7330
459.499	6272
459.505	6271
459.574	6932
459.579	6986
459.643	7031
459.659	6961
459.711	6823
459.740	6882
459.780	6810
459.820	6566
459.849	6552
459.900	7216
459.917	7323
459.981	6631
459.986	6584
460.054	6764
460.061	6824
460.123	6742
460.141	6618
460.191	6740
460.222	6822
460.260	6777
460.302	6869
460.328	7084
460.382	7488
460.397	7595
460.462	7850
460.465	8110
460.534	15289
460.543	16143
460.602	30047
460.623	36462
460.671	51300
460.703	68518
460.739	66638
460.783	46601
460.808	38479
460.864	12551
460.876	9531
460.944	7171
460.945	7137
461.013	6193
461.024	6093
461.081	6490
461.104	6593
461.150	6242
461.184	5953
461.218	5967
461.264	6322
461.286	6545
461.345	6547
461.355	6436
461.423	6321
461.425	6306
461.491	6042
461.505	6137
461.559	7433
461.585	7781
461.628	8394
461.665	9777
461.696	10478
461.745	11399
461.764	10859
461.825	7148
461.832	7054
461.901	6825
461.905	6866
461.969	6201
461.985	6023
462.037	7196
462.065	7662
462.105	7178
462.145	6883
462.173	7368
462.225	8194
462.241	8360
462.305	9773
462.310	9727
462.378	8523
462.385	8259
462.446	7254
462.465	7248
462.514	7443
462.545	7218
462.582	6744
462.625	6646
462.650	6569
462.705	6029
462.718	6145
462.785	7392
462.786	7402
462.854	6992
462.865	7082
462.922	8073
462.945	8237
462.990	7449
463.025	6882
463.058	7276
463.104	7565
463.126	7258
463.184	7050
463.194	7099
463.262	6541
463.264	6537
463.330	6964
463.344	7061
463.398	7762
463.424	8078
463.466	7709
463.504	7278
463.533	7297
463.583	7285
463.601	7198
463.663	6959
463.669	7039
463.737	7977
463.743	8027
463.805	8879
463.823	9238
463.873	10769
463.903	11829
463.940	11996
463.982	12061
464.008	10996
464.062	7964
464.076	7922
464.142	7979
464.144	7966
464.211	7422
464.221	7321
464.279	7215
464.301	7161
464.347	7641
464.381	8027
464.414	7789
464.461	7489
464.482	7737
464.540	8355
464.550	8271
464.617	7621
464.620	7587
464.685	8084
464.699	8163
464.753	8092
464.779	8089
464.820	8235
464.859	8269
464.888	8139
464.938	8035
464.956	8361
465.018	9478
465.023	9481
465.091	9071
465.098	9042
465.158	8508
465.177	8319
465.226	8093
465.257	7845
465.293	8176
465.336	8738
465.361	9105
465.416	9738
465.428	9876
465.495	10604
465.496	10630
465.563	12004
465.575	12281
465.631	13516
465.654	14023
465.698	11072
465.734	8327
465.765	8615
465.813	9123
465.833	8927
465.893	8363
465.900	8487
465.968	9591
465.972	9651
466.035	9225
466.052	9053
466.102	9162
466.131	9220
466.170	8721
466.210	8149
466.237	8459
466.290	9064
466.304	9024
466.369	8704
466.372	8720
466.439	8771
466.449	8753
466.506	8881
466.528	8933
466.573	10954
466.607	12390
466.641	13401
466.687	14822
466.708	15495
466.766	17333
466.775	16565
466.842	10427
466.845	10120
466.909	10178
466.925	10192
466.977	10387
467.004	10469
467.044	10762
467.083	11020
467.111	11348
467.163	11901
467.178	11954
467.242	12072
467.245	12080
467.312	11806
467.321	11750
467.379	11812
467.400	11799
467.446	12208
467.480	12462
467.559	13111
467.638	12176
467.717	12721
467.796	13710
467.875	13745
467.955	14820
468.034	19332
468.113	24170
468.192	29351
468.271	25795
468.350	33471
468.429	40893
468.508	39759
468.588	27373
468.667	19972
468.746	17091
468.825	15182
468.904	13776
468.983	14481
469.062	14255
469.141	15698
469.220	12067
469.299	11880
469.378	11792
469.456	13521
469.535	12508
469.614	11651
469.693	12050
469.772	13162
469.851	14238
469.930	12613
470.009	12636
470.088	11919
470.166	12771
470.245	14622
470.324	14265
470.403	13599
470.482	12829
470.560	12743
470.639	12083
470.718	12412
470.797	12634
470.875	12158
470.954	12595
471.033	13859
471.111	10863
471.190	11162
471.269	10507
471.347	11863
471.426	10748
471.505	12436
471.583	11788
471.662	12387
471.740	11369
471.819	11435
471.898	10989
471.976	11972
472.055	11943
472.133	12504
472.212	14842
472.290	12562
472.369	10859
472.447	11653
472.526	10192
472.604	11331
472.683	11806
472.761	11607
472.839	11896
472.918	11897
472.996	11335
473.075	13300
473.153	11875
473.231	12419
473.310	12438
473.388	12161
473.466	12474
473.545	12805
473.623	12973
473.701	12041
473.780	12835
473.858	11453
473.936	14225
474.014	12985
474.093	14404
474.171	15475
474.249	16063
474.327	13436
474.405	11878
474.484	12585
474.562	11610
474.640	12101
474.718	12667
474.796	11172
474.874	11883
474.952	11646
475.030	10733
475.108	11554
475.187	11524
475.265	12925
475.343	12367
475.421	12671
475.499	11337
475.577	12124
475.655	13513
475.733	15664
475.811	18558
475.889	18088
475.966	15127
476.044	11626
476.122	11756
476.200	12356
476.278	11289
476.356	12111
476.434	11709
476.512	11898
476.590	12117
476.667	13377
476.745	11582
476.823	12111
476.901	11905
476.979	12342
477.056	11552
477.134	11857
477.212	11745
477.290	12425
477.367	11913
477.445	11441
477.523	10411
477.601	11635
477.678	12584
477.756	12094
477.834	11811
477.911	10989
477.989	11828
478.066	12689
478.144	11446
478.222	12131
478.299	12377
478.377	13892
478.454	12261
478.532	11726
478.609	10951
478.687	12050
478.764	10356
478.842	13040
478.919	12414
478.997	11135
479.074	11557
479.152	12194
479.229	12749
479.307	12070
479.384	11606
479.461	12457
479.539	12067
479.616	12319
479.694	11127
479.771	12478
479.848	11736
479.926	11545
480.003	13627
480.080	11838
480.157	11743
480.235	12483
480.312	12142
480.389	13089
480.467	13437
480.544	15021
480.621	14191
480.698	14491
480.775	14144
480.853	14338
480.930	13681
481.007	14809
481.084	16699
481.161	20462
481.238	17054
481.315	13357
481.392	13703
481.470	14397
481.547	13304
481.624	13820
481.701	13346
481.778	13994
481.855	15965
481.932	17626
482.009	19377
482.086	19168
482.163	19087
482.240	19351
482.317	20855
482.393	20000
482.470	17674
482.547	18401
482.624	16757
482.701	16995
482.778	16340
482.855	15893
482.932	16450
483.009	17760
483.085	20408
483.162	23337
483.239	24352
483.316	21589
483.393	22146
483.469	20124
483.546	17664
483.623	17138
483.699	15824
483.776	15097
483.853	15644
483.930	17700
484.006	21666
484.083	27899
484.160	21416
484.236	27118
484.313	23294
484.389	22509
484.466	24608
484.543	28592
484.619	31918
484.696	32520
484.772	25838
484.849	22393
484.925	19945
485.002	19763
485.078	19732
485.155	17712
485.231	17694
485.308	16684
485.384	17435
485.461	19235
485.537	21015
485.614	22166
485.690	16972
485.766	16825
485.843	16549
485.919	16454
485.995	17146
486.072	16179
486.148	17103
486.224	16550
486.301	16952
486.377	17368
486.453	16491
486.530	16799
486.606	20858
486.682	20481
486.758	22174
486.835	24635
486.911	22536
486.987	27786
487.063	25548
487.139	29161
487.215	30808
487.292	32423
487.368	33356
487.444	40780
487.520	54622
487.596	86728
487.672	211758
487.748	513938
487.824	718126
487.900	335084
487.976	117784
488.052	63883
488.128	44852
488.204	33955
488.280	29239
488.356	27554
488.432	30736
488.508	32467
488.584	21092
488.660	19342
488.736	19438
488.812	17747
488.888	19473
488.964	20141
489.039	21296
489.115	22538
489.191	20954
489.267	17268
489.343	17043
489.418	15952
489.494	16425
489.570	14774
489.646	18639
489.722	16851
489.797	16973
489.873	19999
489.949	24089
490.024	22388
490.100	16096
490.176	16242
490.251	17143
490.327	17122
490.403	15554
490.478	16147
490.554	15482
490.629	16327
490.705	15224
490.781	15777
490.856	15788
490.932	15840
491.007	15266
491.083	15162
491.158	15292
491.234	16393
491.309	21102
491.385	19638
491.460	14782
491.536	14706
491.611	14025
491.686	14373
491.762	14964
491.837	16369
491.913	19682
491.988	20780
492.063	20781
492.139	16992
492.214	14957
492.289	14647
492.365	12670
492.440	14235
492.515	12898
492.590	13102
492.666	12678
492.741	14980
492.816	16411
492.891	13573
492.967	13281
493.042	14486
493.117	12576
493.192	14724
493.267	18744
493.342	34189
493.418	39709
493.493	14860
493.568	12980
493.643	13922
493.718	13971
493.793	14690
493.868	14336
493.943	13358
494.018	13303
494.093	12488
494.168	13664
494.243	12754
494.318	12550
494.393	13012
494.468	11930
494.543	12131
494.618	11672
494.693	12705
494.768	11866
494.842	12521
494.917	13035
494.992	13355
495.067	12978
495.142	12260
495.217	12338
495.292	11177
495.366	12768
495.441	12514
495.516	14503
495.591	15067
495.665	19632
495.740	27382
495.815	17561
495.890	13957
495.964	11309
496.039	16232
496.114	16971
496.188	20955
496.263	18471
496.338	13431
496.412	12622
496.487	14703
496.561	13405
496.636	14707
496.710	13354
496.785	14513
496.860	13754
496.934	12603
497.009	13061
497.083	13742
497.158	13391
497.232	14053
497.307	13425
497.381	14523
497.455	13727
497.530	16773
497.604	14082
497.679	14831
497.753	16917
497.827	17470
497.902	15820
497.976	19492
498.050	38864
498.125	92406
498.199	88923
498.273	18449
498.348	15078
498.422	15688
498.496	14636
498.570	15547
498.645	14685
498.719	14022
498.793	15453
498.867	17790
498.941	23276
499.016	50686
499.090	96011
499.164	38858
499.238	14660
499.312	14866
499.386	14519
499.460	16020
499.534	15268
499.609	15111
499.683	16475
499.757	17562
499.831	29956
499.905	67861
499.979	62437
500.053	17259
500.127	16988
500.201	14831
500.275	14380
500.349	15174
500.422	14293
500.496	15937
500.570	22141
500.644	44493
500.718	69648
500.792	22622
500.866	15295
500.940	15839
501.013	15602
501.087	15404
501.161	16469
501.235	18516
501.309	34978
501.382	64884
501.456	53434
501.530	22062
501.603	25732
501.677	18015
501.751	12926
501.825	17514
501.898	19388
501.972	30468
502.046	22417
502.119	14679
502.193	20434
502.266	31988
502.340	21344
502.413	21893
502.487	29713
502.561	21503
502.634	15425
502.708	15295
502.781	13031
502.855	15168
502.928	13843
503.002	14437
503.075	13603
503.149	14874
503.222	15429
503.295	16027
503.369	18597
503.442	21008
503.516	34884
503.589	57742
503.662	44502
503.736	35315
503.809	49571
503.882	58525
503.956	87790
504.029	161337
504.102	343612
504.175	460637
504.249	234465
504.322	104968
504.395	57841
504.468	40473
504.542	29651
504.615	24572
504.688	21294
504.761	17655
504.834	18589
504.907	15280
504.980	15536
505.053	14003
505.127	12352
505.200	16247
505.273	14873
505.346	13427
505.419	12122
505.492	14219
505.565	12210
505.638	12906
505.711	11682
505.784	11373
505.857	11417
505.930	13556
506.003	10369
506.076	13980
506.149	11444
506.221	11769
506.294	14164
506.367	17998
506.440	35880
506.513	23276
506.586	13302
506.659	11352
506.731	10767
506.804	11173
506.877	10343
506.950	11971
507.022	12088
507.095	10232
507.168	12038
507.241	11242
507.313	9960
507.386	9931
507.459	11320
507.531	10384
507.604	10073
507.677	11405
507.749	9373
507.822	11946
507.894	12925
507.967	14144
508.040	11862
508.112	12836
508.185	12873
508.257	10080
508.330	12334
508.402	12297
508.475	10272
508.547	12172
508.620	11562
508.692	13965
508.765	12384
508.837	11166
508.909	11453
508.982	10691
509.054	12267
509.127	11140
509.199	10931
509.271	10693
509.344	10504
509.416	11921
509.488	11173
509.560	11641
509.633	10997
509.705	11605
509.777	11774
509.849	13000
509.922	10885
509.994	11508
510.066	12463
510.138	11088
510.210	16634
510.283	13909
510.355	13247
510.427	13242
510.499	12303
510.571	12349
510.643	10440
510.715	13441
510.787	10205
510.859	13438
510.931	11887
511.003	13474
511.076	13195
511.148	12107
511.219	12513
511.291	14620
511.363	15576
511.435	12625
511.507	11229
511.579	12792
511.651	13122
511.723	12135
511.795	11171
511.867	11388
511.939	12192
512.010	14652
512.082	14193
512.154	11248
512.226	11357
512.298	14552
512.369	14589
512.441	13682
512.513	13103
512.585	11731
512.656	12498
512.728	12294
512.800	11858
512.871	12905
512.943	12260
513.015	11576
513.086	11574
513.158	12866
513.230	10516
513.301	12114
513.373	12890
513.444	11650
513.516	11776
513.588	11321
513.659	11724
513.731	12044
513.802	11060
513.874	13767
513.945	13702
514.016	12089
514.088	12118
514.159	10884
514.231	13523
514.302	14089
514.374	13346
514.445	12053
514.516	18341
514.588	15016
514.659	12788
514.730	15244
514.802	14067
514.873	11066
514.944	15115
515.016	13634
515.087	12261
515.158	14879
515.229	16483
515.301	12902
515.372	15202
515.443	12207
515.514	12425
515.585	11201
515.656	14016
515.728	13690
515.799	12761
515.870	14143
515.941	13635
516.012	13328
516.083	15289
516.154	14048
516.225	15016
516.296	16301
516.367	15050
516.438	14636
516.509	17540
516.580	23183
516.651	52886
516.722	122846
516.793	62480
516.864	22183
516.935	21028
517.006	21070
517.077	25574
517.148	53991
517.219	183010
517.289	260483
517.360	71487
517.431	29429
517.502	18820
517.573	20055
517.643	18515
517.714	19435
517.785	21383
517.856	22314
517.926	26123
517.997	29254
518.068	28222
518.138	36357
518.209	52309
518.280	157490
518.350	407106
518.421	192809
518.492	64663
518.562	71308
518.633	95666
518.703	155377
518.774	324821
518.845	650419
518.915	569741
518.986	224055
519.056	103588
519.127	67726
519.197	54927
519.268	63571
519.338	47501
519.408	28341
519.479	24623
519.549	22557
519.620	21543
519.690	18184
519.760	18324
519.831	17670
519.901	16644
519.971	17412
520.042	16232
520.112	17056
520.182	16748
520.253	16842
520.323	15232
520.393	16477
520.463	21435
520.534	16076
520.604	23950
520.674	17989
520.744	17279
520.814	24243
520.885	22370
520.955	25266
521.025	50009
521.095	24970
521.165	16203
521.235	15541
521.305	13578
521.375	14691
521.445	15517
521.515	14610
521.585	15907
521.655	13486
521.725	15539
521.795	14950
521.865	12417
521.935	19159
522.005	14218
522.075	15356
522.145	16150
522.215	14852
522.285	16370
522.355	17933
522.424	22612
522.494	19519
522.564	17147
522.634	17956
522.704	23330
522.774	17012
522.843	15105
522.913	15782
522.983	14963
523.053	15966
523.122	15559
523.192	15121
523.262	17376
523.331	18009
523.401	16012
523.471	14758
523.540	15265
523.610	15335
523.680	15660
523.749	16658
523.819	17739
523.888	19179
523.958	16659
524.027	16125
524.097	17013
524.166	17202
524.236	15566
524.305	18161
524.375	15126
524.444	15996
524.514	18742
524.583	17635
524.653	16858
524.722	19740
524.791	16691
524.861	19138
524.930	17228
524.999	18636
525.069	19777
525.138	18657
525.207	20633
525.277	22423
525.346	21981
525.415	24031
525.484	26258
525.554	29318
525.623	35823
525.692	43443
525.761	46468
525.830	55356
525.900	71343
525.969	117254
526.038	232930
526.107	470833
526.176	1058871
526.245	799276
526.314	316263
526.383	596834
526.452	772891
526.522	947025
526.591	787078
526.660	211989
526.729	117758
526.797	119692
526.867	187013
526.935	507814
527.004	1198708
527.073	770765
527.142	200473
527.211	89549
527.280	59005
527.349	44129
527.418	33391
527.487	31676
527.555	26031
527.624	24002
527.693	22146
527.762	23078
527.831	20307
527.899	21285
527.968	19212
528.037	17110
528.106	18737
528.174	20752
528.243	18964
528.312	19262
528.380	20243
528.449	17320
528.518	19271
528.586	16048
528.655	18814
528.723	17165
528.792	17043
528.861	17340
528.929	16453
528.998	18961
529.066	22957
529.135	30775
529.203	28247
529.272	34305
529.340	41300
529.409	36975
529.477	34083
529.545	34797
529.614	38357
529.682	41266
529.751	45507
529.819	49275
529.887	53232
529.956	47832
530.024	46634
530.092	42567
530.161	43687
530.229	45772
530.297	48938
530.365	48912
530.434	51609
530.502	51388
530.570	47312
530.638	41290
530.707	40417
530.775	40110
530.843	40356
530.911	45266
530.979	44713
531.047	49889
531.115	47941
531.183	43855
531.252	43359
531.320	40816
531.388	40435
531.456	45873
531.524	47570
531.592	50667
531.660	55298
531.728	49652
531.796	47956
531.864	47853
531.932	46620
532.000	47554
532.067	51859
532.135	54137
532.203	56366
532.271	60916
532.339	58929
532.407	59229
532.475	56728
532.542	53547
532.610	53838
532.678	56356
532.746	67053
532.814	78951
532.881	64039
532.949	57204
533.017	55137
533.084	52894
533.152	50984
533.220	50264
533.287	51828
533.355	53775
533.423	55083
533.490	56698
533.558	54405
533.625	53131
533.693	51943
533.761	50811
533.828	50279
533.896	50393
533.963	57235
534.031	57536
534.098	64558
534.166	64422
534.233	59633
534.300	61693
534.368	61132
534.435	59313
534.503	60319
534.570	65129
534.637	68839
534.705	74579
534.772	89737
534.840	166357
534.907	538650
534.974	566722
535.041	120583
535.109	69918
535.176	58110
535.243	56608
535.310	55151
535.378	52960
535.445	51869
535.512	50391
535.579	48380
535.646	46987
535.714	48904
535.781	50573
535.848	51553
535.915	53294
535.982	51359
536.049	51807
536.116	50291
536.183	46898
536.250	46097
536.317	45494
536.384	47740
536.451	47743
536.518	48721
536.585	46130
536.652	50665
536.719	49523
536.786	44310
536.853	44262
536.920	46596
536.987	45524
537.053	43237
537.120	54096
537.187	53780
537.254	47439
537.321	48785
537.388	48790
537.454	46227
537.521	45860
537.588	43898
537.654	45647
537.721	46199
537.788	47411
537.855	44653
537.921	46972
537.988	46090
538.055	45130
538.121	40119
538.188	39558
538.254	39001
538.321	40113
538.388	42098
538.454	46888
538.521	46998
538.587	47846
538.654	46249
538.720	44690
538.787	44778
538.853	44938
538.920	42661
538.986	39711
539.053	39579
539.119	40874
539.185	40390
539.252	44523
539.318	45439
539.385	48051
539.451	44570
539.517	44581
539.583	44578
539.650	45800
539.716	47864
539.782	41728
539.849	40847
539.915	41927
539.981	41550
540.047	41158
540.114	40826
540.180	42852
540.246	43899
540.312	45809
540.378	45084
540.444	44827
540.510	46884
540.576	49967
540.643	42808
540.709	40664
540.775	41376
540.841	41589
540.907	41556
540.973	43442
541.039	42054
541.105	42850
541.171	44036
541.237	45110
541.303	44392
541.369	46855
541.435	44337
541.500	44733
541.566	40292
541.632	40248
541.698	41180
541.764	43119
541.830	41195
541.896	40974
541.961	40148
542.027	40497
542.093	43814
542.159	45426
542.224	41386
542.290	43175
542.356	41585
542.421	41842
542.487	39428
542.553	40196
542.618	40733
542.684	40104
542.750	40655
542.815	42641
542.881	43942
542.947	50681
543.012	46988
543.078	41145
543.143	38216
543.209	41509
543.274	39298
543.340	40714
543.405	43232
543.471	45282
543.536	42471
543.602	43080
543.667	40658
543.732	43087
543.798	43370
543.863	43772
543.928	41436
543.994	42979
544.059	42988
544.124	45332
544.190	44728
544.255	45526
544.320	45393
544.386	45322
544.451	46248
544.516	45903
544.581	46774
544.646	52745
544.712	54280
544.777	49710
544.842	47822
544.907	47918
544.972	47788
545.037	50276
545.102	50821
545.168	51860
545.233	51265
545.298	52318
545.363	52304
545.428	54861
545.493	57465
545.558	58220
545.623	55230
545.688	54060
545.753	57008
545.818	60154
545.883	61469
545.947	62846
546.012	65101
546.077	66239
546.142	71466
546.207	71936
546.272	75274
546.337	76792
546.401	79481
546.466	83640
546.531	86124
546.596	92774
546.661	93924
546.725	98125
546.790	103495
546.855	114518
546.919	121876
546.984	134692
547.049	142498
547.113	163385
547.178	179445
547.243	201168
547.307	232558
547.372	252252
547.436	252740
547.501	266282
547.565	279163
547.630	255775
547.695	251264
547.759	252914
547.823	254602
547.888	260418
547.952	266955
548.017	276741
548.081	284355
548.146	278261
548.210	286288
548.274	308978
548.339	296316
548.403	273253
548.468	261945
548.532	259435
548.596	264246
548.660	266596
548.725	290066
548.789	311563
548.853	299101
548.917	287164
548.982	277560
549.046	255335
549.110	232571
549.174	244509
549.238	282250
549.303	305516
549.367	308838
549.431	292745
549.495	277770
549.559	281148
549.623	321704
549.687	340449
549.751	338446
549.815	396201
549.879	392600
549.943	384193
550.007	402778
550.071	393715
550.135	358458
550.199	348621
550.263	341828
550.327	324044
550.391	334936
550.455	370502
550.519	383368
550.582	408129
550.646	448648
550.710	454399
550.774	450270
550.838	458687
550.901	470129
550.965	499214
551.029	520444
551.093	560383
551.156	611133
551.220	675375
551.284	674066
551.347	561251
551.411	502642
551.475	482601
551.538	482822
551.602	448489
551.666	428960
551.729	404966
551.793	400498
551.856	390734
551.920	387779
551.983	388739
552.047	384821
552.110	387301
552.174	391622
552.237	396737
552.301	368579
552.364	356950
552.428	347924
552.491	360108
552.554	362868
552.618	362577
552.681	368150
552.745	354408
552.808	368860
552.871	383383
552.934	378160
552.998	366123
553.061	356028
553.124	345420
553.187	346778
553.251	356978
553.314	356338
553.377	363265
553.440	384954
553.503	414258
553.567	425848
553.630	384736
553.693	377641
553.756	376576
553.819	368570
553.882	357981
553.945	359857
554.008	360519
554.071	362649
554.134	364764
554.197	345194
554.260	336071
554.323	343191
554.386	349091
554.449	365134
554.512	360792
554.575	348202
554.638	346770
554.701	344549
554.764	344159
554.827	331565
554.889	319726
554.952	303648
555.015	301630
555.078	305892
555.141	310680
555.203	302037
555.266	302494
555.329	299872
555.391	291091
555.454	286711
555.517	279175
555.580	270676
555.642	263296
555.705	259046
555.768	258475
555.830	251998
555.893	240243
555.955	233538
556.018	232058
556.080	233296
556.143	239289
556.206	235862
556.268	231749
556.330	224874
556.393	220131
556.455	215065
556.518	214402
556.580	206620
556.643	198614
556.705	196671
556.767	192464
556.830	190642
556.892	189373
556.955	185066
557.017	181539
557.079	180420
557.142	176305
557.204	174175
557.266	176401
557.328	165800
557.391	154714
557.453	151358
557.515	152555
557.577	154243
557.639	154323
557.701	153242
557.764	153575
557.826	153577
557.888	156990
557.950	161250
558.012	173573
558.074	224706
558.136	460968
558.198	812465
558.260	333432
558.322	176373
558.384	168567
558.446	168226
558.508	175023
558.570	190445
558.632	217235
558.694	277106
558.756	469525
558.818	1075470
558.880	1526885
558.942	922758
559.003	918553
559.065	448008
559.127	223724
559.189	202151
559.251	218286
559.312	309854
559.374	675754
559.436	1290759
559.498	707928
559.559	265339
559.621	203980
559.683	223976
559.744	359584
559.806	892951
559.868	990610
559.929	334817
559.991	232145
560.052	373682
560.114	819256
560.176	517164
560.237	559347
560.299	697976
560.360	202927
560.422	105680
560.483	89178
560.545	83371
560.606	79178
560.667	78423
560.729	74829
560.790	69704
560.852	67754
560.913	65864
560.974	65297
561.036	64653
561.097	64479
561.158	63316
561.220	62438
561.281	59728
561.342	59392
561.403	58847
561.465	59125
561.526	59770
561.587	60057
561.648	55387
561.709	55555
561.771	54838
561.832	53590
561.893	51591
561.954	52066
562.015	51060
562.076	50706
562.137	51263
562.198	49481
562.259	49916
562.320	50495
562.381	51282
562.442	50023
562.503	49492
562.564	47079
562.625	46172
562.686	47338
562.747	45828
562.808	45979
562.869	45807
562.930	46022
562.991	45305
563.051	44703
563.112	44736
563.173	44771
563.234	42805
563.294	44316
563.355	42231
563.416	42869
563.477	42330
563.537	42229
563.598	41983
563.659	42114
563.720	41918
563.780	42483
563.841	41508
563.901	42627
563.962	40678
564.023	40134
564.083	40252
564.144	39817
564.204	38776
564.265	39588
564.325	40137
564.386	44516
564.446	40781
564.507	38594
564.567	36989
564.628	37578
564.688	38143
564.749	37790
564.809	38201
564.869	38532
564.930	36973
564.990	38036
565.050	36604
565.111	37820
565.171	36879
565.231	37333
565.292	37444
565.352	36278
565.412	37010
565.472	37149
565.532	36823
565.593	37132
565.653	35685
565.713	36690
565.773	36446
565.833	38605
565.893	39150
565.953	36041
566.013	35470
566.074	36023
566.134	35628
566.194	37279
566.254	37614
566.314	36327
566.374	34673
566.434	34263
566.494	34310
566.554	36253
566.614	35759
566.673	36929
566.733	37884
566.793	36959
566.853	37386
566.913	37214
566.973	35539
567.033	37239
567.092	36025
567.152	36660
567.212	37625
567.272	37299
567.331	38086
567.391	37799
567.451	39844
567.511	41499
567.570	40788
567.630	38573
567.690	36705
567.749	36979
567.809	37368
567.868	36562
567.928	36165
567.988	38555
568.047	38774
568.107	38590
568.166	40108
568.226	42362
568.285	45677
568.345	43899
568.404	42646
568.464	41479
568.523	40911
568.582	41862
568.642	42937
568.701	42168
568.761	43400
568.820	47657
568.879	48290
568.939	47365
568.998	45061
569.057	42071
569.116	41112
569.176	40723
569.235	40657
569.294	39487
569.353	37729
569.413	36161
569.472	35424
569.531	36700
569.590	33392
569.649	35175
569.708	34237
569.767	36240
569.827	35443
569.886	35196
569.945	33531
570.004	35227
570.063	34591
570.122	35950
570.181	36263
570.240	37851
570.299	37095
570.358	37021
570.417	36690
570.475	36984
570.534	36959
570.593	36103
570.652	37073
570.711	37098
570.770	36192
570.829	36683
570.887	35900
570.946	37185
571.005	36788
571.064	37666
571.122	36141
571.181	36439
571.240	35352
571.299	33832
571.357	34428
571.416	33909
571.475	35303
571.533	38116
571.592	37706
571.650	37722
571.709	38924
571.768	42317
571.826	43317
571.885	41029
571.943	38354
572.002	36229
572.060	36142
572.119	34264
572.177	34227
572.236	35061
572.294	35544
572.352	37042
572.411	36113
572.469	35933
572.528	34569
572.586	33869
572.644	33568
572.703	34199
572.761	33162
572.819	32410
572.877	31348
572.936	32225
572.994	31415
573.052	31817
573.110	32392
573.169	33131
573.227	33312
573.285	33682
573.343	32098
573.401	32274
573.459	34193
573.517	34317
573.576	34927
573.634	35079
573.692	32921
573.750	35175
573.808	32316
573.866	32718
573.924	33780
573.982	32740
574.040	31782
574.098	31902
574.155	31018
574.213	31321
574.271	31952
574.329	33475
574.387	32564
574.445	30114
574.503	29390
574.560	29364
574.618	28966
574.676	30522
574.734	30800
574.792	29733
574.849	28024
574.907	26284
574.965	25909
575.022	25852
575.080	25530
575.138	25167
575.195	24416
575.253	25146
575.311	24307
575.368	25656
575.426	23931
575.483	26073
575.541	26183
575.598	26139
575.656	25702
575.713	27026
575.771	28370
575.828	25936
575.886	25557
575.943	25894
576.001	24507
576.058	23765
576.115	24457
576.173	24634
576.230	25333
576.287	26792
576.345	26093
576.402	26434
576.459	26745
576.517	25598
576.574	25127
576.631	24244
576.688	24052
576.746	24202
576.803	22732
576.860	22810
576.917	23356
576.974	23595
577.031	24054
577.089	25290
577.146	22790
577.203	23348
577.260	22594
577.317	22414
577.374	22518
577.431	22129
577.488	22283
577.545	22351
577.602	22842
577.659	22897
577.716	23270
577.773	23421
577.830	22420
577.886	22361
577.943	22127
578.000	22775
578.057	22205
578.114	23538
578.171	24875
578.227	27511
578.284	25763
578.341	25056
578.398	23512
578.454	22970
578.511	23667
578.568	23662
578.625	23189
578.681	23181
578.738	23066
578.794	22711
578.851	22968
578.908	22284
578.964	22070
579.021	23205
579.077	23190
579.134	23153
579.190	23593
579.247	23389
579.303	22199
579.360	22329
579.416	22049
579.473	23118
579.529	22898
579.586	22893
579.642	23658
579.698	23673
579.755	24118
579.811	24492
579.867	23508
579.924	24070
579.980	24663
580.036	27094
580.093	29292
580.149	34272
580.205	33942
580.261	30089
580.317	29535
580.374	28007
580.430	28357
580.486	27043
580.542	25341
580.598	26820
580.619	26682
580.654	26475
580.692	26722
580.710	26896
580.765	26865
580.767	26893
580.823	27503
580.838	27426
580.879	27342
580.911	27749
580.935	28096
580.984	26647
580.991	26480
581.047	27685
581.057	27661
581.103	27682
581.130	27940
581.159	28257
581.203	28871
581.215	29070
581.270	28077
581.276	27955
581.326	27040
581.349	27105
581.382	27241
581.422	27123
581.438	27093
581.494	27768
581.494	27734
581.550	26321
581.567	26717
581.606	27661
581.640	26806
581.661	26272
581.713	27475
581.717	27598
581.773	26396
581.786	26581
581.829	27195
581.859	26680
581.885	26312
581.932	27228
581.940	27400
581.996	28776
582.004	28702
582.052	28346
582.077	27777
582.107	27144
582.150	27502
582.163	27620
582.219	26513
582.223	26501
582.274	26607
582.296	27048
582.330	27705
582.368	28158
582.386	28413
582.441	28798
582.441	28807
582.497	28194
582.514	28314
582.552	28717
582.587	29887
582.608	30584
582.659	29280
582.663	29189
582.719	30555
582.732	30323
582.774	29585
582.805	30210
582.830	30716
582.877	32060
582.885	32333
582.941	33434
582.950	33997
582.996	36617
583.023	38144
583.052	40049
583.095	39316
583.107	39034
583.162	38927
583.168	38871
583.218	38059
583.240	36857
583.273	35116
583.313	33168
583.328	32520
583.384	32706
583.385	32659
583.439	31028
583.458	30799
583.494	30458
583.531	30630
583.549	30725
583.603	30126
583.605	30110
583.660	29148
583.676	29368
583.715	29836
583.748	30080
583.770	30231
583.820	30203
583.825	30187
583.881	30020
583.893	29937
583.936	29885
583.965	29381
583.991	28871
584.038	29918
584.046	30153
584.101	30533
584.110	30742
584.156	31331
584.183	31160
584.211	31134
584.255	31328
584.266	31301
584.321	32639
584.328	32641
584.376	33071
584.400	33046
584.431	32786
584.472	33201
584.486	33441
584.541	34769
584.545	34819
584.596	35159
584.617	34978
584.651	35105
584.689	36906
584.706	37477
584.761	38340
584.762	38354
584.816	39573
584.834	39893
584.871	40295
584.906	41043
584.926	41702
584.978	42575
584.980	42599
585.035	45712
585.051	46193
585.090	48157
585.123	50546
585.145	52155
585.195	55714
585.200	56217
585.254	63899
585.267	65871
585.309	73313
585.340	79445
585.364	84986
585.412	98099
585.419	100532
585.473	125559
585.484	132698
585.528	173587
585.556	214496
585.583	288036
585.628	457819
585.637	519375
585.692	1004089
585.700	1063776
585.747	1233644
585.772	1141790
585.801	804419
585.845	373403
585.856	318979
585.910	162473
585.917	147228
585.965	108425
585.989	94353
586.019	84501
586.061	74012
586.074	71639
586.128	63190
586.133	62675
586.183	59473
586.205	57928
586.237	56157
586.277	54071
586.292	53427
586.346	51711
586.349	51632
586.401	50428
586.421	49974
586.455	49224
586.493	48809
586.509	49399
586.564	51230
586.565	51319
586.618	57067
586.637	58447
586.672	61707
586.709	66721
586.727	69153
586.781	75378
586.781	75392
586.835	62379
586.853	59094
586.889	53584
586.925	49191
586.944	48184
586.996	46607
586.998	46585
587.052	45189
587.068	44892
587.106	45029
587.140	45154
587.161	45200
587.212	45221
587.215	45247
587.269	45683
587.284	45940
587.323	46782
587.356	47293
587.377	47872
587.427	49264
587.431	49339
587.485	49399
587.499	49556
587.539	50539
587.571	51956
587.593	53046
587.643	54533
587.648	54692
587.702	55745
587.715	56012
587.755	56295
587.786	56735
587.810	57282
587.858	57660
587.864	57716
587.917	58289
587.930	58489
587.971	59862
588.001	60947
588.025	61518
588.073	62045
588.079	62236
588.133	63432
588.145	63830
588.187	65865
588.217	67307
588.241	68995
588.288	72493
588.295	73000
588.348	77026
588.360	77696
588.402	81216
588.431	84012
588.456	86711
588.503	92441
588.510	93711
588.564	104853
588.575	107164
588.617	117769
588.646	126227
588.671	136577
588.718	159210
588.725	165330
588.778	220968
588.789	234814
588.832	352066
588.861	442842
588.886	581606
588.932	842921
588.939	860624
588.993	925229
589.004	929502
589.047	648562
589.075	450520
589.100	355605
589.147	203111
589.154	196421
589.207	157564
589.218	150562
589.261	146007
589.290	144697
589.314	149773
589.361	164780
589.368	171799
589.421	235912
589.433	252277
589.475	407729
589.504	526108
589.528	646318
589.576	847514
589.582	822723
589.635	532612
589.647	468713
589.689	280358
589.718	160524
589.742	139166
589.790	103134
589.795	101603
589.849	89900
589.861	87343
589.902	82587
589.932	78775
589.955	76204
590.004	71032
590.009	70778
590.062	67981
590.075	67238
590.115	66000
590.146	64969
590.168	64643
590.218	63957
590.222	64056
590.275	64840
590.289	64995
590.328	65500
590.360	65552
590.381	65535
590.431	65696
590.435	65695
590.488	64518
590.503	64092
590.541	65399
590.574	66495
590.594	66935
590.645	68033
590.647	68153
590.700	69260
590.716	69623
590.753	71478
590.787	72907
590.806	73576
590.859	75176
590.859	75256
590.912	74731
590.930	74627
590.965	75517
591.001	75890
591.018	75511
591.071	74488
591.072	74396
591.124	73252
591.143	72901
591.177	73713
591.214	74497
591.230	74927
591.283	76115
591.285	76065
591.336	75688
591.356	75461
591.389	75375
591.427	74933
591.442	74832
591.495	74429
591.498	74296
591.547	74579
591.569	74709
591.600	75963
591.640	77320
591.653	77680
591.706	78580
591.711	78619
591.759	79986
591.782	80461
591.811	83081
591.853	86699
591.864	86522
591.917	84877
591.924	84522
591.969	85090
591.995	85269
592.022	85525
592.066	85761
592.075	86335
592.127	89182
592.137	89586
592.180	91005
592.208	91704
592.233	92338
592.279	93222
592.285	93447
592.338	94311
592.350	94375
592.390	94732
592.421	94802
592.443	95697
592.491	97240
592.495	97459
592.548	98650
592.562	98838
592.600	98839
592.633	98600
592.653	98711
592.704	98104
592.705	98699
592.775	100390
592.846	103382
592.916	104258
592.987	105461
593.058	106087
593.128	107216
593.199	106841
593.270	108113
593.341	110367
593.411	112987
593.482	117794
593.553	121745
593.623	120995
593.694	126419
593.764	127891
593.835	127638
593.906	127570
593.976	131092
594.047	134346
594.117	141327
594.188	142886
594.258	142665
594.329	143654
594.399	147022
594.470	151445
594.540	156241
594.611	158006
594.681	158932
594.751	159045
594.822	164418
594.892	169678
594.963	175826
595.033	178824
595.103	183938
595.174	185981
595.244	194141
595.314	200437
595.384	201515
595.455	206690
595.525	214329
595.595	221125
595.665	220689
595.736	216039
595.806	220917
595.876	222848
595.946	224492
596.016	233597
596.087	242123
596.157	241379
596.227	243823
596.297	254803
596.367	272492
596.437	286963
596.507	285521
596.577	286063
596.647	292542
596.717	306088
596.787	311871
596.857	310648
596.927	312620
596.997	313414
597.067	319462
597.137	323953
597.207	322813
597.277	327383
597.347	312074
597.417	304934
597.487	307763
597.557	310847
597.626	320419
597.696	323418
597.766	320812
597.836	306235
597.906	292007
597.975	285961
598.045	292462
598.115	304656
598.185	325885
598.254	357990
598.324	386060
598.394	393987
598.464	381420
598.533	373208
598.603	354610
598.672	343220
598.742	353105
598.812	353532
598.881	363039
598.951	361592
599.020	364790
599.090	380148
599.159	386203
599.229	371140
599.299	364611
599.368	372815
599.437	369331
599.507	343742
599.576	333089
599.646	330860
599.715	327182
599.785	324887
599.854	318190
599.924	315571
599.993	314994
600.062	321921
600.132	332115
600.201	347349
600.270	394379
600.340	412691
600.409	406323
600.478	401444
600.547	410996
600.617	376804
600.686	313453
600.755	289205
600.824	280305
600.894	272467
600.963	274711
601.032	273768
601.101	265858
601.170	256572
601.239	252290
601.308	253567
601.378	255108
601.447	257622
601.516	259359
601.585	264190
601.654	268752
601.723	267744
601.792	278710
601.861	285341
601.930	298172
601.999	301432
602.068	300607
602.137	302932
602.206	306473
602.275	313302
602.343	313635
602.412	315169
602.481	319876
602.550	320058
602.619	329747
602.688	330710
602.756	336206
602.825	335970
602.894	343930
602.963	348499
603.032	354504
603.100	353829
603.169	351192
603.238	356586
603.307	355864
603.375	357974
603.444	368100
603.513	363173
603.581	372384
603.650	379507
603.719	360335
603.787	365074
603.856	370317
603.924	378459
603.993	391814
604.061	403026
604.130	420496
604.198	427119
604.267	432670
604.335	441038
604.404	445746
604.472	454818
604.541	454718
604.609	461840
604.678	463911
604.746	471311
604.815	483307
604.883	482589
604.951	481202
605.020	489488
605.088	489340
605.156	491314
605.225	499390
605.293	494875
605.361	499628
605.429	501289
605.498	513630
605.566	520782
605.634	539751
605.702	556900
605.771	569188
605.839	573301
605.907	555873
605.975	544245
606.043	531978
606.111	530851
606.180	536255
606.248	521468
606.316	519657
606.384	524449
606.452	507571
606.520	507160
606.588	521351
606.656	523639
606.724	513610
606.792	488230
606.860	441608
606.928	409954
606.996	390935
607.064	390051
607.132	397820
607.200	421119
607.267	434208
607.335	439961
607.403	450693
607.471	432592
607.539	423325
607.607	425193
607.674	378572
607.742	380641
607.810	378474
607.878	375587
607.946	385031
608.013	401700
608.081	409988
608.149	409145
608.216	425324
608.284	435266
608.352	437367
608.419	431807
608.487	424633
608.555	415438
608.622	431474
608.690	452539
608.757	495407
608.825	502342
608.893	490780
608.960	465047
609.028	447126
609.095	445649
609.163	444756
609.230	399287
609.298	372195
609.365	392090
609.432	420752
609.500	453865
609.567	512047
609.635	577139
609.702	596636
609.769	570169
609.837	462124
609.904	412828
609.971	433095
610.039	477550
610.106	598691
610.173	988539
610.241	1889375
610.308	1265987
610.375	572151
610.442	457483
610.509	425884
610.577	418698
610.644	427977
610.711	435558
610.778	444890
610.845	464747
610.912	487791
610.980	503923
611.047	507849
611.114	495868
611.181	480599
611.248	478611
611.315	503047
611.382	517953
611.449	533084
611.516	540471
611.583	537663
611.650	537805
611.717	551233
611.784	564651
611.851	591688
611.918	629453
611.984	720907
612.051	929812
612.118	1494398
612.185	2643273
612.252	2049962
612.319	924031
612.386	733305
612.452	657282
612.519	619144
612.586	600768
612.653	605492
612.719	621627
612.786	597541
612.853	557025
612.919	549097
612.986	551427
613.053	522064
613.120	496254
613.186	480640
613.253	482661
613.319	482907
613.386	484441
613.453	494282
613.519	493789
613.586	486849
613.652	492793
613.719	487284
613.785	494070
613.852	499914
613.918	495177
613.985	498985
614.051	525080
614.118	528260
614.184	508036
614.250	495439
614.317	503840
614.383	497734
614.449	508607
614.516	504191
614.582	509456
614.648	497297
614.715	493624
614.781	486349
614.847	484196
614.914	483931
614.980	470269
615.046	473288
615.112	485510
615.179	484935
615.245	494096
615.311	488067
615.377	495612
615.443	504185
615.509	507583
615.575	524255
615.642	525772
615.708	537569
615.774	564769
615.840	605638
615.906	649059
615.972	765393
616.038	1038607
616.104	1751360
616.170	2854382
616.236	2604216
616.302	1276260
616.368	977183
616.434	745951
616.500	668180
616.565	722516
616.631	895330
616.697	776509
616.763	774977
616.829	1071882
616.895	1732821
616.961	1697417
617.026	877123
617.092	601258
617.158	541684
617.224	518039
617.289	479728
617.355	458343
617.421	448758
617.487	444396
617.552	425695
617.618	420548
617.684	420152
617.749	424413
617.815	405865
617.880	397451
617.946	396118
618.012	402256
618.077	410213
618.143	393946
618.208	396657
618.274	422401
618.339	422504
618.405	359635
618.470	357865
618.536	356472
618.601	351855
618.667	329871
618.732	315448
618.798	310522
618.863	310051
618.928	309105
618.994	313304
619.059	309869
619.124	315822
619.190	310387
619.255	308763
619.320	309108
619.386	313389
619.451	309644
619.516	296412
619.581	299725
619.647	308707
619.712	308615
619.777	297390
619.842	298455
619.907	303342
619.972	307915
620.038	305016
620.103	299081
620.168	298294
620.233	304144
620.298	306120
620.363	305604
620.428	314752
620.493	320887
620.558	326869
620.623	331014
620.688	326912
620.753	326205
620.818	332958
620.883	333810
620.948	332448
621.013	327439
621.078	324309
621.143	327226
621.207	333041
621.272	325219
621.337	318427
621.402	314662
621.467	311933
621.532	312320
621.596	314779
621.661	303935
621.726	300885
621.791	304757
621.855	305592
621.920	304016
621.985	307951
622.049	313731
622.114	314157
622.179	320009
622.243	324928
622.308	333995
622.373	345075
622.437	338954
622.502	320439
622.566	316881
622.631	318188
622.695	323231
622.760	320713
622.824	319490
622.889	322612
622.953	323808
623.018	338443
623.082	342457
623.147	337997
623.211	330863
623.276	331573
623.340	317852
623.404	312266
623.469	308210
623.533	314399
623.597	306679
623.662	304543
623.726	285597
623.790	270622
623.854	265377
623.919	269160
623.983	273767
624.047	278012
624.111	277083
624.176	282772
624.240	283347
624.304	290995
624.368	280206
624.432	283057
624.496	289264
624.560	302455
624.625	304361
624.689	301590
624.753	313308
624.817	300759
624.881	290898
624.945	270349
625.009	259618
625.073	263323
625.137	269733
625.201	282767
625.265	282769
625.329	271901
625.393	273666
625.456	277401
625.520	285734
625.584	288191
625.648	295252
625.712	304310
625.776	309457
625.839	297832
625.903	248972
625.967	230495
626.031	244267
626.095	286270
626.158	263048
626.222	212950
626.286	197433
626.349	192029
626.413	179862
626.477	179661
626.540	181399
626.604	181241
626.668	176915
626.731	174420
626.795	174392
626.858	173914
626.922	172000
626.986	169275
627.049	169432
627.113	177482
627.176	171977
627.240	165514
627.303	167029
627.366	163352
627.430	167524
627.493	164572
627.557	162038
627.620	166367
627.684	171678
627.747	174189
627.810	159695
627.874	143562
627.937	138419
628.000	145277
628.064	139143
628.127	125913
628.190	124452
628.253	121555
628.317	114683
628.380	112473
628.443	109271
628.506	108546
628.569	103623
628.632	100094
628.696	98492
628.759	98775
628.822	92859
628.885	92651
628.948	91391
629.011	91189
629.074	87025
629.137	85223
629.200	83209
629.263	82898
629.326	81195
629.389	83052
629.452	79320
629.515	79240
629.578	78252
629.641	80326
629.704	78893
629.767	77991
629.830	75989
629.892	74469
629.955	72953
630.018	77263
630.081	73765
630.144	75976
630.207	72084
630.269	76263
630.332	70527
630.395	72432
630.458	70167
630.520	66878
630.583	69205
630.646	69893
630.708	68759
630.771	71263
630.834	76011
630.896	72091
630.959	72895
631.021	71780
631.084	70996
631.146	74007
631.209	73840
631.272	73432
631.334	73929
631.397	77116
631.459	77857
631.522	80991
631.584	83284
631.646	90308
631.709	93608
631.771	92802
631.834	88803
631.896	85511
631.958	77174
632.021	76884
632.083	71702
632.145	71186
632.208	69653
632.270	70948
632.332	67015
632.395	66649
632.457	68492
632.519	67882
632.581	66621
632.643	66308
632.706	66453
632.768	64100
632.830	65962
632.892	69388
632.954	68607
633.016	69827
633.078	67874
633.141	68860
633.203	67504
633.265	68643
633.327	69175
633.389	67581
633.451	69700
633.513	70300
633.575	70452
633.637	71274
633.698	73574
633.760	75892
633.822	79083
633.884	81925
633.946	84937
634.008	85942
634.070	91448
634.132	97659
634.193	105479
634.255	115037
634.317	116146
634.379	114831
634.441	101767
634.502	93521
634.564	84148
634.626	78777
634.687	73700
634.749	70449
634.811	71252
634.873	67999
634.934	69124
634.996	69476
635.057	68755
635.119	69950
635.181	72502
635.242	73967
635.304	70716
635.365	74579
635.427	70306
635.488	74548
635.550	73374
635.611	75891
635.673	74256
635.734	82846
635.796	85439
635.857	95623
635.918	101274
635.980	112008
636.041	119294
636.102	125283
636.164	126696
636.225	122587
636.286	105182
636.348	94424
636.409	82621
636.470	78994
636.531	75281
636.593	70664
636.654	69085
636.715	65773
636.776	63058
636.838	62312
636.899	62226
636.960	59111
637.021	57579
637.082	58728
637.143	56949
637.204	55463
637.265	56117
637.326	57145
637.387	58150
637.448	56867
637.509	57103
637.570	57339
637.631	56394
637.692	54212
637.753	52863
637.814	53392
637.875	53552
637.936	53741
637.997	52278
638.058	51032
638.119	53665
638.179	52781
638.240	53116
638.301	52295
638.362	50438
638.423	49722
638.483	49975
638.544	47860
638.605	48898
638.666	49020
638.726	49378
638.787	49526
638.848	49707
638.908	47315
638.969	46182
639.030	45253
639.090	44979
639.151	45828
639.211	47747
639.272	48548
639.332	48323
639.393	50518
639.453	53081
639.514	56279
639.574	47869
639.635	44758
639.695	44592
639.756	42576
639.816	43391
639.877	43898
639.937	45051
639.997	45691
640.058	44481
640.118	43248
640.178	44832
640.239	44381
640.299	45217
640.359	45470
640.420	50607
640.480	55992
640.540	61827
640.600	66265
640.661	57946
640.721	54053
640.781	56446
640.841	51574
640.901	47232
640.961	46415
641.021	48422
641.082	52121
641.142	46480
641.202	44124
641.262	39684
641.322	42462
641.382	40864
641.442	42903
641.502	40850
641.562	43262
641.622	44146
641.682	48508
641.742	53677
641.802	52115
641.861	44882
641.921	41090
641.981	40753
642.041	39152
642.101	38744
642.161	38824
642.221	38758
642.280	39847
642.340	39677
642.400	39433
642.460	41140
642.519	41426
642.579	40604
642.639	42398
642.698	40177
642.758	44765
642.818	41921
642.877	42182
642.937	42348
642.997	41994
643.056	42244
643.116	41645
643.175	44361
643.235	45315
643.294	46837
643.354	52780
643.414	56395
643.473	66579
643.532	82259
643.592	111087
643.651	158224
643.711	249323
643.770	438768
643.830	929547
643.889	1615282
643.948	608220
644.008	165666
644.067	97113
644.126	73366
644.186	60539
644.245	53026
644.304	48537
644.363	48965
644.423	45191
644.482	48006
644.541	51595
644.600	53645
644.659	69601
644.719	85703
644.778	120534
644.837	190302
644.896	365254
644.955	781104
645.014	313684
645.073	84086
645.132	60639
645.191	54740
645.250	52496
645.309	56924
645.368	61947
645.427	79595
645.486	130691
645.545	232394
645.604	83525
645.663	48341
645.722	48975
645.781	53776
645.840	61312
645.898	76265
645.957	103051
646.016	147373
646.075	235157
646.134	415688
646.192	967643
646.251	1314557
646.310	349472
646.369	118459
646.427	88955
646.486	67715
646.545	52130
646.603	46770
646.662	45573
646.721	43246
646.779	44505
646.838	49724
646.896	61340
646.955	77947
647.014	117311
647.072	213554
647.131	551523
647.189	305771
647.248	60387
647.306	40600
647.365	38066
647.423	31542
647.481	34164
647.540	30221
647.598	32036
647.657	29719
647.715	30534
647.773	27938
647.832	29445
647.890	26058
647.948	26622
648.007	26493
648.065	25757
648.123	24558
648.181	25954
648.240	26997
648.298	24905
648.356	24205
648.414	25398
648.472	24239
648.531	25317
648.589	23374
648.647	24015
648.705	24740
648.763	26326
648.821	27630
648.879	30208
648.937	33826
648.995	43535
649.053	55169
649.111	80058
649.169	118809
649.227	195126
649.285	386381
649.343	959221
649.401	543843
649.459	104097
649.516	55695
649.574	47195
649.632	53056
649.690	61221
649.748	64445
649.806	89282
649.863	157145
649.921	403432
649.979	306610
650.037	53180
650.094	29318
650.152	25390
650.210	22863
650.268	23405
650.325	22946
650.383	23228
650.440	18957
650.498	20559
650.556	17976
650.613	17194
650.671	17972
650.728	19900
650.786	20827
650.843	28144
650.901	23298
650.958	18254
651.016	16651
651.073	16348
651.131	16075
651.188	15425
651.246	15235
651.303	15399
651.360	14909
651.418	15316
651.475	14858
651.532	14621
651.590	14349
651.647	14481
651.704	14297
651.762	15301
651.819	14225
651.876	13439
651.933	13008
651.990	14430
652.048	12068
652.105	13550
652.162	12987
652.219	13499
652.276	13260
652.333	12872
652.390	11716
652.448	13392
652.505	12792
652.562	13326
652.619	12899
652.676	14859
652.733	15126
652.790	12222
652.847	10658
652.904	13425
652.961	10739
653.017	11380
653.074	11553
653.131	11552
653.188	11196
653.245	12797
653.302	11808
653.359	12288
653.415	11638
653.472	11379
653.529	11657
653.586	12055
653.642	11408
653.699	12518
653.756	11617
653.813	12212
653.869	12546
653.926	12965
653.983	10869
654.039	13139
654.096	11292
654.152	12259
654.209	10280
654.266	11212
654.322	10935
654.379	11367
654.435	12121
654.492	11196
654.548	11697
654.605	12046
654.661	12734
654.717	11339
654.774	11314
654.830	11035
654.887	10808
654.943	11253
655.000	13155
655.056	12002
655.112	11373
655.168	10780
655.225	11652
655.281	12377
655.337	11936
655.394	12634
655.450	11708
655.506	11590
655.562	11849
655.618	13849
655.675	9958
655.731	10761
655.787	10413
655.843	11877
655.899	10191
655.955	11822
656.011	11577
656.067	10831
656.123	11808
656.179	11455
656.235	12845
656.291	10604
656.347	12905
656.403	11941
656.459	11335
656.515	11244
656.571	11695
656.627	10380
656.683	10106
656.739	12156
656.795	10362
656.850	11243
656.906	12165
656.962	13448
657.018	12949
657.074	16135
657.129	19467
657.185	29671
657.241	66713
657.297	46902
657.352	13589
657.408	11862
657.464	11263
657.519	10368
657.575	10003
657.630	10602
657.686	9360
657.742	9669
657.797	8965
657.853	9933
657.908	10355
657.964	9025
658.019	9427
658.075	10165
658.130	10108
658.186	8584
658.241	9319
658.297	8476
658.352	8788
658.407	9462
658.463	8279
658.518	9035
658.573	8239
658.629	9169
658.684	7212
658.739	10249
658.795	8702
658.850	8701
658.905	8193
658.960	9148
659.016	7960
659.071	8743
659.126	8511
659.181	8344
659.236	9405
659.291	10074
659.346	7828
659.401	8967
659.457	9581
659.512	9668
659.567	9597
659.622	9361
659.677	8060
659.732	7665
659.787	7728
659.842	8474
659.897	8140
659.952	8300
660.007	7976
660.061	9343
660.116	7143
660.171	8886
660.226	8446
660.281	9156
660.336	8168
660.391	8948
660.445	6867
660.500	8863
660.555	8119
660.610	8198
660.664	8284
660.719	7792
660.774	8209
660.828	7990
660.883	7633
660.938	9150
660.992	7320
661.047	7704
661.101	6862
661.156	7552
661.211	6661
661.265	7849
661.320	6504
661.374	8290
661.429	7588
661.483	7909
661.538	6871
661.592	7880
661.647	7384
661.701	9563
661.755	8492
661.810	7603
661.864	7080
661.919	7423
661.973	8172
662.027	6882
662.081	7344
662.136	7059
662.190	7767
662.244	8533
662.299	7279
662.353	8094
662.407	7788
662.461	7649
662.515	7823
662.569	6843
662.624	8248
662.678	7379
662.732	7322
662.786	7352
662.840	6704
662.894	7798
662.948	7255
663.002	7875
663.056	7668
663.110	7447
663.164	7178
663.218	7928
663.272	8028
663.326	8509
663.380	7262
663.434	8085
663.488	7477
663.542	7549
663.595	7720
663.649	7492
663.703	7952
663.757	7827
663.811	6370
663.864	8446
663.918	8272
663.972	7362
664.026	7766
664.079	8058
664.133	8508
664.187	8783
664.240	7649
664.294	7926
664.348	8186
664.401	8482
664.455	8002
664.508	7563
664.562	7511
664.615	7539
664.669	6969
664.722	7729
664.776	6936
664.829	7593
664.883	7892
664.936	7007
664.990	6789
665.043	9088
665.097	7358
665.150	9368
665.203	7941
665.257	8500
665.310	8103
665.363	8867
665.417	8240
665.470	9154
665.523	8754
665.576	9239
665.630	8049
665.683	8795
665.736	7772
665.789	9195
665.842	7267
665.895	9120
665.949	8240
666.002	7960
666.055	8150
666.108	8587
666.161	7521
666.214	8858
666.267	9028
666.320	9361
666.373	8742
666.426	9628
666.479	7960
666.532	9964
666.585	8899
666.638	10715
666.691	9074
666.744	9485
666.796	8870
666.849	8869
666.902	8470
666.955	9330
667.008	8219
667.060	8762
667.113	8558
667.166	9561
667.219	9601
667.271	10177
667.324	9298
667.377	9990
667.430	7996
667.482	9880
667.535	9061
667.587	8698
667.640	8326
667.693	9276
667.745	8652
667.798	9563
667.850	8481
667.903	9030
667.955	9130
668.008	9219
668.060	8724
668.113	9302
668.165	8291
668.218	9128
668.270	8863
668.322	8926
668.375	7874
668.427	8871
668.479	8122
668.532	8919
668.584	8244
668.636	8522
668.689	8708
668.741	8320
668.793	8331
668.845	8521
668.898	8837
668.950	9009
669.002	8516
669.054	8832
669.106	7894
669.158	7994
669.211	7777
669.263	8334
669.315	9453
669.367	9828
669.419	7098
669.471	9661
669.523	7727
669.575	10044
669.627	8181
669.679	8729
669.731	8024
669.783	8960
669.835	8886
669.886	8578
669.938	8598
669.990	9135
670.042	8442
670.094	8302
670.146	9108
670.197	10477
670.249	10966
670.301	12752
670.353	15554
670.404	18936
670.456	24522
670.508	34007
670.560	47183
670.611	71880
670.663	112322
670.715	245370
670.766	383657
670.818	153442
670.869	36281
670.921	21401
670.972	17796
671.024	14390
671.075	12723
671.127	13349
671.178	13197
671.230	14982
671.281	15612
671.333	18161
671.384	21199
671.436	29674
671.487	39622
671.538	52718
671.590	74755
671.641	113239
671.692	185018
671.744	332464
671.795	289912
671.846	133483
671.897	63694
671.949	38944
672.000	27508
672.051	20524
672.102	17327
672.153	14907
672.204	11453
672.256	12567
672.307	10912
672.358	11327
672.409	8740
672.460	9690
672.511	8140
672.562	8796
672.613	7310
672.664	7349
672.715	7592
672.766	7473
672.817	6087
672.868	7691
672.919	6162
672.970	7025
673.021	5943
673.071	6618
673.122	6102
673.173	6692
673.224	6314
673.275	6917
673.326	5418
673.376	6150
673.427	6090
673.478	6174
673.528	6824
673.579	7776
673.630	6156
673.680	7550
673.731	5577
673.782	6399
673.832	5095
673.883	6453
673.934	6221
673.984	6623
674.035	5846
674.085	6192
674.136	6209
674.186	6896
674.237	6592
674.287	8427
674.338	7009
674.388	7969
674.438	7181
674.489	8126
674.539	7224
674.589	8190
674.640	7385
674.690	7254
674.740	7151
674.791	7460
674.841	6732
674.891	6787
674.942	6548
674.992	6520
675.042	5443
675.092	5406
675.142	4916
675.193	5777
675.243	4955
675.293	6416
675.343	5495
675.393	6542
675.443	5656
675.493	6165
675.543	5351
675.593	5349
675.643	5396
675.693	6621
675.743	5422
675.793	5988
675.843	4238
675.893	5249
675.943	4473
675.993	4938
676.043	4177
676.093	5158
676.142	4675
676.192	5114
676.242	4227
676.292	5178
676.341	4422
676.391	5348
676.441	4723
676.491	5233
676.540	4291
676.590	4860
676.640	3500
676.689	5059
676.739	3520
676.789	4780
676.838	4334
676.888	4268
676.937	4144
676.987	4747
677.037	3914
677.086	4262
677.136	3477
677.185	4305
677.235	3510
677.284	5351
677.333	4558
677.383	4529
677.432	3159
677.482	4253
677.531	3838
677.580	4719
677.630	3408
677.679	4263
677.728	3848
677.778	5026
677.827	3463
677.876	4566
677.925	4718
677.975	4884
678.024	4873
678.073	5377
678.122	5007
678.171	5848
678.220	4925
678.269	7149
678.319	7071
678.368	7864
678.417	6452
678.466	5875
678.515	4513
678.564	4285
678.613	4000
678.662	3884
678.711	3390
678.760	4563
678.809	3706
678.857	4420
678.906	4659
678.955	4338
679.004	4525
679.053	4081
679.102	3766
679.151	4089
679.199	3762
679.248	4973
679.297	3523
679.346	4212
679.394	2602
679.443	4025
679.492	3198
679.540	4816
679.589	2978
679.638	5155
679.686	4232
679.735	5749
679.784	5610
679.832	7229
679.881	5611
679.929	5126
679.978	3617
680.026	3856
680.075	3868
680.123	3270
680.172	3457
680.220	3564
680.268	3722
680.317	3999
680.365	2875
680.414	3250
680.462	2424
680.510	3466
680.559	3403
680.607	3926
680.655	2372
680.703	3213
680.752	2935
680.800	3371
680.848	3660
680.896	3227
680.945	3017
680.993	3264
681.041	3091
681.089	3763
681.137	2325
681.185	2803
681.233	4046
681.258	3526
681.281	3027
681.329	2770
681.377	3360
681.380	3338
681.425	2806
681.473	3393
681.502	3511
681.521	3572
681.569	3792
681.617	3182
681.624	3278
681.665	3853
681.713	3703
681.745	3970
681.761	4085
681.809	3270
681.857	4083
681.867	4017
681.904	3753
681.952	4895
681.989	3624
682.000	3238
682.048	3288
682.096	2846
682.111	3045
682.143	3427
682.191	2981
682.233	4038
682.239	4189
682.286	3109
682.334	3441
682.354	3207
682.382	2884
682.430	4363
682.476	3564
682.477	3541
682.525	3523
682.572	2693
682.598	3013
682.620	3279
682.667	3788
682.715	4032
682.720	3932
682.763	2943
682.810	3941
682.841	3521
682.857	3285
682.905	3933
682.952	3716
682.963	3754
683.000	3833
683.047	3717
683.085	4367
683.095	4547
683.142	3567
683.190	4255
683.206	3854
683.237	3077
683.284	3870
683.328	3712
683.332	3692
683.379	3389
683.426	3552
683.449	3613
683.473	3707
683.521	3305
683.568	3873
683.571	3869
683.615	3662
683.662	4314
683.693	3755
683.709	3453
683.757	3946
683.804	3345
683.814	3344
683.851	3266
683.898	3880
683.936	3910
683.945	3925
683.992	3708
684.039	4103
684.057	3729
684.086	3103
684.133	3281
684.179	3333
684.180	3328
684.227	3917
684.274	2894
684.300	3132
684.321	3341
684.368	3533
684.415	4206
684.422	4053
684.462	3149
684.509	3829
684.543	3803
684.556	3764
684.603	3730
684.649	3427
684.665	3315
684.696	3104
684.743	3667
684.786	4493
684.790	4551
684.837	3142
684.883	3428
684.908	3516
684.930	3663
684.977	4327
685.023	3683
685.029	3748
685.070	4058
685.117	3567
685.150	3874
685.164	4041
685.210	4341
685.257	4580
685.272	4519
685.303	4262
685.350	4291
685.393	3477
685.396	3410
685.443	3556
685.490	3574
685.514	3785
685.536	4000
685.583	3446
685.629	3722
685.636	3658
685.675	3198
685.722	3725
685.757	3737
685.768	3740
685.815	3644
685.861	3824
685.878	3827
685.908	3898
685.954	3223
686.000	4318
686.000	4332
686.047	3798
686.093	4490
686.121	4187
686.139	4014
686.185	4713
686.232	3838
686.242	3963
686.278	4298
686.324	3900
686.363	3879
686.370	3887
686.416	4513
686.463	4676
686.484	4268
686.509	3801
686.555	4456
686.601	4014
686.606	4061
686.647	4472
686.693	4009
686.727	4575
686.739	4761
686.785	4149
686.831	4129
686.848	4142
686.877	4202
686.923	4368
686.969	4003
686.969	4001
687.015	4377
687.061	3869
687.090	4256
687.107	4411
687.153	4736
687.199	5079
687.211	4711
687.245	3671
687.291	4543
687.332	3478
687.336	3403
687.382	4682
687.428	4641
687.453	4739
687.474	4679
687.520	4484
687.565	4945
687.574	4808
687.611	4500
687.657	5131
687.695	5244
687.702	5299
687.748	6135
687.794	7501
687.816	7281
687.839	6625
687.885	5893
687.931	5652
687.937	5430
687.976	4479
688.022	5050
688.058	4677
688.067	4604
688.113	4713
688.158	4306
688.179	4600
688.204	4940
688.249	4987
688.295	4854
688.300	4799
688.340	4538
688.386	5439
688.421	4907
688.431	4724
688.477	4317
688.522	4464
688.542	4901
688.567	5595
688.613	4909
688.658	5541
688.663	5501
688.703	4967
688.749	4967
688.784	5285
688.794	5415
688.839	5779
688.884	5324
688.905	5526
688.930	5632
688.975	5319
689.020	5013
689.026	4944
689.065	4751
689.110	5009
689.146	4973
689.155	4920
689.201	5467
689.246	4795
689.267	4902
689.291	5126
689.336	5085
689.381	5232
689.388	5161
689.426	4789
689.471	5179
689.509	5140
689.516	5136
689.561	5066
689.606	5082
689.630	5165
689.651	5265
689.696	5108
689.741	5626
689.750	5614
689.785	5560
689.830	5463
689.871	5677
689.875	5701
689.920	5600
689.965	5208
689.992	5459
690.010	5645
690.054	5121
690.099	5554
690.112	5528
690.144	5375
690.189	5500
690.233	4766
690.233	4768
690.278	5106
690.323	5239
690.354	5309
690.367	5346
690.412	4677
690.457	5169
690.474	5165
690.501	5375
690.546	6182
690.590	6054
690.595	6074
690.635	5979
690.680	5325
690.716	5914
690.724	6094
690.769	6016
690.813	6617
690.836	6487
690.857	6766
690.902	8432
690.946	9005
690.957	9367
690.991	11544
691.035	14566
691.077	17963
691.080	17994
691.124	16073
691.168	13704
691.198	12389
691.213	11565
691.257	10062
691.301	7738
691.318	7134
691.346	6986
691.390	6730
691.434	6123
691.439	6022
691.478	5719
691.522	6120
691.559	6223
691.567	6239
691.611	6229
691.655	6342
691.680	6135
691.699	5934
691.743	5888
691.787	5742
691.800	5655
691.831	5764
691.875	6147
691.919	6175
691.921	6174
691.964	6034
692.008	5786
692.041	5648
692.052	5647
692.096	5518
692.139	5667
692.162	5551
692.183	5528
692.227	5316
692.271	5626
692.282	5645
692.315	5679
692.359	5475
692.402	5686
692.403	5699
692.447	5992
692.490	6108
692.523	6086
692.534	6027
692.578	6317
692.622	5989
692.643	6076
692.666	6137
692.709	5584
692.753	5426
692.763	5367
692.797	5443
692.840	5552
692.884	5822
692.884	5834
692.928	6151
692.971	5857
693.004	5972
693.015	6072
693.059	5985
693.102	6476
693.124	6314
693.146	6124
693.189	6395
693.233	6392
693.245	6466
693.276	6771
693.320	6786
693.363	7133
693.365	7110
693.407	6995
693.450	7746
693.485	7702
693.493	7747
693.537	8827
693.580	8665
693.605	9334
693.624	10323
693.667	12250
693.710	14130
693.725	14814
693.753	18555
693.797	25009
693.840	31560
693.845	32165
693.883	29748
693.926	25586
693.966	22632
693.970	22211
694.013	17474
694.056	13158
694.086	9911
694.099	9466
694.142	8525
694.185	7506
694.206	7043
694.229	7128
694.272	7058
694.315	7190
694.326	7199
694.358	7079
694.401	7052
694.444	6615
694.446	6598
694.487	6668
694.530	6364
694.566	6568
694.573	6632
694.616	6246
694.659	6403
694.686	6317
694.702	6253
694.745	6454
694.787	5904
694.806	5983
694.830	6095
694.873	5826
694.916	5696
694.926	5595
694.959	5794
695.002	6569
695.044	6885
695.046	6894
695.087	7105
695.130	7173
695.166	7193
695.172	7217
695.215	7071
695.258	7474
695.286	7598
695.301	7681
695.343	7872
695.386	7787
695.406	7767
695.428	7875
695.471	8196
695.514	8601
695.526	8691
695.556	9144
695.599	9895
695.641	10131
695.646	10174
695.684	9901
695.726	9299
695.766	8995
695.769	9012
695.811	8910
695.854	8784
695.886	8678
695.896	8702
695.938	8697
695.981	8840
696.005	8850
696.023	9150
696.065	9694
696.108	10669
696.125	10913
696.150	10949
696.192	10942
696.235	10807
696.245	10890
696.277	11356
696.319	11375
696.361	11646
696.365	11648
696.404	11515
696.446	11229
696.485	10791
696.488	10814
696.530	11116
696.572	11175
696.604	11414
696.614	11386
696.656	10904
696.698	10538
696.724	10213
696.740	10266
696.783	10593
696.825	10696
696.844	10791
696.867	10890
696.909	10924
696.951	10946
696.964	10968
696.992	11005
697.034	10916
697.076	10766
697.083	10739
697.118	11295
697.160	11891
697.202	12535
697.203	12523
697.244	11985
697.286	11564
697.323	11034
697.327	11093
697.369	11473
697.411	11795
697.442	12101
697.453	12185
697.494	12223
697.536	12519
697.562	12518
697.578	12426
697.620	12231
697.661	12016
697.682	11921
697.703	12150
697.744	12503
697.786	12923
697.801	12988
697.828	12892
697.869	12891
697.911	12700
697.921	12648
697.952	12793
697.994	12934
698.035	13103
698.040	13092
698.077	12862
698.118	12561
698.160	12229
698.160	12199
698.201	12738
698.243	13108
698.279	13539
698.284	13614
698.325	13964
698.367	14368
698.399	14585
698.408	14656
698.449	14940
698.491	15141
698.518	15261
698.532	15251
698.573	15119
698.614	14972
698.638	14873
698.656	15027
698.697	15300
698.738	15557
698.757	15655
698.779	15562
698.820	15303
698.862	15063
698.877	14935
698.903	14925
698.944	14873
698.985	14806
698.996	14762
699.026	14660
699.067	14472
699.116	14223
699.235	15130
699.354	15241
699.474	13964
699.593	13739
699.713	13633
699.832	14026
699.951	14492
700.070	14748
700.190	13349
700.309	12940
700.428	12286
700.547	12859
700.667	12545
700.786	13376
700.905	12492
701.024	12801
701.143	13350
701.262	12089
701.381	13240
701.500	13777
701.619	12287
701.738	13139
701.857	12843
701.976	12474
702.095	12447
702.214	12912
702.333	12836
702.452	13487
702.571	13835
702.690	12720
702.809	12857
702.928	11769
703.047	12242
703.165	12309
703.284	11921
703.403	11775
703.522	11415
703.640	11681
703.759	10806
703.878	12218
703.997	11867
704.115	11494
704.234	11720
704.353	11372
704.471	10116
704.590	10140
704.708	10700
704.827	10834
704.946	10408
705.064	10627
705.183	10029
705.301	10841
705.420	10844
705.538	11325
705.656	9928
705.775	9619
705.893	13952
706.012	14636
706.130	10116
706.249	10995
706.367	10059
706.485	11052
706.604	9146
706.722	10351
706.840	10984
706.958	15192
707.077	11382
707.195	9705
707.313	9844
707.431	9557
707.549	9918
707.668	8264
707.786	9991
707.904	9540
708.022	10499
708.140	8865
708.258	8375
708.376	10718
708.494	8211
708.612	10893
708.730	10329
708.848	10546
708.966	9833
709.084	10783
709.202	8415
709.320	9777
709.438	9458
709.556	9193
709.674	8421
709.791	8270
709.909	7954
710.027	8414
710.145	7599
710.263	8503
710.380	9078
710.498	8663
710.616	7937
710.733	8095
710.851	8431
710.969	7882
711.086	7908
711.204	8253
711.322	8071
711.439	8320
711.557	7854
711.674	8815
711.792	8107
711.909	8627
712.027	7909
712.144	7591
712.262	8182
712.379	8069
712.497	9403
712.614	9184
712.732	9215
712.849	7390
712.966	9574
713.084	9055
713.201	7686
713.318	9150
713.436	9680
713.553	9698
713.670	10603
713.787	9715
713.905	9635
714.022	10761
714.139	11887
714.256	17461
714.373	29335
714.490	64300
714.608	195512
714.725	794547
714.842	608169
714.959	54359
715.076	22694
715.193	16249
715.310	14164
715.427	10104
715.544	9686
715.661	9469
715.778	9288
715.895	8699
716.011	9189
716.128	8175
716.245	7883
716.362	8412
716.479	6503
716.596	7171
716.713	8104
716.829	6787
716.946	7538
717.063	6858
717.180	5915
717.296	6785
717.413	7297
717.530	5988
717.646	6017
717.763	6375
717.880	6381
717.996	6227
718.113	6501
718.229	5928
718.346	5838
718.462	5764
718.579	6102
718.695	6496
718.812	6378
718.928	6310
719.045	6988
719.161	5813
719.277	6936
719.394	6953
719.510	7125
719.626	9205
719.743	14154
719.859	27076
719.975	72195
720.092	312726
720.208	531792
720.324	52907
720.440	14083
720.557	10429
720.673	9822
720.789	10222
720.905	12917
721.021	7450
721.137	5790
721.253	6287
721.369	6928
721.486	6671
721.602	6594
721.718	5834
721.834	5608
721.950	6034
722.066	5128
722.181	5482
722.297	4993
722.413	5276
722.529	4974
722.645	5299
722.761	4584
722.877	5993
722.993	6981
723.108	10846
723.224	8113
723.340	5738
723.456	4278
723.571	4897
723.687	4318
723.803	4641
723.918	5548
724.034	4700
724.150	5291
724.265	4809
724.381	6101
724.497	5931
724.612	4812
724.728	4535
724.843	4111
724.959	4763
725.074	6414
725.190	6553
725.305	4826
725.421	3982
725.536	5318
725.651	4217
725.767	4386
725.882	4914
725.997	4336
726.113	5011
726.228	3976
726.343	4028
726.459	3961
726.574	4351
726.689	3858
726.804	4258
726.920	4087
727.035	4417
727.150	4425
727.265	4771
727.380	4362
727.495	3990
727.610	3839
727.725	4529
727.841	5163
727.956	7583
728.071	4063
728.186	4564
728.301	3182
728.416	3661
728.531	3929
728.645	4394
728.760	3732
728.875	3917
728.990	3798
729.105	4248
729.220	3862
729.335	3898
729.449	3596
729.564	3482
729.679	4419
729.794	3709
729.908	5181
730.023	4712
730.138	4984
730.253	4310
730.367	3901
730.482	4589
730.596	4984
730.711	5560
730.826	7553
730.940	7589
731.055	5829
731.169	5837
731.284	5799
731.398	6371
731.513	7522
731.627	8245
731.742	11615
731.856	12943
731.970	14310
732.085	20983
732.199	34365
732.313	70798
732.428	208593
732.542	546770
732.656	240095
732.771	43084
732.885	23065
732.999	19134
733.113	18464
733.227	16546
733.342	14284
733.456	14056
733.570	13685
733.684	12663
733.798	12242
733.912	12179
734.026	12589
734.140	11519
734.254	11242
734.368	11962
734.482	12443
734.596	11269
734.710	11100
734.824	11013
734.938	10664
735.052	10886
735.166	10719
735.280	10742
735.393	10479
735.507	10700
735.621	9550
735.735	10900
735.849	10514
735.962	9041
736.076	9853
736.190	9594
736.303	9686
736.417	11233
736.531	9166
736.644	9914
736.758	9689
736.872	9438
736.985	9258
737.099	7600
737.212	8718
737.326	8481
737.439	9929
737.553	8411
737.666	9164
737.780	8311
737.893	8833
738.007	8930
738.120	9020
738.233	7730
738.347	8286
738.460	7838
738.573	9067
738.687	7327
738.800	8457
738.913	9255
739.026	9038
739.140	7703
739.253	8226
739.366	8099
739.479	7660
739.592	7964
739.705	7782
739.818	8320
739.932	7271
740.045	8440
740.158	7131
740.271	7467
740.384	7380
740.497	6201
740.610	8549
740.723	7394
740.836	7116
740.949	7685
741.062	7941
741.174	6710
741.287	7225
741.400	6927
741.513	7259
741.626	8081
741.739	7181
741.851	6962
741.964	7175
742.077	6957
742.189	6461
742.302	7859
742.415	7387
742.527	6645
742.640	5933
742.753	6195
742.865	7330
742.978	6007
743.090	6370
743.203	7049
743.316	5763
743.428	6383
743.541	5729
743.653	5447
743.766	7320
743.878	5565
743.990	5969
744.103	7047
744.215	6472
744.327	6350
744.440	7662
744.552	6485
744.664	5475
744.777	7685
744.889	5746
745.001	6327
745.113	6280
745.226	6091
745.338	5815
745.450	7277
745.562	5689
745.674	6222
745.786	6820
745.898	6332
746.010	6232
746.122	5901
746.234	6081
746.347	6141
746.459	6204
746.570	4674
746.682	7689
746.794	7666
746.906	5623
747.018	5666
747.130	5727
747.242	4992
747.354	5393
747.466	5479
747.577	5369
747.689	5212
747.801	5300
747.913	5358
748.024	4674
748.136	5308
748.248	5003
748.359	5250
748.471	5354
748.583	3876
748.694	4863
748.806	5300
748.918	5321
749.029	4694
749.141	5504
749.252	5973
749.364	4573
749.475	4500
749.587	3633
749.698	4580
749.809	4573
749.921	5283
750.032	4433
750.144	4684
750.255	4339
750.366	4046
750.478	4890
750.589	3649
750.700	3803
750.811	4819
750.923	3850
751.034	4124
751.145	5847
751.256	4243
751.367	4345
751.479	4256
751.590	4326
751.701	4383
751.812	3889
751.923	4101
752.034	5504
752.145	5052
752.256	4745
752.367	3917
752.478	4335
752.589	4716
752.700	4642
752.811	3986
752.922	4578
753.032	5411
753.143	4831
753.254	3764
753.365	5923
753.476	5218
753.586	4342
753.697	3972
753.808	3463
753.919	4148
754.029	4859
754.140	3899
754.251	3649
754.361	4636
754.472	5043
754.582	3844
754.693	4388
754.804	4796
754.914	3595
755.025	3578
755.135	3955
755.246	5064
755.356	3688
755.466	4384
755.577	3861
755.687	3657
755.798	2994
755.908	4290
756.018	3590
756.129	4386
756.239	4449
756.349	5115
756.460	5651
756.570	5875
756.680	5099
756.790	4004
756.900	4140
757.011	4344
757.121	4212
757.231	3806
757.341	4039
757.451	3855
757.561	3843
757.671	3636
757.781	3198
757.891	3480
758.001	3821
758.111	3618
758.221	4508
758.331	5254
758.441	5309
758.551	5483
758.661	5777
758.771	5462
758.880	5915
758.990	5399
759.100	4998
759.210	5018
759.320	5097
759.429	6002
759.539	6832
759.649	6973
759.758	8507
759.868	8276
759.978	8819
760.087	9372
760.197	9669
760.307	8624
760.416	8937
760.526	7313
760.635	8460
760.745	8868
760.854	10949
760.964	11902
761.073	12159
761.182	9738
761.292	8978
761.401	7095
761.511	6022
761.620	5916
761.729	6328
761.839	4667
761.948	5678
762.057	4435
762.166	5275
762.276	4299
762.385	6542
762.494	5482
762.603	5229
762.712	5688
762.822	5173
762.931	5625
763.040	4822
763.149	4230
763.258	6182
763.367	5477
763.476	6567
763.585	5592
763.694	5984
763.803	6973
763.912	7050
764.021	6869
764.130	7009
764.238	7918
764.347	8062
764.456	8656
764.565	9016
764.674	9306
764.783	10605
764.891	9700
765.000	12144
765.109	12299
765.217	14099
765.326	16909
765.435	20316
765.543	23048
765.652	28431
765.761	37670
765.869	51841
765.978	75261
766.086	116131
766.195	197335
766.303	349458
766.412	444814
766.520	430738
766.629	261151
766.737	136575
766.846	85812
766.954	59506
767.062	45115
767.171	34945
767.279	27595
767.387	21376
767.496	18855
767.604	16513
767.712	14392
767.820	12637
767.928	12126
768.037	11354
768.145	10983
768.253	11489
768.361	9799
768.469	10683
768.577	10513
768.685	11219
768.793	11748
768.901	12355
769.009	15630
769.117	17887
769.225	22989
769.333	32883
769.441	50489
769.549	87305
769.657	166036
769.765	327773
769.873	390287
769.981	247036
770.088	104969
770.196	59060
770.304	39826
770.412	30332
770.519	23003
770.627	18909
770.735	14872
770.842	13414
770.950	12845
771.058	12106
771.165	11494
771.273	12102
771.380	11028
771.488	13089
771.595	13285
771.703	10969
771.810	11017
771.918	10594
772.025	12388
772.133	13388
772.240	12651
772.348	13464
772.455	12523
772.562	11859
772.670	10611
772.777	11921
772.884	10842
772.991	10279
773.099	11805
773.206	10089
773.313	11435
773.420	9518
773.528	9541
773.635	9925
773.742	11645
773.849	9571
773.956	9960
774.063	9971
774.170	8891
774.277	10183
774.384	8790
774.491	8869
774.598	9730
774.705	8204
774.812	8592
774.919	8040
775.026	8388
775.133	9010
775.239	9018
775.346	8212
775.453	8667
775.560	7921
775.667	8453
775.773	7757
775.880	9643
775.987	8046
776.093	9334
776.200	7486
776.307	6338
776.413	7378
776.520	8023
776.627	7651
776.733	7110
776.840	6804
776.946	10452
777.053	7612
777.159	9184
777.266	6838
777.372	8579
777.478	9772
777.585	7663
777.691	5650
777.798	7594
777.904	6601
778.010	6990
778.117	7390
778.223	4911
778.329	6847
778.435	5514
778.542	7691
778.648	5957
778.754	5674
778.860	6560
778.966	6519
779.072	6379
779.178	6889
779.284	4924
779.391	5448
779.497	5329
779.603	7610
779.708	6774
779.815	11334
779.920	28028
780.026	33419
780.132	8763
780.238	5708
780.344	5625
780.450	7246
780.556	4383
780.661	4985
780.767	5561
780.873	4102
780.979	5637
781.085	5426
781.190	5034
781.296	5498
781.402	5218
781.507	4397
781.613	3782
781.719	4243
781.824	5527
781.930	4710
782.035	5569
782.141	4929
782.246	3833
782.352	4659
782.457	4416
782.563	3806
782.668	4793
782.773	3757
782.879	3682
782.984	4444
783.090	4400
783.195	4409
783.300	5259
783.405	3925
783.511	3201
783.616	4149
783.721	4621
783.826	3571
783.932	3501
784.037	3281
784.142	4443
784.247	3660
784.352	4649
784.457	3362
784.562	5126
784.667	4930
784.772	2862
784.877	2307
784.982	4507
785.087	4095
785.192	4033
785.297	3983
785.402	4514
785.507	4305
785.611	3604
785.716	3109
785.821	3605
785.926	4042
786.031	3801
786.135	3972
786.240	4161
786.345	1642
786.450	3137
786.554	3505
786.659	2615
786.763	2525
786.868	3491
786.973	4507
787.077	2601
787.182	3237
787.286	4048
787.391	3973
787.495	1905
787.600	2120
787.704	2214
787.809	3424
787.913	3904
788.017	3715
788.122	3347
788.226	2624
788.330	1385
788.435	2953
788.539	3160
788.643	2899
788.747	2366
788.852	3522
788.956	3162
789.060	4132
789.164	3541
789.268	2648
789.372	3643
789.476	2704
789.580	2018
789.684	2374
789.788	3401
789.892	2926
789.996	2042
790.100	1419
790.204	2839
790.308	3755
790.412	1764
790.516	1462
790.620	3453
790.724	2954
790.828	2235
790.931	1372
791.035	2816
791.139	3018
791.242	1028
791.346	2928
791.450	2560
791.554	1534
791.657	992
791.761	3113
791.864	2061
791.968	2993
792.072	2948
792.175	2400
792.279	2573
792.382	2614
792.486	1434
792.589	2727
792.693	1724
792.796	1251
792.899	3015
793.003	2028
793.106	1008
793.209	1629
793.313	2601
793.416	443
793.519	1897
793.623	3106
793.726	2363
793.829	1386
793.932	629
794.035	409
794.138	3874
794.242	2613
794.345	1428
794.448	2163
794.551	2953
794.654	13660
794.757	17749
794.860	3472
794.963	2237
795.066	1017
795.169	2801
795.272	1276
795.375	2068
795.477	1492
795.580	1412
795.683	995
795.786	1489
795.889	339
795.991	3077
796.094	2545
796.197	702
796.300	2658
796.402	1701
796.505	796
796.608	1548
796.710	2441
796.813	2529
796.915	2412
797.018	2587
797.120	2451
797.223	1064
797.326	3306
797.428	702
797.530	2027
797.633	2074
797.735	3735
797.838	1695
797.940	2345
798.042	934
798.145	1425
798.247	1889
798.349	414
798.452	2272
798.554	2201
798.656	2383
798.758	3528
798.860	1517
798.962	2288
799.065	1142
799.167	472
799.269	2857
799.371	3318
799.473	4309
799.575	2869
799.677	1474
799.779	2201
799.881	879
799.983	2827
800.085	1975
800.187	1425
800.289	-32
800.390	1358
800.492	2185
800.594	1868
800.696	1142
800.798	1388
800.899	734
801.001	1536
801.103	1941
801.205	1647
801.306	1957
801.408	1203
801.509	964
801.611	1646
801.713	1862
801.814	534
801.916	453
802.017	882
802.119	757
802.220	1975
802.322	57
802.423	1834
802.525	-130
802.626	1103
802.727	2233
802.829	1248
802.930	-841
803.031	2515
803.133	509
803.234	1098
803.335	1530
803.436	469
803.538	956
803.639	-216
803.740	1484
803.841	595
803.942	1154
804.043	1054
804.144	-222
804.245	952
804.346	1074
804.447	760
804.548	438
804.649	2001
804.750	916
804.851	458
804.952	88
805.053	678
805.154	557
805.255	1012
805.355	928
805.456	671
805.557	1016
805.658	-736
805.758	897
805.859	1456
805.960	1018
806.061	59
806.161	513
806.262	-408
806.362	60
806.463	526
806.564	611
806.664	1032
806.765	703
806.865	1367
806.966	-143
807.066	-260
807.166	924
807.267	1194
807.367	208
807.468	1036
807.568	-1225
807.668	508
807.769	1581
807.869	156
807.969	779
808.069	236
808.170	903
808.270	146
808.370	656
808.470	514
808.570	-68
808.670	1289
808.770	802
808.870	-160
808.970	1020
809.070	414
809.170	248
809.271	1181
809.370	444
809.470	1391
809.570	-25
809.670	222
809.770	-4
809.870	1814
809.970	1210
810.070	1107
810.169	1726
810.269	-1107
810.369	1518
810.469	61
810.568	85
810.668	-255
810.768	-661
810.867	811
810.967	541
811.066	448
811.166	90
811.265	1078
811.365	311
811.464	617
811.564	951
811.663	1027
811.763	-739
811.862	776
811.962	1418
812.061	411
812.160	-71
812.260	727
812.359	781
812.458	575
812.557	1580
812.657	1105
812.756	1119
812.855	415
812.954	-531
813.053	154
813.153	171
813.252	-155
813.351	826
813.450	339
813.549	170
813.648	1113
813.747	-332
813.846	1248
813.945	845
814.044	1045
814.143	570
814.242	1292
814.341	580
814.439	1331
814.538	803
814.637	1362
814.736	1100
814.835	810
814.933	355
815.032	1897
815.131	2873
815.229	5381
815.328	6673
815.427	4184
815.525	4471
815.624	4750
815.722	4038
815.821	4737
815.919	4600
816.018	4322
816.116	4297
816.215	4693
816.313	4549
816.412	5821
816.510	5808
816.609	7377
816.707	7540
816.805	6490
816.904	6734
817.002	7311
817.100	7972
817.198	7467
817.296	5672
817.395	7322
817.493	6031
817.591	5893
817.689	5199
817.787	5761
817.885	6253
817.983	7046
818.081	8989
818.179	15988
818.277	31393
818.375	20823
818.473	8232
818.571	6374
818.669	6104
818.767	5816
818.865	5868
818.963	5036
819.061	6710
819.158	8521
819.256	16451
819.354	29587
819.452	56124
819.549	27336
819.647	9817
819.745	5707
819.842	6084
819.940	5382
820.038	4397
820.135	4333
820.233	5041
820.330	3709
820.428	4216
820.525	5828
820.623	3731
820.720	3311
820.818	4112
820.915	4934
821.012	4085
821.110	2918
821.207	4351
821.304	2949
821.402	4420
821.499	4167
821.596	4176
821.693	4511
821.791	4345
821.888	3587
821.985	4577
822.082	2629
822.179	4153
822.276	4001
822.373	3120
822.470	3604
822.567	3810
822.664	2705
822.761	4395
822.858	3835
822.955	3257
823.052	3021
823.149	3695
823.246	2966
823.343	2328
823.440	3658
823.536	3939
823.633	2698
823.730	2958
823.827	3761
823.923	2259
824.020	3127
824.117	3055
824.213	3448
824.310	3491
824.407	2530
824.503	3340
824.600	2307
824.696	2836
824.793	4105
824.889	3208
824.986	2791
825.082	1963
825.179	2572
825.275	4015
825.371	3859
825.468	1894
825.564	711
825.660	4116
825.757	3940
825.853	2747
825.949	1458
826.045	2646
826.142	1973
826.238	3019
826.334	3283
826.430	1395
826.526	1907
826.622	1933
826.718	3826
826.814	2593
826.910	2289
827.006	988
827.102	1787
827.198	3323
827.294	3240
827.390	2387
827.486	2060
827.582	307
827.678	1640
827.774	3948
827.869	1928
827.965	2201
828.061	896
828.157	3333
828.252	3034
828.348	1140
828.444	2481
828.539	2169
828.635	1884
828.731	3421
828.826	899
828.922	3195
829.017	2816
829.113	2603
829.208	2270
829.304	1961
829.399	4690
829.495	2023
829.590	2699
829.685	1402
829.781	3477
829.876	2531
829.971	1221
830.066	1110
830.162	2436
830.257	2732
830.352	1757
830.447	1031
830.543	1802
830.638	1916
830.733	3626
830.828	1923
830.923	2850
831.018	1962
831.113	3339
831.208	431
831.303	2025
831.398	1362
831.493	2195
831.588	2968
831.683	764
831.778	931
831.873	1560
831.967	2831
832.062	2761
832.157	1276
832.252	2875
832.346	1062
832.441	3065
832.536	1686
832.631	2064
832.725	1842
832.820	935
832.914	1484
833.009	1512
833.104	907
833.198	1652
833.293	1704
833.387	1657
833.482	1442
833.576	1650
833.670	2480
833.765	2068
833.859	1887
833.954	1770
834.048	1026
834.142	1586
834.237	139
834.331	1918
834.425	1596
834.519	573
834.613	1334
834.708	520
834.802	794
834.896	529
834.990	1407
835.084	858
835.178	813
835.272	982
835.366	1781
835.460	2220
835.554	1211
835.648	1058
835.742	724
835.836	1110
835.930	-206
836.024	2124
836.117	1407
836.211	231
836.305	1332
836.399	936
836.493	313
836.586	1714
836.680	1057
836.774	-178
836.867	1496
836.961	383
837.055	324
837.148	1148
837.242	1077
837.335	783
837.429	882
837.522	7
837.616	290
837.709	1397
837.803	519
837.896	1189
837.989	703
838.083	584
838.176	722
838.269	51
838.363	977
838.456	553
838.549	1495
838.642	446
838.735	210
838.829	803
838.922	1353
839.015	952
839.108	-607
839.201	622
839.294	489
839.387	1459
839.480	-511
839.573	-74
839.666	448
839.759	397
839.852	-33
839.945	449
840.038	475
840.131	453
840.223	-372
840.316	872
840.409	338
840.502	371
840.594	1937
840.687	-411
840.780	396
840.873	-282
840.965	66
841.058	158
841.150	1189
841.243	-31
841.336	986
841.428	214
841.521	-682
841.613	31
841.706	-8
841.798	72
841.890	4
841.983	-795
842.075	129
842.167	364
842.260	1120
842.352	1479
842.444	26
842.537	-9
842.629	1128
842.721	-623
842.813	-60
842.905	315
842.997	266
843.090	132
843.182	-48
843.274	-509
843.366	2657
843.458	2781
843.550	2280
843.642	185
843.734	121
843.826	-274
843.918	856
844.009	623
844.101	228
844.193	274
844.285	264
844.377	1280
844.469	749
844.560	-173
844.652	324
844.744	881
844.835	522
844.927	501
845.019	526
845.110	978
845.202	522
845.293	-265
845.385	-744
845.476	-271
845.568	630
845.659	46
845.751	923
845.842	226
845.934	-496
846.025	-426
846.116	139
846.208	86
846.299	224
846.390	-624
846.482	-16
846.573	691
846.664	235
846.755	-88
846.846	292
846.937	-951
847.029	22
847.120	-298
847.211	662
847.302	777
847.393	-615
847.484	375
847.575	-122
847.666	100
847.757	451
847.847	172
847.938	1555
848.029	377
848.120	662
848.211	18
848.302	541
848.392	-373
848.483	789
848.574	-653
848.664	-208
848.755	532
848.846	434
848.936	-480
849.027	1253
849.118	748
849.208	62
849.299	3509
849.389	7494
849.480	15397
849.570	30564
849.661	60159
849.751	87505
849.841	28502
849.932	3892
850.022	836
850.112	1553
850.203	1337
850.293	455
850.383	19
850.474	104
850.564	634
850.654	152
850.744	379
850.834	574
850.924	948
851.014	554
851.104	296
851.194	221
851.284	-48
851.374	121
851.464	-463
851.554	708
851.644	-711
851.734	921
851.824	470
851.914	2
852.004	1263
852.094	-298
852.183	-295
852.273	564
852.363	470
852.452	636
852.542	393
852.632	-26
852.721	915
852.811	55
852.901	1796
852.990	846
853.080	1166
853.169	1404
853.259	1490
853.348	1808
853.438	3010
853.527	6207
853.617	9300
853.706	17087
853.795	32426
853.885	67926
853.974	120900
854.063	209247
854.152	264157
854.242	105314
854.331	26190
854.420	11376
854.509	7705
854.598	5635
854.687	4065
854.777	3111
854.866	2298
854.955	2410
855.044	1035
855.133	1133
855.222	1100
855.311	-95
855.400	206
855.488	280
855.577	-84
855.666	-256
855.755	49
855.844	955
855.933	231
856.021	916
856.110	477
856.199	-187
856.288	-65
856.376	-1158
856.465	-417
856.554	-628
856.642	447
856.731	523
856.819	401
856.908	-598
856.996	-352
857.085	-736
857.173	-140
857.262	-53
857.350	349
857.438	-495
857.527	123
857.615	-83
857.703	177
857.792	-810
857.880	-591
857.968	-110
858.056	-628
858.145	-155
858.233	-365
858.321	-908
858.409	-138
858.497	172
858.585	-147
858.673	9
858.761	-1161
858.849	-382
858.937	169
859.025	-170
859.113	746
859.201	172
859.289	181
859.377	340
859.465	-24
859.552	-1005
859.640	-924
859.728	-166
859.816	-806
859.903	40
859.991	-506
860.079	-87
860.166	-713
860.254	273
860.342	1185
860.429	-798
860.517	-317
860.604	282
860.692	69
860.779	-770
860.867	-138
860.954	338
861.042	-322
861.129	-640
861.216	-49
861.304	77
861.391	270
861.478	-511
861.565	-94
861.653	475
861.740	3
861.827	-1285
861.914	-100
862.001	-246
862.089	-57
862.176	-312
862.263	-242
862.350	-112
862.437	-760
862.524	-912
862.611	-195
862.698	-132
862.785	596
862.871	708
862.958	170
863.045	289
863.132	327
863.219	52
863.306	-1046
863.392	805
863.479	73
863.566	-642
863.652	10
863.739	42
863.826	709
863.912	702
863.999	-958
864.086	237
864.172	612
864.259	1532
864.345	-48
864.432	719
864.518	537
864.604	419
864.691	384
864.777	1456
864.863	3014
864.950	3088
865.036	3491
865.122	7413
865.209	9487
865.295	6719
865.381	6987
865.467	7665
865.553	9379
865.639	13264
865.726	20625
865.812	39723
865.898	66660
865.984	98109
866.070	171426
866.156	157757
866.242	49925
866.328	16526
866.414	9093
866.499	8614
866.585	7073
866.671	5944
866.757	5747
866.843	5715
866.928	5005
867.014	4144
867.100	5707
867.186	4287
867.271	4528
867.357	5519
867.442	4972
867.528	3718
867.614	4826
867.699	4153
867.785	5274
867.870	4499
867.956	4259
868.041	4534
868.127	4056
868.212	4039
868.297	3954
868.383	3928
868.468	3847
868.553	5010
868.639	4499
868.724	4019
868.809	3819
868.894	3684
868.979	4168
869.065	3493
869.150	2816
869.235	3723
869.320	2631
869.405	2733
869.490	4005
869.575	4044
869.660	2498
869.745	4004
869.830	3520
869.915	3061
870.000	3139
870.085	2619
870.169	4092
870.254	4153
870.339	2748
870.424	2403
870.509	3429
870.593	4059
870.678	3901
870.763	2710
870.847	1789
870.932	3543
871.016	2820
871.101	1942
871.186	3442
871.270	3598
871.355	2156
871.439	3048
871.523	2931
871.608	1770
871.692	2654
871.777	4128
871.861	3035
871.945	2430
872.030	2945
872.114	2243
872.198	2107
872.282	2500
872.367	1874
872.451	2438
872.535	1908
872.619	2338
872.703	2254
872.787	2651
872.871	2444
872.955	1430
873.039	1095
873.123	2539
873.207	2506
873.291	929
873.375	1935
873.459	2561
873.543	2744
873.627	2714
873.711	1529
873.794	3079
873.878	1577
873.962	1385
874.045	1847
874.129	2506
874.137	2449
874.213	1875
874.245	1677
874.296	1346
874.352	1538
874.380	1630
874.460	2059
874.464	2074
874.547	1314
874.568	1776
874.631	3107
874.676	2956
874.714	2807
874.784	3202
874.798	3290
874.881	2873
874.892	2718
874.965	1736
874.999	2195
875.048	2657
875.107	2322
875.131	2207
875.215	1756
875.215	1757
875.298	1624
875.323	1868
875.381	2435
875.430	3097
875.465	3441
875.538	3279
875.548	3251
875.631	2113
875.646	2150
875.714	2582
875.753	2779
875.798	3009
875.861	3867
875.881	4034
875.964	2109
875.968	2140
876.047	3225
876.076	3480
876.130	3862
876.183	3721
876.213	3619
876.291	3969
876.296	3972
876.379	3030
876.398	2850
876.462	2413
876.506	2512
876.545	2698
876.613	3403
876.628	3605
876.711	3476
876.721	3580
876.794	4260
876.828	4551
876.877	4481
876.935	3478
876.960	3299
877.043	3196
877.043	3196
877.125	4466
877.150	4573
877.208	4160
877.258	3592
877.291	3274
877.365	2794
877.374	2754
877.456	3098
877.472	3100
877.539	3720
877.579	4436
877.622	5085
877.687	5165
877.704	5119
877.787	4826
877.794	4819
877.869	5106
877.901	5189
877.952	4516
878.008	3154
878.034	2892
878.115	3694
878.117	3723
878.199	4294
878.222	4580
878.282	5702
878.329	6300
878.364	6322
878.437	5804
878.447	5650
878.529	4533
878.544	4465
878.611	5037
878.651	4755
878.694	4940
878.758	6202
878.776	6383
878.858	6412
878.865	6388
878.941	5222
878.972	4754
879.023	4764
879.078	4799
879.105	5095
879.185	6715
879.187	6749
879.269	7233
879.292	7116
879.351	6165
879.399	5824
879.433	5814
879.506	5466
879.516	5489
879.598	6092
879.613	6093
879.680	6319
879.720	6875
879.762	7224
879.827	6896
879.844	6800
879.926	6400
879.933	6379
880.007	6453
880.040	6204
880.089	6070
880.147	6426
880.171	6770
880.253	8059
880.254	8045
880.335	7887
880.360	7762
880.417	9059
880.467	9917
880.499	9830
880.574	10220
880.580	10230
880.662	9378
880.680	9134
880.744	7455
880.787	6424
880.825	6740
880.893	7106
880.907	7025
880.989	6170
881.000	6248
881.070	8271
881.106	8569
881.152	7513
881.213	6475
881.233	6588
881.315	6986
881.319	6990
881.396	7453
881.426	7452
881.478	8230
881.532	9805
881.559	9891
881.639	8425
881.641	8408
881.722	7178
881.745	6938
881.803	8128
881.852	9024
881.885	8668
881.958	7456
881.966	7535
882.047	8048
882.064	8156
882.129	7025
882.171	6406
882.210	6440
882.277	6166
882.291	6527
882.372	8732
882.383	9031
882.454	10231
882.489	10496
882.535	10436
882.596	10759
882.616	10803
882.697	10090
882.702	10036
882.778	8077
882.808	7108
882.859	6575
882.914	6453
882.940	6887
883.020	8318
883.021	8364
883.102	10039
883.127	10708
883.183	12032
883.233	12599
883.264	11030
883.339	7492
883.345	7437
883.426	6240
883.445	6075
883.507	7629
883.551	8305
883.587	9092
883.657	10928
883.668	11119
883.749	12400
883.763	12435
883.830	9013
883.869	7399
883.910	7795
883.975	7746
883.991	7978
884.072	9330
884.081	9505
884.152	12384
884.187	13438
884.233	13684
884.292	13767
884.314	12399
884.394	6801
884.398	6528
884.475	6471
884.504	6382
884.555	6759
884.610	7132
884.636	7946
884.716	10243
884.716	10300
884.797	13877
884.821	14837
884.877	13262
884.927	11635
884.958	10694
885.033	8526
885.038	8498
885.118	7328
885.139	7142
885.199	8100
885.244	8500
885.279	9597
885.350	12071
885.359	12520
885.439	16189
885.456	16725
885.520	12766
885.561	10460
885.600	10011
885.667	8938
885.680	9265
885.760	11012
885.773	11288
885.840	9233
885.878	7944
885.920	8697
885.984	9836
886.000	10212
886.080	11767
886.089	11912
886.160	13407
886.195	13951
886.240	12964
886.300	11614
886.320	11716
886.400	12046
886.406	12015
886.480	10201
886.511	9513
886.560	10254
886.616	10832
886.640	10694
886.720	10153
886.722	10103
886.800	10702
886.827	10870
886.879	11726
886.932	12593
886.959	13263
887.038	14909
887.039	14933
887.119	12583
887.143	11935
887.198	12202
887.248	12190
887.278	12138
887.354	11692
887.358	11740
887.437	12068
887.459	12097
887.517	12873
887.564	13424
887.596	12334
887.669	9589
887.676	9497
887.755	8119
887.774	7749
887.835	8541
887.880	9068
887.914	10230
887.985	12275
887.994	12761
888.073	17005
888.090	17789
888.153	18300
888.195	18521
888.232	16039
888.300	11379
888.311	11345
888.391	10757
888.405	10626
888.470	10510
888.510	10319
888.549	10879
888.615	11828
888.628	12544
888.708	16431
888.720	17005
888.787	14893
888.825	13533
888.866	11929
888.930	9361
888.945	9987
889.024	13154
889.035	13529
889.103	14619
889.140	15113
889.182	13976
889.245	12196
889.261	12791
889.340	15421
889.349	15669
889.419	12953
889.454	11522
889.498	11060
889.559	10332
889.577	11270
889.656	15212
889.664	15552
889.735	14664
889.768	14164
889.814	14463
889.873	14741
889.978	12668
890.083	13460
890.187	15805
890.292	15187
890.397	13262
890.501	12249
890.606	11203
890.710	13159
890.815	17598
890.919	14275
891.024	13741
891.128	11823
891.233	11416
891.337	17070
891.442	15233
891.546	13500
891.650	10833
891.755	11373
891.859	14731
891.963	16064
892.068	13753
892.172	10879
892.276	9077
892.380	12684
892.484	17726
892.589	15989
892.693	13672
892.797	8982
892.901	9022
893.005	11759
893.109	18371
893.213	15664
893.317	12294
893.421	8571
893.525	7937
893.629	10601
893.733	16100
893.837	11974
893.941	11249
894.045	8284
894.148	9409
894.252	11577
894.356	17702
894.460	16520
894.564	12345
894.667	11737
894.771	8299
894.875	8722
894.978	11482
895.082	13242
895.186	14411
895.289	10771
895.393	10543
895.496	15418
895.600	10171
895.703	8808
895.807	11091
895.910	11723
896.014	12865
896.117	10509
896.221	13190
896.324	12350
896.427	9231
896.531	9664
896.634	10510
896.737	10053
896.840	13288
896.944	14665
897.047	13615
897.150	11159
897.253	7425
897.356	8089
897.460	8107
897.563	9671
897.666	15177
897.769	12537
897.872	8616
897.975	9985
898.078	10533
898.181	8702
898.284	10771
898.387	14490
898.490	13311
898.593	9227
898.695	8662
898.798	9532
898.901	9090
899.004	10090
899.107	9716
899.209	11473
899.312	15128
899.415	9081
899.518	7362
899.620	7614
899.723	9760
899.826	9092
899.928	8008
900.031	11672
900.133	14101
900.236	9452
900.338	7362
900.441	8408
900.543	9918
900.646	10397
900.748	9731
900.851	13264
900.953	9204
901.055	8043
901.158	9323
901.260	7704
901.362	7354
901.465	8611
901.567	12072
901.669	11023
901.771	9507
901.873	9520
901.976	10351
902.078	10388
902.180	7868
902.282	9018
902.384	11341
902.486	14408
902.588	11062
902.690	7859
902.792	7500
902.894	9681
902.996	12497
903.098	10908
903.200	7795
903.302	8530
903.404	8565
903.505	8118
903.607	8595
903.709	14756
903.811	12404
903.913	8205
904.014	7296
904.116	7050
904.218	7834
904.319	10681
904.421	14332
904.523	10789
904.624	8997
904.726	8452
904.827	7344
904.929	8016
905.030	9198
905.132	14697
905.233	10488
905.335	8412
905.436	7144
905.537	7777
905.639	8133
905.740	8975
905.841	12423
905.943	9709
906.044	8530
906.145	7266
906.247	6400
906.348	8618
906.449	9975
906.550	11669
906.651	8204
906.752	8929
906.854	8072
906.955	8638
907.056	9393
907.157	13427
907.258	10626
907.359	7009
907.460	6650
907.561	6922
907.662	8131
907.762	9853
907.863	11495
907.964	10339
908.065	9828
908.166	8192
908.267	8979
908.367	6775
908.468	7967
908.569	10014
908.670	11733
908.770	8699
908.871	10572
908.971	9644
909.072	7995
909.173	7934
909.273	8728
909.374	12027
909.474	9272
909.575	8712
909.675	8467
909.776	9402
909.876	8994
909.977	8963
910.077	10383
910.177	12416
910.278	8923
910.378	7827
910.478	8716
910.579	11673
910.679	10927
910.779	10799
910.879	9742
910.980	9906
911.080	10212
911.180	7499
911.280	7572
911.380	7488
911.480	7578
911.580	9002
911.680	8992
911.780	10438
911.880	9718
911.980	7396
912.080	8594
912.180	8890
912.280	9441
912.380	7638
912.480	6708
912.580	7662
912.679	8854
912.779	11284
912.879	9682
912.979	8091
913.078	7169
913.178	6977
913.278	7345
913.377	7551
913.477	7902
913.577	8132
913.676	10847
913.776	11400
913.875	9170
913.975	9048
914.074	9394
914.174	9254
914.273	6590
914.373	8812
914.472	7717
914.572	7652
914.671	7506
914.770	8241
914.870	8018
914.969	8580
915.068	11470
915.167	10295
915.267	8091
915.366	8695
915.465	8694
915.564	8836
915.663	9663
915.763	9665
915.862	10862
915.961	10276
916.060	8242
916.159	8797
916.258	7606
916.357	8604
916.456	9962
916.555	9600
916.654	9611
916.752	11554
916.851	9986
916.950	7802
917.049	7720
917.148	7836
917.247	7881
917.345	6673
917.444	7209
917.543	8707
917.642	8825
917.740	10755
917.839	13528
917.937	13969
918.036	10464
918.135	9489
918.233	8605
918.332	8043
918.430	8484
918.529	8032
918.627	10863
918.726	10948
918.824	9303
918.923	8664
919.021	9068
919.119	8555
919.218	8726
919.316	9536
919.414	9937
919.512	11153
919.611	10741
919.709	10438
919.807	13780
919.905	13670
920.003	12485
920.102	12842
920.200	12721
920.298	13827
920.396	11626
920.494	12531
920.592	10989
920.690	12739
920.788	12480
920.886	14040
920.984	13781
921.082	15841
921.180	14786
921.277	14818
921.375	18740
921.473	23964
921.571	20402
921.669	19109
921.766	18503
921.864	20637
921.962	19365
922.060	18919
922.157	20137
922.255	20752
922.352	19779
922.450	22464
922.548	22650
922.645	26202
922.743	33138
922.840	51081
922.938	50113
923.035	46801
923.133	46286
923.230	55161
923.327	61622
923.425	54875
923.522	55511
923.619	50902
923.717	47422
923.814	47813
923.911	46011
924.008	49133
924.106	43646
924.203	45480
924.300	47456
924.397	46011
924.494	45804
924.591	43571
924.688	45006
924.786	44553
924.883	45400
924.979	46249
925.077	42903
925.173	43531
925.270	43547
925.367	44170
925.464	45811
925.561	48185
925.658	45932
925.755	42454
925.852	47169
925.948	43098
926.045	42825
926.142	45981
926.239	41819
926.335	36955
926.432	43951
926.529	45121
926.625	46000
926.722	37167
926.818	40431
926.915	44091
927.011	40499
927.108	40547
927.204	39866
927.301	36701
927.397	46194
927.494	44265
927.590	31348
927.687	39376
927.783	46500
927.879	43205
927.976	35846
928.072	36640
928.168	42517
928.264	39390
928.361	41249
928.457	42372
928.553	34728
928.649	39728
928.745	37919
928.841	34254
928.937	39034
929.033	35571
929.129	38312
929.225	41514
929.321	34227
929.417	35520
929.513	37919
929.609	32559
929.705	34953
929.801	37110
929.897	32859
929.993	34843
930.089	34564
930.184	32904
930.280	36986
930.376	40262
930.471	29751
930.567	30727
930.663	32898
930.758	30723
930.854	32175
930.950	32412
931.045	28880
931.141	34094
931.236	40014
931.332	29094
931.427	30736
931.523	37968
931.618	31463
931.714	25178
931.809	31777
931.905	34623
932.000	23708
932.095	28018
932.191	37626
932.286	39211
932.381	29357
932.476	27688
932.572	30495
932.667	25989
932.762	27644
932.857	32600
932.952	36564
933.047	27708
933.142	26057
933.237	32861
933.332	32688
933.427	33928
933.522	27200
933.617	26466
933.712	27417
933.807	35734
933.902	35733
933.997	33042
934.092	24534
934.187	29891
934.282	28795
934.376	32877
934.471	29631
934.566	25206
934.661	27172
934.755	31992
934.850	29800
934.945	25455
935.039	22961
935.134	21590
935.228	31905
935.323	35413
935.417	21854
935.512	20075
935.606	24333
935.701	29460
935.795	30419
935.890	27018
935.984	21933
936.079	22013
936.173	26216
936.267	23354
936.362	22769
936.456	29067
936.550	31824
936.644	25731
936.738	20803
936.833	20139
936.927	19346
937.021	24629
937.115	26581
937.209	27068
937.303	22288
937.397	20468
937.491	25588
937.585	27598
937.679	23616
937.773	21102
937.867	17062
937.961	23159
938.055	30967
938.149	20968
938.243	16600
938.337	17873
938.430	23296
938.524	27203
938.618	20322
938.712	19886
938.805	21364
938.899	28393
938.993	27733
939.086	17180
939.180	15172
939.274	20334
939.367	26635
939.461	25327
939.554	18632
939.648	18098
939.741	19728
939.835	24688
939.928	28548
940.022	24715
940.115	22435
940.208	25448
940.302	29315
940.395	26330
940.488	19266
940.582	19999
940.675	17077
940.768	19990
940.861	26477
940.954	22581
941.048	15039
941.141	17682
941.234	19561
941.327	20325
941.420	22901
941.513	21855
941.606	16626
941.699	19331
941.792	24659
941.885	20854
941.978	22168
942.071	21069
942.164	14715
942.257	17504
942.349	20048
942.442	20441
942.535	15308
942.628	16912
942.721	19475
942.813	18498
942.906	21152
942.999	16518
943.091	15755
943.184	18937
943.277	17792
943.369	13416
943.462	14031
943.554	18924
943.647	17433
943.739	24266
943.832	18988
943.924	12012
944.017	13867
944.109	14922
944.201	15713
944.294	17000
944.386	17163
944.478	15368
944.571	15350
944.663	15532
944.755	18858
944.847	18792
944.940	16298
945.032	12059
945.124	14375
945.216	18059
945.308	17438
945.400	15871
945.492	16986
945.584	22322
945.676	20011
945.768	17853
945.860	21110
945.952	20005
946.044	16157
946.136	15406
946.228	14805
946.320	16645
946.412	18319
946.503	21235
946.595	17252
946.687	13489
946.779	12266
946.870	15008
946.962	12522
947.054	15337
947.145	17333
947.237	14205
947.329	15933
947.420	16718
947.512	13483
947.603	11446
947.695	13508
947.786	12827
947.878	14584
947.969	17394
948.061	18190
948.152	13008
948.243	10928
948.335	11458
948.426	13537
948.517	16258
948.609	15935
948.700	16764
948.791	12103
948.882	10502
948.973	12777
949.065	15659
949.156	13065
949.247	12813
949.338	12106
949.429	10251
949.520	13270
949.611	16587
949.702	14904
949.793	13382
949.884	14976
949.975	11246
950.066	10517
950.157	11906
950.247	11848
950.338	11036
950.429	13175
950.520	11602
950.611	10961
950.701	16241
950.792	16631
950.883	14237
950.973	13875
951.064	15678
951.155	15057
951.245	15770
951.336	15361
951.427	16822
951.517	16799
951.608	13543
951.698	11717
951.788	10504
951.879	11593
951.969	10746
952.060	11443
952.150	14432
952.240	17804
952.331	14061
952.421	13391
952.511	9508
952.602	9105
952.692	9246
952.782	9657
952.872	13228
952.962	13456
953.052	11491
953.143	10950
953.233	11273
953.323	12275
953.413	14873
953.503	13325
953.593	12686
953.683	11041
953.773	9967
953.863	9472
953.953	9575
954.042	12649
954.132	13847
954.222	11958
954.312	10446
954.402	10917
954.492	10308
954.581	13436
954.671	11629
954.761	11509
954.850	10777
954.940	7142
955.030	9720
955.119	8222
955.209	10093
955.298	12764
955.388	13689
955.477	12116
955.567	8403
955.656	9814
955.746	10880
955.835	9880
955.925	10210
956.014	13540
956.103	14435
956.193	16115
956.282	12433
956.371	11116
956.461	11856
956.550	10556
956.639	10414
956.728	11407
956.817	10607
956.906	12447
956.995	12469
957.085	11381
957.174	11173
957.263	9162
957.352	11035
957.441	11029
957.530	10403
957.619	9661
957.708	10422
957.796	10489
957.885	10760
957.974	10058
958.063	10227
958.152	7683
958.241	8799
958.329	9537
958.418	9333
958.507	10701
958.596	12864
958.684	10233
958.773	9453
958.861	8261
958.950	8532
959.039	8188
959.127	9624
959.216	9895
959.304	8890
959.393	11382
959.481	9523
959.570	8424
959.658	6791
959.746	8558
959.835	9963
959.923	9708
960.011	8988
960.100	10927
960.188	11659
960.276	9130
960.365	7380
960.453	6802
960.541	7759
960.629	7958
960.717	6816
960.805	6107
960.893	10073
960.981	10085
961.069	13101
961.158	14823
961.245	14242
961.333	10546
961.421	9626
961.509	9652
961.597	10725
961.685	8805
961.773	10099
961.861	11315
961.949	11124
962.036	7868
962.124	7747
962.212	8844
962.299	7661
962.387	6663
962.475	7943
962.562	8768
962.650	9590
962.738	7958
962.825	6599
962.913	7051
963.000	8828
963.088	10196
963.175	8341
963.263	8107
963.350	8559
963.438	8222
963.525	7793
963.612	8391
963.700	9449
963.787	11950
963.874	8043
963.962	7633
964.049	7272
964.136	7528
964.223	6029
964.310	6356
964.398	8331
964.485	8301
964.572	8705
964.659	7861
964.746	7075
964.833	6237
964.920	6904
965.007	6963
965.094	7222
965.181	8845
965.268	9171
965.355	8405
965.441	8406
965.528	7914
965.615	8119
965.702	7229
965.789	7682
965.875	9724
965.962	9364
966.049	9041
966.136	11202
966.222	10832
966.309	11843
966.395	10620
966.482	10119
966.569	9148
966.655	10402
966.742	8952
966.828	7433
966.915	6534
967.001	6271
967.087	5975
967.174	6572
967.260	8177
967.347	8493
967.433	8489
967.519	9938
967.605	8575
967.692	8384
967.778	7869
967.864	6819
967.950	7523
968.036	8244
968.123	8956
968.209	6268
968.295	6206
968.381	8307
968.467	5825
968.553	6614
968.639	9359
968.725	9353
968.811	11062
968.897	9173
968.983	6940
969.069	5580
969.154	6574
969.240	6596
969.326	5783
969.412	6859
969.497	6072
969.583	7343
969.669	8783
969.755	8276
969.840	10797
969.926	15815
970.012	16749
970.097	19757
970.183	13090
970.268	10719
970.354	9025
970.439	7280
970.525	8240
970.610	7550
970.696	7846
970.781	5952
970.866	6321
970.952	6934
971.037	7437
971.122	7642
971.208	7037
971.293	6357
971.378	6286
971.463	6134
971.549	6184
971.634	6590
971.719	6830
971.804	5754
971.889	6809
971.974	7274
972.059	8011
972.144	6848
972.229	6926
972.314	6168
972.399	6031
972.484	5237
972.569	6304
972.654	6726
972.739	6817
972.824	5946
972.908	5367
972.993	6095
973.078	7291
973.163	7162
973.247	6860
973.332	5391
973.417	7053
973.501	6450
973.586	7484
973.671	6878
973.755	6155
973.840	9182
973.924	9153
974.009	12481
974.093	10398
974.178	10673
974.262	8783
974.346	7807
974.431	7794
974.515	8337
974.600	8454
974.684	6614
974.768	5983
974.852	7516
974.937	6171
975.021	8215
975.105	6239
975.189	6092
975.273	7141
975.358	5912
975.442	5971
975.526	7773
975.610	6363
975.694	6332
975.778	6665
975.862	6000
975.946	5160
976.030	7412
976.114	5444
976.198	6035
976.281	6871
976.365	7296
976.449	5751
976.533	6368
976.617	5496
976.700	5938
976.784	6135
976.868	5718
976.951	7519
977.035	6235
977.119	6056
977.202	6907
977.286	8879
977.369	11650
977.453	13509
977.536	11361
977.620	9140
977.703	8999
977.787	8114
977.870	8509
977.953	7592
978.037	5571
978.120	7539
978.203	8552
978.287	8662
978.370	7263
978.453	5614
978.536	6559
978.620	8017
978.703	8030
978.786	5851
978.869	6876
978.952	6658
979.035	8994
979.118	7408
979.201	6564
979.284	7548
979.367	6680
979.450	6668
979.533	5628
979.616	6091
979.699	6687
979.782	7323
979.865	7217
979.948	6790
980.030	5862
980.113	6381
980.196	7044
980.279	7966
980.361	7067
980.444	7456
980.526	10390
980.609	13762
980.692	13611
980.774	11132
980.857	9317
980.939	9802
981.022	8660
981.104	8272
981.187	7494
981.269	8910
981.352	8114
981.434	7305
981.516	7073
981.599	7911
981.681	8240
981.763	7643
981.846	8537
981.928	7834
982.010	8124
982.092	7250
982.174	9212
982.256	7618
982.339	7080
982.421	7107
982.503	7265
982.585	5760
982.667	8303
982.749	7969
982.831	8124
982.913	6645
982.995	8678
983.077	8114
983.158	9924
983.240	8477
983.322	12781
983.404	15127
983.486	12509
983.568	11766
983.649	10658
983.731	10122
983.813	10059
983.894	9755
983.976	10032
984.058	9236
984.139	10694
984.221	7983
984.302	10209
984.384	8868
984.465	9102
984.547	9382
984.628	8824
984.710	10344
984.791	9713
984.872	8498
984.954	9325
985.035	9859
985.116	9267
985.198	8401
985.279	11042
985.360	8917
985.441	9127
985.522	10859
985.604	9547
985.685	7401
985.766	9992
985.847	11341
985.928	8501
986.009	9461
986.090	9473
986.171	10334
986.252	9045
986.333	9113
986.414	8326
986.495	9916
986.576	10813
986.656	10412
986.737	10933
986.818	10882
986.899	10455
986.980	9316
987.060	11273
987.141	11656
987.222	12300
987.302	13055
987.383	14206
987.464	13014
987.544	12181
987.625	12146
987.705	13924
987.786	13071
987.866	12114
987.947	12545
988.027	12026
988.108	11264
988.188	10798
988.268	11617
988.349	12610
988.429	11354
988.509	10295
988.589	11219
988.670	9331
988.750	11321
988.830	11551
988.910	11655
988.990	10644
989.070	10180
989.151	10972
989.231	9592
989.311	10262
989.391	9888
989.471	10736
989.551	9780
989.631	9846
989.711	11591
989.791	9179
989.870	8044
989.950	10449
990.030	9967
990.110	9000
990.190	7972
990.269	8496
990.349	9613
990.429	10083
990.509	7894
990.588	7682
990.668	9390
990.747	9515
990.827	7507
990.907	10449
990.986	10098
991.066	7698
991.145	8122
991.225	10288
991.304	8306
991.383	9004
991.463	9163
991.542	9671
991.622	7274
991.701	7658
991.780	7802
991.859	8002
991.939	8329
992.018	9085
992.097	8103
992.176	7423
992.256	7200
992.335	8671
992.414	7843
992.493	6241
992.572	6229
992.651	9493
992.730	7879
992.809	7219
992.888	6407
992.967	8272
993.046	6252
993.125	6402
993.203	7573
993.282	7023
993.361	6046
993.440	6927
993.519	5935
993.597	6158
993.676	7309
993.755	7771
993.834	6369
993.912	5434
993.991	6763
994.069	5370
994.148	6016
994.226	5513
994.305	6156
994.384	7022
994.462	7438
994.540	5428
994.619	5018
994.697	7769
994.776	6405
994.854	6453
994.932	4791
995.011	6105
995.089	5360
995.167	5554
995.245	5330
995.324	5538
995.402	6398
995.480	5210
995.558	5167
995.636	4623
995.714	6266
995.792	5443
995.870	5060
995.948	4292
996.026	5820
996.104	3992
996.182	5657
996.260	3808
996.338	4994
996.416	4653
996.494	4853
996.572	5617
996.649	4124
996.727	5020
996.805	6223
996.883	4025
996.960	3703
997.038	4784
997.116	5952
997.193	3116
997.271	3293
997.348	3353
997.426	4946
997.504	4174
997.581	4807
997.658	3492
997.736	2747
997.813	2942
997.891	5019
997.968	4366
998.046	4002
998.123	4388
998.200	6307
998.277	4225
998.355	3613
998.432	2037
998.509	3164
998.586	4699
998.663	3297
998.741	3733
998.818	3369
998.895	2979
998.972	5207
999.049	5003
999.126	3832
999.203	2729
999.280	3814
999.357	3466
999.434	3593
999.511	3233
999.587	3161
999.664	2059
999.741	3268
999.818	5295
999.895	3829
999.971	3043
1000.048	2811
1000.125	4262
1000.202	3161
1000.278	3532
1000.355	3126
1000.431	2379
1000.508	1676
1000.584	1700
1000.661	4052
1000.738	3402
1000.814	3505
1000.890	3314
1000.967	3177
1001.043	2940
1001.120	2162
1001.196	2685
1001.272	1883
1001.349	2742
1001.425	4257
1001.501	3306
1001.577	3160
1001.654	2757
1001.730	3170
1001.806	2939
1001.882	2972
1001.958	4535
1002.034	2992
1002.110	2478
1002.186	868
1002.262	1958
1002.338	2591
1002.414	3502
1002.490	2791
1002.566	3174
1002.642	1183
1002.718	3023
1002.794	1972
1002.870	2752
1002.945	1597
1003.021	1766
1003.097	2486
1003.173	1473
1003.248	2730
1003.324	3216
1003.400	2200
1003.475	2319
1003.551	1561
1003.626	2039
1003.702	1195
1003.777	2712
1003.853	1579
1003.928	1604
1004.004	1299
1004.079	2176
1004.155	2415
1004.230	1123
1004.305	2895
1004.381	1280
1004.456	1620
1004.531	2207
1004.607	1780
1004.682	2038
1004.757	2222
1004.832	916
1004.907	836
1004.982	2416
1005.057	2329
1005.133	1139
1005.208	779
1005.283	925
1005.358	2624
1005.433	79
1005.508	2220
1005.583	2153
1005.657	1065
1005.732	1821
1005.807	409
1005.882	1406
1005.957	1741
1006.032	1719
1006.106	979
1006.181	1612
1006.256	2766
1006.331	1524
1006.405	875
1006.480	530
1006.554	1116
1006.629	1532
1006.704	139
1006.778	-105
1006.853	1441
1006.927	1186
1007.002	815
1007.076	1398
1007.150	867
1007.225	1835
1007.299	1240
1007.373	521
1007.448	1022
1007.522	947
1007.596	1700
1007.671	684
1007.745	1379
1007.819	285
1007.893	1555
1007.967	999
1008.041	677
1008.115	1378
1008.190	342
1008.264	1283
1008.338	-309
1008.412	1209
1008.486	755
1008.560	1333
1008.633	1306
1008.707	1497
1008.781	2025
1008.855	1110
1008.929	1456
1009.003	290
1009.076	345
1009.150	435
1009.224	797
1009.298	1432
1009.371	356
1009.445	1053
1009.519	729
1009.592	728
1009.666	468
1009.739	651
1009.813	237
1009.886	1874
1009.960	-563
1010.033	1559
1010.107	794
1010.180	-496
1010.253	197
1010.327	882
1010.400	664
1010.473	316
1010.547	1671
1010.620	865
1010.693	767
1010.766	367
1010.840	543
1010.913	295
1010.986	-349
1011.059	416
1011.132	-615
1011.205	910
1011.278	1141
1011.351	514
1011.424	1013
1011.497	442
1011.570	454
1011.643	-14
1011.716	-130
1011.789	-113
1011.862	374
1011.934	76
1012.007	128
1012.080	-379
1012.153	137
1012.225	723
1012.298	139
1012.371	250
1012.443	1596
1012.516	140
1012.588	494
1012.661	477
1012.733	-920
1012.806	647
1012.879	333
1012.951	553
1013.023	315
1013.096	-359
1013.168	-294
1013.241	505
1013.313	-92
1013.385	-141
1013.458	442
1013.530	-132
1013.602	-1259
1013.674	-51
1013.746	-483
1013.819	-37
1013.891	1500
1013.963	-685
1014.035	-139
1014.107	-55
1014.179	-120
1014.251	419
1014.323	-60
1014.395	-613
1014.467	-386
1014.539	-109
1014.611	-232
1014.683	-450
1014.754	119
1014.826	-60
1014.898	-141
1014.970	237
1015.042	997
1015.113	530
1015.185	332
1015.257	-279
1015.328	769
1015.400	-634
1015.471	19
1015.543	-958
1015.615	278
1015.686	31
1015.757	629
1015.829	446
1015.901	-491
1015.972	71
1016.043	-779
1016.115	-199
1016.186	9
1016.257	-636
1016.328	-548
1016.400	122
1016.471	-667
1016.542	-976
1016.613	167
1016.685	91
1016.756	171
1016.827	-60
1016.898	-987
1016.969	-508
1017.040	-848
1017.111	-699
1017.182	-1302
1017.253	692
1017.324	-849
1017.395	-290
1017.466	-102
1017.537	-1014
1017.608	275
1017.678	-412
1017.749	-358
1017.820	-779
1017.891	-229
1017.961	-1027
1018.032	267
1018.103	-1344
1018.173	-1121
1018.244	-972
1018.315	-913
1018.385	-267
1018.456	-1074
1018.526	155
1018.597	-238
1018.667	-866
1018.738	-1070
1018.808	-456
1018.878	-664
1018.949	-1346
1019.019	-512
1019.089	-253
1019.160	-259
1019.230	-964
1019.300	-240
1019.371	-976
1019.441	-141
1019.511	-637
1019.581	-436
1019.651	-479
1019.721	-318
1019.791	-111
1019.861	-707
1019.931	-96
1020.001	-778
1020.071	-750
1020.141	-621
1020.211	-730
1020.281	-1307
1020.351	-1198
1020.421	-192
1020.491	56
1020.560	-522
1020.630	-593
1020.700	223
1020.770	-1192
1020.839	-947
1020.909	-543
1020.979	-1599
1021.048	-1397
1021.118	-896
1021.187	-368
1021.257	-797
1021.326	-7
1021.396	-798
1021.465	-1900
1021.535	-1069
1021.604	-855
1021.674	-67
1021.743	-998
1021.812	-1311
1021.882	-453
1021.951	-486
1022.020	-1027
1022.089	528
1022.159	-377
1022.228	-597
1022.297	-92
1022.366	-522
1022.435	-526
1022.504	-917
1022.573	-1518
1022.642	-1237
1022.711	-1897
1022.781	-1104
1022.849	-855
1022.918	-1544
1022.987	-429
1023.056	-1138
1023.125	-827
1023.194	-457
1023.263	-115
1023.331	-968
1023.400	-418
1023.469	-1928
1023.538	-460
1023.606	-1021
1023.675	-1019
1023.744	-816
1023.812	-1384
1023.881	-1233
1023.949	-615
1024.018	-943
1024.086	-628
1024.155	-699
1024.223	-1638
1024.292	-874
1024.360	-748
1024.429	-903
1024.497	-1477
1024.565	-427
1024.634	-707
1024.702	-554
1024.770	-59
1024.838	-1311
1024.907	-837
1024.975	-387
1025.043	-698
1025.111	-1771
1025.179	-965
1025.247	-846
1025.315	-421
1025.383	-1632
1025.451	-1747
1025.519	-1211
1025.587	-983
1025.655	-1298
1025.723	-1853
1025.791	-1480
1025.859	-1155
1025.927	-737
1025.995	-1407
1026.062	-1283
1026.130	-1108
1026.198	-1929
1026.266	-572
1026.333	-290
1026.401	-625
1026.469	-1178
1026.536	-997
1026.604	-976
1026.671	-1346
1026.739	-1428
1026.806	-1208
1026.874	-1131
1026.941	-971
1027.009	-850
1027.076	-651
1027.144	-503
1027.211	-1614
1027.278	-1165
1027.345	-807
1027.413	-588
1027.480	-1041
1027.547	-1518
1027.614	-1125
1027.682	-1060
1027.749	-1255
1027.816	-838
1027.883	-1408
1027.950	-818
1028.017	-1657
1028.084	-587
1028.151	-1186
1028.218	-1397
1028.285	-814
1028.352	-1989
1028.419	-851
1028.486	-1502
1028.553	-4
1028.619	-136
1028.686	-686
1028.753	-1780
1028.820	-1192
1028.886	-1534
1028.953	-402
1029.020	-1015
1029.086	-1255
1029.153	-1323
1029.220	-1475
1029.286	-1183
1029.353	-1276
1029.419	-885
1029.486	-881
1029.552	-905
1029.619	-1458
1029.685	-586
1029.751	-1007
1029.818	-183
1029.884	-410
1029.951	486
1030.017	-1073
1030.083	-903
1030.149	-1340
1030.216	-2272
1030.282	-1724
1030.348	-1046
1030.414	-1760
1030.480	-627
1030.546	-1229
1030.612	-767
1030.678	-650
1030.744	-746
1030.810	-1183
1030.876	-140
1030.942	-1580
1031.008	-911
1031.074	-1671
1031.140	-815
1031.206	-790
1031.272	-2025
1031.337	-1894
1031.403	-733
1031.469	-1126
1031.534	-1221
1031.600	-844
1031.666	-1159
1031.731	-1183
1031.797	-690
1031.863	146
1031.928	-285
1031.994	-783
1032.059	-283
1032.125	-1499
1032.190	-1181
1032.256	-1158
1032.321	-1312
1032.386	-920
1032.452	18
1032.517	-957
1032.582	-423
1032.647	-1183
1032.713	-952
1032.778	-863
1032.843	-1113
1032.908	-1115
1032.974	-1607
1033.039	-1281
1033.104	-1845
1033.169	-908
1033.234	-514
1033.299	-459
1033.364	-68
1033.429	-1817
1033.494	-651
1033.559	-338
1033.624	-1046
1033.688	287
1033.753	-941
1033.818	-109
1033.883	828
1033.948	917
1034.013	1095
1034.077	2291
1034.142	3287
1034.207	4882
1034.271	7342
1034.336	7583
1034.400	4370
1034.465	2474
1034.530	576
1034.594	-737
1034.658	-1257
1034.723	-504
1034.787	-522
1034.852	-833
1034.916	-966
1034.981	-1208
1035.045	-1139
1035.109	-892
1035.173	-1347
1035.238	-1759
1035.302	-1105
1035.366	-1284
1035.430	-1600
1035.495	-2325
1035.559	-1336
1035.623	-869
1035.687	-2037
1035.751	-1092
1035.815	-1258
1035.879	-1840
1035.943	-545
1036.007	-501
1036.071	-1055
1036.135	-1006
1036.198	-2081
1036.262	-1510
1036.326	-1020
1036.390	-1220
1036.454	-896
1036.517	-970
1036.581	-1281
1036.645	-500
1036.709	-765
1036.772	-1595
1036.836	-1323
1036.900	-924
1036.963	-1494
1037.026	-1325
1037.090	-1716
1037.154	-1556
1037.217	-1495
1037.280	-1729
1037.344	-1579
1037.407	-1775
1037.471	-463
1037.534	-773
1037.597	-1512
1037.661	-277
1037.724	-496
1037.787	-587
1037.850	-1186
1037.913	-1714
1037.977	-1667
1038.040	-1282
1038.103	-1141
1038.166	-1512
1038.229	-603
1038.292	-1891
1038.355	-1479
1038.418	-1060
1038.481	-808
1038.544	-1444
1038.607	-1080
1038.670	-871
1038.732	-1295
1038.795	-1506
1038.858	-954
1038.921	-918
1038.984	-939
1039.046	-1376
1039.109	-987
1039.172	-1115
1039.234	-1339
1039.297	-1204
1039.360	-1666
1039.422	-2154
1039.485	-335
1039.547	-1693
1039.610	-1391
1039.672	-1072
1039.734	-1729
1039.797	-1753
1039.859	-1561
1039.922	-1099
1039.984	-1522
1040.046	-791
1040.109	-2063
1040.171	-1316
1040.233	-1027
1040.295	-937
1040.358	-757
1040.420	-1516
1040.482	-1353
1040.544	-2238
1040.606	-1127
1040.668	-1573
1040.730	-1821
1040.792	-1059
1040.854	-1117
1040.916	-1677
1040.978	-2129
1041.040	-831
1041.102	-1956
1041.164	-1572
1041.225	-1865
1041.287	-1390
1041.349	-1699
1041.411	-986
1041.472	-1718
1041.534	-1636
1041.596	-1612
1041.657	-1652
1041.719	-2165
1041.781	-1843
1041.842	-1884
1041.904	-1051
1041.965	-1277
1042.027	-1600
1042.088	-1407
1042.150	-1508
1042.211	-2122
1042.272	-1414
1042.334	-2056
1042.395	-1246
1042.456	-1827
1042.518	-1223
1042.579	-1100
1042.640	-2024
1042.701	-1357
1042.763	-1211
1042.824	-1150
1042.885	-1537
1042.946	-1580
1043.007	-1132
1043.068	-1701
1043.129	-1581
1043.190	-2320
1043.251	-1274
1043.312	-1652
1043.373	-2002
1043.434	-1508
1043.495	-1261
1043.556	-904
1043.616	-511
1043.677	-1910
1043.738	-1180
1043.799	-2139
1043.859	-1623
1043.920	-1940
1043.981	-1997
1044.041	-946
1044.102	-1367
1044.162	-2136
1044.223	-1420
1044.284	-1869
1044.344	-1784
1044.405	-1324
1044.465	-2177
1044.525	-1440
1044.586	-501
1044.646	-1177
1044.707	-966
1044.767	-1578
1044.827	-1667
1044.887	-798
1044.948	-1521
1045.008	-1027
1045.068	-960
1045.128	-1082
1045.188	-909
1045.249	-1010
1045.309	-2286
1045.369	-1075
1045.429	-1639
1045.489	-1737
1045.549	-1624
1045.609	-1126
1045.669	-1626
1045.729	-1616
1045.789	-2242
1045.848	-1478
1045.908	-793
1045.968	-1030
1046.028	-2246
1046.088	-1025
1046.147	-1488
1046.207	-786
1046.267	-889
1046.326	-1314
1046.386	-1096
1046.446	-1037
1046.505	-354
1046.565	-440
1046.624	-406
1046.684	-608
1046.743	-203
1046.803	205
1046.862	73
1046.922	0
