'Start Wavelength	183.907
'End Wavelength	1046.922
'Gate Delay	5.000
'Gate Width (ms)	1.050
'Laser Output Level	0.000
'X Position	0.000
'Y Position	0.000
'Z Position	0.000
'Grid Point Number	1.000
'Shot Number	100.000
183.907	708.000
183.977	237.000
184.047	162
184.116	1296
184.186	593
184.256	129
184.325	560
184.395	78
184.465	601
184.534	86
184.604	-666
184.674	233
184.743	-409
184.813	246
184.883	390
184.952	438
185.022	694
185.092	424
185.161	32
185.231	337
185.301	914
185.370	842
185.440	392
185.509	265
185.579	-581
185.649	666
185.718	-487
185.788	131
185.857	211
185.927	463
185.996	-51
186.066	-54
186.136	419
186.205	30
186.275	542
186.344	1140
186.414	-286
186.483	139
186.553	1543
186.622	1820
186.692	-371
186.761	699
186.831	293
186.900	206
186.970	246
187.039	1543
187.109	646
187.178	638
187.248	223
187.317	452
187.387	-140
187.456	720
187.526	637
187.595	769
187.664	259
187.734	991
187.803	129
187.873	137
187.942	407
188.012	1381
188.081	-130
188.150	74
188.220	-197
188.289	1692
188.358	94
188.428	381
188.497	-320
188.567	394
188.636	11
188.705	766
188.775	499
188.844	-166
188.913	981
188.983	943
189.052	556
189.121	383
189.191	512
189.260	740
189.329	139
189.399	604
189.468	-477
189.537	270
189.606	6
189.676	513
189.745	-263
189.814	1252
189.883	185
189.953	790
190.022	227
190.091	1256
190.161	1493
190.230	1252
190.299	156
190.368	893
190.437	-652
190.507	446
190.576	-11
190.645	-164
190.714	-72
190.783	-266
190.853	877
190.922	824
190.991	106
191.060	-93
191.129	-77
191.198	1036
191.268	-244
191.337	-122
191.406	1061
191.475	819
191.544	660
191.613	909
191.682	270
191.752	469
191.821	635
191.890	326
191.959	299
192.028	60
192.097	407
192.166	484
192.235	519
192.304	291
192.373	-48
192.442	40
192.511	447
192.580	840
192.650	456
192.719	366
192.788	696
192.857	785
192.926	530
192.995	381
193.064	933
193.133	1370
193.202	1450
193.271	1741
193.340	983
193.409	1148
193.478	1241
193.547	1527
193.615	1120
193.684	1549
193.753	844
193.822	898
193.891	265
193.960	821
194.029	307
194.098	1296
194.167	207
194.236	397
194.305	-193
194.374	849
194.443	-105
194.512	779
194.580	919
194.649	716
194.718	638
194.787	706
194.856	120
194.925	1096
194.994	345
195.062	352
195.131	995
195.200	764
195.269	522
195.338	1262
195.407	101
195.475	403
195.544	1260
195.613	1287
195.682	471
195.751	1522
195.819	122
195.888	1136
195.957	1423
196.026	1508
196.094	673
196.163	1197
196.232	966
196.301	1103
196.369	1181
196.438	1476
196.507	418
196.576	920
196.644	966
196.713	407
196.782	723
196.850	1771
196.919	6
196.988	1669
197.056	465
197.125	554
197.194	1131
197.262	940
197.331	570
197.400	967
197.468	192
197.537	1114
197.606	302
197.674	1858
197.743	1563
197.812	430
197.880	1101
197.949	982
198.017	1130
198.086	1571
198.155	773
198.223	809
198.292	1558
198.360	1197
198.429	318
198.497	1518
198.566	1533
198.635	964
198.703	1115
198.772	1661
198.840	1239
198.909	1638
198.977	1007
199.046	1548
199.114	918
199.183	1268
199.251	1116
199.320	864
199.388	792
199.457	679
199.525	241
199.594	1884
199.662	604
199.731	875
199.799	364
199.867	746
199.936	1292
200.004	1102
200.073	1123
200.141	774
200.210	490
200.278	1082
200.346	1594
200.415	1767
200.483	937
200.552	1321
200.620	729
200.688	971
200.757	103
200.825	1196
200.893	1247
200.962	1621
201.030	900
201.098	938
201.167	1438
201.235	1032
201.303	1483
201.372	1284
201.440	1040
201.508	1512
201.577	1022
201.645	1576
201.713	1329
201.781	1223
201.850	1159
201.918	1145
201.986	880
202.055	1367
202.123	595
202.191	738
202.259	571
202.327	1251
202.396	699
202.464	1700
202.532	339
202.600	1715
202.669	926
202.737	732
202.805	766
202.873	1306
202.941	1345
203.009	1465
203.078	657
203.146	1172
203.214	730
203.282	585
203.350	1488
203.418	1148
203.487	1250
203.555	1128
203.623	1499
203.691	1630
203.759	403
203.827	772
203.895	1002
203.963	939
204.031	917
204.099	970
204.168	247
204.236	1467
204.304	1394
204.372	1504
204.440	704
204.508	1643
204.576	-414
204.644	767
204.712	310
204.780	1394
204.848	701
204.916	1416
204.984	466
205.052	1218
205.120	740
205.188	2014
205.256	740
205.324	1657
205.392	891
205.460	1480
205.528	1276
205.596	1386
205.664	747
205.732	1100
205.799	1663
205.867	2515
205.935	1010
206.003	1449
206.071	601
206.139	751
206.207	1590
206.275	1364
206.343	1339
206.411	1306
206.478	1017
206.546	1605
206.614	947
206.682	1322
206.750	1203
206.818	1451
206.885	1996
206.953	916
207.021	1692
207.089	1445
207.157	584
207.225	1434
207.292	934
207.360	1048
207.428	543
207.496	872
207.563	1609
207.631	1691
207.699	760
207.767	1511
207.834	693
207.902	980
207.970	886
208.038	1284
208.105	808
208.173	1971
208.241	1477
208.309	2334
208.376	1727
208.444	2761
208.512	1382
208.579	1825
208.647	2331
208.715	2592
208.782	516
208.850	1502
208.918	890
208.985	1758
209.053	1424
209.120	1184
209.188	1019
209.256	1188
209.323	749
209.391	1900
209.459	2406
209.526	1699
209.594	931
209.661	2071
209.729	1644
209.796	2248
209.864	1781
209.932	220
209.999	3307
210.067	2220
210.134	2087
210.202	1282
210.269	2174
210.337	2275
210.404	1433
210.472	1320
210.539	1341
210.607	1996
210.674	1294
210.742	1800
210.809	1884
210.877	2517
210.944	2105
211.012	1064
211.079	3234
211.146	1165
211.214	2082
211.281	2605
211.349	1765
211.416	1488
211.484	1950
211.551	1033
211.618	1870
211.686	1737
211.753	849
211.821	2402
211.888	1122
211.955	1686
212.023	1689
212.090	1269
212.157	1701
212.225	1931
212.292	2977
212.359	3719
212.427	6456
212.494	3636
212.561	2206
212.629	1912
212.696	2083
212.763	2579
212.831	1889
212.898	2394
212.965	1792
213.032	1862
213.100	1733
213.167	2321
213.234	2803
213.301	1764
213.369	1554
213.436	2357
213.503	1282
213.570	2355
213.638	1816
213.705	1036
213.772	1289
213.839	1774
213.906	2178
213.973	3339
214.041	1378
214.108	2204
214.175	2020
214.242	2345
214.309	1882
214.376	2039
214.444	1402
214.511	1865
214.578	1648
214.645	3129
214.712	2314
214.779	2789
214.846	1280
214.913	2836
214.980	2457
215.048	2191
215.115	2374
215.182	3192
215.249	2829
215.316	1850
215.383	1745
215.450	2022
215.517	1915
215.584	1942
215.651	1908
215.718	2317
215.785	2491
215.852	1851
215.919	2344
215.986	2191
216.053	1888
216.120	1875
216.187	1468
216.254	2487
216.321	2668
216.388	2500
216.455	2329
216.522	2405
216.589	3275
216.656	3813
216.722	4331
216.789	3660
216.856	3158
216.923	3163
216.990	2834
217.057	2915
217.124	2949
217.191	2762
217.258	3496
217.324	3853
217.391	3824
217.458	2732
217.525	2264
217.592	2623
217.659	780
217.725	2757
217.792	2184
217.859	2612
217.926	1071
217.993	2233
218.059	1682
218.126	2308
218.193	2053
218.260	2083
218.327	980
218.393	2372
218.460	1527
218.527	1607
218.594	1911
218.660	2584
218.727	2916
218.794	1834
218.860	1889
218.927	2002
218.994	1864
219.061	1845
219.127	2243
219.194	2673
219.261	1746
219.327	1846
219.394	2189
219.461	1293
219.527	1739
219.594	2671
219.661	2001
219.727	1569
219.794	2385
219.860	1435
219.927	1545
219.994	3435
220.060	3186
220.127	3989
220.193	3266
220.260	2491
220.326	4770
220.393	5410
220.460	5451
220.526	4432
220.593	3526
220.659	4293
220.726	3016
220.792	5453
220.859	6145
220.925	7633
220.992	8552
221.058	8932
221.125	7447
221.191	5474
221.258	3395
221.324	3748
221.391	3177
221.457	2870
221.524	2070
221.590	2990
221.657	5736
221.723	4205
221.789	3906
221.856	4098
221.922	2139
221.989	2970
222.055	2025
222.121	1236
222.188	4157
222.254	3525
222.321	1895
222.387	1755
222.453	2196
222.520	1847
222.586	1325
222.652	2354
222.719	1602
222.785	2459
222.851	1178
222.918	2133
222.984	1369
223.050	1617
223.116	813
223.183	2855
223.249	1343
223.315	1316
223.382	1097
223.448	1312
223.514	1142
223.580	2103
223.647	1634
223.713	1408
223.779	1682
223.845	2732
223.911	1678
223.978	652
224.044	1961
224.110	1132
224.176	1212
224.242	2184
224.309	815
224.375	1659
224.441	1429
224.507	2139
224.573	-117
224.639	2278
224.705	1215
224.772	1981
224.838	861
224.904	1761
224.970	1203
225.036	1706
225.102	1219
225.168	1748
225.234	1894
225.300	1702
225.366	1351
225.432	1404
225.499	1542
225.565	2298
225.631	1545
225.697	1977
225.763	3108
225.829	2025
225.895	2602
225.961	3382
226.027	4369
226.093	3573
226.159	4439
226.225	6344
226.291	10168
226.357	14000
226.423	9503
226.489	6611
226.554	4957
226.620	5165
226.686	5401
226.752	7631
226.818	10928
226.884	16818
226.950	15617
227.016	8777
227.082	6234
227.148	4009
227.214	3837
227.279	3840
227.345	3034
227.411	3066
227.477	3765
227.543	6295
227.609	6070
227.674	5033
227.740	2546
227.806	2933
227.872	1852
227.938	2325
228.003	4304
228.069	2946
228.135	1965
228.201	2416
228.267	2204
228.332	2151
228.398	1477
228.464	2359
228.530	857
228.595	2320
228.661	1493
228.727	2334
228.792	2426
228.858	1521
228.924	970
228.990	4139
229.055	1291
229.121	1994
229.187	1458
229.252	1747
229.318	1446
229.384	2131
229.449	2372
229.515	172
229.581	665
229.646	3440
229.712	1933
229.777	3084
229.843	2328
229.909	3413
229.974	3555
230.040	4217
230.105	2547
230.171	2255
230.236	3791
230.302	4092
230.368	3615
230.433	2255
230.499	2613
230.564	3808
230.630	1406
230.695	2198
230.761	2935
230.826	609
230.892	3532
230.957	1316
231.023	1637
231.088	2600
231.154	1892
231.219	2997
231.284	2069
231.350	3480
231.415	1746
231.481	2347
231.546	1585
231.612	2656
231.677	1051
231.742	1143
231.808	3019
231.873	1896
231.939	-144
232.004	3165
232.069	2614
232.135	2191
232.200	1722
232.265	2379
232.331	933
232.396	1779
232.461	1735
232.527	1170
232.592	1825
232.657	2372
232.723	2210
232.788	2418
232.853	2130
232.918	1416
232.984	984
233.049	1658
233.114	2307
233.179	3176
233.245	2646
233.310	3353
233.375	436
233.440	2316
233.506	1537
233.571	1285
233.636	966
233.701	2033
233.766	1937
233.832	2569
233.897	1729
233.962	1037
234.027	3213
234.092	2033
234.157	2133
234.222	2227
234.288	2657
234.353	4572
234.418	4555
234.483	4250
234.548	3114
234.613	3130
234.678	2787
234.743	2978
234.808	5161
234.873	3006
234.938	3335
235.004	2907
235.069	2411
235.134	1920
235.199	2081
235.264	2353
235.329	651
235.394	3250
235.459	2375
235.524	1710
235.589	3095
235.654	1862
235.719	1885
235.784	3135
235.849	1521
235.913	4223
235.978	2567
236.043	3891
236.108	1932
236.173	1602
236.238	2754
236.303	1913
236.368	1106
236.433	4536
236.498	3548
236.563	5263
236.627	9833
236.692	21946
236.757	20026
236.822	10607
236.887	7029
236.952	7467
237.017	4008
237.081	7373
237.146	7760
237.211	14864
237.276	22454
237.341	26940
237.405	17709
237.470	9554
237.535	5832
237.600	5291
237.664	4482
237.729	3253
237.794	4181
237.859	9736
237.923	5920
237.988	4237
238.053	4170
238.118	4064
238.182	6082
238.247	6752
238.312	3010
238.376	3473
238.441	1020
238.506	3754
238.570	1074
238.635	2972
238.700	2490
238.764	2328
238.829	3406
238.893	3354
238.958	3955
239.023	3414
239.087	2333
239.152	3417
239.216	1533
239.281	2712
239.346	2686
239.410	2770
239.475	2575
239.539	6302
239.604	4296
239.668	3934
239.733	2809
239.797	4909
239.862	11305
239.926	9464
239.991	4346
240.055	3392
240.120	2365
240.184	3614
240.249	1507
240.313	1530
240.378	2206
240.442	3134
240.507	5436
240.571	2988
240.635	2412
240.700	4195
240.764	2222
240.829	2455
240.893	126
240.957	1972
241.022	3097
241.086	5605
241.151	2662
241.215	1217
241.279	2676
241.344	2877
241.408	3836
241.472	2991
241.537	4200
241.601	3626
241.665	2096
241.730	2341
241.794	3839
241.858	3153
241.922	3203
241.987	3508
242.051	2399
242.115	2123
242.179	3733
242.244	3199
242.308	2914
242.372	3000
242.436	3359
242.501	3095
242.565	2039
242.629	2806
242.693	3526
242.757	2371
242.822	3086
242.886	3973
242.950	3646
243.014	2492
243.078	3198
243.142	3491
243.206	2252
243.271	3997
243.335	3723
243.399	5261
243.463	11447
243.527	26862
243.591	10040
243.655	5422
243.719	2850
243.783	4567
243.847	4799
243.911	7453
243.975	6472
244.040	5023
244.104	4032
244.168	3200
244.232	4161
244.296	5197
244.360	5982
244.424	3830
244.488	2792
244.552	3567
244.615	1205
244.679	2855
244.743	2795
244.807	2823
244.871	2513
244.935	2387
244.999	998
245.063	2023
245.127	3483
245.191	4287
245.255	3994
245.319	4747
245.383	2710
245.446	3706
245.510	2218
245.574	2200
245.638	2209
245.702	1525
245.766	5333
245.829	4655
245.893	2042
245.957	3473
246.021	3564
246.085	3143
246.149	3709
246.212	7878
246.276	10249
246.340	5626
246.404	4298
246.467	4634
246.531	4881
246.595	4765
246.659	4896
246.722	3054
246.786	4782
246.850	5000
246.913	5484
246.977	2798
247.041	3160
247.104	3887
247.168	3630
247.232	7584
247.295	12978
247.359	7534
247.423	4138
247.486	5889
247.550	5015
247.614	3830
247.677	5837
247.741	4741
247.804	3245
247.868	3855
247.932	5494
247.995	13373
248.059	5565
248.122	3687
248.186	5636
248.249	7522
248.313	18179
248.376	20128
248.440	14027
248.503	5505
248.567	7085
248.630	7250
248.694	10950
248.757	13342
248.821	20643
248.884	16147
248.948	13212
249.011	17824
249.075	22311
249.138	21422
249.202	10888
249.265	7462
249.328	7162
249.392	5830
249.455	6751
249.519	4315
249.582	5388
249.645	9041
249.709	7541
249.772	6032
249.835	5304
249.899	5654
249.962	5008
250.025	3965
250.089	9486
250.152	12937
250.215	7466
250.279	5601
250.342	6351
250.405	6221
250.468	5325
250.532	7482
250.595	9783
250.658	24587
250.721	39803
250.785	18582
250.848	10984
250.911	6421
250.974	6707
251.038	8224
251.101	15047
251.164	8922
251.227	9832
251.290	9011
251.354	12395
251.417	35255
251.480	37549
251.543	28979
251.606	55950
251.669	48373
251.732	24225
251.795	22093
251.859	21053
251.922	39265
251.985	27091
252.048	13874
252.111	9530
252.174	9603
252.237	14774
252.300	25462
252.363	28094
252.426	48392
252.489	23891
252.552	13899
252.615	9269
252.678	10946
252.741	19312
252.804	27303
252.867	50731
252.930	33250
252.993	18354
253.056	12556
253.119	9273
253.182	7199
253.245	10245
253.308	9198
253.371	7437
253.434	7425
253.497	7528
253.559	13376
253.622	9551
253.685	10172
253.748	12004
253.811	6084
253.874	6938
253.937	6895
254.000	5778
254.062	8763
254.125	13346
254.188	14920
254.251	12160
254.314	6108
254.376	10146
254.439	11367
254.502	9224
254.565	9565
254.628	15684
254.690	9787
254.753	5853
254.816	4516
254.878	4609
254.941	9495
255.004	9541
255.067	5370
255.129	5013
255.192	4089
255.255	2295
255.317	3529
255.380	3019
255.443	2473
255.505	2256
255.568	1500
255.631	2154
255.693	2898
255.756	2147
255.819	3537
255.881	2265
255.944	2031
256.006	2628
256.069	2025
256.132	2463
256.194	3458
256.257	5205
256.319	4582
256.382	3950
256.444	5059
256.507	4167
256.569	4020
256.632	4332
256.694	5706
256.757	16103
256.819	44388
256.882	20974
256.944	9065
257.007	7132
257.069	6554
257.132	4886
257.194	5157
257.257	4968
257.319	5376
257.381	5886
257.444	14064
257.506	44445
257.569	53564
257.631	26461
257.693	14895
257.756	7325
257.818	5462
257.880	4176
257.943	5294
258.005	4010
258.067	3899
258.130	3732
258.192	4170
258.254	6433
258.317	5476
258.379	4205
258.441	9408
258.503	7408
258.566	6707
258.628	8455
258.690	3506
258.753	4280
258.815	8312
258.877	4602
258.939	5122
259.001	4246
259.064	3660
259.126	3434
259.188	5521
259.250	4546
259.312	5911
259.375	10079
259.437	7097
259.499	3945
259.561	4604
259.623	4917
259.685	4022
259.747	4052
259.809	7127
259.872	10371
259.934	16538
259.996	20734
260.058	8008
260.120	3210
260.182	2801
260.244	3541
260.306	3062
260.368	3637
260.430	3080
260.492	8329
260.554	12657
260.616	7187
260.678	11593
260.740	11511
260.802	4125
260.864	3975
260.926	3457
260.988	4865
261.050	5041
261.112	10361
261.174	18884
261.236	9866
261.298	5610
261.359	5936
261.421	7645
261.483	3597
261.545	4485
261.607	1712
261.669	3238
261.731	3989
261.793	9481
261.854	4954
261.916	5510
261.978	4392
262.040	5036
262.102	3213
262.164	3362
262.225	3649
262.287	3306
262.349	6645
262.411	6478
262.472	4535
262.534	3369
262.596	6070
262.658	3405
262.719	1455
262.781	3221
262.843	5090
262.904	4537
262.966	3290
263.028	3847
263.090	13725
263.151	37033
263.213	15815
263.275	10507
263.336	4040
263.398	3984
263.459	1694
263.521	2926
263.583	6748
263.644	5553
263.706	2950
263.767	1837
263.829	2188
263.891	1778
263.952	1639
264.014	1670
264.075	5005
264.137	15119
264.198	5956
264.260	2230
264.321	2632
264.383	7099
264.444	19535
264.506	7411
264.567	4395
264.629	8966
264.690	17412
264.752	6533
264.813	4334
264.875	2816
264.936	3233
264.998	3281
265.059	2501
265.120	4095
265.182	5242
265.243	25964
265.305	28595
265.366	8012
265.427	3870
265.489	4718
265.550	1515
265.611	3389
265.673	2642
265.734	4229
265.795	3410
265.857	2991
265.918	3107
265.979	8143
266.040	37670
266.102	35466
266.163	11259
266.224	8196
266.286	4789
266.347	2989
266.408	2524
266.469	3500
266.530	3012
266.592	2507
266.653	4357
266.714	8396
266.775	3109
266.836	2235
266.898	1068
266.959	4603
267.020	3595
267.081	3756
267.142	1866
267.203	2447
267.264	1827
267.326	4371
267.387	2170
267.448	1743
267.509	2321
267.570	2666
267.631	2426
267.692	2020
267.753	2823
267.814	2507
267.875	5064
267.936	9811
267.997	7796
268.058	7252
268.119	4189
268.180	3352
268.241	2343
268.302	3022
268.363	2037
268.424	2988
268.485	2638
268.546	2522
268.607	2530
268.668	1979
268.729	1626
268.790	2784
268.851	1905
268.912	7146
268.972	7368
269.033	3711
269.094	2778
269.155	2111
269.216	1987
269.277	2746
269.338	2334
269.398	2188
269.459	2159
269.520	4688
269.581	4728
269.642	4827
269.702	3304
269.763	3177
269.824	2931
269.885	4073
269.945	5475
270.006	2809
270.067	1679
270.128	1838
270.188	2003
270.249	2278
270.310	1381
270.370	3038
270.431	2357
270.492	1901
270.553	1617
270.613	5272
270.674	10398
270.734	5013
270.795	3062
270.856	4100
270.916	2859
270.977	2712
271.038	2839
271.098	2993
271.159	4195
271.219	5393
271.280	2337
271.340	2800
271.401	2171
271.462	4673
271.522	3801
271.583	3767
271.643	2320
271.704	3021
271.764	3448
271.825	8492
271.885	21824
271.946	27755
272.006	11442
272.066	13918
272.127	21511
272.187	9864
272.248	5127
272.308	4942
272.369	14492
272.429	10612
272.489	6652
272.550	8168
272.610	7079
272.671	6981
272.731	4567
272.791	6216
272.852	4426
272.912	4230
272.972	2776
273.033	2756
273.093	4060
273.153	5878
273.214	3754
273.274	4493
273.334	12787
273.394	22058
273.455	9359
273.515	9406
273.575	19776
273.635	8221
273.696	8703
273.756	18383
273.816	8379
273.876	5236
273.936	7154
273.997	10635
274.057	4378
274.117	4717
274.177	6756
274.237	26775
274.297	21407
274.358	11842
274.418	15623
274.478	13330
274.538	5861
274.598	3571
274.658	8130
274.718	11324
274.778	5413
274.838	3609
274.898	5069
274.958	12612
275.018	18202
275.078	13427
275.138	5941
275.198	4067
275.258	3050
275.318	3596
275.378	7009
275.438	8203
275.498	5402
275.558	7661
275.618	15677
275.678	13478
275.738	10765
275.798	8475
275.858	5082
275.918	3466
275.978	4197
276.038	4673
276.098	2571
276.157	6605
276.217	16472
276.277	8537
276.337	5294
276.397	3376
276.457	4036
276.517	3507
276.576	2604
276.636	2431
276.696	4607
276.756	10117
276.815	7265
276.875	4114
276.935	3245
276.995	3812
277.055	2901
277.114	2230
277.174	3781
277.234	13199
277.293	5299
277.353	3479
277.413	2836
277.472	3316
277.532	2500
277.592	4432
277.651	7904
277.711	15340
277.771	6296
277.830	19605
277.890	16685
277.950	10129
278.009	28753
278.069	12355
278.128	11157
278.188	14671
278.248	7225
278.307	16921
278.367	10796
278.426	4153
278.486	3136
278.545	3858
278.605	2792
278.664	2942
278.724	2602
278.783	8061
278.843	20296
278.902	7244
278.962	4003
279.021	4828
279.081	5331
279.140	5397
279.199	6016
279.259	5761
279.318	5583
279.378	6690
279.437	11369
279.496	33644
279.556	62493
279.615	47122
279.675	14590
279.734	10954
279.793	16048
279.853	29312
279.912	13378
279.971	8196
280.031	7017
280.090	13183
280.149	22195
280.208	13142
280.268	42161
280.327	44270
280.386	10930
280.445	11662
280.505	10377
280.564	5430
280.623	4815
280.682	8586
280.742	11583
280.801	4877
280.860	3634
280.919	3483
280.978	2929
281.037	2307
281.097	1695
281.156	3530
281.215	2613
281.274	3938
281.333	12994
281.392	10955
281.451	3114
281.510	3339
281.569	2167
281.628	2113
281.688	2665
281.747	3371
281.806	2828
281.865	2950
281.924	2044
281.983	2305
282.042	2006
282.101	1902
282.160	2065
282.219	2090
282.278	2425
282.337	8837
282.396	6339
282.454	3321
282.513	2989
282.572	13655
282.631	7973
282.690	3288
282.749	2533
282.808	4053
282.867	3407
282.926	3465
282.985	2105
283.043	2604
283.102	2418
283.161	2495
283.220	5464
283.279	13795
283.338	6263
283.396	3332
283.455	2859
283.514	3188
283.573	5038
283.631	4424
283.690	2268
283.749	2682
283.808	6049
283.866	8218
283.925	2937
283.984	2755
284.043	4053
284.101	4124
284.160	2622
284.219	3706
284.277	3615
284.336	5559
284.395	16862
284.453	14404
284.512	5215
284.570	8195
284.629	6469
284.688	5596
284.746	5261
284.805	6625
284.863	7925
284.922	11125
284.981	13341
285.039	18452
285.098	28366
285.156	60082
285.215	87922
285.273	88580
285.332	68180
285.390	38357
285.449	23386
285.507	16589
285.566	11748
285.624	9025
285.683	8229
285.741	7357
285.799	5691
285.858	5573
285.916	4840
285.975	3801
286.033	3915
286.091	3136
286.150	3104
286.208	3306
286.267	3435
286.325	3659
286.383	5302
286.442	4893
286.500	2719
286.558	2340
286.616	1977
286.675	4489
286.733	3059
286.791	3455
286.850	3016
286.908	4455
286.966	8619
287.024	3939
287.083	2803
287.141	2622
287.199	3468
287.257	4538
287.315	3449
287.374	4322
287.432	9398
287.490	6971
287.548	3102
287.606	3267
287.664	2765
287.723	3906
287.781	5737
287.839	3960
287.897	5017
287.955	7194
288.013	9698
288.071	17008
288.129	54070
288.187	133824
288.245	72153
288.303	24953
288.361	13935
288.419	9691
288.477	6344
288.535	5655
288.593	5042
288.651	3952
288.709	2869
288.767	3634
288.825	3037
288.883	2727
288.941	3115
288.999	2454
289.057	2089
289.115	2037
289.173	2122
289.231	3025
289.289	2953
289.346	3167
289.404	3647
289.462	4548
289.520	5238
289.578	2999
289.636	1272
289.694	2032
289.751	1622
289.809	1960
289.867	2020
289.925	3754
289.983	3689
290.040	2846
290.098	2018
290.156	3220
290.214	3820
290.271	2773
290.329	1641
290.387	2396
290.444	1385
290.502	1456
290.560	1759
290.617	2901
290.675	2113
290.733	2171
290.790	2982
290.848	3424
290.906	2347
290.963	2846
291.021	2200
291.078	3058
291.136	2257
291.194	9182
291.251	18912
291.309	5868
291.366	3485
291.424	3121
291.481	2483
291.539	2989
291.596	2230
291.654	2074
291.711	1541
291.769	3193
291.826	4990
291.884	4318
291.941	2008
291.999	2086
292.056	3084
292.114	3377
292.171	2669
292.228	2686
292.286	2839
292.343	5071
292.401	6596
292.458	4686
292.515	3615
292.573	4001
292.630	3420
292.687	3541
292.745	2280
292.802	4460
292.859	10574
292.917	15991
292.974	9873
293.031	3919
293.089	3391
293.146	1975
293.203	2554
293.260	2600
293.318	3155
293.375	6293
293.432	4202
293.489	3318
293.546	2353
293.604	4238
293.661	8555
293.718	25155
293.775	14575
293.832	7023
293.889	5045
293.947	5596
294.004	4818
294.061	4562
294.118	9478
294.175	18873
294.232	25936
294.289	11191
294.346	6307
294.403	7086
294.460	4692
294.517	3607
294.574	3485
294.631	3731
294.688	4073
294.745	8365
294.802	28341
294.859	39272
294.916	15582
294.973	8032
295.030	6490
295.087	5084
295.144	3745
295.201	4615
295.258	3980
295.315	4235
295.372	11257
295.429	20221
295.486	11027
295.542	7449
295.599	16929
295.656	32114
295.713	19694
295.770	21044
295.827	9290
295.883	5313
295.940	4429
295.997	7192
296.054	7467
296.111	4511
296.167	3898
296.224	3363
296.281	2545
296.338	3570
296.394	3404
296.451	4527
296.508	9669
296.564	18692
296.621	13591
296.678	23885
296.734	34157
296.791	15794
296.848	8355
296.904	8111
296.961	16168
297.018	22255
297.074	18539
297.131	9363
297.187	6108
297.244	7782
297.301	20011
297.357	35626
297.414	14679
297.470	7452
297.527	5505
297.583	4516
297.640	4526
297.696	3994
297.753	3394
297.809	2588
297.866	2421
297.922	2902
297.979	2650
298.035	3387
298.092	5053
298.148	13278
298.204	13539
298.261	8080
298.317	12469
298.374	27989
298.430	17614
298.486	7839
298.543	4803
298.599	6382
298.656	7338
298.712	10935
298.768	24180
298.824	19049
298.881	7327
298.937	5089
298.993	4391
299.050	5300
299.106	4884
299.162	4756
299.218	4981
299.275	4104
299.331	4746
299.387	7922
299.443	24215
299.500	31203
299.556	15204
299.612	7144
299.668	6643
299.724	12302
299.780	12503
299.837	6594
299.893	8112
299.949	22666
300.005	29041
300.061	23487
300.117	37133
300.173	19841
300.229	9883
300.285	11199
300.341	12652
300.397	7759
300.453	5154
300.510	5040
300.566	6031
300.622	7301
300.678	19770
300.734	32775
300.790	24745
300.845	25903
300.901	19059
300.957	27462
301.013	20230
301.069	8421
301.125	5989
301.181	6429
301.237	5576
301.293	3865
301.349	3590
301.405	3930
301.461	4067
301.516	6538
301.572	5046
301.628	8538
301.684	7304
301.740	10404
301.796	16755
301.851	12857
301.907	18593
301.963	18124
302.019	23329
302.074	58889
302.130	62527
302.186	33203
302.242	14758
302.297	10324
302.353	8926
302.409	16103
302.464	14722
302.520	12568
302.576	24020
302.631	29254
302.687	17375
302.743	9044
302.798	5525
302.854	5027
302.910	4129
302.965	6642
303.021	11096
303.076	10203
303.132	11178
303.187	15121
303.243	8641
303.299	5236
303.354	3888
303.410	5530
303.465	4828
303.521	4057
303.576	4940
303.632	4899
303.687	8099
303.743	21748
303.798	20202
303.853	10256
303.909	6022
303.964	5304
304.020	7828
304.075	11420
304.130	10564
304.186	17575
304.241	18552
304.297	16194
304.352	8683
304.358	8526
304.407	7254
304.449	6738
304.463	6566
304.518	6944
304.539	6681
304.573	6277
304.629	5499
304.630	5525
304.684	6920
304.720	14307
304.739	17930
304.794	25689
304.811	22515
304.850	14986
304.902	7668
304.905	7204
304.960	6028
304.992	5853
305.015	5716
305.071	6252
305.083	5978
305.126	4857
305.173	3760
305.181	3607
305.236	3695
305.264	3923
305.292	4184
305.347	5497
305.354	5653
305.402	6568
305.445	7100
305.457	7246
305.512	7068
305.535	6830
305.567	6527
305.622	7530
305.626	7621
305.678	11075
305.716	21491
305.733	24858
305.788	27542
305.807	23636
305.843	17589
305.897	22215
305.898	22250
305.953	22541
305.988	16052
306.008	12665
306.063	8756
306.078	7872
306.118	5755
306.168	4631
306.173	4540
306.228	3745
306.259	3835
306.283	3982
306.338	3566
306.349	3690
306.393	4209
306.440	5319
306.448	5520
306.503	5761
306.530	5523
306.558	6400
306.613	13433
306.620	14281
306.668	19214
306.711	24745
306.723	25138
306.778	20191
306.801	15776
306.833	11100
306.888	5847
306.892	5669
306.943	4584
306.982	4505
306.997	4565
307.052	4421
307.072	4396
307.107	4705
307.162	5906
307.163	5931
307.217	8752
307.253	9789
307.272	9816
307.327	9929
307.343	9507
307.381	8994
307.434	7594
307.436	7769
307.491	14869
307.524	21552
307.546	22694
307.600	22346
307.614	20018
307.655	13500
307.704	8320
307.710	8194
307.765	9522
307.795	11504
307.819	13050
307.874	18275
307.885	18538
307.929	17141
307.975	15276
307.984	15995
308.038	23866
308.065	28989
308.093	44302
308.148	85525
308.156	93976
308.202	127106
308.246	144917
308.257	142428
308.312	92641
308.336	71461
308.366	55303
308.421	33795
308.426	32060
308.475	21786
308.517	15812
308.530	14673
308.585	12265
308.607	11605
308.639	11419
308.694	11749
308.697	11844
308.748	18157
308.787	24605
308.803	24349
308.857	19533
308.877	17220
308.912	16674
308.967	17665
308.967	17704
309.021	24649
309.058	29982
309.076	37702
309.130	64808
309.148	75608
309.185	109742
309.238	168030
309.239	168432
309.293	173736
309.328	163496
309.348	147461
309.402	87466
309.418	71641
309.457	51749
309.508	32364
309.511	31735
309.566	25711
309.598	22763
309.620	22733
309.674	24799
309.688	25483
309.729	23870
309.778	21387
309.783	21207
309.837	17951
309.868	16545
309.892	21165
309.946	33086
309.959	36774
310.001	43890
310.049	49336
310.055	47745
310.109	29072
310.139	18323
310.163	14933
310.218	9980
310.229	9134
310.272	7753
310.319	6391
310.326	6183
310.381	5070
310.409	4554
310.435	4649
310.489	4952
310.499	5029
310.543	5379
310.589	5528
310.598	5541
310.652	6074
310.679	6229
310.706	5928
310.760	5013
310.769	4885
310.814	4549
310.859	4378
310.868	4463
310.923	4595
310.948	4817
310.977	5245
311.031	6070
311.038	6174
311.085	5324
311.128	4222
311.139	4306
311.193	5019
311.218	5307
311.247	5023
311.301	4500
311.308	4419
311.356	4888
311.398	5360
311.410	5262
311.464	4753
311.488	4513
311.518	4614
311.572	4806
311.578	4830
311.626	6400
311.668	7694
311.680	7676
311.734	7533
311.758	7455
311.788	7182
311.842	6698
311.847	6629
311.896	9507
311.937	12102
311.950	11667
312.004	9594
312.027	8644
312.058	7453
312.112	5351
312.117	5142
312.165	5188
312.207	5236
312.297	8933
312.386	6807
312.476	6042
312.566	11845
312.656	5113
312.745	4822
312.835	5611
312.925	5617
313.015	5138
313.104	5430
313.194	4940
313.284	5341
313.374	7916
313.463	6243
313.553	5312
313.643	4605
313.732	4532
313.822	4210
313.912	5723
314.001	6002
314.091	7653
314.180	10128
314.270	7573
314.360	7699
314.449	5931
314.539	4892
314.628	4905
314.718	5768
314.808	6313
314.897	5128
314.987	4911
315.076	7057
315.166	7224
315.255	7201
315.345	6943
315.434	6349
315.524	7464
315.613	7183
315.703	7980
315.792	11524
315.881	21501
315.971	9980
316.060	12178
316.150	15431
316.239	15014
316.328	6776
316.418	4794
316.507	5985
316.597	7925
316.686	6543
316.775	9136
316.865	14507
316.954	5832
317.043	5446
317.133	4343
317.222	4868
317.311	3729
317.400	3769
317.490	6768
317.579	7230
317.668	6282
317.757	8416
317.847	15107
317.936	37832
318.025	19451
318.114	11890
318.203	8603
318.293	14608
318.382	26088
318.471	20797
318.560	30390
318.649	53367
318.738	11294
318.828	9008
318.917	8196
319.006	10184
319.095	24463
319.184	66922
319.273	31180
319.362	16160
319.451	7183
319.540	6629
319.629	15512
319.718	21502
319.807	11526
319.896	25230
319.985	79028
320.074	22479
320.163	8892
320.252	12239
320.341	13737
320.430	12140
320.519	13403
320.608	8231
320.697	7560
320.786	7312
320.875	9250
320.964	10962
321.053	16028
321.142	22850
321.230	22271
321.319	20229
321.408	42864
321.497	17227
321.586	16973
321.675	19223
321.764	18136
321.852	14474
321.941	25537
322.030	14989
322.119	20515
322.207	41031
322.296	25661
322.385	16868
322.474	20283
322.562	51288
322.651	23065
322.740	20263
322.829	27390
322.917	21444
323.006	14025
323.095	13610
323.183	9476
323.272	15027
323.361	23527
323.449	56586
323.538	19193
323.626	45337
323.715	23246
323.804	12567
323.892	39733
323.981	19299
324.069	9168
324.158	23538
324.246	17495
324.335	11735
324.424	15119
324.512	6747
324.601	10640
324.689	23382
324.778	35977
324.866	17525
324.954	6539
325.043	6406
325.131	11207
325.220	17136
325.308	17822
325.397	14984
325.485	8777
325.574	5880
325.662	5453
325.750	6236
325.839	5503
325.927	4291
326.015	6758
326.104	8249
326.192	9563
326.280	5817
326.369	5428
326.457	8716
326.545	13946
326.634	5863
326.722	3829
326.810	4317
326.898	5376
326.987	6711
327.075	12523
327.163	11095
327.251	6673
327.340	18279
327.428	21216
327.516	6036
327.604	4610
327.692	4683
327.781	6280
327.869	8634
327.957	6523
328.045	6542
328.133	4443
328.221	5481
328.309	5152
328.397	5451
328.485	5814
328.574	9883
328.662	27150
328.750	12929
328.838	5948
328.926	4912
329.014	5297
329.102	8519
329.190	20423
329.278	11386
329.366	4940
329.454	4281
329.542	4998
329.630	4309
329.718	6009
329.806	7818
329.893	8517
329.981	11052
330.069	19908
330.157	72558
330.245	136821
330.333	70882
330.421	17848
330.509	14783
330.597	33360
330.684	19043
330.772	10370
330.860	13676
330.948	17675
331.036	6955
331.123	4482
331.211	5511
331.299	6478
331.387	17256
331.475	24279
331.562	7799
331.650	4129
331.738	4368
331.825	6515
331.913	4437
332.001	4097
332.089	6381
332.176	9894
332.264	21602
332.352	15785
332.439	6950
332.527	5715
332.614	4871
332.702	5790
332.790	4292
332.877	11759
332.965	17373
333.052	5423
333.140	6302
333.228	9534
333.315	5130
333.403	5701
333.490	13569
333.578	9608
333.665	10729
333.753	7445
333.840	5202
333.928	6346
334.015	16154
334.103	27130
334.190	72039
334.278	17981
334.365	11256
334.452	8704
334.540	6314
334.627	8315
334.715	11053
334.802	19019
334.889	75365
334.977	59138
335.064	13371
335.151	9484
335.239	8367
335.326	11532
335.413	46921
335.501	47319
335.588	9482
335.675	7611
335.762	12814
335.850	18028
335.937	14539
336.024	30439
336.111	85437
336.199	34366
336.286	11872
336.373	8180
336.460	5699
336.547	6598
336.635	7421
336.722	6786
336.809	5986
336.896	10202
336.983	31100
337.070	64922
337.157	74743
337.245	48036
337.332	27815
337.419	5879
337.506	5528
337.593	7635
337.680	27949
337.767	63657
337.854	18722
337.941	20756
338.028	19939
338.115	7956
338.202	11121
338.289	16716
338.376	44593
338.463	15921
338.550	42773
338.637	34408
338.724	12482
338.811	13814
338.898	5140
338.984	4217
339.071	6597
339.158	7165
339.245	18117
339.332	11337
339.419	11734
339.506	10109
339.593	4218
339.679	5132
339.766	3787
339.853	6340
339.940	11944
340.027	5077
340.113	5057
340.200	6456
340.287	5221
340.374	7039
340.460	12283
340.547	6960
340.634	9777
340.720	30244
340.807	14686
340.894	5226
340.980	5213
341.067	4222
341.154	6564
341.240	9395
341.327	15715
341.414	8645
341.500	10257
341.587	5427
341.674	5166
341.760	11419
341.847	11848
341.933	3853
342.020	2839
342.106	2815
342.193	5262
342.279	8401
342.366	7899
342.452	10390
342.539	6664
342.625	15872
342.712	31416
342.798	12852
342.885	5779
342.971	2847
343.058	2540
343.144	3369
343.230	3795
343.317	5764
343.403	3406
343.490	3193
343.576	2585
343.662	3649
343.749	5253
343.835	6170
343.921	11482
344.008	55344
344.094	96857
344.180	21105
344.267	11634
344.353	36501
344.439	31095
344.525	16446
344.612	13656
344.698	12583
344.784	7411
344.870	4740
344.957	5372
345.043	6763
345.129	5058
345.215	11171
345.301	8207
345.387	6219
345.474	3309
345.560	3594
345.646	4062
345.732	4192
345.818	7849
345.904	4722
345.990	4431
346.076	5530
346.162	10570
346.249	5863
346.335	3918
346.421	5139
346.507	16143
346.593	42111
346.679	9967
346.765	5639
346.851	4297
346.937	4245
347.023	4658
347.108	4890
347.194	5098
347.280	4686
347.366	6200
347.452	18646
347.538	53287
347.624	40180
347.710	30159
347.796	6071
347.882	4669
347.967	4140
348.053	6766
348.139	4339
348.225	3430
348.311	2818
348.397	3908
348.482	5358
348.568	5620
348.654	3565
348.740	6994
348.825	6895
348.911	8865
348.997	29308
349.083	41911
349.168	8023
349.254	7384
349.340	6799
349.425	2871
349.511	6071
349.597	6701
349.682	13313
349.768	34863
349.854	13542
349.939	5159
350.025	3359
350.110	4732
350.196	4755
350.282	3121
350.367	3477
350.453	5108
350.538	5924
350.624	6698
350.709	6368
350.795	3578
350.880	3731
350.966	5418
351.051	7281
351.137	4694
351.222	5031
351.308	15128
351.393	31656
351.479	10356
351.564	5175
351.649	4824
351.735	3880
351.820	4146
351.906	3969
351.991	5964
352.076	23223
352.162	28276
352.247	6930
352.332	6483
352.418	13068
352.503	16389
352.588	48111
352.673	33326
352.759	8346
352.844	4754
352.929	6342
353.014	7493
353.100	6192
353.185	13397
353.270	13823
353.355	11489
353.441	4634
353.526	5534
353.611	10539
353.696	11109
353.781	7122
353.866	4160
353.952	4612
354.037	11863
354.122	22497
354.207	18974
354.292	7245
354.377	4627
354.462	3581
354.547	6378
354.632	6146
354.717	11935
354.802	15451
354.887	5497
354.972	3755
355.057	3155
355.142	3157
355.227	4573
355.312	7722
355.397	17157
355.482	35747
355.567	15213
355.652	12993
355.737	14657
355.822	41026
355.907	26897
355.991	6904
356.076	4178
356.161	4589
356.246	3604
356.331	5046
356.416	10817
356.501	60734
356.585	51210
356.670	10824
356.755	8957
356.840	12929
356.924	56350
357.009	132199
357.094	45976
357.179	14242
357.263	8694
357.348	9847
357.433	9087
357.517	9359
357.602	7134
357.687	7074
357.771	13824
357.856	30452
357.941	17040
358.025	38837
358.110	124874
358.195	54747
358.279	11792
358.364	9971
358.448	32362
358.533	75134
358.617	54001
358.702	52512
358.787	18694
358.871	12787
358.956	10017
359.040	4377
359.125	3643
359.209	4852
359.294	16115
359.378	22886
359.462	11401
359.547	7028
359.631	4275
359.716	3341
359.800	5134
359.885	8358
359.969	4184
360.053	4844
360.138	4673
360.222	7390
360.306	11823
360.391	8993
360.475	20522
360.559	36157
360.644	30432
360.728	20927
360.812	39721
360.896	80646
360.981	39454
361.065	22592
361.149	8068
361.233	6938
361.318	5587
361.402	5864
361.486	6281
361.570	4715
361.654	6038
361.739	17178
361.823	61887
361.907	77497
361.991	17109
362.075	13291
362.159	24291
362.243	19681
362.327	23668
362.411	24809
362.495	13301
362.580	8254
362.664	7870
362.748	7123
362.832	11563
362.916	21502
363.000	53044
363.084	99103
363.168	96437
363.252	25627
363.336	13461
363.420	18237
363.503	61448
363.587	59278
363.671	12802
363.755	10710
363.839	13845
363.923	9017
364.007	17014
364.091	17589
364.175	31883
364.258	100005
364.342	85008
364.426	89927
364.510	45447
364.594	24673
364.677	26811
364.761	76425
364.845	48157
364.929	22039
365.013	16805
365.096	14326
365.180	16066
365.264	29379
365.347	84569
365.431	35800
365.515	12071
365.598	5917
365.682	6871
365.766	13354
365.849	14250
365.933	7115
366.017	11840
366.100	8600
366.184	4131
366.267	4861
366.351	4310
366.435	3602
366.518	3550
366.602	3603
366.685	4666
366.769	5319
366.852	11318
366.936	16732
367.019	9027
367.103	9339
367.186	17043
367.270	4663
367.353	2668
367.436	5821
367.520	4283
367.603	5824
367.687	7617
367.770	13899
367.853	9524
367.937	28101
368.020	36858
368.104	9228
368.187	11628
368.270	16184
368.353	15329
368.437	16542
368.520	30066
368.603	22006
368.687	32863
368.770	50081
368.853	13256
368.936	15602
369.020	16699
369.103	6299
369.186	4767
369.269	5505
369.352	11400
369.436	13569
369.519	9000
369.602	4671
369.685	6728
369.768	5047
369.851	5807
369.934	3155
370.018	5825
370.101	10397
370.184	11147
370.267	8313
370.350	13066
370.433	19814
370.516	43515
370.599	44176
370.682	16118
370.765	33598
370.848	39838
370.931	60734
371.014	24953
371.097	5551
371.180	4641
371.263	3975
371.346	2321
371.429	3796
371.511	3919
371.594	7822
371.677	14262
371.760	17000
371.843	13964
371.926	57941
372.009	102138
372.091	35611
372.174	27473
372.257	54910
372.340	20842
372.423	23081
372.505	27104
372.588	10766
372.671	24892
372.754	59855
372.836	28547
372.919	32978
373.002	53571
373.085	14967
373.167	13078
373.250	31386
373.332	57536
373.415	80860
373.498	136776
373.580	54270
373.663	75324
373.746	85836
373.828	21724
373.911	12386
373.993	16104
374.076	55219
374.159	44281
374.241	21967
374.324	55642
374.406	34565
374.489	51075
374.571	113458
374.654	45767
374.736	29207
374.819	75042
374.901	105901
374.983	94828
375.066	19062
375.148	11641
375.231	46645
375.313	76076
375.395	28729
375.478	8084
375.560	5569
375.643	8618
375.725	28721
375.807	90920
375.890	65850
375.972	28329
376.054	19842
376.136	23947
376.219	11911
376.301	33734
376.383	73209
376.465	27648
376.548	21217
376.630	28558
376.712	67195
376.794	28645
376.877	5739
376.959	2926
377.041	5876
377.123	14926
377.205	15499
377.287	4195
377.369	4624
377.452	4117
377.534	4268
377.616	4085
377.698	3831
377.780	3238
377.862	4465
377.944	5305
378.026	2363
378.108	3902
378.190	3367
378.272	3995
378.354	1928
378.436	3833
378.518	8936
378.600	26554
378.682	22956
378.764	40929
378.846	28958
378.928	11375
379.010	13752
379.091	7799
379.173	4599
379.255	2922
379.337	6578
379.419	23109
379.501	53587
379.583	20954
379.664	7003
379.746	16086
379.828	42646
379.910	55023
379.991	41215
380.073	7978
380.155	5985
380.237	3728
380.318	3474
380.400	4900
380.482	10280
380.564	13743
380.645	15805
380.727	15551
380.809	8660
380.890	6097
380.972	4327
381.053	4316
381.135	5646
381.217	16220
381.298	40856
381.380	19476
381.461	19459
381.543	71083
381.624	75041
381.706	15122
381.787	10578
381.869	11138
381.951	37095
382.032	105235
382.113	65411
382.195	15841
382.276	14479
382.358	30525
382.439	62436
382.521	71015
382.602	94110
382.684	50016
382.765	88689
382.846	78816
382.928	76406
383.009	42865
383.090	40993
383.172	124684
383.253	155944
383.334	71941
383.416	90312
383.497	43073
383.578	20546
383.659	38919
383.741	125010
383.822	246033
383.903	121266
383.984	67598
384.066	116345
384.147	68018
384.228	15930
384.309	12948
384.390	10174
384.471	8048
384.553	9489
384.634	12252
384.715	11719
384.796	5832
384.877	9906
384.958	37918
385.039	40764
385.120	15780
385.201	9029
385.282	11101
385.363	11994
385.444	8821
385.525	18226
385.606	51425
385.687	38538
385.768	13764
385.849	18571
385.930	61738
386.011	84865
386.092	24097
386.173	8983
386.254	8290
386.335	8876
386.416	9820
386.496	29626
386.577	40375
386.658	16813
386.739	11039
386.820	11381
386.901	9656
386.981	9740
387.062	7655
387.143	13951
387.224	40356
387.304	35678
387.385	16325
387.466	11364
387.547	14212
387.627	9503
387.708	20980
387.789	69702
387.869	72188
387.950	21158
388.031	7543
388.111	7340
388.192	19519
388.273	26361
388.353	14525
388.434	8300
388.514	17109
388.595	59345
388.676	71933
388.756	39218
388.837	37808
388.917	22596
388.998	5620
389.078	6134
389.159	6436
389.239	3701
389.320	9102
389.400	7629
389.480	19566
389.561	39407
389.641	19341
389.722	9099
389.802	13567
389.883	21743
389.963	46449
390.043	27579
390.124	11665
390.204	18820
390.284	46266
390.365	30013
390.445	42431
390.525	77932
390.605	58037
390.686	21972
390.766	8840
390.846	5977
390.927	4656
391.007	4722
391.087	7138
391.167	6286
391.247	4911
391.328	9206
391.408	14360
391.488	10440
391.568	3784
391.648	7471
391.728	10342
391.808	10087
391.888	11266
391.969	26176
392.049	35999
392.129	18491
392.209	22785
392.289	45413
392.369	26744
392.449	28700
392.529	17884
392.609	13891
392.689	18910
392.769	45457
392.849	37085
392.929	37337
393.009	72269
393.089	53133
393.169	57474
393.248	174858
393.328	454624
393.408	428552
393.488	143696
393.568	48690
393.648	26011
393.728	18375
393.807	13542
393.887	13356
393.967	12393
394.047	13737
394.127	16251
394.206	30006
394.286	99131
394.366	284048
394.446	273164
394.525	89350
394.605	29880
394.685	24594
394.764	44098
394.844	65841
394.924	44289
395.003	14082
395.083	10355
395.163	9207
395.242	8958
395.322	9011
395.402	6379
395.481	12732
395.561	31368
395.640	72760
395.720	60252
395.799	79260
395.879	61067
395.958	49316
396.038	148616
396.117	356240
396.197	354072
396.276	154260
396.356	62448
396.435	43697
396.515	29464
396.594	30392
396.673	55565
396.753	177869
396.832	411118
396.912	294801
396.991	81970
397.070	27901
397.150	14792
397.229	13653
397.308	20713
397.388	33454
397.467	18710
397.546	8961
397.625	5151
397.705	9713
397.784	8786
397.863	4810
397.942	5224
398.022	5977
398.101	25672
398.180	61604
398.259	31140
398.338	10375
398.417	7050
398.497	5194
398.576	6266
398.655	3983
398.734	4787
398.813	6826
398.892	24693
398.971	64088
399.050	28750
399.129	4843
399.208	3735
399.287	4581
399.366	3369
399.445	3610
399.524	4471
399.603	3116
399.682	7611
399.761	24014
399.840	68180
399.919	47539
399.998	7391
400.077	2516
400.156	2722
400.235	5617
400.313	3607
400.392	6110
400.471	24443
400.550	33259
400.629	9544
400.708	6202
400.786	6308
400.865	16913
400.944	17645
401.023	8318
401.102	2446
401.180	2710
401.259	2782
401.338	4458
401.416	6121
401.495	4978
401.574	5202
401.652	3551
401.731	7069
401.810	5497
401.888	3857
401.967	1949
402.046	3811
402.124	5749
402.203	6488
402.281	4735
402.360	8338
402.438	21868
402.517	14479
402.596	6120
402.674	5305
402.753	3373
402.831	3433
402.910	6328
402.988	22840
403.066	58939
403.145	33155
403.223	24975
403.302	53264
403.380	42337
403.459	41665
403.537	17862
403.615	7474
403.694	2501
403.772	3190
403.850	2923
403.929	2435
404.007	2733
404.085	11107
404.164	12359
404.242	6986
404.320	20375
404.398	51609
404.477	58703
404.555	94889
404.633	77158
404.711	41695
404.789	25083
404.868	8983
404.946	4274
405.024	3025
405.102	2857
405.180	1674
405.258	1221
405.336	3885
405.415	3681
405.493	9394
405.571	8012
405.649	2752
405.727	3196
405.805	7324
405.883	6331
405.961	7239
406.039	7235
406.117	3410
406.195	6122
406.273	26470
406.351	75336
406.429	44074
406.507	9591
406.585	4107
406.663	4332
406.740	5084
406.818	4171
406.896	2900
406.974	3931
407.052	10116
407.130	51306
407.208	59973
407.285	12806
407.363	3709
407.441	3625
407.519	3404
407.596	4592
407.674	14493
407.752	41130
407.830	36525
407.907	15110
407.985	5033
408.063	2371
408.141	3080
408.218	7160
408.296	7505
408.373	5289
408.451	4345
408.529	4081
408.606	2438
408.684	1330
408.762	1787
408.839	1697
408.917	2106
408.994	2697
409.072	1693
409.149	2269
409.227	5744
409.304	5866
409.382	5772
409.459	6153
409.537	8583
409.614	8146
409.692	6659
409.769	5855
409.846	8616
409.924	11562
410.001	8714
410.079	7360
410.156	6723
410.233	6241
410.311	5017
410.388	3098
410.465	4762
410.543	3394
410.620	4160
410.697	3571
410.775	3826
410.852	1632
410.929	5165
411.006	6020
411.083	4005
411.161	8092
411.238	10013
411.315	5845
411.392	2340
411.469	4735
411.547	5130
411.624	2488
411.701	2915
411.778	3339
411.855	7297
411.932	3300
412.009	1829
412.086	2412
412.163	3881
412.240	4066
412.317	5230
412.394	4070
412.471	2494
412.548	1645
412.625	2350
412.702	4921
412.779	6863
412.856	6146
412.933	1661
413.010	2077
413.087	5364
413.164	22313
413.241	28591
413.318	6389
413.395	4844
413.471	7176
413.548	3877
413.625	2646
413.702	3488
413.779	2742
413.855	1517
413.932	1060
414.009	1240
414.086	2226
414.162	1880
414.239	6006
414.316	22304
414.393	41530
414.469	14486
414.546	2211
414.623	1608
414.699	2295
414.776	3084
414.853	1197
414.929	3004
415.006	2408
415.082	4255
415.159	2440
415.236	2734
415.312	2375
415.389	5478
415.465	6102
415.542	3627
415.618	2547
415.695	4524
415.771	2934
415.848	3012
415.924	2985
416.000	2326
416.077	2585
416.153	990
416.230	130
416.306	1330
416.383	1062
416.459	2211
416.535	756
416.612	1375
416.688	1627
416.764	1518
416.841	1221
416.917	1366
416.993	1921
417.069	3464
417.146	5239
417.222	6700
417.298	3558
417.374	1586
417.451	3654
417.527	3327
417.603	3112
417.679	2586
417.755	1606
417.831	687
417.908	1595
417.984	1427
418.060	999
418.136	5545
418.212	5935
418.288	2877
418.364	2377
418.440	1412
418.516	4713
418.592	6147
418.668	10654
418.744	14155
418.820	9962
418.896	3141
418.972	1279
419.048	2419
419.124	7331
419.200	4221
419.276	1371
419.352	276
419.428	1748
419.504	1569
419.579	3006
419.655	2175
419.731	3595
419.807	9308
419.883	16399
419.959	10030
420.034	3841
420.110	9233
420.186	29043
420.262	19984
420.337	4387
420.413	3138
420.489	2836
420.565	2935
420.640	2463
420.716	2331
420.792	1495
420.867	2816
420.943	2439
421.019	4655
421.094	3828
421.170	3528
421.245	2997
421.321	4243
421.397	3769
421.472	10890
421.548	21871
421.623	15225
421.699	6524
421.774	6434
421.850	6326
421.925	10239
422.001	9717
422.076	10039
422.152	12873
422.227	19058
422.302	24506
422.378	37909
422.453	69205
422.529	148069
422.604	277927
422.679	311812
422.755	260521
422.830	142065
422.905	67083
422.981	37809
423.056	25690
423.131	17899
423.207	13595
423.282	12418
423.357	15295
423.432	11273
423.508	12036
423.583	17685
423.658	12724
423.733	6525
423.808	6553
423.883	7859
423.959	6554
424.034	5656
424.109	5096
424.184	3139
424.259	3051
424.334	3277
424.409	1993
424.484	3240
424.559	3226
424.634	2052
424.709	3100
424.784	4608
424.859	2609
424.934	5986
425.009	21329
425.084	32140
425.159	11707
425.234	3242
425.309	2826
425.384	9317
425.459	12783
425.534	5579
425.609	2658
425.683	2679
425.758	2236
425.833	3727
425.908	3362
425.983	13419
426.058	32177
426.132	13101
426.207	4206
426.282	6779
426.357	5983
426.431	1876
426.506	2698
426.581	2600
426.655	3002
426.730	2517
426.805	1578
426.879	2357
426.954	2567
427.029	6994
427.103	33250
427.178	67099
427.253	27486
427.327	4638
427.402	7990
427.476	17567
427.551	7474
427.625	3661
427.700	2797
427.774	2549
427.849	3740
427.923	1764
427.998	2307
428.072	3400
428.147	9542
428.221	38983
428.296	92341
428.370	44611
428.444	7619
428.519	9803
428.593	17465
428.667	14682
428.742	17482
428.816	21274
428.890	70669
428.965	92220
429.039	29942
429.113	19117
429.188	6667
429.262	3523
429.336	5693
429.410	16107
429.485	11216
429.559	14243
429.633	10233
429.707	4648
429.781	16633
429.855	76686
429.930	96232
430.004	52133
430.078	73549
430.152	72906
430.226	120675
430.300	104023
430.374	19576
430.448	9469
430.522	27720
430.596	64610
430.670	45893
430.744	98808
430.818	110856
430.892	21899
430.966	4165
431.040	1772
431.114	756
431.188	1478
431.262	1589
431.336	1348
431.410	9223
431.484	19313
431.557	11745
431.631	2698
431.705	4510
431.779	24102
431.853	83451
431.927	51476
432.000	6659
432.074	3052
432.148	3774
432.222	2632
432.295	1417
432.369	2554
432.443	6003
432.516	31458
432.590	64804
432.664	22524
432.737	2778
432.811	885
432.885	502
432.958	1772
433.032	1228
433.106	880
433.179	832
433.253	1121
433.326	778
433.400	611
433.473	352
433.547	902
433.620	1180
433.694	3647
433.767	3563
433.841	1071
433.914	660
433.988	1102
434.061	1392
434.134	845
434.208	577
434.281	873
434.355	611
434.428	437
434.501	739
434.575	442
434.648	580
434.721	850
434.795	815
434.868	467
434.941	629
435.014	975
435.088	922
435.161	1832
435.234	3384
435.307	3333
435.381	2200
435.454	1869
435.527	2950
435.600	3757
435.673	3606
435.746	2421
435.819	1686
435.892	2355
435.966	1709
436.039	1358
436.112	1783
436.185	641
436.258	540
436.331	13
436.404	246
436.477	149
436.550	992
436.623	1272
436.696	384
436.769	1037
436.842	1458
436.915	1503
436.987	1939
437.060	1207
437.133	770
437.206	525
437.279	1912
437.352	377
437.425	570
437.498	1839
437.570	4577
437.643	3822
437.716	937
437.789	1380
437.861	4503
437.934	10292
438.007	4042
438.080	1749
438.152	2028
438.225	6234
438.298	39798
438.370	84627
438.443	33717
438.516	9095
438.588	2095
438.661	399
438.734	1024
438.806	1810
438.879	2320
438.951	3139
439.024	4880
439.096	1265
439.169	1375
439.241	546
439.314	805
439.386	3127
439.459	4478
439.531	5219
439.604	1343
439.676	750
439.749	397
439.821	456
439.893	570
439.966	803
440.038	1838
440.110	2411
440.183	1485
440.255	1232
440.327	3122
440.400	19409
440.472	60326
440.544	33855
440.617	4853
440.689	4385
440.761	5985
440.833	8842
440.905	4723
440.978	932
441.050	215
441.122	1248
441.194	809
441.266	896
441.338	587
441.411	3917
441.483	22607
441.555	27596
441.627	5983
441.699	4475
441.771	3965
441.843	1460
441.915	1290
441.987	1906
442.059	1245
442.131	2429
442.203	4395
442.275	5439
442.347	5787
442.419	12201
442.491	54585
442.563	104329
442.635	44226
442.706	23365
442.778	14084
442.850	4007
442.922	2338
442.994	3568
443.066	5044
443.137	3823
443.209	4575
443.281	7864
443.353	18564
443.425	73113
443.496	196182
443.568	172259
443.640	61092
443.711	13637
443.783	5450
443.855	3828
443.926	2777
443.998	3376
444.070	3733
444.141	3104
444.213	4494
444.285	5320
444.356	3814
444.428	3497
444.499	1790
444.571	974
444.642	1792
444.714	1741
444.785	5032
444.857	6838
444.928	13182
445.000	7766
445.071	10887
445.143	12931
445.214	10076
445.285	19067
445.357	49146
445.428	146438
445.500	256701
445.571	169772
445.642	88036
445.714	35773
445.785	25713
445.856	8629
445.928	6491
445.999	5819
446.070	3849
446.141	5532
446.213	6036
446.284	3525
446.355	3631
446.426	2210
446.497	2144
446.569	4986
446.640	6222
446.711	3479
446.782	1937
446.853	2240
446.924	2588
446.995	1826
447.066	2635
447.138	4974
447.209	2909
447.280	1174
447.351	638
447.422	879
447.493	1961
447.564	2248
447.635	3079
447.706	689
447.777	766
447.847	1328
447.918	1736
447.989	2678
448.060	4110
448.131	9335
448.202	6931
448.273	4461
448.344	1642
448.414	1376
448.485	1278
448.556	1045
448.627	724
448.698	1598
448.768	734
448.839	451
448.910	4637
448.981	4048
449.051	1736
449.122	298
449.193	559
449.263	538
449.334	443
449.405	2349
449.475	4802
449.546	4092
449.616	5949
449.687	3777
449.758	2248
449.828	1265
449.899	980
449.969	1527
450.040	660
450.110	2053
450.181	1999
450.251	1116
450.322	1268
450.392	1917
450.463	1352
450.533	1442
450.604	1580
450.674	943
450.744	1472
450.815	1070
450.885	1486
450.955	1836
451.026	459
451.096	1071
451.166	1311
451.237	7435
451.307	14449
451.377	4666
451.447	1390
451.518	1459
451.588	1284
451.658	1057
451.728	4387
451.799	17062
451.869	14924
451.939	2678
452.009	635
452.079	476
452.149	1564
452.219	5359
452.289	19235
452.360	10976
452.430	2168
452.500	1662
452.570	3100
452.640	5947
452.710	14976
452.780	20560
452.850	12799
452.920	9097
452.990	3824
453.060	3490
453.129	3405
453.199	5583
453.269	24013
453.339	38243
453.409	52522
453.479	65907
453.549	87804
453.619	87492
453.688	27233
453.758	4538
453.828	2652
453.898	1682
453.968	1186
454.037	1021
454.087	868
454.107	785
454.168	1468
454.177	1549
454.247	1439
454.249	1437
454.316	766
454.330	1075
454.386	1931
454.411	4773
454.456	9241
454.492	10404
454.525	11445
454.574	5540
454.595	3005
454.655	2067
454.665	1952
454.734	3087
454.736	3262
454.804	6948
454.817	9223
454.873	17563
454.898	16581
454.943	14694
454.979	8853
455.013	3860
455.060	3123
455.082	3040
455.141	5437
455.152	5809
455.221	16105
455.222	16359
455.291	24903
455.303	25044
455.360	24351
455.384	31120
455.430	40388
455.465	30074
455.499	21171
455.546	18060
455.569	16407
455.627	8747
455.638	7445
455.707	1296
455.708	1319
455.777	2032
455.789	2109
455.846	2189
455.869	2189
455.916	2238
455.950	2244
455.985	2170
456.031	2024
456.054	1936
456.112	1882
456.124	1879
456.193	1986
456.193	1963
456.262	2634
456.274	2833
456.332	3545
456.355	3462
456.401	3017
456.436	2396
456.470	1690
456.516	1413
456.540	1462
456.597	1411
456.609	1347
456.678	1174
456.678	1159
456.747	1704
456.759	1668
456.817	1416
456.840	1419
456.886	1349
456.920	1626
456.955	2007
457.001	2201
457.024	2200
457.082	2408
457.093	2489
457.162	2880
457.163	2908
457.232	3464
457.243	3363
457.301	2689
457.324	2133
457.370	1546
457.405	2121
457.439	2476
457.485	2149
457.508	2150
457.566	3034
457.577	3224
457.646	4163
457.647	4203
457.715	7848
457.727	8666
457.784	12587
457.808	14989
457.853	17832
457.889	20721
457.922	21475
457.969	16798
457.991	16921
458.050	19477
458.060	19820
458.129	30228
458.130	30540
458.198	30045
458.211	27165
458.267	16167
458.292	12015
458.336	8997
458.372	9137
458.405	11872
458.453	16654
458.474	19487
458.533	31773
458.543	32593
458.611	47611
458.614	47777
458.680	31432
458.694	25714
458.749	13012
458.775	9508
458.818	6095
458.855	5609
458.887	5057
458.936	3736
458.955	3459
459.016	3695
459.024	3732
459.093	4002
459.097	4025
459.162	3812
459.177	3879
459.230	4594
459.257	4675
459.299	4624
459.338	5032
459.368	5127
459.418	5333
459.437	5195
459.499	4107
459.505	4049
459.574	3893
459.579	3889
459.643	3983
459.659	3941
459.711	3774
459.740	3963
459.780	4581
459.820	4779
459.849	4560
459.900	4630
459.917	4778
459.981	5058
459.986	4993
460.054	4481
460.061	4434
460.123	4992
460.141	5143
460.191	5445
460.222	5741
460.260	6113
460.302	7003
460.328	6948
460.382	5850
460.397	5959
460.462	6345
460.465	6663
460.534	14826
460.543	15958
460.602	35984
460.623	43811
460.671	63880
460.703	83988
460.739	73222
460.783	49101
460.808	41728
460.864	11339
460.876	8407
460.944	5784
460.945	5734
461.013	5003
461.024	4802
461.081	4874
461.104	5260
461.150	5334
461.184	4929
461.218	4995
461.264	5052
461.286	4881
461.345	4549
461.355	4578
461.423	5173
461.425	5174
461.491	5360
461.505	5540
461.559	11404
461.585	14209
461.628	19450
461.665	25109
461.696	26629
461.745	30290
461.764	26835
461.825	8299
461.832	7819
461.901	5682
461.905	5694
461.969	5034
461.985	4853
462.037	5871
462.065	6138
462.105	7173
462.145	8763
462.173	10917
462.225	14644
462.241	15726
462.305	21831
462.310	21245
462.378	10702
462.385	9169
462.446	5674
462.465	5330
462.514	5721
462.545	5967
462.582	5959
462.625	5894
462.650	5827
462.705	5737
462.718	5974
462.785	7135
462.786	7165
462.854	8682
462.865	9034
462.922	11082
462.945	11923
462.990	9267
463.025	6317
463.058	5388
463.104	4735
463.126	5000
463.184	5903
463.194	5980
463.262	6226
463.264	6241
463.330	6494
463.344	6546
463.398	6932
463.424	6979
463.466	6634
463.504	6543
463.533	6686
463.583	6665
463.601	6884
463.663	7644
463.669	7851
463.737	10332
463.743	10563
463.805	17845
463.823	19993
463.873	26664
463.903	30946
463.940	31347
463.982	32196
464.008	26043
464.062	10292
464.076	9638
464.142	7079
464.144	7038
464.211	6149
464.221	6063
464.279	7287
464.301	7765
464.347	8590
464.381	9075
464.414	9451
464.461	10198
464.482	10484
464.540	11054
464.550	10762
464.617	8347
464.620	8256
464.685	9418
464.699	9696
464.753	11849
464.779	12965
464.820	13927
464.859	14760
464.888	14279
464.938	13273
464.956	13403
465.018	13912
465.023	13787
465.091	11587
465.098	11378
465.158	10694
465.177	10397
465.226	11372
465.257	12039
465.293	11890
465.336	11667
465.361	12632
465.416	14775
465.428	16252
465.495	24101
465.496	24204
465.563	34218
465.575	36047
465.631	40149
465.654	41831
465.698	26989
465.734	13655
465.765	12688
465.813	11684
465.833	11672
465.893	12058
465.900	12031
465.968	11556
465.972	11497
466.035	12303
466.052	12543
466.102	12532
466.131	12443
466.170	12879
466.210	13356
466.237	13786
466.290	14492
466.304	14694
466.369	15419
466.372	15421
466.439	14814
466.449	14685
466.506	17649
466.528	18750
466.573	25461
466.607	30439
466.641	39165
466.687	51252
466.708	54266
466.766	62589
466.775	58274
466.842	24545
466.845	22904
466.909	18500
466.925	17491
466.977	17880
467.004	18093
467.044	18679
467.083	19185
467.111	20702
467.163	23480
467.178	23588
467.242	23813
467.245	23806
467.312	22781
467.321	22607
467.379	21305
467.400	20768
467.446	23033
467.480	24599
467.559	20031
467.638	18152
467.717	18131
467.796	19216
467.875	20104
467.955	19591
468.034	33058
468.113	57588
468.192	77745
468.271	21761
468.350	18784
468.429	20326
468.508	18510
468.588	18529
468.667	17525
468.746	18442
468.825	16912
468.904	14556
468.983	17796
469.062	25049
469.141	28422
469.220	15054
469.299	15305
469.378	16354
469.456	18684
469.535	16451
469.614	15522
469.693	17292
469.772	22116
469.851	27684
469.930	18306
470.009	14497
470.088	14332
470.166	14149
470.245	15615
470.324	17731
470.403	15949
470.482	15540
470.560	14117
470.639	14427
470.718	15790
470.797	14429
470.875	18416
470.954	23250
471.033	23346
471.111	12862
471.190	12216
471.269	11922
471.347	12126
471.426	12854
471.505	15633
471.583	15956
471.662	14166
471.740	12801
471.819	12882
471.898	13039
471.976	13116
472.055	14019
472.133	15440
472.212	20317
472.290	19726
472.369	13660
472.447	12818
472.526	11412
472.604	13651
472.683	12910
472.761	14427
472.839	13348
472.918	11914
472.996	13574
473.075	15322
473.153	14648
473.231	12479
473.310	13782
473.388	13814
473.466	13184
473.545	15124
473.623	17807
473.701	16485
473.780	13419
473.858	12833
473.936	14923
474.014	13277
474.093	15816
474.171	21993
474.249	28032
474.327	17413
474.405	11768
474.484	11705
474.562	13037
474.640	12546
474.718	14043
474.796	13542
474.874	13210
474.952	12039
475.030	12284
475.108	13508
475.187	16595
475.265	18386
475.343	24695
475.421	25763
475.499	14053
475.577	14148
475.655	20448
475.733	33856
475.811	57633
475.889	47674
475.966	28437
476.044	13701
476.122	19213
476.200	21279
476.278	16028
476.356	11946
476.434	13468
476.512	16801
476.590	21284
476.667	16994
476.745	11732
476.823	11914
476.901	12008
476.979	13242
477.056	12035
477.134	12360
477.212	12893
477.290	11465
477.367	11759
477.445	11153
477.523	10921
477.601	10764
477.678	12003
477.756	14856
477.834	15183
477.911	10574
477.989	11093
478.066	11887
478.144	13941
478.222	17993
478.299	25880
478.377	21808
478.454	11975
478.532	9832
478.609	11618
478.687	11852
478.764	10073
478.842	11128
478.919	12103
478.997	11110
479.074	11473
479.152	12244
479.229	16904
479.307	10313
479.384	9390
479.461	9331
479.539	10621
479.616	13561
479.694	11679
479.771	11896
479.848	13367
479.926	16080
480.003	17297
480.080	9489
480.157	10622
480.235	10022
480.312	10472
480.389	12715
480.467	20115
480.544	23364
480.621	13359
480.698	11913
480.775	14173
480.853	13425
480.930	11094
481.007	12118
481.084	16050
481.161	18789
481.238	15214
481.315	9783
481.392	10622
481.470	10645
481.547	11372
481.624	10879
481.701	11695
481.778	10474
481.855	13564
481.932	21067
482.009	31249
482.086	20227
482.163	13297
482.240	21828
482.317	33126
482.393	24204
482.470	12391
482.547	12762
482.624	11097
482.701	12007
482.778	10807
482.855	10273
482.932	10002
483.009	10309
483.085	12905
483.162	15251
483.239	14719
483.316	10713
483.393	11468
483.469	10916
483.546	14225
483.623	12588
483.699	10591
483.776	11391
483.853	13636
483.930	22731
484.006	52133
484.083	81015
484.160	43159
484.236	58878
484.313	43525
484.389	34304
484.466	32131
484.543	30816
484.619	30565
484.696	32426
484.772	33210
484.849	34427
484.925	28488
485.002	28554
485.078	29883
485.155	29833
485.231	27132
485.308	26828
485.384	28405
485.461	35552
485.537	53714
485.614	58646
485.690	26540
485.766	24831
485.843	27686
485.919	32981
485.995	32744
486.072	23911
486.148	24133
486.224	23377
486.301	25417
486.377	28435
486.453	28482
486.530	28800
486.606	36882
486.682	40870
486.758	48586
486.835	53781
486.911	46200
486.987	66179
487.063	62748
487.139	67772
487.215	51016
487.292	31407
487.368	28324
487.444	32613
487.520	40322
487.596	41213
487.672	66451
487.748	138473
487.824	184988
487.900	80773
487.976	40678
488.052	34628
488.128	38083
488.204	28753
488.280	27291
488.356	35836
488.432	64892
488.508	87193
488.584	31072
488.660	23755
488.736	24325
488.812	24448
488.888	29027
488.964	38511
489.039	67074
489.115	88673
489.191	52927
489.267	25549
489.343	24414
489.418	21617
489.494	21141
489.570	19646
489.646	22865
489.722	20678
489.797	23480
489.873	38689
489.949	70135
490.024	54133
490.100	20511
490.176	21188
490.251	23820
490.327	28701
490.403	19650
490.478	19960
490.554	17906
490.629	17130
490.705	18036
490.781	19398
490.856	19062
490.932	21447
491.007	20303
491.083	20142
491.158	19348
491.234	29440
491.309	53388
491.385	51175
491.460	19678
491.536	21988
491.611	18627
491.686	19889
491.762	25914
491.837	43895
491.913	71503
491.988	94386
492.063	104124
492.139	38326
492.214	26285
492.289	15988
492.365	16478
492.440	20000
492.515	19092
492.590	18871
492.666	16231
492.741	22036
492.816	31781
492.891	17445
492.967	16420
493.042	15285
493.117	16428
493.192	19162
493.267	42208
493.342	113401
493.418	129884
493.493	22374
493.568	15574
493.643	15176
493.718	19243
493.793	25669
493.868	26177
493.943	17532
494.018	16326
494.093	13773
494.168	15268
494.243	13219
494.318	13359
494.393	12720
494.468	13180
494.543	12936
494.618	15268
494.693	13282
494.768	14999
494.842	14868
494.917	13443
494.992	14359
495.067	13468
495.142	13568
495.217	14057
495.292	14206
495.366	16215
495.441	18827
495.516	22589
495.591	33761
495.665	96515
495.740	179890
495.815	69094
495.890	21637
495.964	17006
496.039	21292
496.114	20427
496.188	22861
496.263	22584
496.338	18296
496.412	21285
496.487	25496
496.561	24113
496.636	24404
496.710	22238
496.785	24313
496.860	27668
496.934	22594
497.009	22501
497.083	23200
497.158	25167
497.232	28566
497.307	32648
497.381	31775
497.455	37857
497.530	44676
497.604	36466
497.679	39050
497.753	56110
497.827	66899
497.902	59364
497.976	71719
498.050	161714
498.125	428714
498.199	362771
498.273	80117
498.348	68406
498.422	61328
498.496	57302
498.570	51870
498.645	45168
498.719	43756
498.793	47199
498.867	57091
498.941	81808
499.016	213000
499.090	426337
499.164	128070
499.238	30983
499.312	27705
499.386	31280
499.460	28111
499.534	26388
499.609	30541
499.683	40191
499.757	40416
499.831	103486
499.905	307115
499.979	243216
500.053	46761
500.127	46241
500.201	29628
500.275	23578
500.349	22710
500.422	24329
500.496	32757
500.570	70664
500.644	188751
500.718	296994
500.792	57014
500.866	24859
500.940	29092
501.013	24614
501.087	23412
501.161	35737
501.235	49101
501.309	125348
501.382	294324
501.456	217363
501.530	60730
501.603	94312
501.677	34211
501.751	16464
501.825	22984
501.898	51139
501.972	118265
502.046	65795
502.119	23775
502.193	60808
502.266	123576
502.340	57965
502.413	64158
502.487	109896
502.561	58486
502.634	21704
502.708	16467
502.781	14207
502.855	14331
502.928	12682
503.002	13745
503.075	13076
503.149	14076
503.222	15646
503.295	14998
503.369	19780
503.442	31290
503.516	104288
503.589	222963
503.662	133073
503.736	50494
503.809	105801
503.882	88999
503.956	126298
504.029	110640
504.102	84834
504.175	96803
504.249	46738
504.322	30465
504.395	23915
504.468	16325
504.542	16725
504.615	12168
504.688	12025
504.761	10738
504.834	15307
504.907	17400
504.980	22134
505.053	15164
505.127	16540
505.200	22291
505.273	21221
505.346	13056
505.419	11280
505.492	12164
505.565	9528
505.638	9263
505.711	10117
505.784	9337
505.857	9624
505.930	11501
506.003	9270
506.076	12481
506.149	15880
506.221	17721
506.294	20368
506.367	59621
506.440	154291
506.513	71561
506.586	20926
506.659	11667
506.731	10992
506.804	13097
506.877	17007
506.950	12950
507.022	11235
507.095	14943
507.168	17196
507.241	11475
507.313	9241
507.386	9649
507.459	13487
507.531	9258
507.604	9551
507.677	9763
507.749	7995
507.822	13625
507.894	25197
507.967	28655
508.040	17558
508.112	15439
508.185	15471
508.257	14198
508.330	19981
508.402	14355
508.475	14514
508.547	16114
508.620	16702
508.692	23654
508.765	15076
508.837	11302
508.909	12554
508.982	10837
509.054	14192
509.127	11475
509.199	12678
509.271	10058
509.344	11085
509.416	10754
509.488	11944
509.560	12132
509.633	12531
509.705	14182
509.777	14988
509.849	19036
509.922	14008
509.994	12884
510.066	14752
510.138	15221
510.210	28015
510.283	23896
510.355	20816
510.427	17508
510.499	17652
510.571	16705
510.643	16726
510.715	23039
510.787	19427
510.859	17188
510.931	19164
511.003	22464
511.076	22538
511.148	14079
511.219	16907
511.291	27156
511.363	27954
511.435	14435
511.507	13708
511.579	14982
511.651	14718
511.723	13255
511.795	13189
511.867	14348
511.939	19385
512.010	32875
512.082	25242
512.154	12447
512.226	15272
512.298	22919
512.369	28512
512.441	22952
512.513	20461
512.585	16183
512.656	18970
512.728	18847
512.800	15875
512.871	16230
512.943	15747
513.015	12798
513.086	14510
513.158	16136
513.230	16283
513.301	21057
513.373	21383
513.444	15422
513.516	15026
513.588	13646
513.659	15766
513.731	16022
513.802	16601
513.874	29921
513.945	41807
514.016	17000
514.088	15378
514.159	15699
514.231	21264
514.302	25190
514.374	21670
514.445	20906
514.516	41488
514.588	28533
514.659	23620
514.730	36677
514.802	28901
514.873	25737
514.944	28607
515.016	23339
515.087	25321
515.158	31961
515.229	38652
515.301	29694
515.372	39315
515.443	28663
515.514	22301
515.585	18147
515.656	18197
515.728	16354
515.799	15244
515.870	15912
515.941	16757
516.012	15842
516.083	21414
516.154	21025
516.225	24000
516.296	22765
516.367	19858
516.438	19429
516.509	23040
516.580	33108
516.651	96384
516.722	246930
516.793	105443
516.864	32901
516.935	30886
517.006	32495
517.077	43865
517.148	98658
517.219	277554
517.289	355833
517.360	180985
517.431	60329
517.502	21683
517.573	21690
517.643	21276
517.714	24118
517.785	24918
517.856	22805
517.926	26737
517.997	26803
518.068	29133
518.138	34918
518.209	57545
518.280	217700
518.350	566001
518.421	190623
518.492	39534
518.562	32908
518.633	35974
518.703	39476
518.774	74461
518.845	138494
518.915	113237
518.986	50089
519.056	37130
519.127	50499
519.197	82029
519.268	181131
519.338	100164
519.408	30327
519.479	31999
519.549	22055
519.620	19456
519.690	15869
519.760	17212
519.831	16393
519.901	15567
519.971	15590
520.042	17524
520.112	19625
520.182	21369
520.253	21224
520.323	17255
520.393	25036
520.463	34419
520.534	27118
520.604	46322
520.674	23884
520.744	26360
520.814	50419
520.885	43993
520.955	74804
521.025	207646
521.095	66687
521.165	19739
521.235	17958
521.305	15579
521.375	14173
521.445	16476
521.515	18006
521.585	22223
521.655	18092
521.725	18797
521.795	16516
521.865	14026
521.935	26355
522.005	19543
522.075	13479
522.145	16094
522.215	17475
522.285	25630
522.355	34877
522.424	59807
522.494	46710
522.564	25695
522.634	45434
522.704	99635
522.774	35644
522.843	15580
522.913	15276
522.983	18102
523.053	14657
523.122	16308
523.192	21706
523.262	57635
523.331	45633
523.401	16062
523.471	11560
523.540	13317
523.610	10505
523.680	12619
523.749	13910
523.819	18815
523.888	16537
523.958	12168
524.027	12586
524.097	14150
524.166	12379
524.236	13495
524.305	15425
524.375	12082
524.444	11285
524.514	15418
524.583	14539
524.653	17694
524.722	19354
524.791	13086
524.861	14055
524.930	11804
524.999	13289
525.069	17552
525.138	16549
525.207	19523
525.277	15311
525.346	13948
525.415	15012
525.484	16740
525.554	18419
525.623	19627
525.692	20243
525.761	20275
525.830	21309
525.900	23835
525.969	36052
526.038	57595
526.107	127823
526.176	306875
526.245	222568
526.314	86513
526.383	172733
526.452	217096
526.522	371779
526.591	308865
526.660	83037
526.729	44716
526.797	51221
526.867	118361
526.935	413857
527.004	717269
527.073	339839
527.142	46931
527.211	24829
527.280	23204
527.349	19478
527.418	14150
527.487	15255
527.555	12338
527.624	11740
527.693	11869
527.762	12849
527.831	10578
527.899	12414
527.968	11718
528.037	9934
528.106	14280
528.174	22057
528.243	19933
528.312	29326
528.380	29760
528.449	12231
528.518	13102
528.586	8806
528.655	11312
528.723	10548
528.792	10653
528.861	11145
528.929	9987
528.998	10671
529.066	12110
529.135	14940
529.203	13330
529.272	15731
529.340	20328
529.409	19037
529.477	17015
529.545	21548
529.614	24098
529.682	26327
529.751	30379
529.819	30112
529.887	27029
529.956	22794
530.024	22542
530.092	20698
530.161	22967
530.229	27406
530.297	22769
530.365	22497
530.434	23055
530.502	22484
530.570	22105
530.638	18693
530.707	20853
530.775	20985
530.843	19258
530.911	20619
530.979	20882
531.047	21936
531.115	22699
531.183	20708
531.252	21241
531.320	20366
531.388	18942
531.456	21819
531.524	21304
531.592	23199
531.660	27881
531.728	21890
531.796	22197
531.864	22886
531.932	23029
532.000	21993
532.067	25666
532.135	25796
532.203	29459
532.271	30254
532.339	40249
532.407	60248
532.475	40857
532.542	30006
532.610	31252
532.678	40132
532.746	118959
532.814	200443
532.881	57412
532.949	29410
533.017	26224
533.084	23771
533.152	24248
533.220	23898
533.287	25652
533.355	24825
533.423	25443
533.490	24300
533.558	24002
533.625	25135
533.693	25460
533.761	24216
533.828	25449
533.896	25387
533.963	36477
534.031	41509
534.098	49868
534.166	31401
534.233	26679
534.300	27385
534.368	27324
534.435	25233
534.503	25815
534.570	27485
534.637	26936
534.705	27742
534.772	30441
534.840	50907
534.907	172029
534.974	164034
535.041	34551
535.109	26886
535.176	22144
535.243	21254
535.310	21322
535.378	19889
535.445	19675
535.512	18916
535.579	20393
535.646	17608
535.714	19622
535.781	23083
535.848	22805
535.915	23696
535.982	26090
536.049	23903
536.116	24905
536.183	20545
536.250	20764
536.317	20645
536.384	22329
536.451	25353
536.518	25838
536.585	21033
536.652	27178
536.719	29673
536.786	22864
536.853	21431
536.920	28381
536.987	34646
537.053	40282
537.120	123017
537.187	81916
537.254	20322
537.321	18259
537.388	18750
537.454	16147
537.521	15772
537.588	16421
537.654	19469
537.721	20995
537.788	20558
537.855	18560
537.921	17325
537.988	17459
538.055	17864
538.121	16213
538.188	16321
538.254	23371
538.321	32067
538.388	22510
538.454	17116
538.521	17199
538.587	15998
538.654	15744
538.720	16648
538.787	16412
538.853	17826
538.920	20459
538.986	19601
539.053	18361
539.119	17944
539.185	16997
539.252	20545
539.318	24395
539.385	23302
539.451	21209
539.517	20486
539.583	23648
539.650	46518
539.716	85533
539.782	25406
539.849	17489
539.915	18625
539.981	18252
540.047	19138
540.114	19588
540.180	19123
540.246	18966
540.312	22388
540.378	34271
540.444	32173
540.510	47253
540.576	94163
540.643	30418
540.709	17054
540.775	18057
540.841	17373
540.907	24628
540.973	31675
541.039	24878
541.105	23873
541.171	19101
541.237	16652
541.303	18447
541.369	21044
541.435	22456
541.500	28407
541.566	19827
541.632	16707
541.698	15984
541.764	16952
541.830	15202
541.896	15541
541.961	17657
542.027	17296
542.093	17703
542.159	17905
542.224	19210
542.290	25981
542.356	31512
542.421	30324
542.487	21381
542.553	18475
542.618	19994
542.684	16460
542.750	17204
542.815	21029
542.881	35344
542.947	89924
543.012	53275
543.078	17101
543.143	17019
543.209	18251
543.274	18279
543.340	20785
543.405	42753
543.471	49444
543.536	19640
543.602	18372
543.667	16396
543.732	16794
543.798	16061
543.863	18150
543.928	16038
543.994	15477
544.059	16934
544.124	16463
544.190	16849
544.255	17209
544.320	17894
544.386	17866
544.451	22010
544.516	21843
544.581	25495
544.646	67068
544.712	76228
544.777	23818
544.842	22454
544.907	22689
544.972	20421
545.037	21203
545.102	22290
545.168	21694
545.233	23235
545.298	23346
545.363	25906
545.428	27272
545.493	43784
545.558	70635
545.623	31480
545.688	22195
545.753	23063
545.818	21491
545.883	23477
545.947	22237
546.012	25497
546.077	25038
546.142	23963
546.207	23381
546.272	28084
546.337	27379
546.401	26479
546.466	25385
546.531	25679
546.596	26475
546.661	27170
546.725	27376
546.790	25704
546.855	28315
546.919	28462
546.984	31685
547.049	33766
547.113	37457
547.178	36954
547.243	42409
547.307	47652
547.372	53350
547.436	55200
547.501	48939
547.565	53356
547.630	52432
547.695	52132
547.759	56648
547.823	52516
547.888	49795
547.952	50542
548.017	54676
548.081	59893
548.146	64811
548.210	60117
548.274	55729
548.339	55292
548.403	50663
548.468	48213
548.532	48509
548.596	50073
548.660	49859
548.725	54691
548.789	60586
548.853	60875
548.917	56551
548.982	63726
549.046	56888
549.110	46049
549.174	47016
549.238	51836
549.303	52867
549.367	56632
549.431	52734
549.495	52022
549.559	51143
549.623	59617
549.687	65446
549.751	72299
549.815	74882
549.879	72496
549.943	68391
550.007	74076
550.071	73980
550.135	71810
550.199	64985
550.263	64240
550.327	66906
550.391	73078
550.455	71039
550.519	72530
550.582	77282
550.646	92156
550.710	91520
550.774	83496
550.838	84562
550.901	87775
550.965	92417
551.029	96877
551.093	108286
551.156	124700
551.220	163671
551.284	150630
551.347	113354
551.411	154710
551.475	138324
551.538	92537
551.602	83705
551.666	79940
551.729	76408
551.793	76495
551.856	74687
551.920	75868
551.983	73884
552.047	72541
552.110	71842
552.174	73776
552.237	73714
552.301	69163
552.364	67717
552.428	65261
552.491	68283
552.554	69275
552.618	67702
552.681	72230
552.745	69148
552.808	77569
552.871	80416
552.934	75877
552.998	70719
553.061	71360
553.124	68849
553.187	70494
553.251	72729
553.314	75392
553.377	78469
553.440	103186
553.503	222988
553.567	252388
553.630	90069
553.693	76577
553.756	76201
553.819	74033
553.882	70330
553.945	70966
554.008	70331
554.071	70407
554.134	70803
554.197	67051
554.260	66522
554.323	70255
554.386	69004
554.449	71494
554.512	69948
554.575	68905
554.638	67801
554.701	67497
554.764	66781
554.827	65243
554.889	61622
554.952	59337
555.015	58273
555.078	58809
555.141	60265
555.203	58928
555.266	58573
555.329	59357
555.391	56586
555.454	56889
555.517	55031
555.580	53512
555.642	51997
555.705	51668
555.768	51773
555.830	48724
555.893	47609
555.955	47353
556.018	46017
556.080	47345
556.143	48426
556.206	47772
556.268	47749
556.330	47446
556.393	46306
556.455	47063
556.518	55800
556.580	50357
556.643	41274
556.705	41902
556.767	39552
556.830	41010
556.892	41670
556.955	48994
557.017	41294
557.079	39397
557.142	38165
557.204	40859
557.266	54109
557.328	45404
557.391	35841
557.453	35164
557.515	36281
557.577	38919
557.639	37876
557.701	35938
557.764	34586
557.826	35404
557.888	38718
557.950	39217
558.012	42729
558.074	56906
558.136	130587
558.198	241606
558.260	84170
558.322	46968
558.384	45534
558.446	48687
558.508	53267
558.570	61923
558.632	80102
558.694	109167
558.756	170086
558.818	535199
558.880	922317
558.942	293854
559.003	267956
559.065	115941
559.127	59283
559.189	55888
559.251	63062
559.312	99967
559.374	273573
559.436	680666
559.498	262578
559.559	65793
559.621	56656
559.683	67339
559.744	125076
559.806	384123
559.868	420065
559.929	86615
559.991	63889
560.052	106890
560.114	249225
560.176	137693
560.237	166094
560.299	205020
560.360	51245
560.422	32268
560.483	29973
560.545	29756
560.606	28703
560.667	27358
560.729	26273
560.790	25714
560.852	24073
560.913	25710
560.974	24928
561.036	25547
561.097	24393
561.158	24585
561.220	24182
561.281	23913
561.342	25484
561.403	27969
561.465	32568
561.526	54712
561.587	55004
561.648	27623
561.709	25190
561.771	25302
561.832	24527
561.893	24547
561.954	23225
562.015	25031
562.076	23659
562.137	23837
562.198	23357
562.259	23731
562.320	25108
562.381	26104
562.442	29309
562.503	26043
562.564	23357
562.625	23042
562.686	23213
562.747	25315
562.808	23675
562.869	24960
562.930	28531
562.991	27861
563.051	25318
563.112	24224
563.173	23998
563.234	23411
563.294	22793
563.355	24104
563.416	23890
563.477	23952
563.537	23872
563.598	25756
563.659	24289
563.720	24803
563.780	24146
563.841	25455
563.901	24065
563.962	23337
564.023	23958
564.083	25198
564.144	24007
564.204	24425
564.265	24896
564.325	30568
564.386	48020
564.446	37987
564.507	24251
564.567	23553
564.628	24277
564.688	23740
564.749	24179
564.809	27707
564.869	29706
564.930	24662
564.990	24905
565.050	24953
565.111	24346
565.171	23910
565.231	24708
565.292	26071
565.352	24099
565.412	26363
565.472	25484
565.532	27003
565.593	26360
565.653	25589
565.713	26179
565.773	28019
565.833	30093
565.893	32591
565.953	28628
566.013	28299
566.074	28792
566.134	35456
566.194	47782
566.254	45605
566.314	35828
566.374	31929
566.434	32528
566.494	34231
566.554	33989
566.614	36541
566.673	36121
566.733	37319
566.793	40353
566.853	41080
566.913	41755
566.973	42099
567.033	42528
567.092	42865
567.152	41922
567.212	44536
567.272	44623
567.331	46976
567.391	48019
567.451	51678
567.511	56739
567.570	55509
567.630	45280
567.690	44209
567.749	43987
567.809	48251
567.868	52648
567.928	58467
567.988	66258
568.047	74634
568.107	90068
568.166	119745
568.226	166714
568.285	206664
568.345	196066
568.404	175684
568.464	158871
568.523	149546
568.582	150316
568.642	163214
568.701	195595
568.761	261629
568.820	346013
568.879	345032
568.939	294740
568.998	241484
569.057	197912
569.116	166189
569.176	138887
569.235	119578
569.294	102375
569.353	90880
569.413	80751
569.472	73753
569.531	64924
569.590	60686
569.649	54925
569.708	51850
569.767	50865
569.827	50834
569.886	44316
569.945	39953
570.004	39013
570.063	38761
570.122	37389
570.181	36871
570.240	38085
570.299	37979
570.358	35412
570.417	31401
570.475	31301
570.534	31096
570.593	30444
570.652	31273
570.711	30725
570.770	29216
570.829	29262
570.887	29413
570.946	29038
571.005	26192
571.064	25347
571.122	27253
571.181	28500
571.240	25814
571.299	24675
571.357	26873
571.416	26738
571.475	28666
571.533	27868
571.592	26606
571.650	27101
571.709	24648
571.768	24446
571.826	24078
571.885	23373
571.943	22828
572.002	23131
572.060	24392
572.119	22669
572.177	22450
572.236	21310
572.294	21728
572.352	21940
572.411	22911
572.469	21866
572.528	21373
572.586	21908
572.644	23839
572.703	25724
572.761	22711
572.819	22167
572.877	20368
572.936	20725
572.994	21014
573.052	20824
573.110	22365
573.169	19861
573.227	20102
573.285	20251
573.343	20235
573.401	20223
573.459	20767
573.517	20080
573.576	20613
573.634	21378
573.692	21567
573.750	20524
573.808	21541
573.866	21235
573.924	25223
573.982	24111
574.040	20183
574.098	20168
574.155	18854
574.213	19754
574.271	18327
574.329	20666
574.387	19114
574.445	18909
574.503	18276
574.560	17726
574.618	18254
574.676	17683
574.734	18862
574.792	18875
574.849	18490
574.907	17057
574.965	18199
575.022	18007
575.080	18641
575.138	18610
575.195	19147
575.253	18714
575.311	19510
575.368	18291
575.426	18439
575.483	17829
575.541	18161
575.598	17410
575.656	19126
575.713	18198
575.771	17712
575.828	18108
575.886	18585
575.943	19191
576.001	19714
576.058	18415
576.115	20737
576.173	21803
576.230	21948
576.287	22443
576.345	21992
576.402	19849
576.459	20870
576.517	19967
576.574	21766
576.631	21668
576.688	20007
576.746	19579
576.803	19944
576.860	18921
576.917	19699
576.974	19409
577.031	19528
577.089	19218
577.146	20111
577.203	19705
577.260	20550
577.317	21252
577.374	22204
577.431	20851
577.488	21015
577.545	19444
577.602	20931
577.659	20809
577.716	22071
577.773	23275
577.830	21725
577.886	19872
577.943	21312
578.000	20571
578.057	22024
578.114	23184
578.171	26076
578.227	29659
578.284	29235
578.341	26007
578.398	25062
578.454	24125
578.511	24802
578.568	24285
578.625	23351
578.681	19955
578.738	20527
578.794	20762
578.851	20784
578.908	20792
578.964	21881
579.021	23258
579.077	21594
579.134	20755
579.190	21207
579.247	20140
579.303	20140
579.360	20488
579.416	19653
579.473	21253
579.529	20423
579.586	20605
579.642	21857
579.698	21498
579.755	21783
579.811	22865
579.867	22184
579.924	22791
579.980	24688
580.036	27007
580.093	32249
580.149	40511
580.205	42081
580.261	34842
580.317	32192
580.374	29016
580.430	28637
580.486	28374
580.542	26261
580.598	23851
580.619	24433
580.654	25473
580.692	24926
580.710	24701
580.765	24426
580.767	24446
580.823	24508
580.838	24383
580.879	24123
580.911	23613
580.935	23289
580.984	23833
580.991	23941
581.047	25472
581.057	25469
581.103	25571
581.130	26489
581.159	27490
581.203	28579
581.215	28896
581.270	27623
581.276	27534
581.326	26945
581.349	26411
581.382	25640
581.422	25763
581.438	25860
581.494	26389
581.494	26366
581.550	26145
581.567	25718
581.606	24787
581.640	25306
581.661	25665
581.713	25852
581.717	25887
581.773	25238
581.786	25291
581.829	25503
581.859	25635
581.885	25788
581.932	25802
581.940	25828
581.996	27126
582.004	27075
582.052	26842
582.077	26771
582.107	26692
582.150	26354
582.163	26290
582.219	26870
582.223	26853
582.274	26737
582.296	27682
582.330	29203
582.368	28534
582.386	28278
582.441	27416
582.441	27422
582.497	28509
582.514	28834
582.552	29787
582.587	30051
582.608	30139
582.659	29491
582.663	29449
582.719	28560
582.732	28532
582.774	28524
582.805	29229
582.830	29818
582.877	31085
582.885	31316
582.941	31248
582.950	31575
582.996	33389
583.023	34738
583.052	36236
583.095	37008
583.107	37229
583.162	40120
583.168	40152
583.218	39945
583.240	38384
583.273	36039
583.313	35946
583.328	36017
583.384	33645
583.385	33635
583.439	33133
583.458	32817
583.494	32286
583.531	32242
583.549	32290
583.603	31822
583.605	31802
583.660	32949
583.676	32689
583.715	32031
583.748	32240
583.770	32467
583.820	33179
583.825	33208
583.881	32900
583.893	32709
583.936	32245
583.965	32660
583.991	32975
584.038	33102
584.046	33159
584.101	34423
584.110	34426
584.156	34070
584.183	33783
584.211	33647
584.255	33982
584.266	34013
584.321	34762
584.328	34800
584.376	35320
584.400	35445
584.431	35558
584.472	35917
584.486	35974
584.541	37847
584.545	37853
584.596	37665
584.617	37722
584.651	38135
584.689	38989
584.706	39289
584.761	39596
584.762	39614
584.816	40510
584.834	40786
584.871	41615
584.906	41818
584.926	41733
584.978	42616
584.980	42646
585.035	43724
585.051	44074
585.090	45287
585.123	46341
585.145	46856
585.195	47725
585.200	47853
585.254	49929
585.267	50992
585.309	54756
585.340	56886
585.364	58065
585.412	58007
585.419	58031
585.473	63518
585.484	64886
585.528	72280
585.556	82499
585.583	97003
585.628	134690
585.637	146272
585.692	257042
585.700	272001
585.747	331151
585.772	282464
585.801	190938
585.845	104356
585.856	91467
585.910	69117
585.917	67185
585.965	63008
585.989	61986
586.019	61329
586.061	60969
586.074	60991
586.128	60832
586.133	60971
586.183	62311
586.205	62532
586.237	62721
586.277	62723
586.292	62788
586.346	63554
586.349	63681
586.401	65586
586.421	66086
586.455	67253
586.493	69961
586.509	71824
586.564	80014
586.565	80373
586.618	96407
586.637	95682
586.672	87465
586.709	81389
586.727	79665
586.781	79480
586.781	79454
586.835	79991
586.853	80157
586.889	80873
586.925	82555
586.944	83360
586.996	85737
586.998	85789
587.052	87832
587.068	89100
587.106	92357
587.140	94771
587.161	96035
587.212	99470
587.215	99641
587.269	105556
587.284	106890
587.323	109723
587.356	112422
587.377	114520
587.427	120621
587.431	121019
587.485	127203
587.499	129095
587.539	134739
587.571	139206
587.593	142810
587.643	151705
587.648	152453
587.702	162105
587.715	164759
587.755	173452
587.786	180604
587.810	186142
587.858	198603
587.864	200112
587.917	216286
587.930	220566
587.971	235823
588.001	247624
588.025	256861
588.073	276632
588.079	279602
588.133	309475
588.145	316847
588.187	344879
588.217	365712
588.241	384508
588.288	424336
588.295	430145
588.348	484509
588.360	497120
588.402	553584
588.431	595561
588.456	634774
588.503	717142
588.510	731493
588.564	856553
588.575	883980
588.617	1017008
588.646	1112412
588.671	1215637
588.718	1410620
588.725	1443683
588.778	1688831
588.789	1731134
588.832	1818806
588.861	1840574
588.886	1714056
588.932	1411716
588.939	1382122
588.993	1254962
589.004	1256950
589.047	1671442
589.075	1907537
589.100	1913428
589.147	1852423
589.154	1827706
589.207	1603807
589.218	1557644
589.261	1465057
589.290	1413093
589.314	1430175
589.361	1475053
589.368	1495951
589.421	1672692
589.433	1703745
589.475	1750903
589.504	1740914
589.528	1607751
589.576	1357793
589.582	1377245
589.635	1675530
589.647	1723542
589.689	1671894
589.718	1596113
589.742	1448990
589.790	1141367
589.795	1117217
589.849	892970
589.861	843040
589.902	730756
589.932	649221
589.955	603344
590.004	512833
590.009	506140
590.062	439968
590.075	424338
590.115	386060
590.146	358193
590.168	343176
590.218	311212
590.222	308863
590.275	281347
590.289	274463
590.328	256854
590.360	243000
590.381	235639
590.431	219855
590.435	218880
590.488	204013
590.503	199872
590.541	190167
590.574	182475
590.594	177762
590.645	165749
590.647	165364
590.700	157389
590.716	155053
590.753	148994
590.787	143694
590.806	141571
590.859	136059
590.859	135926
590.912	129428
590.930	127546
590.965	124474
591.001	121444
591.018	119927
591.071	115161
591.072	115131
591.124	111714
591.143	110616
591.177	107929
591.214	105053
591.230	104145
591.283	101339
591.285	101229
591.336	99447
591.356	98787
591.389	96242
591.427	93231
591.442	92386
591.495	89237
591.498	89015
591.547	87718
591.569	87161
591.600	85439
591.640	83167
591.653	82841
591.706	81575
591.711	81437
591.759	81057
591.782	80907
591.811	81000
591.853	81057
591.864	80378
591.917	76781
591.924	76270
591.969	74859
591.995	74018
592.022	73507
592.066	72745
592.075	72870
592.127	73620
592.137	73760
592.180	75579
592.208	76673
592.233	74421
592.279	69999
592.285	69770
592.338	67878
592.350	67429
592.390	66193
592.421	65287
592.443	65343
592.491	65418
592.495	65284
592.548	63306
592.562	62759
592.600	63065
592.633	63299
592.653	62874
592.704	61387
592.705	61723
592.775	60991
592.846	59459
592.916	60308
592.987	59239
593.058	57533
593.128	56798
593.199	55306
593.270	54840
593.341	56246
593.411	55542
593.482	55257
593.553	53581
593.623	52924
593.694	54205
593.764	54131
593.835	54572
593.906	52289
593.976	51620
594.047	53248
594.117	56616
594.188	55848
594.258	51617
594.329	51672
594.399	51096
594.470	51702
594.540	52189
594.611	51323
594.681	50905
594.751	49584
594.822	51810
594.892	52287
594.963	52785
595.033	53976
595.103	52878
595.174	55431
595.244	62227
595.314	68249
595.384	55639
595.455	53635
595.525	55504
595.595	55863
595.665	56448
595.736	54257
595.806	55148
595.876	56225
595.946	55735
596.016	56184
596.087	55992
596.157	57024
596.227	56988
596.297	59380
596.367	61968
596.437	63815
596.507	69240
596.577	72413
596.647	65024
596.717	63865
596.787	64752
596.857	64726
596.927	65141
596.997	64105
597.067	66236
597.137	70087
597.207	68794
597.277	66186
597.347	65748
597.417	64896
597.487	64775
597.557	65493
597.626	66448
597.696	68414
597.766	71333
597.836	75303
597.906	64671
597.975	61736
598.045	62353
598.115	65316
598.185	65600
598.254	71946
598.324	76750
598.394	76601
598.464	74383
598.533	73972
598.603	70875
598.672	70097
598.742	71912
598.812	72365
598.881	71952
598.951	71961
599.020	72916
599.090	73000
599.159	74889
599.229	73392
599.299	72541
599.368	73634
599.437	73694
599.507	71276
599.576	71931
599.646	73874
599.715	72789
599.785	71250
599.854	70713
599.924	71988
599.993	71046
600.062	70665
600.132	72381
600.201	74861
600.270	82381
600.340	85717
600.409	83180
600.478	83704
600.547	85412
600.617	82941
600.686	74953
600.755	72053
600.824	70968
600.894	70494
600.963	71137
601.032	72078
601.101	71580
601.170	70921
601.239	72946
601.308	73480
601.378	73392
601.447	75172
601.516	75729
601.585	78731
601.654	79908
601.723	80108
601.792	80979
601.861	83565
601.930	92950
601.999	90404
602.068	88192
602.137	91764
602.206	90920
602.275	90598
602.343	92326
602.412	92436
602.481	91441
602.550	90291
602.619	94009
602.688	92913
602.756	93723
602.825	93719
602.894	95100
602.963	95109
603.032	98212
603.100	96134
603.169	94835
603.238	99286
603.307	96341
603.375	95134
603.444	98941
603.513	93794
603.581	95624
603.650	100413
603.719	86639
603.787	84583
603.856	86647
603.924	88919
603.993	89814
604.061	90732
604.130	93996
604.198	96337
604.267	96881
604.335	98797
604.404	101394
604.472	101861
604.541	102782
604.609	105195
604.678	107193
604.746	107737
604.815	111110
604.883	108140
604.951	107264
605.020	108960
605.088	104989
605.156	101125
605.225	102048
605.293	100980
605.361	101179
605.429	103091
605.498	104286
605.566	103344
605.634	108356
605.702	109200
605.771	110638
605.839	112160
605.907	106886
605.975	109791
606.043	104540
606.111	102776
606.180	110265
606.248	106668
606.316	104030
606.384	105322
606.452	94512
606.520	86097
606.588	84174
606.656	83960
606.724	81895
606.792	78776
606.860	71451
606.928	66148
606.996	64805
607.064	64866
607.132	65244
607.200	68021
607.267	71453
607.335	70493
607.403	72757
607.471	70176
607.539	69447
607.607	69673
607.674	62363
607.742	62377
607.810	62215
607.878	62090
607.946	62421
608.013	64728
608.081	66593
608.149	66947
608.216	67255
608.284	70739
608.352	70164
608.419	68736
608.487	73758
608.555	68270
608.622	68863
608.690	70307
608.757	75622
608.825	77328
608.893	76811
608.960	74352
609.028	74305
609.095	76921
609.163	71514
609.230	63607
609.298	60627
609.365	61864
609.432	66059
609.500	71410
609.567	79842
609.635	89005
609.702	93348
609.769	90703
609.837	75730
609.904	66784
609.971	69680
610.039	80033
610.106	105504
610.173	191642
610.241	423201
610.308	298714
610.375	127457
610.442	78985
610.509	68494
610.577	68781
610.644	68281
610.711	68847
610.778	71377
610.845	72965
610.912	78139
610.980	82592
611.047	89663
611.114	82431
611.181	74739
611.248	74148
611.315	79440
611.382	78613
611.449	82510
611.516	84362
611.583	83739
611.650	83601
611.717	85983
611.784	85825
611.851	93238
611.918	102537
611.984	122131
612.051	176239
612.118	351123
612.185	812198
612.252	559567
612.319	156325
612.386	114747
612.452	101104
612.519	100333
612.586	100863
612.653	98952
612.719	97178
612.786	92762
612.853	86733
612.919	84435
612.986	86277
613.053	82293
613.120	77700
613.186	76928
613.253	78755
613.319	75622
613.386	76205
613.453	78307
613.519	79978
613.586	79247
613.652	85926
613.719	81857
613.785	80877
613.852	78946
613.918	78530
613.985	82587
614.051	91237
614.118	111741
614.184	107358
614.250	79026
614.317	80810
614.383	78752
614.449	79466
614.516	79923
614.582	81092
614.648	77788
614.715	79159
614.781	77513
614.847	78288
614.914	78869
614.980	76461
615.046	77527
615.112	79008
615.179	79904
615.245	86001
615.311	93129
615.377	117516
615.443	128933
615.509	101108
615.575	93474
615.642	88336
615.708	91376
615.774	96896
615.840	107155
615.906	127881
615.972	172426
616.038	290185
616.104	516343
616.170	1010669
616.236	884392
616.302	244353
616.368	156679
616.434	120327
616.500	107656
616.565	114274
616.631	133264
616.697	117923
616.763	120426
616.829	161067
616.895	265769
616.961	265166
617.026	140315
617.092	95942
617.158	88829
617.224	85507
617.289	80630
617.355	76896
617.421	75113
617.487	76335
617.552	72483
617.618	71578
617.684	71184
617.749	73471
617.815	69337
617.880	68476
617.946	67738
618.012	70058
618.077	72876
618.143	70814
618.208	69427
618.274	73590
618.339	74707
618.405	64419
618.470	65457
618.536	65338
618.601	66494
618.667	62415
618.732	60861
618.798	59688
618.863	60795
618.928	60160
618.994	61056
619.059	62662
619.124	66946
619.190	62589
619.255	59452
619.320	59501
619.386	59142
619.451	59770
619.516	58055
619.581	58629
619.647	60450
619.712	59335
619.777	57990
619.842	58693
619.907	60688
619.972	60452
620.038	59316
620.103	57595
620.168	56866
620.233	59883
620.298	59235
620.363	59052
620.428	60469
620.493	61308
620.558	62009
620.623	62662
620.688	63677
620.753	61270
620.818	63298
620.883	62913
620.948	63573
621.013	62698
621.078	62713
621.143	61847
621.207	66016
621.272	64020
621.337	63072
621.402	64215
621.467	67924
621.532	68810
621.596	65967
621.661	63750
621.726	62425
621.791	64167
621.855	65027
621.920	63806
621.985	65198
622.049	68172
622.114	65896
622.179	66050
622.243	67219
622.308	67343
622.373	71216
622.437	69307
622.502	65983
622.566	65461
622.631	65761
622.695	67380
622.760	65972
622.824	67280
622.889	67493
622.953	67479
623.018	75739
623.082	75789
623.147	68340
623.211	67027
623.276	68254
623.340	64768
623.404	63928
623.469	64416
623.533	62939
623.597	62047
623.662	62932
623.726	59948
623.790	56509
623.854	56755
623.919	58677
623.983	57188
624.047	58529
624.111	58568
624.176	59846
624.240	61608
624.304	62688
624.368	58718
624.432	59612
624.496	60197
624.560	61262
624.625	63453
624.689	60800
624.753	62615
624.817	59128
624.881	58099
624.945	55656
625.009	53454
625.073	55507
625.137	56872
625.201	60363
625.265	59394
625.329	55928
625.393	56978
625.456	56783
625.520	57728
625.584	59455
625.648	64582
625.712	75769
625.776	110765
625.839	118207
625.903	67202
625.967	51549
626.031	65776
626.095	83368
626.158	56638
626.222	44412
626.286	43170
626.349	41930
626.413	39101
626.477	42447
626.540	39805
626.604	38762
626.668	40044
626.731	39079
626.795	40700
626.858	38738
626.922	38573
626.986	38674
627.049	36050
627.113	38462
627.176	36929
627.240	36902
627.303	36296
627.366	35017
627.430	35648
627.493	36415
627.557	34578
627.620	37237
627.684	36107
627.747	36871
627.810	32126
627.874	33344
627.937	30682
628.000	34974
628.064	32392
628.127	28243
628.190	29687
628.253	30055
628.317	27891
628.380	27971
628.443	27191
628.506	27544
628.569	27132
628.632	25171
628.696	25421
628.759	25063
628.822	24865
628.885	23870
628.948	24234
629.011	23592
629.074	23641
629.137	22584
629.200	22746
629.263	25208
629.326	21556
629.389	22097
629.452	22489
629.515	23056
629.578	22434
629.641	23978
629.704	21831
629.767	22655
629.830	21865
629.892	22296
629.955	21000
630.018	23735
630.081	21204
630.144	23730
630.207	20769
630.269	22132
630.332	23088
630.395	21950
630.458	19916
630.520	18757
630.583	20961
630.646	20060
630.708	19341
630.771	18594
630.834	21120
630.896	19295
630.959	19918
631.021	18956
631.084	19358
631.146	21042
631.209	21872
631.272	18664
631.334	19500
631.397	19511
631.459	19379
631.522	19359
631.584	18969
631.646	21309
631.709	21523
631.771	23278
631.834	21927
631.896	20730
631.958	18190
632.021	19641
632.083	18251
632.145	20016
632.208	19123
632.270	19423
632.332	18313
632.395	17449
632.457	18618
632.519	17761
632.581	18509
632.643	17449
632.706	17503
632.768	16344
632.830	18150
632.892	17648
632.954	18477
633.016	17707
633.078	17557
633.141	17144
633.203	16485
633.265	17950
633.327	17245
633.389	17491
633.451	18688
633.513	20629
633.575	20721
633.637	19281
633.698	17942
633.760	19235
633.822	19066
633.884	19165
633.946	18909
634.008	19762
634.070	20135
634.132	22646
634.193	21862
634.255	21714
634.317	21410
634.379	22562
634.441	18670
634.502	18884
634.564	18289
634.626	17728
634.687	16792
634.749	17169
634.811	17203
634.873	16343
634.934	16661
634.996	17566
635.057	15786
635.119	16771
635.181	17436
635.242	17666
635.304	14875
635.365	18389
635.427	16801
635.488	16516
635.550	15879
635.611	17496
635.673	15333
635.734	18267
635.796	17337
635.857	19997
635.918	19400
635.980	22033
636.041	20245
636.102	22005
636.164	21790
636.225	22028
636.286	18943
636.348	19550
636.409	17644
636.470	16811
636.531	17747
636.593	16537
636.654	17131
636.715	15734
636.776	13866
636.838	14688
636.899	15561
636.960	15332
637.021	14768
637.082	14229
637.143	15324
637.204	14151
637.265	13700
637.326	15125
637.387	14127
637.448	13800
637.509	14382
637.570	14570
637.631	15983
637.692	13013
637.753	12743
637.814	14615
637.875	13608
637.936	14460
637.997	13159
638.058	14480
638.119	14816
638.179	14426
638.240	13756
638.301	14457
638.362	13959
638.423	13501
638.483	14637
638.544	12552
638.605	14456
638.666	13076
638.726	14221
638.787	14473
638.848	13032
638.908	13030
638.969	12884
639.030	12698
639.090	11678
639.151	12861
639.211	13382
639.272	15636
639.332	18679
639.393	15013
639.453	13225
639.514	13404
639.574	13281
639.635	12258
639.695	13496
639.756	12092
639.816	12917
639.877	12918
639.937	16306
639.997	19454
640.058	12856
640.118	11766
640.178	13139
640.239	12070
640.299	11602
640.359	11919
640.420	11673
640.480	13450
640.540	13479
640.600	13731
640.661	14133
640.721	12616
640.781	16288
640.841	14046
640.901	13391
640.961	13092
641.021	13323
641.082	12560
641.142	14406
641.202	13869
641.262	10993
641.322	13454
641.382	11509
641.442	13177
641.502	11422
641.562	12047
641.622	11969
641.682	12735
641.742	12868
641.802	12633
641.861	12557
641.921	12037
641.981	13098
642.041	12180
642.101	13800
642.161	11096
642.221	10946
642.280	11907
642.340	11786
642.400	10466
642.460	12533
642.519	11207
642.579	11770
642.639	12279
642.698	8569
642.758	14151
642.818	11991
642.877	11117
642.937	12685
642.997	13018
643.056	13998
643.116	11205
643.175	14091
643.235	12146
643.294	12564
643.354	13292
643.414	14610
643.473	17761
643.532	19021
643.592	24424
643.651	37937
643.711	64685
643.770	121343
643.830	282684
643.889	569633
643.948	148185
644.008	31811
644.067	19728
644.126	16311
644.186	14615
644.245	13497
644.304	10986
644.363	12838
644.423	11265
644.482	11776
644.541	12129
644.600	10768
644.659	15522
644.719	16607
644.778	23858
644.837	36752
644.896	71361
644.955	155825
645.014	57245
645.073	18574
645.132	14692
645.191	13251
645.250	12113
645.309	13938
645.368	13386
645.427	15731
645.486	22221
645.545	34290
645.604	15310
645.663	11974
645.722	11455
645.781	13435
645.840	15198
645.898	17644
645.957	25195
646.016	34083
646.075	60009
646.134	112377
646.192	289891
646.251	416628
646.310	71284
646.369	21936
646.427	18196
646.486	13863
646.545	12412
646.603	11657
646.662	11358
646.721	11371
646.779	9912
646.838	10291
646.896	14026
646.955	15656
647.014	23230
647.072	39096
647.131	100577
647.189	51034
647.248	11839
647.306	10224
647.365	10740
647.423	7775
647.481	10667
647.540	7468
647.598	9130
647.657	8216
647.715	9121
647.773	7946
647.832	8849
647.890	7138
647.948	8684
648.007	8866
648.065	8086
648.123	8134
648.181	10256
648.240	11103
648.298	9816
648.356	8541
648.414	9612
648.472	7781
648.531	8598
648.589	7878
648.647	6747
648.705	8187
648.763	7620
648.821	8153
648.879	7884
648.937	10110
648.995	10330
649.053	12929
649.111	18046
649.169	28302
649.227	47669
649.285	95780
649.343	262223
649.401	130167
649.459	28997
649.516	20224
649.574	14897
649.632	25682
649.690	30842
649.748	18900
649.806	24376
649.863	40249
649.921	72791
649.979	49278
650.037	11333
650.094	6897
650.152	8522
650.210	6469
650.268	8072
650.325	8128
650.383	8569
650.440	6313
650.498	6545
650.556	7375
650.613	5774
650.671	7303
650.728	6362
650.786	7184
650.843	9065
650.901	5486
650.958	6923
651.016	5388
651.073	6755
651.131	5434
651.188	5558
651.246	6149
651.303	5937
651.360	5795
651.418	5187
651.475	5743
651.532	5190
651.590	5147
651.647	5525
651.704	5894
651.762	5660
651.819	5893
651.876	4712
651.933	5515
651.990	6284
652.048	4571
652.105	5419
652.162	5893
652.219	4976
652.276	6164
652.333	5684
652.390	4682
652.448	5479
652.505	5513
652.562	6178
652.619	6428
652.676	9973
652.733	10503
652.790	6352
652.847	4079
652.904	5141
652.961	3707
653.017	4732
653.074	5497
653.131	5829
653.188	3970
653.245	4920
653.302	6034
653.359	4513
653.415	5710
653.472	4694
653.529	5506
653.586	4692
653.642	4145
653.699	5888
653.756	3734
653.813	4843
653.869	5402
653.926	4661
653.983	4688
654.039	5791
654.096	5067
654.152	6195
654.209	4640
654.266	5444
654.322	4773
654.379	6073
654.435	5935
654.492	5736
654.548	7862
654.605	9684
654.661	6859
654.717	5021
654.774	4998
654.830	5011
654.887	5048
654.943	5673
655.000	5903
655.056	5731
655.112	5491
655.168	4712
655.225	4482
655.281	5864
655.337	6287
655.394	9372
655.450	8644
655.506	7160
655.562	9841
655.618	8878
655.675	3766
655.731	4806
655.787	4664
655.843	5428
655.899	3472
655.955	4406
656.011	5121
656.067	3525
656.123	5408
656.179	4542
656.235	6317
656.291	3408
656.347	5369
656.403	4802
656.459	4860
656.515	4750
656.571	5512
656.627	4261
656.683	4909
656.739	5600
656.795	5008
656.850	5053
656.906	5309
656.962	5990
657.018	3807
657.074	5887
657.129	5061
657.185	7309
657.241	11150
657.297	8628
657.352	5137
657.408	4354
657.464	5527
657.519	5213
657.575	3516
657.630	4442
657.686	4573
657.742	4340
657.797	4431
657.853	5576
657.908	5200
657.964	3459
658.019	4982
658.075	3945
658.130	4170
658.186	3435
658.241	4271
658.297	3937
658.352	3828
658.407	4345
658.463	4276
658.518	4432
658.573	3581
658.629	3087
658.684	4356
658.739	4899
658.795	3975
658.850	4790
658.905	3587
658.960	3331
659.016	4012
659.071	4542
659.126	4833
659.181	4181
659.236	7781
659.291	7458
659.346	4468
659.401	6242
659.457	6509
659.512	8518
659.567	6944
659.622	4579
659.677	3552
659.732	4153
659.787	4463
659.842	5066
659.897	5761
659.952	4765
660.007	3803
660.061	4453
660.116	3575
660.171	3973
660.226	5061
660.281	5276
660.336	3829
660.391	4216
660.445	4004
660.500	3978
660.555	4116
660.610	3878
660.664	4792
660.719	3931
660.774	3877
660.828	5101
660.883	4687
660.938	4772
660.992	3929
661.047	5143
661.101	3663
661.156	4363
661.211	4456
661.265	5165
661.320	3469
661.374	4311
661.429	4047
661.483	4854
661.538	3471
661.592	4712
661.647	4467
661.701	4794
661.755	4257
661.810	4053
661.864	3739
661.919	3958
661.973	4326
662.027	4854
662.081	3847
662.136	4334
662.190	4267
662.244	4841
662.299	3864
662.353	3723
662.407	4158
662.461	4477
662.515	4857
662.569	4602
662.624	5193
662.678	4042
662.732	4817
662.786	4426
662.840	4256
662.894	4230
662.948	4070
663.002	4269
663.056	4506
663.110	3776
663.164	4308
663.218	4482
663.272	3958
663.326	3813
663.380	4538
663.434	4195
663.488	3687
663.542	4601
663.595	4272
663.649	4152
663.703	4599
663.757	3663
663.811	4153
663.864	3988
663.918	4482
663.972	3588
664.026	4407
664.079	4574
664.133	4199
664.187	3886
664.240	4445
664.294	3853
664.348	3784
664.401	5037
664.455	3327
664.508	3428
664.562	3889
664.615	3186
664.669	3595
664.722	4034
664.776	3642
664.829	3994
664.883	3691
664.936	4282
664.990	4176
665.043	4806
665.097	4220
665.150	5558
665.203	4536
665.257	5085
665.310	4582
665.363	4912
665.417	4212
665.470	4091
665.523	4155
665.576	4413
665.630	3759
665.683	4343
665.736	4655
665.789	4236
665.842	4306
665.895	4920
665.949	4079
666.002	3830
666.055	4046
666.108	4293
666.161	4323
666.214	4200
666.267	5711
666.320	5625
666.373	4291
666.426	4786
666.479	4803
666.532	4631
666.585	5006
666.638	5288
666.691	4752
666.744	6286
666.796	4737
666.849	4407
666.902	5177
666.955	4036
667.008	3486
667.060	3882
667.113	3506
667.166	3905
667.219	4119
667.271	4213
667.324	4200
667.377	4575
667.430	3905
667.482	5889
667.535	5040
667.587	4642
667.640	4355
667.693	4869
667.745	6201
667.798	7438
667.850	4284
667.903	4141
667.955	4174
668.008	4392
668.060	4522
668.113	5144
668.165	4392
668.218	4118
668.270	3897
668.322	4784
668.375	4466
668.427	4846
668.479	3806
668.532	4653
668.584	4021
668.636	4652
668.689	4956
668.741	4578
668.793	4737
668.845	4152
668.898	3892
668.950	5050
669.002	4498
669.054	3743
669.106	3959
669.158	5465
669.211	4692
669.263	5607
669.315	6133
669.367	6897
669.419	4124
669.471	6215
669.523	5173
669.575	6752
669.627	5303
669.679	5192
669.731	4828
669.783	4961
669.835	4872
669.886	4788
669.938	6100
669.990	5359
670.042	5277
670.094	6110
670.146	5593
670.197	7074
670.249	8882
670.301	10196
670.353	13248
670.404	17575
670.456	24909
670.508	36916
670.560	58388
670.611	94123
670.663	158095
670.715	354625
670.766	533733
670.818	196424
670.869	39347
670.921	19921
670.972	14471
671.024	11089
671.075	8344
671.127	7374
671.178	6448
671.230	7141
671.281	6247
671.333	5638
671.384	5297
671.436	6898
671.487	8583
671.538	9804
671.590	11114
671.641	16769
671.692	24602
671.744	41495
671.795	34280
671.846	15650
671.897	9317
671.949	7630
672.000	5953
672.051	5181
672.102	5556
672.153	5495
672.204	4700
672.256	5640
672.307	4390
672.358	5134
672.409	4244
672.460	4617
672.511	4041
672.562	3392
672.613	4034
672.664	3674
672.715	4285
672.766	4367
672.817	3727
672.868	4976
672.919	4026
672.970	4443
673.021	4239
673.071	3961
673.122	3898
673.173	4099
673.224	3559
673.275	3617
673.326	3360
673.376	4165
673.427	3650
673.478	3531
673.528	4083
673.579	3870
673.630	3718
673.680	4593
673.731	3878
673.782	3006
673.832	3452
673.883	4338
673.934	3656
673.984	3964
674.035	3114
674.085	3957
674.136	4772
674.186	4152
674.237	4788
674.287	6169
674.338	4525
674.388	3866
674.438	3828
674.489	4003
674.539	4036
674.589	3400
674.640	4063
674.690	4043
674.740	3718
674.791	4117
674.841	3865
674.891	3391
674.942	4044
674.992	4011
675.042	3011
675.092	3085
675.142	2817
675.193	3472
675.243	3159
675.293	4303
675.343	3238
675.393	3710
675.443	4022
675.493	2539
675.543	3188
675.593	3345
675.643	3689
675.693	3871
675.743	3037
675.793	3642
675.843	2613
675.893	3775
675.943	3455
675.993	3188
676.043	2904
676.093	3385
676.142	2657
676.192	4360
676.242	2923
676.292	2220
676.341	2861
676.391	3351
676.441	2787
676.491	2918
676.540	3336
676.590	2802
676.640	3353
676.689	2590
676.739	2615
676.789	2122
676.838	3087
676.888	3374
676.937	2719
676.987	2799
677.037	2800
677.086	2684
677.136	2954
677.185	2165
677.235	2466
677.284	3191
677.333	2297
677.383	1964
677.432	1584
677.482	3333
677.531	2876
677.580	2850
677.630	2846
677.679	2140
677.728	2084
677.778	3261
677.827	1954
677.876	3212
677.925	2664
677.975	2712
678.024	3006
678.073	3385
678.122	3025
678.171	2810
678.220	2676
678.269	3216
678.319	3145
678.368	3536
678.417	2649
678.466	3465
678.515	3396
678.564	3541
678.613	2467
678.662	2379
678.711	2070
678.760	2585
678.809	2853
678.857	3362
678.906	4025
678.955	3483
679.004	2692
679.053	3329
679.102	2451
679.151	3558
679.199	2176
679.248	2153
679.297	2560
679.346	2086
679.394	2672
679.443	2797
679.492	2576
679.540	3553
679.589	2851
679.638	2243
679.686	2369
679.735	2918
679.784	2612
679.832	3231
679.881	2451
679.929	1683
679.978	2531
680.026	2613
680.075	2289
680.123	2903
680.172	1807
680.220	2021
680.268	1716
680.317	1927
680.365	2531
680.414	3103
680.462	2736
680.510	3404
680.559	2049
680.607	1620
680.655	2441
680.703	2532
680.752	1413
680.800	1860
680.848	1692
680.896	2333
680.945	2090
680.993	2318
681.041	2161
681.089	2389
681.137	2711
681.185	2175
681.233	2093
681.258	2280
681.281	2426
681.329	1725
681.377	2277
681.380	2312
681.425	2401
681.473	2753
681.502	2701
681.521	2603
681.569	3155
681.617	2271
681.624	2378
681.665	2831
681.713	3100
681.745	3459
681.761	3586
681.809	2510
681.857	3126
681.867	2887
681.904	1933
681.952	3055
681.989	2760
682.000	2637
682.048	3285
682.096	3169
682.111	3108
682.143	2875
682.191	2918
682.233	3796
682.239	3900
682.286	3235
682.334	3416
682.354	3499
682.382	3542
682.430	3455
682.476	3902
682.477	3884
682.525	4119
682.572	2956
682.598	3362
682.620	3655
682.667	4469
682.715	4529
682.720	4506
682.763	4054
682.810	3718
682.841	4103
682.857	4255
682.905	4082
682.952	3834
682.963	3953
683.000	4308
683.047	4094
683.085	4793
683.095	4938
683.142	4354
683.190	4463
683.206	4300
683.237	3966
683.284	4637
683.328	4616
683.332	4587
683.379	4760
683.426	4332
683.449	4799
683.473	5278
683.521	4976
683.568	5507
683.571	5436
683.615	4103
683.662	5050
683.693	4923
683.709	4825
683.757	4371
683.804	5213
683.814	5260
683.851	5396
683.898	5261
683.936	5693
683.945	5754
683.992	4931
684.039	5297
684.057	5218
684.086	5124
684.133	5376
684.179	5307
684.180	5281
684.227	5799
684.274	5753
684.300	5886
684.321	6010
684.368	5691
684.415	6226
684.422	6258
684.462	6300
684.509	5595
684.543	5671
684.556	5675
684.603	6574
684.649	5870
684.665	5974
684.696	6180
684.743	6013
684.786	6592
684.790	6629
684.837	6309
684.883	6989
684.908	7086
684.930	7119
684.977	7518
685.023	7886
685.029	7792
685.070	6842
685.117	6973
685.150	6669
685.164	6589
685.210	7458
685.257	7528
685.272	7540
685.303	7394
685.350	7534
685.393	7147
685.396	7109
685.443	7256
685.490	7603
685.514	7654
685.536	7732
685.583	7914
685.629	7798
685.636	7812
685.675	7609
685.722	7558
685.757	7726
685.768	7855
685.815	8427
685.861	8432
685.878	8494
685.908	8378
685.954	7989
686.000	8572
686.000	8578
686.047	8698
686.093	8894
686.121	9092
686.139	9111
686.185	8929
686.232	8317
686.242	8456
686.278	8862
686.324	8403
686.363	8281
686.370	8299
686.416	8348
686.463	9417
686.484	9399
686.509	9286
686.555	8852
686.601	9261
686.606	9298
686.647	9446
686.693	8493
686.727	8678
686.739	8817
686.785	9116
686.831	9283
686.848	9358
686.877	9247
686.923	8957
686.969	9268
686.969	9270
687.015	8925
687.061	9166
687.090	9681
687.107	9767
687.153	9375
687.199	8973
687.211	8845
687.245	8882
687.291	9418
687.332	9300
687.336	9279
687.382	9726
687.428	9642
687.453	9654
687.474	9564
687.520	10112
687.565	9693
687.574	9625
687.611	9582
687.657	9750
687.695	9995
687.702	10110
687.748	10801
687.794	12106
687.816	12321
687.839	11945
687.885	11148
687.931	10585
687.937	10482
687.976	10341
688.022	10820
688.058	10580
688.067	10541
688.113	10720
688.158	10281
688.179	10300
688.204	10433
688.249	10586
688.295	10887
688.300	10896
688.340	10823
688.386	11094
688.421	10753
688.431	10705
688.477	10596
688.522	10957
688.542	11175
688.567	11397
688.613	11285
688.658	10879
688.663	10861
688.703	10937
688.749	11221
688.784	11485
688.794	11480
688.839	11473
688.884	11004
688.905	11012
688.930	11204
688.975	11059
689.020	11185
689.026	11158
689.065	10969
689.110	11288
689.146	11152
689.155	11158
689.201	11254
689.246	11584
689.267	11657
689.291	11689
689.336	11565
689.381	11392
689.388	11385
689.426	11642
689.471	11937
689.509	12200
689.516	12188
689.561	11954
689.606	11949
689.630	11426
689.651	11213
689.696	11211
689.741	12024
689.750	12122
689.785	12494
689.830	12088
689.871	12310
689.875	12308
689.920	11920
689.965	11773
689.992	11788
690.010	11978
690.054	11567
690.099	12304
690.112	12192
690.144	11980
690.189	12401
690.233	12064
690.233	12079
690.278	12543
690.323	12691
690.354	12841
690.367	12971
690.412	13325
690.457	13450
690.474	13652
690.501	13850
690.546	13995
690.590	13717
690.595	13744
690.635	14797
690.680	15523
690.716	16160
690.724	16430
690.769	17803
690.813	19760
690.836	20086
690.857	21907
690.902	27214
690.946	31845
690.957	32951
690.991	42917
691.035	57771
691.077	71661
691.080	71747
691.124	67795
691.168	63670
691.198	60826
691.213	56624
691.257	45530
691.301	33683
691.318	29284
691.346	27298
691.390	23574
691.434	20427
691.439	20002
691.478	18937
691.522	17776
691.559	16533
691.567	16465
691.611	16691
691.655	15993
691.680	15927
691.699	15899
691.743	15760
691.787	15499
691.800	15262
691.831	15118
691.875	15212
691.919	15624
691.921	15600
691.964	15412
692.008	15611
692.041	15063
692.052	15004
692.096	15286
692.139	15598
692.162	15531
692.183	15308
692.227	14998
692.271	14757
692.282	14635
692.315	14836
692.359	15112
692.402	15577
692.403	15607
692.447	15657
692.490	15411
692.523	15596
692.534	15752
692.578	15773
692.622	15721
692.643	15784
692.666	15635
692.709	15732
692.753	15101
692.763	14996
692.797	15193
692.840	15390
692.884	15554
692.884	15586
692.928	15442
692.971	15948
693.004	16009
693.015	16169
693.059	16341
693.102	16967
693.124	17062
693.146	17017
693.189	17477
693.233	16778
693.245	16943
693.276	18211
693.320	18933
693.363	20008
693.365	20001
693.407	21493
693.450	23380
693.485	24717
693.493	25486
693.537	29316
693.580	32981
693.605	35120
693.624	39729
693.667	50550
693.710	61499
693.725	65546
693.753	86056
693.797	118003
693.840	150918
693.845	154303
693.883	147102
693.926	137012
693.966	128736
693.970	126352
694.013	99457
694.056	72547
694.086	54092
694.099	51623
694.142	43493
694.185	35125
694.206	31338
694.229	30026
694.272	27004
694.315	24232
694.326	23352
694.358	22490
694.401	21537
694.444	20527
694.446	20443
694.487	20277
694.530	19633
694.566	19222
694.573	19140
694.616	18360
694.659	17644
694.686	16928
694.702	16938
694.745	17371
694.787	17234
694.806	17372
694.830	17455
694.873	17390
694.916	17134
694.926	17090
694.959	17123
695.002	16850
695.044	16522
695.046	16483
695.087	16752
695.130	16598
695.166	16785
695.172	16906
695.215	17113
695.258	17532
695.286	17707
695.301	17727
695.343	17755
695.386	17684
695.406	17632
695.428	17711
695.471	17428
695.514	17679
695.526	17611
695.556	17548
695.599	17760
695.641	17565
695.646	17535
695.684	17699
695.726	17521
695.766	17563
695.769	17612
695.811	17582
695.854	17491
695.886	17436
695.896	17444
695.938	17309
695.981	17317
696.005	17205
696.023	17501
696.065	17950
696.108	18784
696.125	18953
696.150	18870
696.192	18814
696.235	18541
696.245	18487
696.277	18640
696.319	18630
696.361	18646
696.365	18606
696.404	18938
696.446	19227
696.485	19367
696.488	19387
696.530	19047
696.572	18778
696.604	18524
696.614	18602
696.656	18659
696.698	18828
696.724	18778
696.740	18687
696.783	18483
696.825	18252
696.844	18094
696.867	18225
696.909	18273
696.951	18443
696.964	18433
696.992	18565
697.034	18731
697.076	18860
697.083	18836
697.118	18929
697.160	19010
697.202	18975
697.203	18924
697.244	18679
697.286	18590
697.323	18293
697.327	18347
697.369	18464
697.411	18531
697.442	18587
697.453	18695
697.494	18834
697.536	19067
697.562	19163
697.578	19095
697.620	18762
697.661	18351
697.682	18169
697.703	18372
697.744	18560
697.786	18861
697.801	18893
697.828	19262
697.869	19804
697.911	20328
697.921	20404
697.952	19931
697.994	19204
698.035	18460
698.040	18329
698.077	18681
698.118	18995
698.160	19296
698.160	19247
698.201	19367
698.243	19312
698.279	19324
698.284	19445
698.325	20058
698.367	20655
698.399	21052
698.408	20986
698.449	20474
698.491	19925
698.518	19498
698.532	19715
698.573	20235
698.614	20771
698.638	20992
698.656	20910
698.697	20624
698.738	20347
698.757	20156
698.779	20385
698.820	20712
698.862	21052
698.877	21119
698.903	21329
698.944	21583
698.985	21830
698.996	21843
699.026	21726
699.067	21485
699.116	21141
699.235	19911
699.354	20700
699.474	20225
699.593	21166
699.713	19831
699.832	20565
699.951	20195
700.070	20059
700.190	19329
700.309	20125
700.428	20088
700.547	19488
700.667	20100
700.786	19808
700.905	17979
701.024	20040
701.143	19210
701.262	18925
701.381	18242
701.500	18030
701.619	19721
701.738	18424
701.857	18324
701.976	18898
702.095	17049
702.214	19872
702.333	18996
702.452	18859
702.571	18558
702.690	18205
702.809	17881
702.928	17755
703.047	17932
703.165	18130
703.284	17722
703.403	17595
703.522	17516
703.640	18825
703.759	19725
703.878	20743
703.997	17167
704.115	17481
704.234	16663
704.353	16945
704.471	16971
704.590	15846
704.708	15964
704.827	15777
704.946	16367
705.064	16959
705.183	16075
705.301	19488
705.420	22469
705.538	21252
705.656	19426
705.775	21488
705.893	34988
706.012	39632
706.130	20569
706.249	20140
706.367	19797
706.485	19804
706.604	19469
706.722	19713
706.840	21103
706.958	25527
707.077	20869
707.195	18880
707.313	18458
707.431	18185
707.549	17314
707.668	17742
707.786	18535
707.904	17430
708.022	17857
708.140	17416
708.258	16773
708.376	18700
708.494	16983
708.612	19793
708.730	22694
708.848	22621
708.966	21194
709.084	20684
709.202	20190
709.320	20517
709.438	20372
709.556	20437
709.674	19345
709.791	20296
709.909	19468
710.027	19245
710.145	18515
710.263	19545
710.380	17965
710.498	18773
710.616	18592
710.733	19244
710.851	18990
710.969	19296
711.086	17992
711.204	17645
711.322	18607
711.439	18781
711.557	18266
711.674	18789
711.792	18048
711.909	19814
712.027	20403
712.144	18032
712.262	16963
712.379	19505
712.497	23648
712.614	24241
712.732	21302
712.849	19850
712.966	20927
713.084	23431
713.201	21468
713.318	21426
713.436	20228
713.553	21363
713.670	21969
713.787	22900
713.905	21676
714.022	21538
714.139	20380
714.256	24223
714.373	26402
714.490	39415
714.608	82817
714.725	320747
714.842	311090
714.959	36051
715.076	22819
715.193	21263
715.310	20292
715.427	19219
715.544	19071
715.661	18752
715.778	18047
715.895	19720
716.011	19462
716.128	18784
716.245	18600
716.362	19321
716.479	18662
716.596	18038
716.713	18373
716.829	17796
716.946	18155
717.063	17498
717.180	16311
717.296	16176
717.413	17176
717.530	16973
717.646	16121
717.763	16690
717.880	15814
717.996	16525
718.113	16349
718.229	16147
718.346	15095
718.462	15736
718.579	17821
718.695	19408
718.812	18499
718.928	17122
719.045	15455
719.161	15803
719.277	15339
719.394	15513
719.510	16578
719.626	15996
719.743	18014
719.859	21342
719.975	32013
720.092	98031
720.208	201146
720.324	33985
720.440	17632
720.557	17633
720.673	19020
720.789	24556
720.905	36925
721.021	19024
721.137	15103
721.253	15192
721.369	15378
721.486	16478
721.602	18232
721.718	14069
721.834	13844
721.950	13873
722.066	13490
722.181	14256
722.297	14316
722.413	14463
722.529	14108
722.645	13670
722.761	13733
722.877	14329
722.993	13334
723.108	14810
723.224	13488
723.340	14165
723.456	12731
723.571	14113
723.687	12330
723.803	13172
723.918	12373
724.034	12644
724.150	12549
724.265	14192
724.381	19967
724.497	20692
724.612	12180
724.728	12773
724.843	12508
724.959	13658
725.074	19097
725.190	19845
725.305	12549
725.421	12870
725.536	11625
725.651	12780
725.767	11792
725.882	12194
725.997	11422
726.113	12302
726.228	10846
726.343	11264
726.459	11401
726.574	13105
726.689	12008
726.804	11676
726.920	11704
727.035	12386
727.150	12071
727.265	12031
727.380	12933
727.495	12095
727.610	11157
727.725	12060
727.841	14200
727.956	23126
728.071	16583
728.186	12490
728.301	10585
728.416	11376
728.531	11717
728.645	11243
728.760	10891
728.875	11027
728.990	10620
729.105	11530
729.220	11115
729.335	11214
729.449	10948
729.564	10627
729.679	9656
729.794	10618
729.908	11954
730.023	11169
730.138	9981
730.253	10530
730.367	9844
730.482	11064
730.596	10164
730.711	11251
730.826	11142
730.940	12296
731.055	10350
731.169	11359
731.284	9810
731.398	11055
731.513	10740
731.627	12202
731.742	12487
731.856	12575
731.970	12279
732.085	13575
732.199	16401
732.313	22241
732.428	45978
732.542	107392
732.656	60118
732.771	19607
732.885	14184
732.999	14506
733.113	13107
733.227	13568
733.342	12703
733.456	11767
733.570	11380
733.684	11420
733.798	11745
733.912	12916
734.026	11324
734.140	11307
734.254	11963
734.368	15954
734.482	15798
734.596	12491
734.710	11201
734.824	11117
734.938	11546
735.052	11282
735.166	11550
735.280	11594
735.393	10161
735.507	11583
735.621	13283
735.735	15849
735.849	11396
735.962	11403
736.076	11655
736.190	11126
736.303	11889
736.417	14251
736.531	10783
736.644	11041
736.758	9780
736.872	10959
736.985	9642
737.099	10811
737.212	9952
737.326	10836
737.439	10078
737.553	11090
737.666	10506
737.780	9675
737.893	10042
738.007	10656
738.120	10010
738.233	9275
738.347	10186
738.460	9839
738.573	10269
738.687	10081
738.800	8999
738.913	11053
739.026	11284
739.140	10141
739.253	10702
739.366	10009
739.479	9616
739.592	9472
739.705	8730
739.818	10697
739.932	9776
740.045	9407
740.158	8905
740.271	10506
740.384	8643
740.497	9883
740.610	9722
740.723	9558
740.836	9083
740.949	9978
741.062	10887
741.174	10100
741.287	8167
741.400	9523
741.513	9818
741.626	10723
741.739	9990
741.851	8770
741.964	9682
742.077	9619
742.189	9048
742.302	9480
742.415	8819
742.527	9512
742.640	9323
742.753	8959
742.865	8667
742.978	8797
743.090	9057
743.203	9146
743.316	9207
743.428	9281
743.541	9068
743.653	8580
743.766	9226
743.878	9115
743.990	9767
744.103	9921
744.215	8004
744.327	10033
744.440	9794
744.552	10754
744.664	8781
744.777	9073
744.889	8263
745.001	9545
745.113	8876
745.226	8785
745.338	8780
745.450	9091
745.562	8885
745.674	8202
745.786	9129
745.898	8641
746.010	8101
746.122	9890
746.234	9018
746.347	8866
746.459	7714
746.570	8394
746.682	8324
746.794	9961
746.906	8118
747.018	9899
747.130	8257
747.242	8636
747.354	7240
747.466	8959
747.577	7370
747.689	9027
747.801	8582
747.913	8432
748.024	8997
748.136	8759
748.248	8383
748.359	8145
748.471	8426
748.583	8584
748.694	9848
748.806	11080
748.918	9019
749.029	9047
749.141	8105
749.252	9454
749.364	8029
749.475	10834
749.587	9187
749.698	8851
749.809	8428
749.921	9225
750.032	8169
750.144	7568
750.255	8174
750.366	8839
750.478	8319
750.589	8128
750.700	7666
750.811	9163
750.923	8640
751.034	11200
751.145	10302
751.256	8791
751.367	8312
751.479	8616
751.590	8302
751.701	9064
751.812	7859
751.923	8290
752.034	8804
752.145	8491
752.256	7709
752.367	8845
752.478	8789
752.589	9065
752.700	8096
752.811	8315
752.922	7616
753.032	7823
753.143	8476
753.254	7807
753.365	9165
753.476	7961
753.586	8628
753.697	9156
753.808	8543
753.919	8241
754.029	8806
754.140	8249
754.251	8130
754.361	8859
754.472	8685
754.582	9415
754.693	8710
754.804	9032
754.914	8047
755.025	9215
755.135	8852
755.246	9855
755.356	8328
755.466	9310
755.577	8380
755.687	9708
755.798	8893
755.908	9780
756.018	8892
756.129	9262
756.239	8753
756.349	9348
756.460	8731
756.570	10211
756.680	9366
756.790	10316
756.900	9883
757.011	9844
757.121	9572
757.231	9548
757.341	9509
757.451	8138
757.561	8723
757.671	10685
757.781	8990
757.891	10399
758.001	9374
758.111	9951
758.221	10104
758.331	10949
758.441	10313
758.551	12174
758.661	10358
758.771	10991
758.880	11308
758.990	10297
759.100	10867
759.210	12144
759.320	11939
759.429	11797
759.539	11887
759.649	11770
759.758	12364
759.868	13275
759.978	11710
760.087	13903
760.197	12905
760.307	13819
760.416	13782
760.526	13766
760.635	13670
760.745	13818
760.854	14181
760.964	14751
761.073	15074
761.182	15371
761.292	15187
761.401	15610
761.511	15069
761.620	15647
761.729	15783
761.839	16951
761.948	17512
762.057	16708
762.166	17330
762.276	17393
762.385	19795
762.494	18414
762.603	18797
762.712	20702
762.822	19972
762.931	21070
763.040	21894
763.149	22185
763.258	23194
763.367	25750
763.476	25737
763.585	25941
763.694	28047
763.803	29297
763.912	30651
764.021	34177
764.130	34766
764.238	37273
764.347	39120
764.456	43060
764.565	44894
764.674	49520
764.783	53668
764.891	59247
765.000	67561
765.109	75206
765.217	86851
765.326	100678
765.435	119947
765.543	145768
765.652	183903
765.761	236871
765.869	315403
765.978	445578
766.086	644638
766.195	945283
766.303	1208907
766.412	957113
766.520	1003382
766.629	1129479
766.737	827228
766.846	565709
766.954	400154
767.062	294613
767.171	227109
767.279	178216
767.387	142244
767.496	119035
767.604	102711
767.712	91036
767.820	81160
767.928	75516
768.037	67502
768.145	66109
768.253	62166
768.361	60276
768.469	60550
768.577	61677
768.685	64322
768.793	68772
768.901	75028
769.009	87279
769.117	105736
769.225	135760
769.333	186372
769.441	280086
769.549	449259
769.657	765515
769.765	1066496
769.873	906727
769.981	975252
770.088	665787
770.196	405046
770.304	269248
770.412	191727
770.519	145628
770.627	116939
770.735	95103
770.842	80938
770.950	69570
771.058	60737
771.165	56091
771.273	48412
771.380	45596
771.488	42087
771.595	38495
771.703	35786
771.810	34303
771.918	30480
772.025	30666
772.133	28107
772.240	27827
772.348	26878
772.455	24940
772.562	24170
772.670	23145
772.777	22411
772.884	20399
772.991	20354
773.099	20231
773.206	19925
773.313	19276
773.420	18817
773.528	18140
773.635	16625
773.742	17792
773.849	17153
773.956	16680
774.063	16095
774.170	15435
774.277	15926
774.384	15305
774.491	14097
774.598	14616
774.705	13243
774.812	14230
774.919	13892
775.026	14608
775.133	14306
775.239	13456
775.346	12992
775.453	13067
775.560	12835
775.667	13257
775.773	12189
775.880	13176
775.987	11228
776.093	12590
776.200	12338
776.307	11304
776.413	11618
776.520	11621
776.627	11763
776.733	11275
776.840	10059
776.946	12135
777.053	9857
777.159	10510
777.266	8967
777.372	10940
777.478	9973
777.585	11469
777.691	10135
777.798	10538
777.904	10190
778.010	12954
778.117	10103
778.223	10582
778.329	9206
778.435	9292
778.542	9441
778.648	9417
778.754	8107
778.860	9042
778.966	9068
779.072	9800
779.178	8889
779.284	10189
779.391	9123
779.497	10524
779.603	14449
779.708	21176
779.815	47812
779.920	167289
780.026	252502
780.132	43056
780.238	13500
780.344	10754
780.450	10630
780.556	9137
780.661	8603
780.767	9074
780.873	7662
780.979	8722
781.085	6990
781.190	8646
781.296	6866
781.402	7982
781.507	7064
781.613	7134
781.719	6544
781.824	7764
781.930	7439
782.035	7056
782.141	7325
782.246	6719
782.352	7187
782.457	7427
782.563	7164
782.668	7463
782.773	6527
782.879	5960
782.984	7642
783.090	7461
783.195	6898
783.300	7824
783.405	6781
783.511	6625
783.616	7137
783.721	6241
783.826	5519
783.932	6893
784.037	6223
784.142	6195
784.247	5560
784.352	6461
784.457	5396
784.562	6393
784.667	5668
784.772	5931
784.877	4898
784.982	6751
785.087	6223
785.192	6603
785.297	5526
785.402	6597
785.507	5669
785.611	6477
785.716	4855
785.821	5592
785.926	5482
786.031	5519
786.135	4983
786.240	6371
786.345	4177
786.450	6629
786.554	5320
786.659	5861
786.763	4630
786.868	5802
786.973	6564
787.077	5826
787.182	4278
787.286	6144
787.391	4701
787.495	4512
787.600	4432
787.704	5387
787.809	5817
787.913	5840
788.017	4979
788.122	5456
788.226	5092
788.330	5093
788.435	4880
788.539	5552
788.643	3881
788.747	5037
788.852	3744
788.956	5225
789.060	4722
789.164	4451
789.268	4852
789.372	5825
789.476	4393
789.580	4421
789.684	4438
789.788	5087
789.892	4761
789.996	5599
790.100	4606
790.204	4813
790.308	4933
790.412	3588
790.516	5245
790.620	3865
790.724	5405
790.828	5211
790.931	4065
791.035	5762
791.139	4539
791.242	3661
791.346	4828
791.450	4048
791.554	3466
791.657	4256
791.761	5189
791.864	4620
791.968	4052
792.072	5555
792.175	3523
792.279	4370
792.382	3738
792.486	5469
792.589	3923
792.693	5161
792.796	3201
792.899	4809
793.003	4670
793.106	2707
793.209	3011
793.313	5232
793.416	2783
793.519	4781
793.623	4579
793.726	5836
793.829	3450
793.932	5019
794.035	3640
794.138	6223
794.242	6533
794.345	7221
794.448	12214
794.551	27885
794.654	95424
794.757	152647
794.860	27320
794.963	6594
795.066	4291
795.169	5491
795.272	4224
795.375	4843
795.477	3283
795.580	4151
795.683	2457
795.786	3795
795.889	3108
795.991	4158
796.094	4690
796.197	3401
796.300	4461
796.402	3454
796.505	2589
796.608	2774
796.710	4250
796.813	4417
796.915	3332
797.018	4232
797.120	3298
797.223	2925
797.326	4941
797.428	3498
797.530	2359
797.633	4393
797.735	4831
797.838	5274
797.940	5213
798.042	3367
798.145	3536
798.247	4038
798.349	2012
798.452	4584
798.554	2690
798.656	3089
798.758	3859
798.860	3192
798.962	3157
799.065	3033
799.167	2019
799.269	4285
799.371	4018
799.473	3878
799.575	2498
799.677	4155
799.779	5493
799.881	2637
799.983	3628
800.085	3640
800.187	3051
800.289	3043
800.390	3341
800.492	4210
800.594	4664
800.696	3165
800.798	3701
800.899	2476
801.001	2028
801.103	2809
801.205	2509
801.306	3233
801.408	1914
801.509	3695
801.611	2832
801.713	4156
801.814	2300
801.916	3068
802.017	2636
802.119	3328
802.220	2514
802.322	1628
802.423	4489
802.525	2434
802.626	2580
802.727	2726
802.829	2958
802.930	1985
803.031	3768
803.133	3005
803.234	3160
803.335	2773
803.436	1178
803.538	3926
803.639	1780
803.740	3299
803.841	1714
803.942	3553
804.043	2684
804.144	2937
804.245	2519
804.346	2507
804.447	2605
804.548	3119
804.649	4278
804.750	2617
804.851	1865
804.952	3286
805.053	2631
805.154	1640
805.255	2971
805.355	2924
805.456	2046
805.557	2360
805.658	2102
805.758	3759
805.859	2884
805.960	2398
806.061	1491
806.161	2702
806.262	3240
806.362	2868
806.463	2115
806.564	3954
806.664	2617
806.765	3549
806.865	2532
806.966	1573
807.066	1923
807.166	3845
807.267	3373
807.367	2034
807.468	2560
807.568	2180
807.668	3183
807.769	3354
807.869	1619
807.969	3664
808.069	2205
808.170	2461
808.270	1789
808.370	2693
808.470	2309
808.570	1866
808.670	1806
808.770	2987
808.870	1378
808.970	2981
809.070	2169
809.170	2621
809.271	3049
809.370	2350
809.470	2697
809.570	2304
809.670	1672
809.770	2314
809.870	2620
809.970	2675
810.070	2754
810.169	3296
810.269	534
810.369	3891
810.469	2114
810.568	1981
810.668	2941
810.768	2216
810.867	1964
810.967	2309
811.066	1831
811.166	3052
811.265	2939
811.365	2592
811.464	2369
811.564	2544
811.663	2787
811.763	928
811.862	1919
811.962	3908
812.061	2317
812.160	2336
812.260	2653
812.359	3641
812.458	2942
812.557	6178
812.657	5461
812.756	4604
812.855	2931
812.954	2639
813.053	2870
813.153	2575
813.252	1672
813.351	3683
813.450	2481
813.549	2338
813.648	2084
813.747	1720
813.846	2900
813.945	2822
814.044	2566
814.143	2908
814.242	2792
814.341	2226
814.439	2324
814.538	3509
814.637	2211
814.736	2112
814.835	3399
814.933	3507
815.032	2492
815.131	3707
815.229	4087
815.328	4913
815.427	3514
815.525	3838
815.624	5151
815.722	4039
815.821	5532
815.919	4856
816.018	4277
816.116	5547
816.215	5259
816.313	5657
816.412	5815
816.510	6085
816.609	8011
816.707	7386
816.805	6522
816.904	7299
817.002	6747
817.100	8987
817.198	9431
817.296	9509
817.395	10459
817.493	14004
817.591	14184
817.689	19584
817.787	25471
817.885	38064
817.983	62471
818.081	120096
818.179	247441
818.277	477552
818.375	407896
818.473	191965
818.571	93291
818.669	60535
818.767	49373
818.865	48570
818.963	53996
819.061	74043
819.158	116134
819.256	212532
819.354	402637
819.452	599995
819.549	447687
819.647	241612
819.745	126584
819.842	78034
819.940	52196
820.038	38585
820.135	30266
820.233	25940
820.330	19248
820.428	16530
820.525	15439
820.623	12567
820.720	10610
820.818	10836
820.915	9903
821.012	9438
821.110	6154
821.207	7701
821.304	6869
821.402	6711
821.499	7677
821.596	6942
821.693	5674
821.791	6402
821.888	4830
821.985	7102
822.082	4093
822.179	5746
822.276	4619
822.373	4511
822.470	4256
822.567	5289
822.664	3262
822.761	4748
822.858	2843
822.955	4614
823.052	3863
823.149	3937
823.246	3971
823.343	3539
823.440	3486
823.536	4000
823.633	3149
823.730	3588
823.827	3516
823.923	3014
824.020	4077
824.117	3485
824.213	2496
824.310	3473
824.407	3112
824.503	4003
824.600	3181
824.696	3427
824.793	3414
824.889	3135
824.986	2925
825.082	2637
825.179	3014
825.275	2875
825.371	2254
825.468	2843
825.564	2280
825.660	3836
825.757	2883
825.853	3363
825.949	1369
826.045	3092
826.142	1468
826.238	2606
826.334	2153
826.430	1549
826.526	2718
826.622	2686
826.718	1991
826.814	3020
826.910	3160
827.006	2345
827.102	2079
827.198	3226
827.294	1970
827.390	2991
827.486	1874
827.582	1426
827.678	1154
827.774	3169
827.869	955
827.965	3276
828.061	1266
828.157	2176
828.252	2258
828.348	2008
828.444	2324
828.539	1088
828.635	1939
828.731	2834
828.826	1299
828.922	2147
829.017	2213
829.113	3567
829.208	688
829.304	2107
829.399	2884
829.495	1863
829.590	1841
829.685	1049
829.781	2188
829.876	2608
829.971	1220
830.066	2565
830.162	1496
830.257	2304
830.352	1425
830.447	2185
830.543	1603
830.638	847
830.733	1932
830.828	1761
830.923	2668
831.018	1989
831.113	1512
831.208	1337
831.303	1092
831.398	1733
831.493	1958
831.588	2566
831.683	597
831.778	1586
831.873	1202
831.967	3336
832.062	1054
832.157	1362
832.252	1471
832.346	2075
832.441	2441
832.536	2028
832.631	4534
832.725	3037
832.820	1242
832.914	1839
833.009	682
833.104	1256
833.198	1584
833.293	1238
833.387	1980
833.482	2154
833.576	116
833.670	2027
833.765	935
833.859	1179
833.954	2201
834.048	2456
834.142	1463
834.237	1475
834.331	952
834.425	2208
834.519	912
834.613	2082
834.708	1260
834.802	2583
834.896	1011
834.990	1252
835.084	1306
835.178	1637
835.272	1422
835.366	1217
835.460	2069
835.554	1795
835.648	1827
835.742	1098
835.836	1640
835.930	514
836.024	1557
836.117	2810
836.211	1025
836.305	2599
836.399	2193
836.493	348
836.586	2402
836.680	1179
836.774	331
836.867	2302
836.961	1340
837.055	1169
837.148	1062
837.242	1375
837.335	967
837.429	2190
837.522	1479
837.616	1948
837.709	1851
837.803	1810
837.896	1566
837.989	1728
838.083	2008
838.176	3061
838.269	1214
838.363	2297
838.456	1252
838.549	2624
838.642	2212
838.735	3963
838.829	2478
838.922	1147
839.015	1112
839.108	1485
839.201	1611
839.294	2248
839.387	941
839.480	1103
839.573	2371
839.666	2584
839.759	1794
839.852	628
839.945	1971
840.038	1414
840.131	815
840.223	2122
840.316	2381
840.409	1244
840.502	682
840.594	2527
840.687	322
840.780	1964
840.873	995
840.965	1856
841.058	2754
841.150	3502
841.243	1799
841.336	2029
841.428	925
841.521	1433
841.613	622
841.706	1132
841.798	1356
841.890	1250
841.983	870
842.075	2505
842.167	1516
842.260	1246
842.352	2020
842.444	1412
842.537	2429
842.629	3909
842.721	1021
842.813	1289
842.905	275
842.997	2091
843.090	1059
843.182	2802
843.274	2578
843.366	6792
843.458	10790
843.550	7153
843.642	2140
843.734	1690
843.826	772
843.918	2385
844.009	409
844.101	672
844.193	1095
844.285	1103
844.377	952
844.469	1365
844.560	542
844.652	512
844.744	58
844.835	1287
844.927	1335
845.019	1707
845.110	1193
845.202	1506
845.293	1718
845.385	1712
845.476	1161
845.568	1776
845.659	1555
845.751	1341
845.842	332
845.934	1382
846.025	928
846.116	1373
846.208	873
846.299	985
846.390	355
846.482	957
846.573	1662
846.664	1291
846.755	1238
846.846	1402
846.937	-514
847.029	670
847.120	677
847.211	860
847.302	1820
847.393	570
847.484	1232
847.575	683
847.666	-126
847.757	1849
847.847	151
847.938	2336
848.029	972
848.120	1246
848.211	880
848.302	1568
848.392	1283
848.483	949
848.574	-188
848.664	925
848.755	1030
848.846	915
848.936	240
849.027	1511
849.118	764
849.208	209
849.299	1673
849.389	1768
849.480	2767
849.570	4938
849.661	7425
849.751	11164
849.841	3843
849.932	1591
850.022	834
850.112	1298
850.203	91
850.293	701
850.383	294
850.474	532
850.564	759
850.654	953
850.744	436
850.834	1750
850.924	130
851.014	1734
851.104	914
851.194	1156
851.284	909
851.374	1565
851.464	1425
851.554	1328
851.644	1110
851.734	2932
851.824	2816
851.914	4773
852.004	8423
852.094	6518
852.183	1405
852.273	1340
852.363	573
852.452	1020
852.542	29
852.632	746
852.721	941
852.811	526
852.901	1548
852.990	709
853.080	393
853.169	1709
853.259	1198
853.348	972
853.438	626
853.527	2440
853.617	1298
853.706	4296
853.795	7055
853.885	15432
853.974	26794
854.063	48577
854.152	70679
854.242	25634
854.331	4954
854.420	2796
854.509	2036
854.598	1886
854.687	982
854.777	1564
854.866	1273
854.955	1807
855.044	564
855.133	1516
855.222	434
855.311	194
855.400	1506
855.488	879
855.577	249
855.666	1043
855.755	784
855.844	1399
855.933	1585
856.021	2091
856.110	808
856.199	287
856.288	302
856.376	1234
856.465	225
856.554	1207
856.642	509
856.731	933
856.819	592
856.908	1102
856.996	215
857.085	506
857.173	232
857.262	-13
857.350	719
857.438	1186
857.527	954
857.615	1406
857.703	1002
857.792	627
857.880	701
857.968	1276
858.056	-44
858.145	549
858.233	288
858.321	3
858.409	535
858.497	476
858.585	194
858.673	1005
858.761	-100
858.849	-40
858.937	169
859.025	1207
859.113	633
859.201	159
859.289	726
859.377	381
859.465	220
859.552	922
859.640	443
859.728	554
859.816	122
859.903	1131
859.991	34
860.079	1481
860.166	293
860.254	208
860.342	1229
860.429	251
860.517	58
860.604	1135
860.692	515
860.779	669
860.867	411
860.954	998
861.042	794
861.129	1475
861.216	466
861.304	797
861.391	862
861.478	763
861.565	1283
861.653	1755
861.740	-167
861.827	951
861.914	403
862.001	622
862.089	1193
862.176	535
862.263	-159
862.350	249
862.437	-27
862.524	703
862.611	895
862.698	1754
862.785	647
862.871	2258
862.958	88
863.045	935
863.132	453
863.219	230
863.306	142
863.392	1220
863.479	477
863.566	1052
863.652	369
863.739	1139
863.826	1007
863.912	976
863.999	83
864.086	683
864.172	778
864.259	547
864.345	605
864.432	1567
864.518	117
864.604	456
864.691	239
864.777	1034
864.863	773
864.950	2651
865.036	1100
865.122	3175
865.209	2210
865.295	1748
865.381	1998
865.467	3065
865.553	2422
865.639	3035
865.726	4274
865.812	7802
865.898	14657
865.984	20047
866.070	35329
866.156	37085
866.242	10191
866.328	3316
866.414	1195
866.499	3210
866.585	1487
866.671	2234
866.757	2960
866.843	1813
866.928	1803
867.014	1991
867.100	2536
867.186	1743
867.271	1938
867.357	1966
867.442	2619
867.528	2256
867.614	1812
867.699	1575
867.785	1507
867.870	1082
867.956	1578
868.041	2809
868.127	867
868.212	1934
868.297	1569
868.383	1606
868.468	1910
868.553	3284
868.639	2217
868.724	4315
868.809	3770
868.894	1800
868.979	2280
869.065	1481
869.150	1364
869.235	1831
869.320	561
869.405	2409
869.490	1565
869.575	1171
869.660	1264
869.745	2037
869.830	616
869.915	1783
870.000	1626
870.085	733
870.169	2023
870.254	2920
870.339	203
870.424	886
870.509	882
870.593	1772
870.678	1379
870.763	1226
870.847	1354
870.932	1246
871.016	703
871.101	870
871.186	509
871.270	1682
871.355	551
871.439	597
871.523	616
871.608	2129
871.692	306
871.777	1124
871.861	1828
871.945	1092
872.030	1183
872.114	471
872.198	673
872.282	650
872.367	207
872.451	270
872.535	812
872.619	1219
872.703	171
872.787	168
872.871	678
872.955	893
873.039	908
873.123	1272
873.207	1420
873.291	915
873.375	1041
873.459	1405
873.543	182
873.627	677
873.711	626
873.794	1731
873.878	-62
873.962	480
874.045	736
874.129	714
874.137	743
874.213	1036
874.245	1141
874.296	1311
874.352	157
874.380	-409
874.460	201
874.464	225
874.547	1059
874.568	1021
874.631	915
874.676	659
874.714	442
874.784	1224
874.798	1380
874.881	1809
874.892	1666
874.965	680
874.999	471
875.048	163
875.107	795
875.131	1064
875.215	65
875.215	65
875.298	362
875.323	321
875.381	296
875.430	719
875.465	963
875.538	764
875.548	751
875.631	900
875.646	772
875.714	77
875.753	625
875.798	1241
875.861	1059
875.881	1016
875.964	1114
875.968	1071
876.047	327
876.076	609
876.130	1138
876.183	1009
876.213	930
876.291	758
876.296	742
876.379	1018
876.398	953
876.462	771
876.506	620
876.545	556
876.613	862
876.628	894
876.711	395
876.721	511
876.794	1450
876.828	843
876.877	-14
876.935	377
876.960	546
877.043	862
877.043	864
877.125	1282
877.150	1315
877.208	1539
877.258	1630
877.291	1668
877.365	503
877.374	347
877.456	1414
877.472	1226
877.539	678
877.579	1459
877.622	2178
877.687	1406
877.704	1175
877.787	1269
877.794	1183
877.869	594
877.901	1008
877.952	1431
878.008	965
878.034	807
878.115	1103
878.117	1115
878.199	1192
878.222	1504
878.282	2056
878.329	1684
878.364	1415
878.437	1532
878.447	1565
878.529	897
878.544	1087
878.611	1816
878.651	1086
878.694	474
878.758	1310
878.776	1539
878.858	1005
878.865	1047
878.941	1176
878.972	1008
879.023	955
879.078	1230
879.105	1382
879.185	712
879.187	697
879.269	1934
879.292	1742
879.351	1217
879.399	943
879.433	862
879.506	1513
879.516	1563
879.598	1131
879.613	1056
879.680	837
879.720	925
879.762	1074
879.827	449
879.844	310
879.926	1465
879.933	1460
880.007	1096
880.040	1064
880.089	1312
880.147	1314
880.171	1238
880.253	1498
880.254	1498
880.335	1970
880.360	2169
880.417	2729
880.467	2764
880.499	3012
880.574	4140
880.580	4083
880.662	2167
880.680	1917
880.744	1710
880.787	1278
880.825	1006
880.893	1232
880.907	1285
880.989	1175
881.000	1216
881.070	1432
881.106	1425
881.152	1520
881.213	1300
881.233	1223
881.315	989
881.319	1023
881.396	1508
881.426	1298
881.478	1064
881.532	1557
881.559	1756
881.639	539
881.641	510
881.722	1068
881.745	840
881.803	680
881.852	1366
881.885	1624
881.958	1017
881.966	989
882.047	1622
882.064	1589
882.129	1269
882.171	1303
882.210	1719
882.277	2308
882.291	2254
882.372	2018
882.383	1922
882.454	1433
882.489	1387
882.535	1389
882.596	1185
882.616	1243
882.697	1370
882.702	1383
882.778	1230
882.808	1298
882.859	1504
882.914	1425
882.940	1316
883.020	1349
883.021	1354
883.102	1404
883.127	1417
883.183	1619
883.233	1701
883.264	1534
883.339	1298
883.345	1279
883.426	1070
883.445	991
883.507	1387
883.551	1568
883.587	1327
883.657	1457
883.668	1555
883.749	1510
883.763	1541
883.830	1621
883.869	1565
883.910	1476
883.975	1557
883.991	1616
884.072	1710
884.081	1758
884.152	2033
884.187	1832
884.233	1374
884.292	1431
884.314	1572
884.394	1035
884.398	1050
884.475	1324
884.504	1291
884.555	1566
884.610	1771
884.636	1683
884.716	1720
884.716	1729
884.797	2057
884.821	2045
884.877	1741
884.927	1803
884.958	1814
885.033	1403
885.038	1394
885.118	1493
885.139	1409
885.199	1358
885.244	1498
885.279	1527
885.350	1775
885.359	1886
885.439	2564
885.456	2617
885.520	2055
885.561	1935
885.600	1822
885.667	1308
885.680	1265
885.760	1359
885.773	1351
885.840	1433
885.878	1481
885.920	1715
885.984	1870
886.000	1827
886.080	1739
886.089	1730
886.160	1842
886.195	1855
886.240	1827
886.300	1740
886.320	1789
886.400	2250
886.406	2260
886.480	2265
886.511	2281
886.560	2121
886.616	1754
886.640	1794
886.720	2281
886.722	2276
886.800	1276
886.827	1089
886.879	1826
886.932	2297
886.959	2332
887.038	2758
887.039	2763
887.119	2205
887.143	2158
887.198	2018
887.248	1700
887.278	1800
887.354	2200
887.358	2187
887.437	1536
887.459	1464
887.517	1983
887.564	2242
887.596	2206
887.669	2156
887.676	2161
887.755	2080
887.774	2060
887.835	2183
887.880	2333
887.914	2039
887.985	1288
887.994	1378
888.073	2229
888.090	2391
888.153	2528
888.195	2599
888.232	2523
888.300	2457
888.311	2508
888.391	2611
888.405	2653
888.470	2104
888.510	1688
888.549	1753
888.615	1994
888.628	2005
888.708	1900
888.720	1892
888.787	2176
888.825	2286
888.866	2154
888.930	2001
888.945	2113
889.024	2617
889.035	2684
889.103	2269
889.140	2004
889.182	2046
889.245	2186
889.261	2260
889.340	2502
889.349	2533
889.419	2106
889.454	1857
889.498	2085
889.559	2420
889.577	2447
889.656	2547
889.664	2555
889.735	2078
889.768	1848
889.814	2548
889.873	3464
889.978	2295
890.083	1826
890.187	2351
890.292	2593
890.397	2175
890.501	1881
890.606	2084
890.710	3148
890.815	2276
890.919	2186
891.024	2296
891.128	1890
891.233	1268
891.337	2689
891.442	2153
891.546	2278
891.650	1430
891.755	2768
891.859	2902
891.963	2839
892.068	3226
892.172	1778
892.276	1657
892.380	2335
892.484	2210
892.589	2066
892.693	3008
892.797	1262
892.901	1844
893.005	2831
893.109	2646
893.213	3102
893.317	2257
893.421	2024
893.525	1407
893.629	2539
893.733	1718
893.837	1962
893.941	1864
894.045	4075
894.148	3979
894.252	9551
894.356	4105
894.460	2820
894.564	1755
894.667	795
894.771	1677
894.875	1587
894.978	1680
895.082	1908
895.186	1339
895.289	3203
895.393	1663
895.496	2228
895.600	591
895.703	2318
895.807	2356
895.910	1720
896.014	1859
896.117	1129
896.221	2398
896.324	1841
896.427	590
896.531	2147
896.634	1415
896.737	1911
896.840	1611
896.944	1826
897.047	1330
897.150	2440
897.253	1488
897.356	1137
897.460	1447
897.563	1433
897.666	1568
897.769	2635
897.872	1287
897.975	1245
898.078	689
898.181	1423
898.284	1276
898.387	2949
898.490	1613
898.593	1626
898.695	1420
898.798	1319
898.901	1397
899.004	2249
899.107	2015
899.209	1775
899.312	1214
899.415	857
899.518	735
899.620	1563
899.723	1380
899.826	2251
899.928	2256
900.031	1226
900.133	1141
900.236	1313
900.338	689
900.441	2284
900.543	1822
900.646	1044
900.748	1051
900.851	1944
900.953	1258
901.055	1600
901.158	2204
901.260	2153
901.362	537
901.465	1384
901.567	1186
901.669	2672
901.771	1333
901.873	2389
901.976	1846
902.078	836
902.180	1280
902.282	1190
902.384	1511
902.486	3071
902.588	1648
902.690	1349
902.792	1698
902.894	1767
902.996	1206
903.098	1848
903.200	949
903.302	1645
903.404	925
903.505	1649
903.607	1698
903.709	2650
903.811	1796
903.913	1297
904.014	1468
904.116	777
904.218	917
904.319	2441
904.421	1676
904.523	1148
904.624	1712
904.726	1455
904.827	757
904.929	1406
905.030	1552
905.132	1915
905.233	1492
905.335	1268
905.436	513
905.537	1225
905.639	564
905.740	1458
905.841	822
905.943	1681
906.044	832
906.145	2175
906.247	1731
906.348	1493
906.449	1905
906.550	1637
906.651	1312
906.752	1353
906.854	758
906.955	1407
907.056	1148
907.157	2040
907.258	478
907.359	1260
907.460	987
907.561	968
907.662	1211
907.762	1059
907.863	1475
907.964	2101
908.065	1552
908.166	995
908.267	783
908.367	1513
908.468	1293
908.569	1419
908.670	1925
908.770	1584
908.871	1528
908.971	3076
909.072	1298
909.173	1147
909.273	1996
909.374	2006
909.474	1428
909.575	1132
909.675	318
909.776	1634
909.876	1872
909.977	1326
910.077	1478
910.177	834
910.278	1104
910.378	1962
910.478	1563
910.579	1953
910.679	1187
910.779	1612
910.879	1039
910.980	1515
911.080	530
911.180	1441
911.280	1089
911.380	1267
911.480	737
911.580	1272
911.680	1430
911.780	1868
911.880	1011
911.980	1650
912.080	925
912.180	1962
912.280	1005
912.380	1742
912.480	977
912.580	1250
912.679	724
912.779	1609
912.879	1590
912.979	1277
913.078	163
913.178	1586
913.278	889
913.377	1402
913.477	939
913.577	1965
913.676	755
913.776	623
913.875	1360
913.975	2379
914.074	1036
914.174	1632
914.273	712
914.373	1579
914.472	994
914.572	1023
914.671	626
914.770	1211
914.870	527
914.969	1358
915.068	639
915.167	1575
915.267	1485
915.366	458
915.465	1219
915.564	1527
915.663	568
915.763	582
915.862	1460
915.961	1332
916.060	134
916.159	964
916.258	504
916.357	1058
916.456	958
916.555	1195
916.654	1107
916.752	2903
916.851	794
916.950	1237
917.049	919
917.148	230
917.247	783
917.345	878
917.444	706
917.543	1849
917.642	367
917.740	376
917.839	287
917.937	1945
918.036	716
918.135	394
918.233	313
918.332	736
918.430	959
918.529	724
918.627	845
918.726	731
918.824	1648
918.923	1235
919.021	682
919.119	1248
919.218	337
919.316	882
919.414	933
919.512	1305
919.611	405
919.709	1800
919.807	1678
919.905	1684
920.003	1375
920.102	1684
920.200	1157
920.298	1145
920.396	1423
920.494	1768
920.592	1040
920.690	1219
920.788	1586
920.886	1788
920.984	2113
921.082	1568
921.180	1506
921.277	1008
921.375	1455
921.473	1692
921.571	2366
921.669	1708
921.766	1610
921.864	2341
921.962	1092
922.060	2043
922.157	1960
922.255	2440
922.352	2120
922.450	3104
922.548	2204
922.645	2429
922.743	2518
922.840	5122
922.938	4119
923.035	4068
923.133	3369
923.230	4868
923.327	4509
923.425	5473
923.522	4556
923.619	5108
923.717	3139
923.814	3751
923.911	3057
924.008	4133
924.106	3587
924.203	4037
924.300	3540
924.397	3204
924.494	3472
924.591	3704
924.688	3747
924.786	4153
924.883	4309
924.979	3858
925.077	3447
925.173	4164
925.270	4236
925.367	3929
925.464	4242
925.561	3596
925.658	3673
925.755	2923
925.852	3373
925.948	4351
926.045	3806
926.142	3982
926.239	3535
926.335	3162
926.432	3664
926.529	3999
926.625	4550
926.722	2636
926.818	2448
926.915	3381
927.011	3728
927.108	3921
927.204	2747
927.301	3033
927.397	3197
927.494	3628
927.590	2403
927.687	2974
927.783	3851
927.879	3923
927.976	2984
928.072	2904
928.168	3508
928.264	3403
928.361	2171
928.457	3182
928.553	2275
928.649	3434
928.745	2487
928.841	2588
928.937	2452
929.033	2971
929.129	3091
929.225	3593
929.321	2883
929.417	3191
929.513	2567
929.609	2905
929.705	1869
929.801	3749
929.897	1678
929.993	3028
930.089	2641
930.184	2563
930.280	2936
930.376	3903
930.471	2692
930.567	3106
930.663	3171
930.758	2133
930.854	2612
930.950	3003
931.045	1751
931.141	2522
931.236	3330
931.332	2569
931.427	2585
931.523	3718
931.618	2605
931.714	1568
931.809	2679
931.905	3214
932.000	1350
932.095	2269
932.191	2833
932.286	2591
932.381	2301
932.476	2306
932.572	2538
932.667	2754
932.762	2289
932.857	3229
932.952	2831
933.047	2428
933.142	1645
933.237	2640
933.332	2644
933.427	2866
933.522	1714
933.617	2048
933.712	2351
933.807	3055
933.902	1976
933.997	2605
934.092	997
934.187	2708
934.282	1484
934.376	2939
934.471	1495
934.566	2231
934.661	2090
934.755	2347
934.850	2130
934.945	2063
935.039	1622
935.134	2281
935.228	2577
935.323	2661
935.417	2225
935.512	1809
935.606	1143
935.701	2296
935.795	2538
935.890	1569
935.984	1067
936.079	3182
936.173	2331
936.267	1356
936.362	1646
936.456	2416
936.550	2688
936.644	1939
936.738	1722
936.833	1590
936.927	2548
937.021	2761
937.115	1664
937.209	965
937.303	2529
937.397	527
937.491	1949
937.585	3388
937.679	1637
937.773	1513
937.867	1470
937.961	1926
938.055	2240
938.149	2506
938.243	1041
938.337	1667
938.430	1169
938.524	3047
938.618	1977
938.712	1439
938.805	1907
938.899	1844
938.993	1406
939.086	1801
939.180	1373
939.274	1953
939.367	2203
939.461	2931
939.554	1669
939.648	1373
939.741	1119
939.835	2124
939.928	2631
940.022	3019
940.115	1710
940.208	1726
940.302	870
940.395	2281
940.488	728
940.582	1586
940.675	905
940.768	1554
940.861	587
940.954	2483
941.048	1300
941.141	2156
941.234	1286
941.327	2473
941.420	2667
941.513	2146
941.606	861
941.699	1480
941.792	1105
941.885	1523
941.978	1337
942.071	1686
942.164	1317
942.257	1443
942.349	1272
942.442	1641
942.535	637
942.628	1014
942.721	1155
942.813	612
942.906	2550
942.999	938
943.091	1097
943.184	1311
943.277	802
943.369	1245
943.462	860
943.554	1772
943.647	665
943.739	1437
943.832	1388
943.924	-40
944.017	1062
944.109	937
944.201	987
944.294	2286
944.386	447
944.478	874
944.571	527
944.663	1076
944.755	1379
944.847	1711
944.940	1633
945.032	1221
945.124	350
945.216	1797
945.308	1291
945.400	968
945.492	1228
945.584	1690
945.676	1105
945.768	1301
945.860	1359
945.952	1533
946.044	1304
946.136	1115
946.228	308
946.320	1166
946.412	841
946.503	1655
946.595	960
946.687	581
946.779	324
946.870	868
946.962	-26
947.054	1476
947.145	1204
947.237	1520
947.329	1175
947.420	1586
947.512	1004
947.603	961
947.695	760
947.786	123
947.878	-338
947.969	1590
948.061	608
948.152	672
948.243	402
948.335	1002
948.426	215
948.517	243
948.609	805
948.700	1514
948.791	324
948.882	1318
948.973	420
949.065	160
949.156	1201
949.247	382
949.338	1070
949.429	900
949.520	121
949.611	440
949.702	1533
949.793	1321
949.884	448
949.975	1166
950.066	90
950.157	-188
950.247	795
950.338	300
950.429	234
950.520	1267
950.611	960
950.701	641
950.792	2248
950.883	1821
950.973	693
951.064	930
951.155	648
951.245	1538
951.336	1331
951.427	625
951.517	1530
951.608	936
951.698	794
951.788	1414
951.879	-315
951.969	675
952.060	594
952.150	460
952.240	1258
952.331	130
952.421	1263
952.511	1050
952.602	389
952.692	787
952.782	582
952.872	1163
952.962	653
953.052	660
953.143	748
953.233	853
953.323	580
953.413	259
953.503	1295
953.593	1415
953.683	396
953.773	372
953.863	-94
953.953	211
954.042	1161
954.132	949
954.222	1158
954.312	448
954.402	836
954.492	1440
954.581	1330
954.671	832
954.761	-77
954.850	1456
954.940	185
955.030	272
955.119	558
955.209	1248
955.298	1043
955.388	439
955.477	1721
955.567	-65
955.656	388
955.746	877
955.835	-282
955.925	189
956.014	948
956.103	355
956.193	216
956.282	1103
956.371	1166
956.461	592
956.550	641
956.639	590
956.728	404
956.817	574
956.906	352
956.995	1915
957.085	337
957.174	1131
957.263	682
957.352	527
957.441	332
957.530	1126
957.619	1282
957.708	1688
957.796	-60
957.885	877
957.974	526
958.063	1561
958.152	-592
958.241	1241
958.329	970
958.418	652
958.507	1773
958.596	1516
958.684	743
958.773	1973
958.861	1577
958.950	2077
959.039	1602
959.127	1221
959.216	1850
959.304	1720
959.393	1048
959.481	1984
959.570	1518
959.658	1170
959.746	951
959.835	2949
959.923	2695
960.011	1839
960.100	1798
960.188	1075
960.276	82
960.365	894
960.453	133
960.541	770
960.629	1014
960.717	486
960.805	712
960.893	1656
960.981	202
961.069	2154
961.158	706
961.245	1392
961.333	356
961.421	172
961.509	293
961.597	550
961.685	882
961.773	621
961.861	-272
961.949	1176
962.036	-392
962.124	824
962.212	566
962.299	186
962.387	385
962.475	622
962.562	-397
962.650	1575
962.738	77
962.825	526
962.913	607
963.000	864
963.088	485
963.175	532
963.263	221
963.350	1322
963.438	854
963.525	726
963.612	2121
963.700	4906
963.787	9075
963.874	3440
963.962	1390
964.049	1252
964.136	473
964.223	-318
964.310	-500
964.398	624
964.485	516
964.572	1170
964.659	744
964.746	2225
964.833	861
964.920	507
965.007	-16
965.094	881
965.181	40
965.268	851
965.355	561
965.441	867
965.528	-414
965.615	1954
965.702	364
965.789	-463
965.875	-443
965.962	391
966.049	-426
966.136	974
966.222	-39
966.309	1517
966.395	479
966.482	634
966.569	13
966.655	495
966.742	-380
966.828	783
966.915	-584
967.001	396
967.087	-586
967.174	575
967.260	1145
967.347	1723
967.433	4038
967.519	5747
967.605	1192
967.692	145
967.778	430
967.864	531
967.950	166
968.036	139
968.123	9
968.209	147
968.295	-808
968.381	2357
968.467	367
968.553	-1080
968.639	1317
968.725	-328
968.811	1726
968.897	2290
968.983	-124
969.069	7
969.154	64
969.240	307
969.326	-784
969.412	-706
969.497	-924
969.583	19
969.669	586
969.755	151
969.840	-132
969.926	1405
970.012	199
970.097	1911
970.183	684
970.268	890
970.354	1113
970.439	2224
970.525	3705
970.610	1055
970.696	529
970.781	1315
970.866	-549
970.952	9
971.037	-31
971.122	521
971.208	-466
971.293	370
971.378	-934
971.463	391
971.549	77
971.634	315
971.719	264
971.804	709
971.889	1077
971.974	-203
972.059	-150
972.144	259
972.229	-141
972.314	-282
972.399	-300
972.484	476
972.569	-32
972.654	-496
972.739	2477
972.824	1644
972.908	489
972.993	0
973.078	128
973.163	-259
973.247	-574
973.332	-1049
973.417	836
973.501	-277
973.586	-516
973.671	120
973.755	227
973.840	427
973.924	-38
974.009	594
974.093	-555
974.178	1742
974.262	998
974.346	1229
974.431	-239
974.515	830
974.600	156
974.684	114
974.768	34
974.852	791
974.937	-1133
975.021	250
975.105	-557
975.189	-761
975.273	614
975.358	-135
975.442	-708
975.526	286
975.610	-361
975.694	-289
975.778	807
975.862	69
975.946	-2159
976.030	1608
976.114	475
976.198	162
976.281	-730
976.365	-96
976.449	-374
976.533	773
976.617	-287
976.700	275
976.784	-398
976.868	288
976.951	927
977.035	836
977.119	-289
977.202	102
977.286	4
977.369	-476
977.453	903
977.536	629
977.620	-866
977.703	306
977.787	-1609
977.870	799
977.953	631
978.037	219
978.120	737
978.203	941
978.287	1639
978.370	769
978.453	-726
978.536	117
978.620	914
978.703	1003
978.786	393
978.869	-926
978.952	-1718
979.035	675
979.118	351
979.201	-201
979.284	52
979.367	-673
979.450	479
979.533	-843
979.616	41
979.699	-523
979.782	436
979.865	-574
979.948	213
980.030	-848
980.113	-581
980.196	-1070
980.279	548
980.361	322
980.444	-1674
980.526	-525
980.609	603
980.692	-276
980.774	-202
980.857	-1214
980.939	810
981.022	-59
981.104	-90
981.187	-310
981.269	-373
981.352	183
981.434	-655
981.516	116
981.599	422
981.681	397
981.763	-497
981.846	-328
981.928	-1018
982.010	-295
982.092	-727
982.174	637
982.256	-307
982.339	-193
982.421	-990
982.503	22
982.585	-946
982.667	-947
982.749	-15
982.831	-3
982.913	-1461
982.995	804
983.077	-781
983.158	1363
983.240	-708
983.322	457
983.404	148
983.486	-768
983.568	496
983.649	114
983.731	-112
983.813	-162
983.894	-940
983.976	-1023
984.058	-375
984.139	1550
984.221	-1304
984.302	519
984.384	-744
984.465	-831
984.547	-658
984.628	-553
984.710	233
984.791	-1115
984.872	117
984.954	-144
985.035	-239
985.116	334
985.198	-106
985.279	336
985.360	-254
985.441	-428
985.522	-473
985.604	-872
985.685	-2229
985.766	749
985.847	772
985.928	-290
986.009	-86
986.090	680
986.171	275
986.252	-169
986.333	406
986.414	-457
986.495	183
986.576	309
986.656	-1219
986.737	117
986.818	-171
986.899	83
986.980	-173
987.060	411
987.141	-709
987.222	2
987.302	-334
987.383	-520
987.464	228
987.544	480
987.625	-275
987.705	1045
987.786	-102
987.866	28
987.947	-500
988.027	183
988.108	-1027
988.188	192
988.268	-291
988.349	437
988.429	-797
988.509	246
988.589	-895
988.670	-1830
988.750	647
988.830	-400
988.910	105
988.990	-587
989.070	-56
989.151	-715
989.231	-663
989.311	838
989.391	-572
989.471	205
989.551	-381
989.631	-917
989.711	-96
989.791	-935
989.870	-864
989.950	442
990.030	-443
990.110	-232
990.190	-1294
990.269	-1095
990.349	-525
990.429	337
990.509	-1016
990.588	-135
990.668	-360
990.747	-78
990.827	-793
990.907	606
990.986	-1561
991.066	-494
991.145	-760
991.225	306
991.304	-942
991.383	23
991.463	-1748
991.542	640
991.622	-1458
991.701	-266
991.780	-905
991.859	-654
991.939	-997
992.018	-326
992.097	-558
992.176	191
992.256	-844
992.335	-1602
992.414	-84
992.493	-794
992.572	-873
992.651	24
992.730	-1850
992.809	-191
992.888	-1161
992.967	-801
993.046	-825
993.125	-1693
993.203	-1387
993.282	-302
993.361	-1118
993.440	-626
993.519	-1268
993.597	-150
993.676	-994
993.755	-471
993.834	-385
993.912	-2106
993.991	887
994.069	-732
994.148	-826
994.226	-802
994.305	-1992
994.384	-1450
994.462	-467
994.540	-1420
994.619	-1024
994.697	163
994.776	-1447
994.854	-304
994.932	-1027
995.011	-429
995.089	-1606
995.167	-1169
995.245	-551
995.324	-1926
995.402	-753
995.480	519
995.558	-794
995.636	-2376
995.714	-2019
995.792	467
995.870	-1435
995.948	-1401
996.026	-1447
996.104	-1838
996.182	-1470
996.260	-756
996.338	-455
996.416	-1310
996.494	-1688
996.572	-466
996.649	-1109
996.727	-1068
996.805	-865
996.883	-616
996.960	-1497
997.038	142
997.116	-861
997.193	-1702
997.271	-105
997.348	-825
997.426	-1251
997.504	-1289
997.581	-928
997.658	-744
997.736	-1873
997.813	-1435
997.891	-856
997.968	-1199
998.046	-1880
998.123	-1290
998.200	-37
998.277	-2117
998.355	-502
998.432	-2094
998.509	-1136
998.586	-869
998.663	-1046
998.741	-799
998.818	-1172
998.895	-1457
998.972	-1380
999.049	-470
999.126	-1754
999.203	-842
999.280	-1060
999.357	-1945
999.434	-1029
999.511	-987
999.587	-585
999.664	-1736
999.741	-1390
999.818	-1136
999.895	-1553
999.971	-1967
1000.048	-1803
1000.125	-821
1000.202	-1532
1000.278	-1369
1000.355	-1533
1000.431	-1721
1000.508	-2726
1000.584	-1151
1000.661	-510
1000.738	-2246
1000.814	-1266
1000.890	-642
1000.967	-1143
1001.043	-1403
1001.120	-2464
1001.196	-719
1001.272	-2541
1001.349	-845
1001.425	-1854
1001.501	-1189
1001.577	-1780
1001.654	-1189
1001.730	-1980
1001.806	-836
1001.882	-2492
1001.958	-1262
1002.034	-841
1002.110	-961
1002.186	-2142
1002.262	-876
1002.338	-1548
1002.414	-616
1002.490	-1432
1002.566	-1562
1002.642	-2170
1002.718	-741
1002.794	-1213
1002.870	-1522
1002.945	-2097
1003.021	-1153
1003.097	-1870
1003.173	-400
1003.248	-2440
1003.324	-1145
1003.400	-1302
1003.475	-1566
1003.551	-1762
1003.626	-1420
1003.702	-1672
1003.777	-1473
1003.853	-1147
1003.928	-1217
1004.004	-2528
1004.079	-1356
1004.155	-1547
1004.230	-1896
1004.305	-9
1004.381	-1243
1004.456	-1320
1004.531	-1056
1004.607	-1259
1004.682	-1350
1004.757	-1213
1004.832	-1929
1004.907	-1910
1004.982	-389
1005.057	-2005
1005.133	-1016
1005.208	-1734
1005.283	-1586
1005.358	-1061
1005.433	-1221
1005.508	-1520
1005.583	-2469
1005.657	-2174
1005.732	-247
1005.807	-1533
1005.882	-700
1005.957	-1670
1006.032	-688
1006.106	-1515
1006.181	-1095
1006.256	-611
1006.331	-1222
1006.405	-2536
1006.480	-2036
1006.554	-1507
1006.629	-1248
1006.704	-2743
1006.778	-1710
1006.853	-1610
1006.927	-1001
1007.002	-2512
1007.076	-1307
1007.150	-1713
1007.225	-1446
1007.299	-1970
1007.373	-1891
1007.448	-2513
1007.522	-944
1007.596	-966
1007.671	-1535
1007.745	-1536
1007.819	-1889
1007.893	-1686
1007.967	-721
1008.041	-1988
1008.115	-1039
1008.190	-2000
1008.264	-1454
1008.338	-2286
1008.412	-2087
1008.486	-2277
1008.560	-1530
1008.633	-2801
1008.707	-1533
1008.781	-1669
1008.855	-2364
1008.929	-2042
1009.003	-1526
1009.076	-1958
1009.150	-1188
1009.224	-2170
1009.298	-1278
1009.371	-2275
1009.445	-1571
1009.519	-1072
1009.592	-2297
1009.666	-2534
1009.739	-997
1009.813	-2472
1009.886	-594
1009.960	-2096
1010.033	-1093
1010.107	-2110
1010.180	-1988
1010.253	-1549
1010.327	-2006
1010.400	-2320
1010.473	-2101
1010.547	-558
1010.620	-2087
1010.693	-2079
1010.766	-1910
1010.840	-1537
1010.913	-1414
1010.986	-3160
1011.059	-2027
1011.132	-2125
1011.205	-872
1011.278	-1526
1011.351	-2025
1011.424	-1790
1011.497	-1278
1011.570	-1776
1011.643	-1929
1011.716	-2091
1011.789	-1414
1011.862	-1321
1011.934	-1250
1012.007	-3439
1012.080	-1010
1012.153	-1883
1012.225	-1359
1012.298	-2271
1012.371	-2216
1012.443	-1629
1012.516	-2409
1012.588	-1243
1012.661	-2170
1012.733	-3080
1012.806	-180
1012.879	-2362
1012.951	-980
1013.023	-2619
1013.096	-1408
1013.168	-1950
1013.241	-1567
1013.313	-2162
1013.385	-2328
1013.458	-2785
1013.530	-679
1013.602	-1666
1013.674	-1677
1013.746	-2252
1013.819	-1520
1013.891	-1498
1013.963	-1993
1014.035	-1915
1014.107	-1852
1014.179	-1052
1014.251	-1887
1014.323	-1758
1014.395	-1591
1014.467	-1843
1014.539	-1710
1014.611	-2724
1014.683	-2014
1014.754	-1687
1014.826	-1792
1014.898	-1953
1014.970	-2820
1015.042	-1001
1015.113	-1685
1015.185	-1629
1015.257	-2616
1015.328	-1744
1015.400	-1906
1015.471	-1224
1015.543	-2265
1015.615	-2400
1015.686	-2106
1015.757	-2218
1015.829	-1410
1015.901	-1967
1015.972	-1187
1016.043	-1825
1016.115	-2702
1016.186	-1670
1016.257	-2117
1016.328	-2018
1016.400	-1110
1016.471	-2750
1016.542	-1161
1016.613	-2262
1016.685	-2080
1016.756	-2376
1016.827	-1539
1016.898	-2746
1016.969	-1285
1017.040	-2185
1017.111	-1825
1017.182	-1963
1017.253	-1592
1017.324	-2532
1017.395	-1502
1017.466	-2486
1017.537	-1333
1017.608	-2254
1017.678	-1795
1017.749	-1970
1017.820	-1534
1017.891	-2783
1017.961	-1314
1018.032	-1770
1018.103	-1873
1018.173	-2217
1018.244	-1864
1018.315	-2360
1018.385	-1765
1018.456	-2291
1018.526	-2855
1018.597	-2337
1018.667	-1317
1018.738	-2111
1018.808	-1823
1018.878	-2322
1018.949	-1725
1019.019	-1697
1019.089	-1613
1019.160	-2271
1019.230	-1803
1019.300	-2204
1019.371	-2808
1019.441	-1849
1019.511	-1886
1019.581	-2047
1019.651	-1924
1019.721	-1784
1019.791	-2518
1019.861	-2216
1019.931	-2296
1020.001	-1924
1020.071	-1555
1020.141	-2291
1020.211	-1906
1020.281	-2359
1020.351	-1842
1020.421	-1922
1020.491	-1150
1020.560	-2601
1020.630	-727
1020.700	-1597
1020.770	-1904
1020.839	-1920
1020.909	-1659
1020.979	-2121
1021.048	-2534
1021.118	-1922
1021.187	-1367
1021.257	-2519
1021.326	-1439
1021.396	-2261
1021.465	-2072
1021.535	-2335
1021.604	-1715
1021.674	-1348
1021.743	-2034
1021.812	-1919
1021.882	-1449
1021.951	-1613
1022.020	-1459
1022.089	-1904
1022.159	-1795
1022.228	-2458
1022.297	-2203
1022.366	-2370
1022.435	-1716
1022.504	-1884
1022.573	-2008
1022.642	-2188
1022.711	-2268
1022.781	-2052
1022.849	-1541
1022.918	-2361
1022.987	-2115
1023.056	-2505
1023.125	-1806
1023.194	-2499
1023.263	-1425
1023.331	-2483
1023.400	-1853
1023.469	-2314
1023.538	-1734
1023.606	-2318
1023.675	-1708
1023.744	-2462
1023.812	-1785
1023.881	-2250
1023.949	-2020
1024.018	-2616
1024.086	-2382
1024.155	-2331
1024.223	-2264
1024.292	-2303
1024.360	-1379
1024.429	-1130
1024.497	-1787
1024.565	-1979
1024.634	-1885
1024.702	-2253
1024.770	-1008
1024.838	-2362
1024.907	-2756
1024.975	-2564
1025.043	-2113
1025.111	-2434
1025.179	-1338
1025.247	-1923
1025.315	-2507
1025.383	-2397
1025.451	-2326
1025.519	-1582
1025.587	-1252
1025.655	-1682
1025.723	-2688
1025.791	-1882
1025.859	-1602
1025.927	-2077
1025.995	-2630
1026.062	-1649
1026.130	-1591
1026.198	-1827
1026.266	-2039
1026.333	-2496
1026.401	-2089
1026.469	-1587
1026.536	-2219
1026.604	-1973
1026.671	-2602
1026.739	-1561
1026.806	-1819
1026.874	-2476
1026.941	-1625
1027.009	-1412
1027.076	-1543
1027.144	-2003
1027.211	-2280
1027.278	-3021
1027.345	-2058
1027.413	-2222
1027.480	-1358
1027.547	-2296
1027.614	-1468
1027.682	-1512
1027.749	-2568
1027.816	-2210
1027.883	-2234
1027.950	-1939
1028.017	-2493
1028.084	-1489
1028.151	-2707
1028.218	-2183
1028.285	-2080
1028.352	-1983
1028.419	-2760
1028.486	-2010
1028.553	-1333
1028.619	-2977
1028.686	-1450
1028.753	-2101
1028.820	-2193
1028.886	-1931
1028.953	-1679
1029.020	-2567
1029.086	-1916
1029.153	-1801
1029.220	-1728
1029.286	-2031
1029.353	-1910
1029.419	-3154
1029.486	-2317
1029.552	-2202
1029.619	-2560
1029.685	-2125
1029.751	-1565
1029.818	-1867
1029.884	-2161
1029.951	-1331
1030.017	-1476
1030.083	-2348
1030.149	-1686
1030.216	-2471
1030.282	-1472
1030.348	-2108
1030.414	-2582
1030.480	-2079
1030.546	-1643
1030.612	-2269
1030.678	-1743
1030.744	-2582
1030.810	-2055
1030.876	-2055
1030.942	-2846
1031.008	-2315
1031.074	-1984
1031.140	-2411
1031.206	-1417
1031.272	-3010
1031.337	-1656
1031.403	-2377
1031.469	-1807
1031.534	-2264
1031.600	-2123
1031.666	-1764
1031.731	-2320
1031.797	-1681
1031.863	-2219
1031.928	-2988
1031.994	-1977
1032.059	-2680
1032.125	-2040
1032.190	-2378
1032.256	-1940
1032.321	-2839
1032.386	-1694
1032.452	-1819
1032.517	-2321
1032.582	-2528
1032.647	-1222
1032.713	-1825
1032.778	-1997
1032.843	-2605
1032.908	-2233
1032.974	-2257
1033.039	-2680
1033.104	-2056
1033.169	-1758
1033.234	-2713
1033.299	-1121
1033.364	-1723
1033.429	-1686
1033.494	-1374
1033.559	-2740
1033.624	-1914
1033.688	-1238
1033.753	-2842
1033.818	-1842
1033.883	-2442
1033.948	-1156
1034.013	-1787
1034.077	-1407
1034.142	-1225
1034.207	-1409
1034.271	-228
1034.336	-658
1034.400	-1651
1034.465	-1267
1034.530	-2008
1034.594	-1901
1034.658	-2782
1034.723	-2773
1034.787	-1848
1034.852	-2207
1034.916	-2912
1034.981	-2297
1035.045	-1827
1035.109	-2004
1035.173	-2339
1035.238	-2386
1035.302	-2543
1035.366	-2560
1035.430	-2450
1035.495	-3025
1035.559	-2162
1035.623	-2200
1035.687	-1980
1035.751	-1933
1035.815	-2271
1035.879	-2403
1035.943	-2441
1036.007	-1740
1036.071	-2420
1036.135	-2185
1036.198	-2282
1036.262	-2555
1036.326	-2532
1036.390	-2317
1036.454	-2533
1036.517	-1714
1036.581	-2779
1036.645	-1249
1036.709	-2428
1036.772	-2491
1036.836	-2089
1036.900	-2308
1036.963	-1765
1037.026	-1950
1037.090	-2174
1037.154	-2309
1037.217	-1918
1037.280	-2511
1037.344	-1759
1037.407	-2379
1037.471	-2094
1037.534	-2420
1037.597	-1903
1037.661	-1891
1037.724	-2858
1037.787	-1787
1037.850	-2241
1037.913	-2468
1037.977	-1717
1038.040	-2312
1038.103	-3171
1038.166	-1590
1038.229	-2335
1038.292	-2838
1038.355	-2601
1038.418	-1681
1038.481	-2125
1038.544	-1854
1038.607	-2533
1038.670	-2537
1038.732	-2393
1038.795	-2525
1038.858	-3002
1038.921	-2829
1038.984	-2467
1039.046	-1519
1039.109	-2931
1039.172	-1768
1039.234	-2583
1039.297	-2792
1039.360	-2261
1039.422	-2255
1039.485	-2116
1039.547	-2805
1039.610	-2766
1039.672	-2523
1039.734	-2710
1039.797	-1798
1039.859	-2378
1039.922	-2065
1039.984	-2839
1040.046	-2258
1040.109	-1630
1040.171	-2020
1040.233	-2110
1040.295	-2214
1040.358	-1777
1040.420	-2213
1040.482	-2333
1040.544	-2691
1040.606	-2741
1040.668	-2251
1040.730	-2914
1040.792	-2474
1040.854	-3005
1040.916	-1966
1040.978	-2990
1041.040	-1199
1041.102	-2300
1041.164	-2360
1041.225	-2128
1041.287	-2681
1041.349	-2448
1041.411	-1684
1041.472	-2382
1041.534	-2303
1041.596	-2881
1041.657	-2304
1041.719	-2136
1041.781	-2125
1041.842	-2568
1041.904	-1392
1041.965	-2353
1042.027	-2512
1042.088	-2894
1042.150	-2843
1042.211	-2829
1042.272	-2384
1042.334	-3121
1042.395	-2056
1042.456	-2431
1042.518	-2128
1042.579	-2042
1042.640	-2101
1042.701	-2513
1042.763	-838
1042.824	-2726
1042.885	-2787
1042.946	-3194
1043.007	-2554
1043.068	-2384
1043.129	-1760
1043.190	-2451
1043.251	-1536
1043.312	-2831
1043.373	-1406
1043.434	-2045
1043.495	-2192
1043.556	-2682
1043.616	-1622
1043.677	-2589
1043.738	-1817
1043.799	-2276
1043.859	-1947
1043.920	-1971
1043.981	-2046
1044.041	-2892
1044.102	-2646
1044.162	-2774
1044.223	-2562
1044.284	-1877
1044.344	-1176
1044.405	-2578
1044.465	-3028
1044.525	-2758
1044.586	-1930
1044.646	-2374
1044.707	-1729
1044.767	-2502
1044.827	-2585
1044.887	-2653
1044.948	-2257
1045.008	-1902
1045.068	-2451
1045.128	-2061
1045.188	-1774
1045.249	-1599
1045.309	-2362
1045.369	-2414
1045.429	-1517
1045.489	-2503
1045.549	-2314
1045.609	-2440
1045.669	-2306
1045.729	-2431
1045.789	-1255
1045.848	-1681
1045.908	-2116
1045.968	-1651
1046.028	-1271
1046.088	-2693
1046.147	-1447
1046.207	-2675
1046.267	-1753
1046.326	-1774
1046.386	-2100
1046.446	-2175
1046.505	-1290
1046.565	-629
1046.624	-887
1046.684	-1659
1046.743	-950
1046.803	-1906
1046.862	-900
1046.922	0
