'Start Wavelength	183.907
'End Wavelength	1046.922
'Gate Delay	5.000
'Gate Width (ms)	1.050
'Laser Output Level	0.000
'X Position	0.000
'Y Position	0.000
'Z Position	0.000
'Grid Point Number	1.000
'Shot Number	100.000
183.907	260.000
183.977	171.000
184.047	1031
184.116	86
184.186	492
184.256	653
184.325	238
184.395	-595
184.465	1203
184.534	-77
184.604	47
184.674	43
184.743	-264
184.813	336
184.883	440
184.952	-152
185.022	1129
185.092	-61
185.161	339
185.231	-236
185.301	804
185.370	592
185.440	197
185.509	91
185.579	239
185.649	-643
185.718	530
185.788	201
185.857	219
185.927	390
185.996	631
186.066	-100
186.136	-69
186.205	253
186.275	794
186.344	442
186.414	326
186.483	-597
186.553	1890
186.622	1256
186.692	770
186.761	388
186.831	216
186.900	-464
186.970	1226
187.039	1348
187.109	666
187.178	695
187.248	802
187.317	29
187.387	337
187.456	287
187.526	647
187.595	166
187.664	232
187.734	371
187.803	715
187.873	386
187.942	756
188.012	-200
188.081	491
188.150	-249
188.220	1130
188.289	1479
188.358	1247
188.428	255
188.497	515
188.567	1291
188.636	317
188.705	768
188.775	567
188.844	164
188.913	1277
188.983	846
189.052	599
189.121	-78
189.191	858
189.260	381
189.329	1100
189.399	483
189.468	870
189.537	-224
189.606	834
189.676	698
189.745	951
189.814	1317
189.883	1291
189.953	132
190.022	1843
190.091	825
190.161	2991
190.230	1482
190.299	47
190.368	164
190.437	102
190.507	-478
190.576	562
190.645	364
190.714	925
190.783	599
190.853	135
190.922	542
190.991	720
191.060	941
191.129	242
191.198	429
191.268	882
191.337	-400
191.406	1672
191.475	358
191.544	285
191.613	-183
191.682	942
191.752	256
191.821	535
191.890	740
191.959	745
192.028	176
192.097	175
192.166	233
192.235	368
192.304	446
192.373	582
192.442	176
192.511	30
192.580	335
192.650	347
192.719	602
192.788	1272
192.857	801
192.926	364
192.995	451
193.064	1958
193.133	856
193.202	2503
193.271	1202
193.340	1599
193.409	1157
193.478	2032
193.547	1384
193.615	3078
193.684	2173
193.753	1781
193.822	1548
193.891	608
193.960	665
194.029	857
194.098	996
194.167	284
194.236	625
194.305	706
194.374	1169
194.443	741
194.512	860
194.580	680
194.649	1379
194.718	1613
194.787	1247
194.856	160
194.925	979
194.994	1889
195.062	908
195.131	1754
195.200	1454
195.269	1948
195.338	1135
195.407	1358
195.475	591
195.544	1376
195.613	871
195.682	1334
195.751	1507
195.819	1807
195.888	1156
195.957	1927
196.026	2117
196.094	2442
196.163	1111
196.232	2104
196.301	928
196.369	754
196.438	1199
196.507	1087
196.576	813
196.644	750
196.713	944
196.782	701
196.850	904
196.919	1077
196.988	1024
197.056	40
197.125	446
197.194	1284
197.262	1074
197.331	1505
197.400	107
197.468	907
197.537	453
197.606	815
197.674	1287
197.743	3104
197.812	1513
197.880	2752
197.949	1904
198.017	3056
198.086	1582
198.155	1290
198.223	1920
198.292	3505
198.360	1339
198.429	870
198.497	800
198.566	1165
198.635	3916
198.703	2497
198.772	2267
198.840	3514
198.909	3966
198.977	1478
199.046	1761
199.114	1729
199.183	1019
199.251	1362
199.320	315
199.388	328
199.457	7
199.525	1370
199.594	811
199.662	1559
199.731	2333
199.799	1866
199.867	1230
199.936	1433
200.004	762
200.073	1179
200.141	1155
200.210	1040
200.278	107
200.346	1247
200.415	1524
200.483	2360
200.552	1794
200.620	900
200.688	1480
200.757	1044
200.825	679
200.893	1896
200.962	1366
201.030	900
201.098	1038
201.167	1781
201.235	818
201.303	612
201.372	956
201.440	1093
201.508	1493
201.577	1372
201.645	1707
201.713	563
201.781	535
201.850	2155
201.918	1011
201.986	1426
202.055	1844
202.123	1353
202.191	449
202.259	1639
202.327	1254
202.396	1355
202.464	1031
202.532	1866
202.600	5393
202.669	3764
202.737	1097
202.805	1533
202.873	582
202.941	1798
203.009	1556
203.078	1209
203.146	1787
203.214	1271
203.282	1232
203.350	2203
203.418	367
203.487	1706
203.555	642
203.623	1175
203.691	970
203.759	1026
203.827	1126
203.895	1695
203.963	1539
204.031	699
204.099	1555
204.168	1306
204.236	1270
204.304	1315
204.372	1259
204.440	1384
204.508	1062
204.576	1110
204.644	1314
204.712	1556
204.780	1090
204.848	1675
204.916	919
204.984	1781
205.052	1612
205.120	849
205.188	749
205.256	1661
205.324	768
205.392	886
205.460	1840
205.528	1216
205.596	1419
205.664	1388
205.732	1108
205.799	3639
205.867	5826
205.935	1933
206.003	2624
206.071	316
206.139	1833
206.207	1149
206.275	987
206.343	1604
206.411	1854
206.478	1892
206.546	876
206.614	1123
206.682	963
206.750	1988
206.818	1636
206.885	2646
206.953	632
207.021	2451
207.089	800
207.157	2185
207.225	1611
207.292	1723
207.360	961
207.428	1568
207.496	1714
207.563	1233
207.631	1303
207.699	1814
207.767	1456
207.834	1016
207.902	1690
207.970	1386
208.038	1503
208.105	2198
208.173	1504
208.241	3199
208.309	2280
208.376	2766
208.444	3049
208.512	2432
208.579	557
208.647	2622
208.715	2801
208.782	1880
208.850	2035
208.918	1108
208.985	1718
209.053	1655
209.120	1702
209.188	1737
209.256	1542
209.323	1542
209.391	2407
209.459	3223
209.526	1342
209.594	1861
209.661	2255
209.729	2411
209.796	1987
209.864	2567
209.932	759
209.999	3781
210.067	2704
210.134	1798
210.202	1762
210.269	3344
210.337	3276
210.404	1944
210.472	1487
210.539	2531
210.607	2657
210.674	2428
210.742	2436
210.809	2551
210.877	2773
210.944	3878
211.012	2337
211.079	3543
211.146	2059
211.214	2224
211.281	2759
211.349	3713
211.416	2029
211.484	3037
211.551	1622
211.618	1970
211.686	1876
211.753	2405
211.821	2403
211.888	2335
211.955	2710
212.023	2162
212.090	1518
212.157	2638
212.225	2546
212.292	4481
212.359	7070
212.427	16485
212.494	8979
212.561	3521
212.629	2904
212.696	2852
212.763	2881
212.831	2209
212.898	2572
212.965	2879
213.032	2376
213.100	3298
213.167	2164
213.234	4336
213.301	2464
213.369	2510
213.436	2628
213.503	2528
213.570	2668
213.638	3189
213.705	2113
213.772	1940
213.839	3191
213.906	4410
213.973	2137
214.041	2308
214.108	2558
214.175	2098
214.242	2449
214.309	2606
214.376	2467
214.444	2519
214.511	2294
214.578	1885
214.645	3016
214.712	4039
214.779	2575
214.846	2359
214.913	2829
214.980	3363
215.048	2921
215.115	3572
215.182	3724
215.249	2695
215.316	2463
215.383	2438
215.450	2842
215.517	2208
215.584	2913
215.651	2196
215.718	2266
215.785	2795
215.852	2416
215.919	3771
215.986	4075
216.053	2923
216.120	1760
216.187	2980
216.254	2885
216.321	3304
216.388	3251
216.455	3505
216.522	3083
216.589	4022
216.656	5990
216.722	7083
216.789	4836
216.856	4615
216.923	3112
216.990	4140
217.057	3146
217.124	4759
217.191	4017
217.258	5033
217.324	6173
217.391	5610
217.458	4663
217.525	4272
217.592	3724
217.659	2470
217.725	3257
217.792	5151
217.859	4510
217.926	2009
217.993	2984
218.059	2826
218.126	1672
218.193	2359
218.260	1897
218.327	1012
218.393	2556
218.460	2463
218.527	2014
218.594	2750
218.660	4978
218.727	6142
218.794	2103
218.860	2512
218.927	1387
218.994	2430
219.061	1801
219.127	3172
219.194	4226
219.261	2714
219.327	1995
219.394	2761
219.461	1560
219.527	2755
219.594	3620
219.661	3000
219.727	1700
219.794	3225
219.860	962
219.927	2729
219.994	3805
220.060	8703
220.127	6208
220.193	3895
220.260	2800
220.326	4875
220.393	7218
220.460	9234
220.526	6406
220.593	4404
220.659	4985
220.726	5482
220.792	9162
220.859	10272
220.925	11305
220.992	15035
221.058	14530
221.125	13755
221.191	10374
221.258	5084
221.324	4255
221.391	4376
221.457	3257
221.524	3764
221.590	3626
221.657	11875
221.723	8410
221.789	6952
221.856	6564
221.922	4639
221.989	2862
222.055	2029
222.121	1590
222.188	5547
222.254	3315
222.321	3080
222.387	1556
222.453	2468
222.520	1051
222.586	1643
222.652	2086
222.719	1299
222.785	2313
222.851	1791
222.918	1414
222.984	2252
223.050	1055
223.116	1047
223.183	1879
223.249	1681
223.315	1428
223.382	2374
223.448	1531
223.514	1398
223.580	1310
223.647	1512
223.713	959
223.779	2317
223.845	1294
223.911	2316
223.978	476
224.044	1764
224.110	2341
224.176	1831
224.242	1425
224.309	1444
224.375	1838
224.441	2122
224.507	979
224.573	858
224.639	2034
224.705	1523
224.772	1882
224.838	1562
224.904	2327
224.970	2231
225.036	1811
225.102	1602
225.168	2256
225.234	2396
225.300	2015
225.366	2204
225.432	2042
225.499	1161
225.565	2094
225.631	2204
225.697	1734
225.763	2888
225.829	3430
225.895	4408
225.961	5688
226.027	5167
226.093	3921
226.159	5411
226.225	7491
226.291	16015
226.357	25393
226.423	13942
226.489	8246
226.554	6488
226.620	4198
226.686	6470
226.752	9576
226.818	15039
226.884	32983
226.950	30199
227.016	11771
227.082	7899
227.148	5916
227.214	6447
227.279	4795
227.345	3371
227.411	4103
227.477	5214
227.543	10180
227.609	11006
227.674	5247
227.740	3307
227.806	3317
227.872	3172
227.938	3078
228.003	4318
228.069	3307
228.135	1961
228.201	3033
228.267	2050
228.332	2256
228.398	4220
228.464	3203
228.530	903
228.595	2600
228.661	2437
228.727	4507
228.792	4574
228.858	1609
228.924	1444
228.990	4030
229.055	2578
229.121	3990
229.187	2856
229.252	2872
229.318	2820
229.384	2316
229.449	3434
229.515	-390
229.581	1224
229.646	2964
229.712	3156
229.777	6378
229.843	7464
229.909	5718
229.974	5466
230.040	4775
230.105	3437
230.171	3631
230.236	4721
230.302	6003
230.368	6742
230.433	2433
230.499	2894
230.564	3383
230.630	2191
230.695	2401
230.761	3173
230.826	1085
230.892	5671
230.957	2017
231.023	1755
231.088	2929
231.154	2325
231.219	1813
231.284	4067
231.350	4809
231.415	1989
231.481	1958
231.546	2678
231.612	2090
231.677	1783
231.742	949
231.808	4122
231.873	1193
231.939	1404
232.004	5290
232.069	5263
232.135	2394
232.200	2613
232.265	1955
232.331	1361
232.396	1317
232.461	1685
232.527	667
232.592	1627
232.657	2423
232.723	3549
232.788	3055
232.853	2059
232.918	2188
232.984	1640
233.049	600
233.114	3748
233.179	3668
233.245	5187
233.310	6441
233.375	2326
233.440	1941
233.506	2179
233.571	1197
233.636	1778
233.701	2005
233.766	3544
233.832	6093
233.897	3147
233.962	2229
234.027	4965
234.092	3801
234.157	2887
234.222	2491
234.288	4113
234.353	11252
234.418	10526
234.483	7126
234.548	5239
234.613	3545
234.678	4692
234.743	3226
234.808	12233
234.873	8241
234.938	5997
235.004	2796
235.069	3500
235.134	2387
235.199	3110
235.264	3140
235.329	1585
235.394	2626
235.459	4705
235.524	2079
235.589	3495
235.654	2621
235.719	1893
235.784	2576
235.849	2688
235.913	6560
235.978	6980
236.043	7942
236.108	4385
236.173	3274
236.238	3679
236.303	2446
236.368	2520
236.433	5202
236.498	9396
236.563	6165
236.627	11577
236.692	41411
236.757	37607
236.822	14667
236.887	10912
236.952	9601
237.017	6160
237.081	6633
237.146	9207
237.211	17478
237.276	39990
237.341	69636
237.405	34747
237.470	13693
237.535	10350
237.600	6375
237.664	5836
237.729	3434
237.794	6253
237.859	12052
237.923	8743
237.988	5276
238.053	7032
238.118	7242
238.182	14943
238.247	15311
238.312	7286
238.376	6123
238.441	3318
238.506	4954
238.570	2785
238.635	4433
238.700	2884
238.764	2552
238.829	7188
238.893	8926
238.958	6431
239.023	5643
239.087	3372
239.152	3687
239.216	2593
239.281	2553
239.346	3114
239.410	3300
239.475	3079
239.539	13910
239.604	11922
239.668	4680
239.733	3945
239.797	5849
239.862	18230
239.926	17643
239.991	7613
240.055	4264
240.120	3153
240.184	3174
240.249	2292
240.313	3687
240.378	3750
240.442	7946
240.507	13909
240.571	5267
240.635	6209
240.700	8856
240.764	4284
240.829	3342
240.893	2123
240.957	3303
241.022	7879
241.086	14014
241.151	6228
241.215	2302
241.279	4993
241.344	7277
241.408	4685
241.472	3145
241.537	4769
241.601	3738
241.665	3101
241.730	3089
241.794	4561
241.858	2919
241.922	3759
241.987	4400
242.051	3980
242.115	2062
242.179	3634
242.244	2304
242.308	4568
242.372	3444
242.436	3606
242.501	3596
242.565	3478
242.629	2574
242.693	4030
242.757	2136
242.822	3242
242.886	3415
242.950	4437
243.014	3066
243.078	4619
243.142	4387
243.206	3354
243.271	4535
243.335	3497
243.399	6340
243.463	19862
243.527	56370
243.591	20671
243.655	9223
243.719	5867
243.783	6657
243.847	8781
243.911	11735
243.975	14365
244.040	11283
244.104	6073
244.168	4927
244.232	7065
244.296	10410
244.360	10866
244.424	6497
244.488	4117
244.552	4737
244.615	1813
244.679	3803
244.743	4797
244.807	5929
244.871	4032
244.935	3250
244.999	2948
245.063	2998
245.127	4624
245.191	6705
245.255	8319
245.319	6263
245.383	5961
245.446	5301
245.510	2895
245.574	3961
245.638	5731
245.702	3610
245.766	13064
245.829	7093
245.893	4886
245.957	3640
246.021	4701
246.085	4511
246.149	6653
246.212	15591
246.276	24572
246.340	10760
246.404	7662
246.467	7727
246.531	11415
246.595	7802
246.659	6814
246.722	5838
246.786	8621
246.850	8901
246.913	11643
246.977	4591
247.041	5397
247.104	5996
247.168	5322
247.232	15411
247.295	32513
247.359	17129
247.423	7171
247.486	12914
247.550	9964
247.614	6183
247.677	8948
247.741	6748
247.804	4750
247.868	5902
247.932	12952
247.995	30441
248.059	12328
248.122	6132
248.186	7820
248.249	13212
248.313	47796
248.376	54479
248.440	35367
248.503	13100
248.567	10706
248.630	15005
248.694	21186
248.757	25212
248.821	53329
248.884	33822
248.948	28328
249.011	40985
249.075	61237
249.138	54673
249.202	21908
249.265	13041
249.328	14105
249.392	10924
249.455	9867
249.519	7339
249.582	9550
249.645	15857
249.709	12983
249.772	7006
249.835	8012
249.899	7555
249.962	8364
250.025	6223
250.089	18775
250.152	28169
250.215	13029
250.279	9785
250.342	10423
250.405	8695
250.468	8602
250.532	9496
250.595	16236
250.658	49499
250.721	91447
250.785	35471
250.848	20557
250.911	11809
250.974	10477
251.038	13641
251.101	32159
251.164	15743
251.227	16806
251.290	13831
251.354	18769
251.417	70298
251.480	78199
251.543	49282
251.606	127509
251.669	106607
251.732	42295
251.795	42173
251.859	42670
251.922	84246
251.985	55954
252.048	20290
252.111	15006
252.174	14156
252.237	27903
252.300	62883
252.363	61153
252.426	112513
252.489	52103
252.552	24879
252.615	16168
252.678	18395
252.741	43959
252.804	54363
252.867	112965
252.930	76352
252.993	41318
253.056	24329
253.119	17432
253.182	12787
253.245	21050
253.308	17814
253.371	15896
253.434	14625
253.497	14557
253.559	28363
253.622	20344
253.685	23428
253.748	27026
253.811	13775
253.874	14479
253.937	13651
254.000	11106
254.062	19449
254.125	32331
254.188	23644
254.251	24019
254.314	11780
254.376	21014
254.439	23979
254.502	20301
254.565	20606
254.628	38566
254.690	22421
254.753	12786
254.816	10950
254.878	11984
254.941	21054
255.004	24410
255.067	10312
255.129	11306
255.192	6690
255.255	5702
255.317	7444
255.380	5770
255.443	3711
255.505	5037
255.568	4469
255.631	3973
255.693	5382
255.756	4485
255.819	5729
255.881	3794
255.944	4433
256.006	4516
256.069	3639
256.132	3663
256.194	5263
256.257	13630
256.319	9937
256.382	10067
256.444	6587
256.507	5877
256.569	4073
256.632	5201
256.694	7425
256.757	21693
256.819	68370
256.882	28526
256.944	12126
257.007	10867
257.069	10182
257.132	6835
257.194	6031
257.257	6151
257.319	6997
257.381	6534
257.444	16146
257.506	74011
257.569	91970
257.631	50330
257.693	26479
257.756	12577
257.818	9968
257.880	6749
257.943	5895
258.005	5373
258.067	4591
258.130	5611
258.192	6364
258.254	13608
258.317	7894
258.379	6386
258.441	17739
258.503	18364
258.566	15955
258.628	22740
258.690	6967
258.753	7076
258.815	14424
258.877	8157
258.939	5973
259.001	4705
259.064	4131
259.126	5196
259.188	7887
259.250	6727
259.312	8575
259.375	23692
259.437	16759
259.499	6219
259.561	5328
259.623	6680
259.685	3900
259.747	6029
259.809	14446
259.872	29421
259.934	40404
259.996	40300
260.058	10910
260.120	6302
260.182	5399
260.244	4617
260.306	3800
260.368	5108
260.430	4287
260.492	7170
260.554	17461
260.616	18709
260.678	24432
260.740	33864
260.802	10361
260.864	8697
260.926	5993
260.988	7110
261.050	5048
261.112	8160
261.174	23023
261.236	24764
261.298	8866
261.359	12139
261.421	18960
261.483	6839
261.545	6614
261.607	3454
261.669	4455
261.731	7820
261.793	21475
261.854	12157
261.916	6886
261.978	5145
262.040	5459
262.102	5360
262.164	8097
262.225	7772
262.287	5790
262.349	14862
262.411	13030
262.472	7114
262.534	8400
262.596	19387
262.658	7621
262.719	4343
262.781	6145
262.843	16888
262.904	9568
262.966	7075
263.028	7347
263.090	30163
263.151	85378
263.213	29635
263.275	15825
263.336	8335
263.398	6065
263.459	4221
263.521	5703
263.583	13718
263.644	11211
263.706	5304
263.767	3597
263.829	3885
263.891	2877
263.952	2980
264.014	1816
264.075	2808
264.137	6607
264.198	6806
264.260	2352
264.321	3255
264.383	7856
264.444	15380
264.506	4502
264.567	4159
264.629	4917
264.690	5978
264.752	5523
264.813	4793
264.875	2615
264.936	3898
264.998	3177
265.059	2696
265.120	3464
265.182	6743
265.243	31350
265.305	36074
265.366	9290
265.427	5266
265.489	5104
265.550	3331
265.611	4453
265.673	4529
265.734	3883
265.795	3561
265.857	2210
265.918	3874
265.979	9452
266.040	53533
266.102	50765
266.163	13741
266.224	10506
266.286	6850
266.347	3879
266.408	4530
266.469	4975
266.530	3713
266.592	3003
266.653	9075
266.714	17174
266.775	6255
266.836	3961
266.898	3282
266.959	4662
267.020	4030
267.081	4255
267.142	3799
267.203	3032
267.264	3002
267.326	4656
267.387	3752
267.448	2762
267.509	3498
267.570	3636
267.631	3182
267.692	2705
267.753	3661
267.814	3318
267.875	7981
267.936	20382
267.997	7845
268.058	7412
268.119	4835
268.180	5103
268.241	4195
268.302	2972
268.363	2870
268.424	4220
268.485	3604
268.546	3093
268.607	2534
268.668	2282
268.729	1705
268.790	2445
268.851	3563
268.912	9885
268.972	15971
269.033	7740
269.094	3624
269.155	2831
269.216	2859
269.277	3510
269.338	3258
269.398	2896
269.459	5472
269.520	5875
269.581	9286
269.642	10882
269.702	7074
269.763	5132
269.824	3683
269.885	5388
269.945	11007
270.006	4173
270.067	3099
270.128	2250
270.188	3232
270.249	2443
270.310	2621
270.370	3602
270.431	3700
270.492	2569
270.553	4260
270.613	8827
270.674	19958
270.734	9084
270.795	5081
270.856	7282
270.916	6397
270.977	3799
271.038	5024
271.098	5525
271.159	9790
271.219	9487
271.280	3882
271.340	3641
271.401	3654
271.462	10154
271.522	7238
271.583	4587
271.643	4436
271.704	4237
271.764	6306
271.825	13381
271.885	46271
271.946	67220
272.006	22402
272.066	26987
272.127	51781
272.187	17183
272.248	9278
272.308	9147
272.369	31925
272.429	19709
272.489	12930
272.550	13748
272.610	14882
272.671	12760
272.731	8392
272.791	14341
272.852	9858
272.912	8242
272.972	5019
273.033	4622
273.093	8462
273.153	7002
273.214	5341
273.274	6275
273.334	18806
273.394	48259
273.455	22052
273.515	17544
273.575	42088
273.635	18949
273.696	20469
273.756	45988
273.816	20418
273.876	11310
273.936	17510
273.997	30859
274.057	10083
274.117	7954
274.177	12157
274.237	53837
274.297	48985
274.358	29799
274.418	37423
274.478	31204
274.538	12758
274.598	8674
274.658	23915
274.718	33235
274.778	14784
274.838	8331
274.898	13202
274.958	42722
275.018	45564
275.078	31093
275.138	13392
275.198	7322
275.258	6483
275.318	6820
275.378	14158
275.438	16333
275.498	10269
275.558	18639
275.618	45996
275.678	35453
275.738	20917
275.798	14118
275.858	6822
275.918	4576
275.978	6252
276.038	6852
276.098	5291
276.157	10791
276.217	35578
276.277	16159
276.337	12240
276.397	6644
276.457	8059
276.517	5301
276.576	4295
276.636	4323
276.696	8031
276.756	18787
276.815	16584
276.875	7178
276.935	6952
276.995	7617
277.055	4435
277.114	5263
277.174	7252
277.234	27756
277.293	13805
277.353	6745
277.413	4884
277.472	5856
277.532	6937
277.592	7931
277.651	23290
277.711	48529
277.771	16971
277.830	52186
277.890	47972
277.950	28187
278.009	83895
278.069	33563
278.128	31064
278.188	48828
278.248	21856
278.307	49432
278.367	32834
278.426	10612
278.486	7842
278.545	5516
278.605	4605
278.664	4810
278.724	7069
278.783	15912
278.843	47425
278.902	15310
278.962	8531
279.021	10687
279.081	10591
279.140	10847
279.199	9984
279.259	8877
279.318	10260
279.378	12610
279.437	24112
279.496	86568
279.556	185364
279.615	156301
279.675	46973
279.734	28379
279.793	41581
279.853	72249
279.912	29680
279.971	14737
280.031	15086
280.090	27222
280.149	54530
280.208	33020
280.268	113476
280.327	135525
280.386	35384
280.445	27463
280.505	27386
280.564	12701
280.623	10256
280.682	16345
280.742	26002
280.801	9095
280.860	7025
280.919	5258
280.978	5076
281.037	4526
281.097	4099
281.156	4359
281.215	4706
281.274	6751
281.333	29230
281.392	25725
281.451	6412
281.510	4645
281.569	5133
281.628	3774
281.688	3549
281.747	4624
281.806	4838
281.865	3856
281.924	3796
281.983	4218
282.042	4094
282.101	3362
282.160	4285
282.219	3427
282.278	4366
282.337	17196
282.396	13332
282.454	5756
282.513	7589
282.572	26813
282.631	17662
282.690	5608
282.749	4560
282.808	6000
282.867	5869
282.926	6103
282.985	4263
283.043	2490
283.102	3779
283.161	4862
283.220	12225
283.279	29651
283.338	10553
283.396	5761
283.455	5666
283.514	5614
283.573	10253
283.631	7330
283.690	5302
283.749	3885
283.808	11868
283.866	15554
283.925	5329
283.984	5594
284.043	6984
284.101	8021
284.160	4642
284.219	6034
284.277	6860
284.336	11364
284.395	36921
284.453	33752
284.512	12668
284.570	15555
284.629	14768
284.688	12125
284.746	13544
284.805	16328
284.863	20855
284.922	25057
284.981	30831
285.039	43611
285.098	77739
285.156	170413
285.215	278981
285.273	277457
285.332	196699
285.390	105467
285.449	65341
285.507	44489
285.566	32348
285.624	23899
285.683	18508
285.741	15111
285.799	12475
285.858	10751
285.916	11431
285.975	8172
286.033	7592
286.091	5535
286.150	5119
286.208	5464
286.267	6470
286.325	6595
286.383	12721
286.442	9607
286.500	5347
286.558	4559
286.616	4787
286.675	6553
286.733	6133
286.791	5323
286.850	6270
286.908	8061
286.966	14646
287.024	6254
287.083	4363
287.141	3584
287.199	4901
287.257	7852
287.315	5738
287.374	5801
287.432	15970
287.490	11177
287.548	5072
287.606	4289
287.664	4460
287.723	6140
287.781	8343
287.839	4937
287.897	5787
287.955	7759
288.013	11761
288.071	26825
288.129	94764
288.187	263061
288.245	130162
288.303	41757
288.361	23587
288.419	17077
288.477	11934
288.535	8716
288.593	6683
288.651	5165
288.709	4111
288.767	4598
288.825	4104
288.883	3422
288.941	3816
288.999	3181
289.057	3399
289.115	2842
289.173	3352
289.231	3007
289.289	3485
289.346	3539
289.404	4074
289.462	8625
289.520	8852
289.578	3230
289.636	2225
289.694	2010
289.751	2342
289.809	1932
289.867	2567
289.925	3700
289.983	5312
290.040	2382
290.098	2288
290.156	4348
290.214	4859
290.271	3110
290.329	2704
290.387	1707
290.444	2106
290.502	569
290.560	924
290.617	1604
290.675	2706
290.733	1449
290.790	3492
290.848	2797
290.906	2809
290.963	2561
291.021	2123
291.078	1340
291.136	3142
291.194	8323
291.251	23019
291.309	7590
291.366	3487
291.424	2693
291.481	3398
291.539	2565
291.596	2629
291.654	1657
291.711	2203
291.769	2018
291.826	8690
291.884	6615
291.941	2952
291.999	3108
292.056	2851
292.114	4060
292.171	2633
292.228	2228
292.286	4559
292.343	8604
292.401	10244
292.458	6177
292.515	3844
292.573	6779
292.630	5539
292.687	4555
292.745	3649
292.802	4175
292.859	9825
292.917	28418
292.974	19497
293.031	5634
293.089	4056
293.146	2767
293.203	3325
293.260	2645
293.318	4671
293.375	3889
293.432	2126
293.489	1498
293.546	2514
293.604	4956
293.661	16487
293.718	48103
293.775	22907
293.832	10888
293.889	8539
293.947	10076
294.004	7133
294.061	7381
294.118	13813
294.175	23556
294.232	14897
294.289	7364
294.346	4675
294.403	4633
294.460	4016
294.517	3880
294.574	3485
294.631	3217
294.688	4770
294.745	12292
294.802	44540
294.859	36661
294.916	16912
294.973	12652
295.030	9980
295.087	7780
295.144	5295
295.201	3724
295.258	3064
295.315	5435
295.372	18886
295.429	40834
295.486	15849
295.542	6984
295.599	7930
295.656	14349
295.713	17563
295.770	35090
295.827	14207
295.883	5964
295.940	5165
295.997	11038
296.054	10366
296.111	5742
296.167	3703
296.224	2189
296.281	3120
296.338	2321
296.394	3290
296.451	4939
296.508	14331
296.564	30859
296.621	19261
296.678	38729
296.734	63141
296.791	20801
296.848	11335
296.904	11423
296.961	27970
297.018	42893
297.074	31047
297.131	11136
297.187	8784
297.244	13062
297.301	39609
297.357	79318
297.414	27800
297.470	10526
297.527	7615
297.583	6069
297.640	6204
297.696	3486
297.753	2747
297.809	3012
297.866	2683
297.922	2125
297.979	2963
298.035	4651
298.092	8447
298.148	24573
298.204	25808
298.261	12481
298.317	17001
298.374	48565
298.430	31656
298.486	13196
298.543	9450
298.599	7517
298.656	10185
298.712	16434
298.768	38616
298.824	27726
298.881	9969
298.937	5662
298.993	4677
299.050	6947
299.106	6088
299.162	4925
299.218	5874
299.275	4793
299.331	5989
299.387	11681
299.443	43924
299.500	53307
299.556	22145
299.612	9608
299.668	8980
299.724	12048
299.780	15316
299.837	8114
299.893	12416
299.949	38685
300.005	51532
300.061	37030
300.117	64502
300.173	32997
300.229	14268
300.285	14791
300.341	19847
300.397	9277
300.453	6528
300.510	5508
300.566	6215
300.622	8372
300.678	25720
300.734	49377
300.790	41271
300.845	49049
300.901	32592
300.957	44640
301.013	35469
301.069	13351
301.125	9873
301.181	9202
301.237	7007
301.293	4063
301.349	4158
301.405	3720
301.461	5423
301.516	5306
301.572	6559
301.628	11630
301.684	11652
301.740	14884
301.796	29327
301.851	18657
301.907	29893
301.963	32879
302.019	47148
302.074	126618
302.130	129998
302.186	58542
302.242	23505
302.297	15790
302.353	15200
302.409	28630
302.464	25887
302.520	20309
302.576	45733
302.631	56332
302.687	32089
302.743	13271
302.798	8100
302.854	5934
302.910	6349
302.965	7408
303.021	13462
303.076	14858
303.132	18438
303.187	23085
303.243	11328
303.299	5752
303.354	5068
303.410	4337
303.465	3642
303.521	3321
303.576	4217
303.632	6396
303.687	12696
303.743	38062
303.798	36226
303.853	13484
303.909	7283
303.964	6615
304.020	10799
304.075	17934
304.130	14829
304.186	26725
304.241	29533
304.297	21746
304.352	11953
304.358	11431
304.407	7204
304.449	7539
304.463	7653
304.518	6760
304.539	6890
304.573	7068
304.629	6031
304.630	6125
304.684	11090
304.720	23421
304.739	29480
304.794	47927
304.811	40960
304.850	23686
304.902	10342
304.905	9527
304.960	6518
304.992	6264
305.015	6074
305.071	4620
305.083	4432
305.126	3803
305.173	3052
305.181	2953
305.236	3213
305.264	3357
305.292	3498
305.347	5172
305.354	5296
305.402	6171
305.445	6608
305.457	6738
305.512	8235
305.535	9107
305.567	10047
305.622	8624
305.626	8948
305.678	19342
305.716	37259
305.733	42713
305.788	53649
305.807	46123
305.843	34415
305.897	43382
305.898	43427
305.953	44602
305.988	29447
306.008	21557
306.063	11389
306.078	10228
306.118	8437
306.168	5974
306.173	5773
306.228	4794
306.259	4139
306.283	3716
306.338	3757
306.349	3670
306.393	3608
306.440	5067
306.448	5242
306.503	5152
306.530	5275
306.558	6775
306.613	12308
306.620	13389
306.668	25817
306.711	44464
306.723	46074
306.778	38876
306.801	29389
306.833	18910
306.888	9123
306.892	8649
306.943	6094
306.982	5451
306.997	5233
307.052	4935
307.072	4518
307.107	4143
307.162	4555
307.163	4557
307.217	5304
307.253	6185
307.272	6647
307.327	6931
307.343	7053
307.381	7333
307.434	8188
307.436	8572
307.491	17678
307.524	26536
307.546	29603
307.600	39988
307.614	37660
307.655	24048
307.704	10708
307.710	10148
307.765	9846
307.795	10440
307.819	11337
307.874	14098
307.885	14275
307.929	14557
307.975	16072
307.984	17415
308.038	27727
308.065	35285
308.093	66625
308.148	140808
308.156	155935
308.202	236599
308.246	298300
308.257	287938
308.312	156181
308.336	105729
308.366	81404
308.421	52698
308.426	49756
308.475	31482
308.517	20163
308.530	18742
308.585	15552
308.607	14585
308.639	13982
308.694	13266
308.697	13261
308.748	15854
308.787	18103
308.803	18083
308.857	17975
308.877	17580
308.912	19126
308.967	22426
308.967	22455
309.021	35016
309.058	45422
309.076	59473
309.130	107987
309.148	126047
309.185	224429
309.238	379576
309.239	380878
309.293	411242
309.328	388447
309.348	335071
309.402	164693
309.418	120945
309.457	86793
309.508	52859
309.511	52327
309.566	48370
309.598	47661
309.620	56594
309.674	82485
309.688	89450
309.729	86328
309.778	74557
309.783	72938
309.837	51166
309.868	40273
309.892	48210
309.946	70691
309.959	77287
310.001	98483
310.049	118230
310.055	113738
310.109	63768
310.139	35457
310.163	27485
310.218	14897
310.229	12726
310.272	10949
310.319	9419
310.326	9158
310.381	7382
310.409	6536
310.435	6275
310.489	5974
310.499	5866
310.543	5322
310.589	5247
310.598	5271
310.652	4955
310.679	5004
310.706	4867
310.760	4180
310.769	4096
310.814	4177
310.859	4269
310.868	4386
310.923	4976
310.948	5166
310.977	5454
311.031	6396
311.038	6474
311.085	6244
311.128	5802
311.139	5674
311.193	5227
311.218	4987
311.247	4896
311.301	4592
311.308	4564
311.356	4392
311.398	4095
311.410	4209
311.464	4812
311.488	4953
311.518	5155
311.572	5849
311.578	5897
311.626	9093
311.668	11989
311.680	11286
311.734	7648
311.758	6035
311.788	5880
311.842	5682
311.847	5648
311.896	7512
311.937	9114
311.950	9131
312.004	9061
312.027	9005
312.058	8001
312.112	6174
312.117	5978
312.165	5391
312.207	4875
312.297	5447
312.386	5784
312.476	7243
312.566	20220
312.656	7910
312.745	4669
312.835	4518
312.925	6340
313.015	4607
313.104	4531
313.194	5701
313.284	7157
313.374	9416
313.463	8650
313.553	6004
313.643	5876
313.732	5836
313.822	4884
313.912	5919
314.001	7853
314.091	6849
314.180	7510
314.270	10657
314.360	10547
314.449	10363
314.539	6572
314.628	5655
314.718	7107
314.808	7645
314.897	6487
314.987	7183
315.076	10586
315.166	12046
315.255	9623
315.345	10716
315.434	9152
315.524	9220
315.613	12507
315.703	17757
315.792	29585
315.881	96780
315.971	33816
316.060	19970
316.150	14772
316.239	12305
316.328	6703
316.418	6434
316.507	8208
316.597	12297
316.686	8727
316.775	9086
316.865	10759
316.954	6687
317.043	6454
317.133	7768
317.222	6775
317.311	6593
317.400	5977
317.490	12094
317.579	14914
317.668	10990
317.757	19546
317.847	47568
317.936	167148
318.025	66076
318.114	37455
318.203	20944
318.293	17140
318.382	29071
318.471	27070
318.560	25353
318.649	29074
318.738	9423
318.828	11485
318.917	12349
319.006	10149
319.095	18170
319.184	46123
319.273	44140
319.362	34038
319.451	10934
319.540	10566
319.629	26980
319.718	45923
319.807	14591
319.896	21645
319.985	62981
320.074	33906
320.163	9047
320.252	9769
320.341	8369
320.430	9003
320.519	20898
320.608	11648
320.697	8940
320.786	9541
320.875	15734
320.964	21271
321.053	33104
321.142	48267
321.230	50114
321.319	32871
321.408	77500
321.497	30263
321.586	31919
321.675	21842
321.764	23190
321.852	17468
321.941	46135
322.030	32788
322.119	28837
322.207	80585
322.296	29052
322.385	21813
322.474	34932
322.562	106372
322.651	48582
322.740	38704
322.829	52413
322.917	24004
323.006	24426
323.095	25662
323.183	12180
323.272	17482
323.361	26292
323.449	41560
323.538	18605
323.626	36275
323.715	24158
323.804	10940
323.892	28946
323.981	28083
324.069	9384
324.158	11505
324.246	13645
324.335	16639
324.424	31232
324.512	9633
324.601	12580
324.689	13547
324.778	15900
324.866	19939
324.954	7297
325.043	8100
325.131	12119
325.220	11787
325.308	14413
325.397	14363
325.485	9974
325.574	7506
325.662	7807
325.750	8702
325.839	7524
325.927	5660
326.015	8383
326.104	6254
326.192	6671
326.280	4626
326.369	5976
326.457	13427
326.545	24758
326.634	9940
326.722	3870
326.810	5632
326.898	6397
326.987	8683
327.075	20607
327.163	13771
327.251	5354
327.340	6357
327.428	7476
327.516	5806
327.604	5469
327.692	5337
327.781	4533
327.869	6236
327.957	6356
328.045	8807
328.133	4462
328.221	4622
328.309	4911
328.397	5879
328.485	8347
328.574	16053
328.662	56082
328.750	22909
328.838	5844
328.926	5744
329.014	4584
329.102	8803
329.190	16968
329.278	15675
329.366	4662
329.454	3379
329.542	4029
329.630	3236
329.718	5050
329.806	8924
329.893	6574
329.981	7417
330.069	16911
330.157	63583
330.245	193737
330.333	97418
330.421	17804
330.509	18361
330.597	66506
330.684	38523
330.772	9088
330.860	6379
330.948	6516
331.036	5662
331.123	2983
331.211	3350
331.299	4614
331.387	7840
331.475	14661
331.562	5001
331.650	4396
331.738	4694
331.825	4219
331.913	3408
332.001	2968
332.089	4870
332.176	5579
332.264	9978
332.352	10784
332.439	6855
332.527	5087
332.614	3974
332.702	3426
332.790	5354
332.877	9954
332.965	14997
333.052	10797
333.140	11377
333.228	29939
333.315	9200
333.403	5614
333.490	8652
333.578	13887
333.665	43844
333.753	20749
333.840	6477
333.928	7019
334.015	10440
334.103	15740
334.190	44389
334.278	18365
334.365	14045
334.452	13778
334.540	9895
334.627	9174
334.715	12562
334.802	20707
334.889	47342
334.977	55968
335.064	23578
335.151	12255
335.239	8826
335.326	10038
335.413	25708
335.501	36420
335.588	11465
335.675	9312
335.762	10855
335.850	15780
335.937	20368
336.024	32166
336.111	69937
336.199	48410
336.286	21136
336.373	10808
336.460	7657
336.547	6590
336.635	8339
336.722	7827
336.809	5819
336.896	9639
336.983	20606
337.070	41076
337.157	50581
337.245	23977
337.332	15144
337.419	5433
337.506	4776
337.593	4455
337.680	9970
337.767	25882
337.854	13477
337.941	12404
338.028	12806
338.115	5213
338.202	6211
338.289	9456
338.376	27028
338.463	11465
338.550	14528
338.637	16489
338.724	6010
338.811	6827
338.898	3480
338.984	3066
339.071	4949
339.158	8134
339.245	26047
339.332	13723
339.419	9422
339.506	7530
339.593	2822
339.679	5993
339.766	5277
339.853	7469
339.940	24609
340.027	6553
340.113	7706
340.200	11373
340.287	7390
340.374	10473
340.460	19247
340.547	6088
340.634	16346
340.720	63054
340.807	36646
340.894	5725
340.980	6043
341.067	5577
341.154	6664
341.240	12073
341.327	32135
341.414	8382
341.500	5620
341.587	5986
341.674	6018
341.760	20874
341.847	25203
341.933	8157
342.020	2836
342.106	3845
342.193	7766
342.279	16162
342.366	11295
342.452	21781
342.539	12736
342.625	28684
342.712	71301
342.798	28272
342.885	10534
342.971	3412
343.058	3588
343.144	4225
343.230	4997
343.317	4917
343.403	5128
343.490	3522
343.576	4041
343.662	5267
343.749	6222
343.835	9446
343.921	21085
344.008	121317
344.094	276532
344.180	60391
344.267	23977
344.353	74226
344.439	69641
344.525	31328
344.612	11557
344.698	9631
344.784	7141
344.870	4494
344.957	5587
345.043	11544
345.129	9274
345.215	20404
345.301	9074
345.387	3988
345.474	3665
345.560	2550
345.646	3267
345.732	3762
345.818	5429
345.904	5578
345.990	7419
346.076	5283
346.162	4997
346.249	4785
346.335	4419
346.421	7800
346.507	31384
346.593	113481
346.679	25214
346.765	6532
346.851	7917
346.937	6690
347.023	5437
347.108	8038
347.194	6365
347.280	5339
347.366	10132
347.452	36019
347.538	139768
347.624	97900
347.710	71476
347.796	9116
347.882	5106
347.967	3533
348.053	3750
348.139	3701
348.225	4159
348.311	5356
348.397	4450
348.482	7603
348.568	9935
348.654	5599
348.740	12953
348.825	14983
348.911	16344
348.997	59660
349.083	115098
349.168	17127
349.254	5943
349.340	4535
349.425	4540
349.511	9209
349.597	9154
349.682	23753
349.768	81393
349.854	36414
349.939	5677
350.025	4300
350.110	4843
350.196	3095
350.282	2690
350.367	3281
350.453	5626
350.538	5678
350.624	7777
350.709	6839
350.795	4328
350.880	4872
350.966	5502
351.051	6328
351.137	4254
351.222	6164
351.308	25558
351.393	71599
351.479	15336
351.564	3898
351.649	5667
351.735	4339
351.820	3679
351.906	4494
351.991	8138
352.076	44267
352.162	66887
352.247	12599
352.332	9426
352.418	15219
352.503	20315
352.588	102756
352.673	82085
352.759	17174
352.844	8868
352.929	9787
353.014	13513
353.100	11233
353.185	30199
353.270	31508
353.355	24427
353.441	7241
353.526	6391
353.611	21808
353.696	25664
353.781	14868
353.866	6488
353.952	7813
354.037	22258
354.122	51874
354.207	45472
354.292	16197
354.377	7369
354.462	5747
354.547	9595
354.632	9302
354.717	17391
354.802	35389
354.887	11680
354.972	5576
355.057	5047
355.142	4126
355.227	8569
355.312	14737
355.397	35244
355.482	80554
355.567	37978
355.652	26806
355.737	30797
355.822	93284
355.907	73009
355.991	11319
356.076	6172
356.161	5328
356.246	4910
356.331	7560
356.416	20929
356.501	141342
356.585	142865
356.670	19633
356.755	15001
356.840	24762
356.924	117669
357.009	356173
357.094	124934
357.179	28653
357.263	18599
357.348	16734
357.433	15432
357.517	15353
357.602	12950
357.687	10961
357.771	23738
357.856	57771
357.941	36801
358.025	77730
358.110	328858
358.195	149561
358.279	26504
358.364	18699
358.448	66196
358.533	177557
358.617	128392
358.702	124586
358.787	43409
358.871	25301
358.956	21131
359.040	7233
359.125	5809
359.209	6893
359.294	25702
359.378	43365
359.462	22759
359.547	10610
359.631	5374
359.716	4842
359.800	4763
359.885	8087
359.969	7198
360.053	6937
360.138	6613
360.222	12316
360.306	24512
360.391	18446
360.475	33426
360.559	73591
360.644	66245
360.728	48294
360.812	79456
360.896	212695
360.981	80497
361.065	40361
361.149	12030
361.233	11853
361.318	9201
361.402	11605
361.486	10272
361.570	8034
361.654	12174
361.739	32910
361.823	140663
361.907	206641
361.991	36623
362.075	24723
362.159	53482
362.243	40100
362.327	47745
362.411	58234
362.495	27480
362.580	14615
362.664	10752
362.748	11801
362.832	19310
362.916	36314
363.000	108588
363.084	238749
363.168	269673
363.252	64098
363.336	23210
363.420	23844
363.503	41834
363.587	43659
363.671	16954
363.755	16074
363.839	24240
363.923	13743
364.007	29012
364.091	30774
364.175	29771
364.258	90283
364.342	131203
364.426	217841
364.510	114629
364.594	43474
364.677	46150
364.761	189911
364.845	129874
364.929	45600
365.013	36932
365.096	29371
365.180	33000
365.264	18938
365.347	58001
365.431	24892
365.515	10185
365.598	8615
365.682	7822
365.766	6518
365.849	7773
365.933	9129
366.017	9491
366.100	4196
366.184	2994
366.267	5599
366.351	6441
366.435	5630
366.518	4056
366.602	4819
366.685	6527
366.769	7125
366.852	9262
366.936	20528
367.019	16519
367.103	6109
367.186	8357
367.270	4641
367.353	3998
367.436	6075
367.520	6125
367.603	9794
367.687	16405
367.770	29670
367.853	17518
367.937	57730
368.020	94670
368.104	22073
368.187	21470
368.270	30353
368.353	26644
368.437	20975
368.520	19850
368.603	27746
368.687	66142
368.770	124774
368.853	27747
368.936	21446
369.020	16316
369.103	8805
369.186	5234
369.269	6663
369.352	17521
369.436	24585
369.519	14977
369.602	6188
369.685	8695
369.768	8268
369.851	7203
369.934	5222
370.018	8235
370.101	23068
370.184	16588
370.267	9408
370.350	18594
370.433	30171
370.516	100226
370.599	133785
370.682	43404
370.765	67563
370.848	81061
370.931	151233
371.014	49269
371.097	11012
371.180	8783
371.263	5746
371.346	3933
371.429	5496
371.511	6127
371.594	12910
371.677	18180
371.760	14508
371.843	23196
371.926	119234
372.009	273401
372.091	82394
372.174	56105
372.257	137876
372.340	49421
372.423	25490
372.505	20690
372.588	12380
372.671	44609
372.754	150992
372.836	68271
372.919	20740
373.002	32357
373.085	18410
373.167	24558
373.250	65316
373.332	144040
373.415	178772
373.498	365099
373.580	131484
373.663	196099
373.746	250631
373.828	55546
373.911	21005
373.993	15960
374.076	31312
374.159	29644
374.241	34388
374.324	128895
374.406	80072
374.489	107900
374.571	306093
374.654	120938
374.736	57762
374.819	183826
374.901	259186
374.983	259857
375.066	45122
375.148	13743
375.231	27873
375.313	49674
375.395	25473
375.478	9878
375.560	8993
375.643	13371
375.725	52063
375.807	226184
375.890	135281
375.972	30436
376.054	23041
376.136	16338
376.219	13315
376.301	64791
376.383	200569
376.465	72199
376.548	47849
376.630	57666
376.712	173569
376.794	73788
376.877	10523
376.959	5708
377.041	7385
377.123	6599
377.205	6131
377.287	3316
377.369	5164
377.452	7263
377.534	5812
377.616	6206
377.698	6165
377.780	4876
377.862	6944
377.944	6684
378.026	3702
378.108	5407
378.190	3964
378.272	4575
378.354	3567
378.436	2800
378.518	7467
378.600	22402
378.682	29874
378.764	92902
378.846	67594
378.928	17737
379.010	27886
379.091	14882
379.173	6592
379.255	6245
379.337	10719
379.419	41391
379.501	126995
379.583	45481
379.664	12623
379.746	31200
379.828	89117
379.910	120938
379.991	102787
380.073	16986
380.155	10867
380.237	8641
380.318	5319
380.400	6890
380.482	18411
380.564	29458
380.645	37493
380.727	33302
380.809	15781
380.890	10939
380.972	9300
381.053	8480
381.135	10928
381.217	30560
381.298	92387
381.380	42471
381.461	34773
381.543	167414
381.624	201493
381.706	36062
381.787	16994
381.869	19056
381.951	73014
382.032	278975
382.113	166184
382.195	34914
382.276	26555
382.358	65778
382.439	163326
382.521	168620
382.602	259280
382.684	118805
382.765	220577
382.846	247898
382.928	362806
383.009	198915
383.090	152238
383.172	521632
383.253	724968
383.334	254064
383.416	256031
383.497	131546
383.578	70109
383.659	131556
383.741	457689
383.822	1046246
383.903	524059
383.984	198491
384.066	301051
384.147	181061
384.228	41077
384.309	31830
384.390	25717
384.471	18926
384.553	18212
384.634	24109
384.715	25578
384.796	14163
384.877	20041
384.958	85253
385.039	102394
385.120	36237
385.201	15888
385.282	16713
385.363	14704
385.444	16736
385.525	32312
385.606	119564
385.687	101994
385.768	22021
385.849	26744
385.930	131271
386.011	223403
386.092	58240
386.173	16353
386.254	10368
386.335	10869
386.416	13069
386.496	52895
386.577	87702
386.658	26895
386.739	16006
386.820	12066
386.901	9575
386.981	11460
387.062	11812
387.143	24538
387.224	91337
387.304	77712
387.385	26081
387.466	13529
387.547	15622
387.627	15109
387.708	35134
387.789	154321
387.869	188713
387.950	48647
388.031	11080
388.111	7882
388.192	12479
388.273	17124
388.353	14524
388.434	12319
388.514	29658
388.595	140505
388.676	180911
388.756	85335
388.837	83243
388.917	49424
388.998	8680
389.078	10155
389.159	9166
389.239	8567
389.320	16365
389.400	13117
389.480	30216
389.561	91632
389.641	42853
389.722	15172
389.802	26290
389.883	37098
389.963	109139
390.043	54789
390.124	11919
390.204	27241
390.284	100903
390.365	58046
390.445	36117
390.525	124236
390.605	126703
390.686	50224
390.766	18606
390.846	11215
390.927	6445
391.007	6930
391.087	9925
391.167	11366
391.247	8520
391.328	9342
391.408	11035
391.488	9385
391.568	6999
391.648	13936
391.728	20104
391.808	18884
391.888	21210
391.969	52775
392.049	85985
392.129	31068
392.209	39621
392.289	109280
392.369	52530
392.449	22716
392.529	22031
392.609	27347
392.689	37500
392.769	114199
392.849	95623
392.929	63890
393.009	147631
393.089	142514
393.169	159232
393.248	450850
393.328	1266190
393.408	1288846
393.488	459784
393.568	155058
393.648	77381
393.728	48574
393.807	35036
393.887	28901
393.967	24525
394.047	26242
394.127	30333
394.206	42824
394.286	136926
394.366	581496
394.446	609603
394.525	144327
394.605	39807
394.685	25945
394.764	31369
394.844	44672
394.924	41555
395.003	24016
395.083	18851
395.163	16027
395.242	15013
395.322	16307
395.402	11668
395.481	15179
395.561	24673
395.640	65263
395.720	78108
395.799	62281
395.879	48257
395.958	56616
396.038	196807
396.117	750976
396.197	800106
396.276	230806
396.356	74870
396.435	50691
396.515	48267
396.594	69546
396.673	133887
396.753	439128
396.832	1150782
396.912	872203
396.991	246344
397.070	76639
397.150	42494
397.229	31259
397.308	44289
397.388	76524
397.467	38286
397.546	16655
397.625	11849
397.705	16203
397.784	17467
397.863	11084
397.942	7365
398.022	6698
398.101	12239
398.180	30152
398.259	16186
398.338	9143
398.417	9201
398.497	6422
398.576	7899
398.655	5221
398.734	6307
398.813	4766
398.892	10222
398.971	31934
399.050	16083
399.129	3477
399.208	3380
399.287	4079
399.366	2756
399.445	3738
399.524	4001
399.603	4044
399.682	11605
399.761	23222
399.840	41154
399.919	26862
399.998	5633
400.077	2393
400.156	3146
400.235	5557
400.313	2655
400.392	5773
400.471	45976
400.550	74544
400.629	17580
400.708	7016
400.786	3134
400.865	6524
400.944	8987
401.023	8255
401.102	2260
401.180	2023
401.259	2149
401.338	3325
401.416	6810
401.495	5904
401.574	4213
401.652	3038
401.731	7432
401.810	9268
401.888	4695
401.967	2045
402.046	4877
402.124	6666
402.203	8198
402.281	5770
402.360	5676
402.438	10021
402.517	6415
402.596	2947
402.674	2948
402.753	2276
402.831	3845
402.910	7469
402.988	41823
403.066	159840
403.145	86252
403.223	47274
403.302	140649
403.380	101153
403.459	108355
403.537	37794
403.615	11378
403.694	3368
403.772	3282
403.850	3530
403.929	3054
404.007	4484
404.085	19965
404.164	26932
404.242	7666
404.320	7650
404.398	19964
404.477	47510
404.555	210893
404.633	174848
404.711	27874
404.789	10942
404.868	10380
404.946	5654
405.024	2696
405.102	2718
405.180	2422
405.258	1802
405.336	3260
405.415	3080
405.493	10343
405.571	14177
405.649	4275
405.727	2443
405.805	6000
405.883	8111
405.961	6989
406.039	2630
406.117	2939
406.195	10585
406.273	48306
406.351	184289
406.429	97337
406.507	10420
406.585	3729
406.663	6815
406.740	9461
406.818	6805
406.896	2995
406.974	5831
407.052	15371
407.130	108253
407.208	148552
407.285	26058
407.363	5358
407.441	4823
407.519	4488
407.596	4609
407.674	13627
407.752	33853
407.830	26701
407.907	12709
407.985	8307
408.063	2577
408.141	2379
408.218	4825
408.296	8459
408.373	10603
408.451	8038
408.529	7075
408.606	3649
408.684	1823
408.762	2043
408.839	1699
408.917	2390
408.994	2262
409.072	2980
409.149	3910
409.227	8035
409.304	10752
409.382	10597
409.459	11852
409.537	17799
409.614	17407
409.692	12501
409.769	11739
409.846	18287
409.924	22357
410.001	16277
410.079	11581
410.156	9346
410.233	8631
410.311	6725
410.388	5364
410.465	5683
410.543	4763
410.620	4382
410.697	5630
410.775	7382
410.852	3677
410.929	6230
411.006	8283
411.083	5022
411.161	7312
411.238	8072
411.315	4551
411.392	3432
411.469	6361
411.547	4271
411.624	1603
411.701	3377
411.778	5619
411.855	14408
411.932	6713
412.009	2469
412.086	2467
412.163	3209
412.240	3253
412.317	3853
412.394	2524
412.471	2174
412.548	1112
412.625	2563
412.702	3802
412.779	8044
412.856	4809
412.933	702
413.010	2400
413.087	6535
413.164	42604
413.241	58229
413.318	13186
413.395	7455
413.471	11607
413.548	5006
413.625	2865
413.702	3515
413.779	2566
413.855	485
413.932	73
414.009	889
414.086	1570
414.162	2946
414.239	6400
414.316	40192
414.393	94245
414.469	30625
414.546	3077
414.623	1841
414.699	2661
414.776	4143
414.853	1987
414.929	2694
415.006	1912
415.082	1644
415.159	1753
415.236	2537
415.312	3753
415.389	9435
415.465	12773
415.542	6089
415.618	3535
415.695	8378
415.771	4626
415.848	4556
415.924	3148
416.000	1125
416.077	2196
416.153	-174
416.230	-194
416.306	-97
416.383	527
416.459	1519
416.535	1167
416.612	1304
416.688	902
416.764	1710
416.841	852
416.917	1956
416.993	2732
417.069	2869
417.146	5325
417.222	7657
417.298	4121
417.374	2266
417.451	3658
417.527	5340
417.603	7205
417.679	3990
417.755	3589
417.831	1009
417.908	1744
417.984	510
418.060	1470
418.136	10850
418.212	14921
418.288	4614
418.364	1856
418.440	2420
418.516	5711
418.592	4147
418.668	15557
418.744	28466
418.820	20050
418.896	4290
418.972	1463
419.048	2566
419.124	12896
419.200	9296
419.276	2628
419.352	375
419.428	1360
419.504	3703
419.579	4845
419.655	4112
419.731	4144
419.807	19279
419.883	35132
419.959	23519
420.034	5745
420.110	13218
420.186	60782
420.262	44038
420.337	6882
420.413	5826
420.489	3354
420.565	2908
420.640	3102
420.716	4073
420.792	1831
420.867	3986
420.943	3279
421.019	9524
421.094	7243
421.170	4470
421.245	2639
421.321	4495
421.397	5032
421.472	9177
421.548	19269
421.623	17396
421.699	9227
421.774	10805
421.850	9740
421.925	16362
422.001	15751
422.076	13633
422.152	18471
422.227	29251
422.302	36221
422.378	52950
422.453	99158
422.529	234051
422.604	582817
422.679	800456
422.755	594476
422.830	251564
422.905	102860
422.981	57753
423.056	36855
423.131	27445
423.207	20243
423.282	18593
423.357	27031
423.432	19769
423.508	19521
423.583	37110
423.658	24599
423.733	9656
423.808	9224
423.883	12451
423.959	11109
424.034	10340
424.109	8316
424.184	5553
424.259	3756
424.334	3541
424.409	3676
424.484	4026
424.559	4573
424.634	3356
424.709	6248
424.784	7636
424.859	4897
424.934	8965
425.009	41909
425.084	69451
425.159	22455
425.234	4254
425.309	2269
425.384	11840
425.459	19117
425.534	5595
425.609	1340
425.683	1417
425.758	1996
425.833	2663
425.908	4697
425.983	24742
426.058	71104
426.132	27137
426.207	3803
426.282	3147
426.357	2021
426.431	1654
426.506	2144
426.581	2298
426.655	2418
426.730	2197
426.805	2173
426.879	2982
426.954	2589
427.029	10488
427.103	63636
427.178	158111
427.253	62267
427.327	6319
427.402	5836
427.476	16354
427.551	8845
427.625	2537
427.700	2134
427.774	1481
427.849	2352
427.923	1060
427.998	1381
428.072	3912
428.147	11256
428.221	62556
428.296	195693
428.370	96656
428.444	10656
428.519	4661
428.593	5625
428.667	5202
428.742	7333
428.816	17715
428.890	105672
428.965	176020
429.039	41752
429.113	8864
429.188	3969
429.262	3060
429.336	8265
429.410	31071
429.485	17058
429.559	6005
429.633	3565
429.707	3803
429.781	14803
429.855	103280
429.930	163986
430.004	45839
430.078	31323
430.152	61055
430.226	243190
430.300	234091
430.374	36957
430.448	9915
430.522	12243
430.596	28600
430.670	39388
430.744	199887
430.818	264962
430.892	48877
430.966	8446
431.040	3547
431.114	711
431.188	911
431.262	675
431.336	1892
431.410	4077
431.484	12378
431.557	11372
431.631	3485
431.705	6204
431.779	38950
431.853	174330
431.927	110895
432.000	12173
432.074	3246
432.148	1881
432.222	802
432.295	1196
432.369	1593
432.443	6319
432.516	56480
432.590	150148
432.664	48358
432.737	5363
432.811	944
432.885	805
432.958	642
433.032	133
433.106	-282
433.179	355
433.253	181
433.326	-187
433.400	-829
433.473	-120
433.547	-692
433.620	1538
433.694	6477
433.767	4989
433.841	384
433.914	499
433.988	243
434.061	796
434.134	95
434.208	-164
434.281	-32
434.355	698
434.428	1197
434.501	772
434.575	232
434.648	220
434.721	-466
434.795	-644
434.868	107
434.941	-426
435.014	451
435.088	1670
435.161	3708
435.234	7280
435.307	8676
435.381	3998
435.454	5199
435.527	7703
435.600	7851
435.673	6495
435.746	4131
435.819	3536
435.892	3071
435.966	1318
436.039	680
436.112	985
436.185	579
436.258	372
436.331	-195
436.404	-199
436.477	88
436.550	133
436.623	-34
436.696	240
436.769	1469
436.842	1314
436.915	1095
436.987	2611
437.060	1042
437.133	-200
437.206	-842
437.279	705
437.352	249
437.425	140
437.498	2275
437.570	8084
437.643	7607
437.716	1159
437.789	326
437.861	3311
437.934	8807
438.007	3495
438.080	1255
438.152	2577
438.225	9912
438.298	78021
438.370	206527
438.443	73215
438.516	12294
438.588	2511
438.661	533
438.734	1128
438.806	1694
438.879	2738
438.951	3120
439.024	4451
439.096	1769
439.169	938
439.241	-258
439.314	-211
439.386	501
439.459	1407
439.531	2725
439.604	198
439.676	145
439.749	-409
439.821	518
439.893	-15
439.966	627
440.038	930
440.110	1572
440.183	997
440.255	1195
440.327	4027
440.400	28104
440.472	129708
440.544	79579
440.617	8338
440.689	5236
440.761	5961
440.833	8576
440.905	4515
440.978	414
441.050	276
441.122	905
441.194	-276
441.266	1289
441.338	961
441.411	5787
441.483	44057
441.555	61897
441.627	10615
441.699	2748
441.771	1307
441.843	930
441.915	1424
441.987	706
442.059	616
442.131	1883
442.203	3719
442.275	5307
442.347	7113
442.419	16263
442.491	88656
442.563	207744
442.635	69443
442.706	19641
442.778	14135
442.850	3916
442.922	2977
442.994	3756
443.066	6017
443.137	5055
443.209	5441
443.281	10488
443.353	25561
443.425	108706
443.496	373729
443.568	336762
443.640	111045
443.711	20638
443.783	8324
443.855	4472
443.926	3291
443.998	2413
444.070	2884
444.141	2656
444.213	6463
444.285	10096
444.356	5446
444.428	3542
444.499	1361
444.571	1960
444.642	1842
444.714	3151
444.785	7196
444.857	5710
444.928	5117
445.000	4042
445.071	6456
445.143	10388
445.214	13086
445.285	19668
445.357	53623
445.428	236444
445.500	496750
445.571	292952
445.642	156601
445.714	42786
445.785	18033
445.856	11055
445.928	11203
445.999	7108
446.070	4842
446.141	7873
446.213	10761
446.284	4523
446.355	1913
446.426	1577
446.497	2179
446.569	2545
446.640	6847
446.711	7244
446.782	963
446.853	1333
446.924	2658
446.995	2597
447.066	1779
447.138	1352
447.209	1248
447.280	243
447.351	300
447.422	-249
447.493	348
447.564	2702
447.635	7032
447.706	2435
447.777	14
447.847	414
447.918	-227
447.989	475
448.060	1911
448.131	1475
448.202	5165
448.273	6498
448.344	829
448.414	1913
448.485	1103
448.556	1195
448.627	139
448.698	1371
448.768	-162
448.839	-537
448.910	1441
448.981	2348
449.051	1706
449.122	937
449.193	224
449.263	-522
449.334	53
449.405	2263
449.475	9083
449.546	4536
449.616	2420
449.687	1611
449.758	933
449.828	578
449.899	693
449.969	771
450.040	144
450.110	601
450.181	545
450.251	13
450.322	566
450.392	409
450.463	299
450.533	-369
450.604	-20
450.674	3
450.744	805
450.815	1001
450.885	827
450.955	474
451.026	-174
451.096	214
451.166	1126
451.237	1113
451.307	3252
451.377	1947
451.447	-409
451.518	489
451.588	-43
451.658	1087
451.728	833
451.799	3290
451.869	3228
451.939	-91
452.009	-577
452.079	748
452.149	316
452.219	763
452.289	3591
452.360	2540
452.430	1925
452.500	2254
452.570	4292
452.640	6944
452.710	16729
452.780	19150
452.850	20043
452.920	19118
452.990	5279
453.060	2334
453.129	3167
453.199	3541
453.269	5093
453.339	9320
453.409	13594
453.479	15225
453.549	19974
453.619	20119
453.688	5092
453.758	751
453.828	334
453.898	-7
453.968	-295
454.037	-146
454.087	89
454.107	180
454.168	-234
454.177	-305
454.247	-230
454.249	-222
454.316	-219
454.330	-168
454.386	-20
454.411	556
454.456	1492
454.492	2050
454.525	2547
454.574	1209
454.595	627
454.655	344
454.665	284
454.734	885
454.736	914
454.804	1905
454.817	2199
454.873	3299
454.898	3299
454.943	3325
454.979	1912
455.013	604
455.060	153
455.082	-44
455.141	168
455.152	208
455.221	2799
455.222	2850
455.291	6615
455.303	7467
455.360	10592
455.384	17345
455.430	29251
455.465	20556
455.499	12370
455.546	6154
455.569	3388
455.627	2911
455.638	2777
455.707	357
455.708	364
455.777	63
455.789	-9
455.846	-414
455.869	-192
455.916	287
455.950	479
455.985	580
456.031	-191
456.054	-574
456.112	66
456.124	191
456.193	87
456.193	76
456.262	373
456.274	231
456.332	-347
456.355	-143
456.401	277
456.436	340
456.470	332
456.516	546
456.540	661
456.597	530
456.609	478
456.678	539
456.678	532
456.747	474
456.759	357
456.817	13
456.840	151
456.886	166
456.920	203
456.955	285
457.001	-135
457.024	-299
457.082	589
457.093	720
457.162	318
457.163	327
457.232	913
457.243	879
457.301	497
457.324	440
457.370	365
457.405	426
457.439	545
457.485	872
457.508	1051
457.566	1730
457.577	1874
457.646	2415
457.647	2426
457.715	4161
457.727	4940
457.784	9670
457.808	13745
457.853	19671
457.889	23463
457.922	24768
457.969	15539
457.991	13809
458.050	15818
458.060	16167
458.129	30964
458.130	31358
458.198	40384
458.211	36133
458.267	17308
458.292	12270
458.336	7082
458.372	6301
458.405	7459
458.453	10817
458.474	13697
458.533	27224
458.543	28569
458.611	57156
458.614	57176
458.680	39408
458.694	32019
458.749	11779
458.775	8339
458.818	4480
458.855	3338
458.887	2451
458.936	1563
458.955	1371
459.016	1546
459.024	1535
459.093	1299
459.097	1322
459.162	1924
459.177	1868
459.230	1767
459.257	2524
459.299	3341
459.338	2515
459.368	1882
459.418	2091
459.437	2113
459.499	1385
459.505	1335
459.574	1505
459.579	1511
459.643	1594
459.659	1707
459.711	1862
459.740	1355
459.780	897
459.820	1319
459.849	1343
459.900	948
459.917	1087
459.981	2047
459.986	2042
460.054	1482
460.061	1448
460.123	1474
460.141	1639
460.191	2697
460.222	3392
460.260	3897
460.302	4630
460.328	4497
460.382	3064
460.397	2919
460.462	1841
460.465	1805
460.534	2411
460.543	2482
460.602	8420
460.623	10760
460.671	16641
460.703	24071
460.739	25396
460.783	21319
460.808	17822
460.864	4028
460.876	2615
460.944	1342
460.945	1334
461.013	1906
461.024	1962
461.081	2058
461.104	2414
461.150	2550
461.184	2173
461.218	2119
461.264	1919
461.286	1791
461.345	1903
461.355	1807
461.423	1236
461.425	1200
461.491	872
461.505	968
461.559	1833
461.585	2220
461.628	2565
461.665	3055
461.696	3441
461.745	4314
461.764	4203
461.825	2050
461.832	1958
461.901	2395
461.905	2399
461.969	1114
461.985	981
462.037	2244
462.065	2391
462.105	1374
462.145	1027
462.173	1537
462.225	2312
462.241	2411
462.305	2635
462.310	2597
462.378	2135
462.385	2037
462.446	2013
462.465	2121
462.514	2098
462.545	2137
462.582	1954
462.625	1562
462.650	1627
462.705	1688
462.718	1546
462.785	1216
462.786	1232
462.854	1662
462.865	1754
462.922	1836
462.945	1965
462.990	2124
463.025	2178
463.058	1893
463.104	1274
463.126	1279
463.184	1627
463.194	1687
463.262	1767
463.264	1782
463.330	1606
463.344	1520
463.398	2412
463.424	2687
463.466	1950
463.504	1711
463.533	2230
463.583	2692
463.601	2602
463.663	2313
463.669	2358
463.737	3184
463.743	3244
463.805	3479
463.823	3539
463.873	3671
463.903	3690
463.940	3925
463.982	4275
464.008	3741
464.062	2402
464.076	2360
464.142	1966
464.144	1960
464.211	2021
464.221	2010
464.279	2642
464.301	2922
464.347	2517
464.381	2212
464.414	2536
464.461	2848
464.482	2914
464.540	3197
464.550	3225
464.617	3493
464.620	3492
464.685	3958
464.699	4091
464.753	5467
464.779	6105
464.820	6259
464.859	6387
464.888	5788
464.938	4678
464.956	4830
465.018	5436
465.023	5450
465.091	5282
465.098	5292
465.158	4264
465.177	3856
465.226	4353
465.257	4721
465.293	4734
465.336	4706
465.361	5248
465.416	6545
465.428	6552
465.495	6767
465.496	6772
465.563	5852
465.575	5752
465.631	6972
465.654	7509
465.698	6368
465.734	5147
465.765	4706
465.813	4259
465.833	4342
465.893	4586
465.900	4537
465.968	4034
465.972	3988
466.035	4127
466.052	4150
466.102	4343
466.131	4483
466.170	4902
466.210	5364
466.237	5126
466.290	4454
466.304	4681
466.369	5783
466.372	5787
466.439	5601
466.449	5561
466.506	6169
466.528	6390
466.573	7044
466.607	7524
466.641	9059
466.687	11166
466.708	11860
466.766	13814
466.775	13332
466.842	9483
466.845	9286
466.909	7967
466.925	7651
466.977	6996
467.004	6663
467.044	7159
467.083	7627
467.111	8154
467.163	9122
467.178	9384
467.242	10426
467.245	10395
467.312	9444
467.321	9305
467.379	8430
467.400	8091
467.446	8135
467.480	8145
467.559	7521
467.638	7295
467.717	6785
467.796	8652
467.875	9520
467.955	7399
468.034	8091
468.113	10046
468.192	11637
468.271	7980
468.350	9208
468.429	10942
468.508	10940
468.588	8346
468.667	6226
468.746	6855
468.825	5399
468.904	5927
468.983	6043
469.062	6945
469.141	8832
469.220	5586
469.299	5733
469.378	6070
469.456	9422
469.535	7437
469.614	6395
469.693	6430
469.772	6987
469.851	8474
469.930	6908
470.009	7627
470.088	7758
470.166	9759
470.245	14578
470.324	18004
470.403	11468
470.482	8019
470.560	7225
470.639	7685
470.718	9030
470.797	6346
470.875	6563
470.954	8843
471.033	7926
471.111	5554
471.190	4580
471.269	4690
471.347	4389
471.426	5996
471.505	5414
471.583	8255
471.662	6912
471.740	5826
471.819	5490
471.898	5143
471.976	6197
472.055	5984
472.133	5763
472.212	6403
472.290	5225
472.369	5263
472.447	4961
472.526	4679
472.604	6756
472.683	6429
472.761	6798
472.839	7075
472.918	5181
472.996	4600
473.075	5395
473.153	5310
473.231	4244
473.310	5800
473.388	6450
473.466	5010
473.545	7381
473.623	11473
473.701	10829
473.780	7220
473.858	5056
473.936	7700
474.014	5905
474.093	6426
474.171	6484
474.249	6480
474.327	5139
474.405	4152
474.484	5213
474.562	5301
474.640	5052
474.718	5428
474.796	6014
474.874	6053
474.952	4740
475.030	4873
475.108	5294
475.187	6986
475.265	7273
475.343	14707
475.421	16853
475.499	5849
475.577	4521
475.655	6091
475.733	5991
475.811	7090
475.889	7052
475.966	7207
476.044	5431
476.122	8594
476.200	13411
476.278	10358
476.356	4066
476.434	4723
476.512	8053
476.590	12321
476.667	10048
476.745	4457
476.823	4901
476.901	3736
476.979	3484
477.056	4591
477.134	3871
477.212	5134
477.290	4532
477.367	4254
477.445	3516
477.523	3579
477.601	2663
477.678	4430
477.756	3645
477.834	4804
477.911	3234
477.989	4281
478.066	3892
478.144	4542
478.222	7893
478.299	17967
478.377	17607
478.454	4072
478.532	2558
478.609	3646
478.687	5107
478.764	3624
478.842	4523
478.919	5438
478.997	4515
479.074	3291
479.152	3350
479.229	3951
479.307	2709
479.384	3494
479.461	2950
479.539	2543
479.616	2870
479.694	2604
479.771	4126
479.848	4016
479.926	2330
480.003	5711
480.080	3893
480.157	3827
480.235	2537
480.312	3113
480.389	3333
480.467	3086
480.544	4409
480.621	3483
480.698	3653
480.775	4162
480.853	3352
480.930	3984
481.007	3588
481.084	3640
481.161	3181
481.238	3542
481.315	2102
481.392	2952
481.470	2673
481.547	2612
481.624	2618
481.701	3047
481.778	2359
481.855	3381
481.932	3832
482.009	4990
482.086	4716
482.163	5195
482.240	10040
482.317	25282
482.393	20291
482.470	4363
482.547	3759
482.624	2423
482.701	3396
482.778	3076
482.855	2999
482.932	3010
483.009	3208
483.085	3913
483.162	4105
483.239	5070
483.316	3730
483.393	4770
483.469	3759
483.546	3693
483.623	4081
483.699	3267
483.776	2693
483.853	3227
483.930	4224
484.006	7042
484.083	11298
484.160	17065
484.236	30675
484.313	23822
484.389	16417
484.466	16655
484.543	14468
484.619	15528
484.696	16342
484.772	14580
484.849	13623
484.925	14396
485.002	13077
485.078	12943
485.155	12217
485.231	11877
485.308	12091
485.384	11778
485.461	12324
485.537	14034
485.614	14795
485.690	12523
485.766	11123
485.843	12087
485.919	19583
485.995	21026
486.072	11150
486.148	10368
486.224	9860
486.301	10227
486.377	11171
486.453	11056
486.530	11509
486.606	17760
486.682	18949
486.758	16984
486.835	16453
486.911	14852
486.987	19108
487.063	35181
487.139	54687
487.215	38659
487.292	18705
487.368	13555
487.444	14547
487.520	17454
487.596	19658
487.672	32769
487.748	94505
487.824	159057
487.900	64422
487.976	19727
488.052	13571
488.128	16028
488.204	13480
488.280	11659
488.356	11597
488.432	13785
488.508	16577
488.584	13013
488.660	11164
488.736	11764
488.812	11765
488.888	17239
488.964	21456
489.039	49368
489.115	82000
489.191	51141
489.267	11585
489.343	10302
489.418	8253
489.494	9449
489.570	6483
489.646	9972
489.722	8434
489.797	7798
489.873	8341
489.949	12294
490.024	12709
490.100	8563
490.176	7468
490.251	11952
490.327	16837
490.403	10415
490.478	8570
490.554	7897
490.629	7602
490.705	7137
490.781	8411
490.856	7117
490.932	8981
491.007	9724
491.083	8864
491.158	7206
491.234	7549
491.309	10085
491.385	9403
491.460	7711
491.536	8231
491.611	8076
491.686	9255
491.762	14040
491.837	30948
491.913	52545
491.988	70958
492.063	102969
492.139	21142
492.214	8322
492.289	7539
492.365	6171
492.440	8366
492.515	6105
492.590	6908
492.666	6073
492.741	6825
492.816	6413
492.891	5273
492.967	6463
493.042	5301
493.117	5666
493.192	6144
493.267	9895
493.342	32318
493.418	48131
493.493	12442
493.568	5576
493.643	5206
493.718	7189
493.793	8591
493.868	14148
493.943	9990
494.018	7295
494.093	4536
494.168	5172
494.243	5245
494.318	5005
494.393	5048
494.468	5135
494.543	4318
494.618	6938
494.693	4650
494.768	3919
494.842	5241
494.917	4620
494.992	4594
495.067	5865
495.142	4309
495.217	5982
495.292	5485
495.366	6903
495.441	7689
495.516	11924
495.591	16135
495.665	63988
495.740	174906
495.815	82502
495.890	8480
495.964	4011
496.039	7466
496.114	5226
496.188	5743
496.263	6766
496.338	4137
496.412	4885
496.487	6367
496.561	7464
496.636	8847
496.710	5730
496.785	5845
496.860	6548
496.934	6290
497.009	6496
497.083	6401
497.158	5797
497.232	6360
497.307	9133
497.381	8270
497.455	8831
497.530	8802
497.604	7909
497.679	8238
497.753	12154
497.827	17030
497.902	17160
497.976	18145
498.050	23094
498.125	59749
498.199	78507
498.273	35690
498.348	30503
498.422	22919
498.496	20159
498.570	18360
498.645	12115
498.719	8285
498.793	9055
498.867	10648
498.941	11520
499.016	21137
499.090	57271
499.164	31463
499.238	7761
499.312	6211
499.386	9112
499.460	8487
499.534	6046
499.609	6395
499.683	6802
499.757	5791
499.831	8632
499.905	33356
499.979	39008
500.053	8178
500.127	12075
500.201	14301
500.275	7922
500.349	6034
500.422	6641
500.496	10495
500.570	28087
500.644	36164
500.718	40187
500.792	14267
500.866	5544
500.940	4810
501.013	5351
501.087	4436
501.161	14973
501.235	15491
501.309	11591
501.382	26817
501.456	33645
501.530	10316
501.603	9283
501.677	6236
501.751	2611
501.825	5543
501.898	4868
501.972	10323
502.046	9488
502.119	3527
502.193	9619
502.266	13789
502.340	9478
502.413	5744
502.487	11758
502.561	6681
502.634	4620
502.708	5450
502.781	4161
502.855	3976
502.928	1771
503.002	2846
503.075	2300
503.149	1983
503.222	2504
503.295	2497
503.369	2647
503.442	2664
503.516	8112
503.589	19062
503.662	15199
503.736	6049
503.809	11546
503.882	11591
503.956	16449
504.029	25619
504.102	54239
504.175	90557
504.249	36866
504.322	10900
504.395	6468
504.468	3776
504.542	3283
504.615	2043
504.688	3666
504.761	1772
504.834	4926
504.907	6537
504.980	14312
505.053	5376
505.127	6679
505.200	10057
505.273	2833
505.346	1627
505.419	1632
505.492	2226
505.565	460
505.638	1285
505.711	1152
505.784	946
505.857	1175
505.930	2061
506.003	1071
506.076	3522
506.149	619
506.221	3
506.294	3934
506.367	3245
506.440	15271
506.513	13923
506.586	3482
506.659	1606
506.731	2874
506.804	3441
506.877	6199
506.950	3746
507.022	2519
507.095	87
507.168	3409
507.241	3873
507.313	1986
507.386	1738
507.459	7664
507.531	4433
507.604	1229
507.677	2031
507.749	1716
507.822	4406
507.894	11936
507.967	16400
508.040	7066
508.112	6367
508.185	5091
508.257	4855
508.330	10569
508.402	4901
508.475	3719
508.547	4088
508.620	4378
508.692	4058
508.765	5011
508.837	3162
508.909	4259
508.982	3601
509.054	5791
509.127	4209
509.199	3407
509.271	2427
509.344	3937
509.416	2727
509.488	3215
509.560	3984
509.633	4052
509.705	5575
509.777	4879
509.849	8965
509.922	5306
509.994	2662
510.066	5080
510.138	3527
510.210	12971
510.283	9493
510.355	9009
510.427	6720
510.499	6321
510.571	4850
510.643	5357
510.715	11638
510.787	10604
510.859	6772
510.931	7084
511.003	11244
511.076	13204
511.148	4943
511.219	3405
511.291	5484
511.363	6539
511.435	4835
511.507	4077
511.579	4673
511.651	5495
511.723	4585
511.795	5101
511.867	4231
511.939	4938
512.010	5525
512.082	6976
512.154	4453
512.226	5003
512.298	9275
512.369	14918
512.441	12077
512.513	11536
512.585	7152
512.656	8920
512.728	7945
512.800	6967
512.871	6294
512.943	6552
513.015	4316
513.086	6163
513.158	7334
513.230	6392
513.301	10886
513.373	16044
513.444	8190
513.516	6123
513.588	5306
513.659	8373
513.731	10145
513.802	8440
513.874	18307
513.945	37629
514.016	12128
514.088	6117
514.159	5986
514.231	10487
514.302	13703
514.374	9741
514.445	6316
514.516	10213
514.588	6781
514.659	5597
514.730	6970
514.802	11726
514.873	8753
514.944	11810
515.016	9036
515.087	10147
515.158	9646
515.229	11367
515.301	8858
515.372	14340
515.443	8456
515.514	7058
515.585	5066
515.656	7378
515.728	5985
515.799	6477
515.870	6434
515.941	7523
516.012	6293
516.083	10620
516.154	11886
516.225	17677
516.296	16435
516.367	14225
516.438	16440
516.509	21584
516.580	28678
516.651	89190
516.722	357398
516.793	203679
516.864	31349
516.935	26934
517.006	29155
517.077	40546
517.148	90182
517.219	362406
517.289	672989
517.360	120791
517.431	27246
517.502	12532
517.573	11270
517.643	10164
517.714	12049
517.785	13978
517.856	13209
517.926	19843
517.997	25081
518.068	31375
518.138	43731
518.209	61126
518.280	224606
518.350	956627
518.421	476831
518.492	49162
518.562	23216
518.633	18795
518.703	20002
518.774	36847
518.845	97543
518.915	123395
518.986	37370
519.056	20121
519.127	28489
519.197	36330
519.268	39791
519.338	20922
519.408	9571
519.479	19638
519.549	13603
519.620	9390
519.690	5222
519.760	5987
519.831	6041
519.901	6630
519.971	4745
520.042	4194
520.112	4511
520.182	8978
520.253	11510
520.323	6463
520.393	7174
520.463	17227
520.534	7263
520.604	20546
520.674	10048
520.744	6864
520.814	21000
520.885	23313
520.955	7587
521.025	20253
521.095	13391
521.165	5325
521.235	3420
521.305	3842
521.375	4591
521.445	6216
521.515	8004
521.585	11677
521.655	10711
521.725	8725
521.795	7152
521.865	938
521.935	5612
522.005	3921
522.075	2696
522.145	4892
522.215	2829
522.285	5965
522.355	5898
522.424	8943
522.494	8181
522.564	9363
522.634	22726
522.704	88946
522.774	42553
522.843	7789
522.913	4774
522.983	9174
523.053	5648
523.122	6484
523.192	8569
523.262	42697
523.331	47863
523.401	8361
523.471	4667
523.540	5197
523.610	2680
523.680	3680
523.749	2814
523.819	3755
523.888	3246
523.958	3076
524.027	2894
524.097	4207
524.166	3113
524.236	4771
524.305	5702
524.375	2509
524.444	2680
524.514	5443
524.583	2553
524.653	3206
524.722	4187
524.791	2575
524.861	3843
524.930	2152
524.999	3988
525.069	7454
525.138	4185
525.207	3471
525.277	3455
525.346	4525
525.415	4296
525.484	5362
525.554	4587
525.623	6215
525.692	6735
525.761	8227
525.830	9703
525.900	13094
525.969	18829
526.038	33355
526.107	61452
526.176	218198
526.245	232210
526.314	66784
526.383	100855
526.452	175047
526.522	237207
526.591	329643
526.660	81521
526.729	40685
526.797	37295
526.867	66994
526.935	299397
527.004	594713
527.073	448088
527.142	45443
527.211	14269
527.280	11248
527.349	10188
527.418	4497
527.487	5180
527.555	3458
527.624	2104
527.693	2431
527.762	3903
527.831	3282
527.899	3175
527.968	3803
528.037	2285
528.106	5606
528.174	11134
528.243	8354
528.312	8436
528.380	17589
528.449	4282
528.518	4024
528.586	966
528.655	2460
528.723	1886
528.792	2518
528.861	939
528.929	882
528.998	2886
529.066	2110
529.135	2071
529.203	2055
529.272	1791
529.340	3618
529.409	4132
529.477	1612
529.545	2397
529.614	6649
529.682	2777
529.751	3055
529.819	5890
529.887	4059
529.956	2936
530.024	3842
530.092	2813
530.161	4944
530.229	9760
530.297	5730
530.365	4097
530.434	4018
530.502	2868
530.570	4411
530.638	1227
530.707	4609
530.775	5183
530.843	2651
530.911	3533
530.979	3695
531.047	2719
531.115	3867
531.183	2749
531.252	3326
531.320	2971
531.388	3222
531.456	3405
531.524	2064
531.592	4422
531.660	6028
531.728	2592
531.796	3209
531.864	3625
531.932	4366
532.000	3258
532.067	4464
532.135	6105
532.203	7127
532.271	5634
532.339	13028
532.407	36682
532.475	25740
532.542	11132
532.610	12232
532.678	13752
532.746	61389
532.814	201328
532.881	59483
532.949	8919
533.017	6269
533.084	4006
533.152	4625
533.220	4242
533.287	5695
533.355	4521
533.423	4854
533.490	4311
533.558	4441
533.625	5013
533.693	5357
533.761	5038
533.828	5195
533.896	4413
533.963	11468
534.031	15872
534.098	24984
534.166	11648
534.233	4803
534.300	6654
534.368	6517
534.435	5118
534.503	7249
534.570	7841
534.637	7998
534.705	8759
534.772	10641
534.840	17532
534.907	88588
534.974	171950
535.041	26094
535.109	7463
535.176	4970
535.243	5277
535.310	5170
535.378	4678
535.445	5258
535.512	4347
535.579	4503
535.646	3062
535.714	4567
535.781	6308
535.848	6289
535.915	5839
535.982	5509
536.049	4670
536.116	6366
536.183	4738
536.250	5692
536.317	5464
536.384	7065
536.451	10779
536.518	12320
536.585	6441
536.652	9974
536.719	15439
536.786	12101
536.853	8422
536.920	13139
536.987	21327
537.053	21111
537.120	86944
537.187	99606
537.254	10539
537.321	6143
537.388	7228
537.454	4597
537.521	4655
537.588	4639
537.654	5929
537.721	6920
537.788	8666
537.855	4955
537.921	6567
537.988	6108
538.055	5736
538.121	5683
538.188	5909
538.254	9832
538.321	22798
538.388	15068
538.454	6206
538.521	6183
538.587	5931
538.654	5031
538.720	4232
538.787	5527
538.853	5972
538.920	6966
538.986	6398
539.053	5789
539.119	6494
539.185	6829
539.252	8139
539.318	14358
539.385	11675
539.451	9104
539.517	9483
539.583	11106
539.650	20711
539.716	69888
539.782	24391
539.849	7083
539.915	6640
539.981	7581
540.047	8887
540.114	8595
540.180	8283
540.246	7948
540.312	10833
540.378	22402
540.444	25209
540.510	23649
540.576	80038
540.643	31255
540.709	6568
540.775	7064
540.841	6368
540.907	8263
540.973	11089
541.039	12739
541.105	14603
541.171	8191
541.237	6443
541.303	8130
541.369	8794
541.435	10988
541.500	20500
541.566	13423
541.632	5830
541.698	6793
541.764	7014
541.830	5625
541.896	4291
541.961	6762
542.027	6174
542.093	7430
542.159	7445
542.224	7900
542.290	10739
542.356	17949
542.421	25189
542.487	12685
542.553	7372
542.618	7938
542.684	7128
542.750	7383
542.815	9517
542.881	14553
542.947	62538
543.012	61625
543.078	8628
543.143	7311
543.209	7401
543.274	7597
543.340	9022
543.405	22386
543.471	45107
543.536	12083
543.602	5473
543.667	4696
543.732	6697
543.798	4784
543.863	6179
543.928	6102
543.994	4491
544.059	6463
544.124	5705
544.190	6105
544.255	7747
544.320	7905
544.386	8049
544.451	11996
544.516	13629
544.581	12075
544.646	36302
544.712	75929
544.777	16579
544.842	8113
544.907	6776
544.972	6873
545.037	7175
545.102	8183
545.168	7522
545.233	8029
545.298	9173
545.363	10293
545.428	11385
545.493	21572
545.558	55345
545.623	26826
545.688	7966
545.753	7750
545.818	7214
545.883	8265
545.947	8054
546.012	9142
546.077	8010
546.142	9224
546.207	9276
546.272	13511
546.337	14655
546.401	11370
546.466	10836
546.531	9605
546.596	11547
546.661	13014
546.725	13140
546.790	11675
546.855	12858
546.919	13075
546.984	14822
547.049	16165
547.113	19630
547.178	19967
547.243	21828
547.307	26225
547.372	29246
547.436	29208
547.501	29961
547.565	32944
547.630	32840
547.695	32183
547.759	28805
547.823	30324
547.888	29617
547.952	31152
548.017	30811
548.081	32888
548.146	32293
548.210	32816
548.274	34652
548.339	35189
548.403	31973
548.468	28929
548.532	28041
548.596	30157
548.660	29309
548.725	32553
548.789	35223
548.853	36064
548.917	32662
548.982	33042
549.046	30362
549.110	25928
549.174	26031
549.238	29438
549.303	33540
549.367	36181
549.431	33003
549.495	31611
549.559	30683
549.623	35395
549.687	41672
549.751	46916
549.815	46059
549.879	48297
549.943	43342
550.007	47042
550.071	47664
550.135	46602
550.199	41244
550.263	39801
550.327	38231
550.391	37581
550.455	40168
550.519	44056
550.582	47681
550.646	58108
550.710	61480
550.774	53502
550.838	53179
550.901	55103
550.965	58858
551.029	60376
551.093	65547
551.156	71989
551.220	84732
551.284	106869
551.347	81870
551.411	63683
551.475	60047
551.538	57738
551.602	54136
551.666	49223
551.729	46303
551.793	44795
551.856	44015
551.920	43939
551.983	42634
552.047	41402
552.110	42764
552.174	41451
552.237	43775
552.301	40835
552.364	39674
552.428	38023
552.491	38534
552.554	41371
552.618	40614
552.681	42020
552.745	41409
552.808	51791
552.871	64884
552.934	51098
552.998	41643
553.061	39880
553.124	37477
553.187	36575
553.251	38300
553.314	39412
553.377	37385
553.440	43911
553.503	60427
553.567	93391
553.630	49603
553.693	41077
553.756	40201
553.819	37276
553.882	35655
553.945	36681
554.008	35651
554.071	35012
554.134	37408
554.197	34109
554.260	32150
554.323	35325
554.386	35764
554.449	36440
554.512	38515
554.575	34304
554.638	34788
554.701	33209
554.764	33490
554.827	32333
554.889	30785
554.952	27560
555.015	26968
555.078	28624
555.141	28706
555.203	29187
555.266	28322
555.329	28750
555.391	27987
555.454	28505
555.517	27259
555.580	26458
555.642	23968
555.705	23735
555.768	23671
555.830	24386
555.893	21782
555.955	22142
556.018	21516
556.080	22110
556.143	22574
556.206	21985
556.268	21496
556.330	22666
556.393	20967
556.455	20517
556.518	21190
556.580	22823
556.643	18396
556.705	18460
556.767	17888
556.830	19933
556.892	20317
556.955	27217
557.017	22707
557.079	18094
557.142	17429
557.204	19756
557.266	32511
557.328	29729
557.391	15954
557.453	15228
557.515	15358
557.577	18521
557.639	19452
557.701	16696
557.764	16102
557.826	18203
557.888	18780
557.950	20332
558.012	21867
558.074	28598
558.136	60589
558.198	198893
558.260	95185
558.322	26313
558.384	26316
558.446	29289
558.508	34898
558.570	44245
558.632	61999
558.694	88210
558.756	98224
558.818	278855
558.880	899629
558.942	375265
559.003	212192
559.065	134868
559.127	41991
559.189	40405
559.251	42516
559.312	57832
559.374	131262
559.436	543248
559.498	376969
559.559	55402
559.621	40061
559.683	43020
559.744	62755
559.806	213716
559.868	457043
559.929	104425
559.991	40266
560.052	54568
560.114	174765
560.176	146706
560.237	88875
560.299	196435
560.360	52407
560.422	15719
560.483	12146
560.545	10173
560.606	8522
560.667	9097
560.729	7603
560.790	7836
560.852	8171
560.913	8262
560.974	7979
561.036	7425
561.097	7665
561.158	8753
561.220	8305
561.281	8814
561.342	8224
561.403	11161
561.465	12830
561.526	31560
561.587	47901
561.648	13142
561.709	7487
561.771	8356
561.832	6813
561.893	7332
561.954	6519
562.015	6869
562.076	6864
562.137	6452
562.198	6816
562.259	7905
562.320	7415
562.381	7978
562.442	12133
562.503	10728
562.564	7154
562.625	6589
562.686	7381
562.747	7408
562.808	7348
562.869	6548
562.930	7004
562.991	6540
563.051	6109
563.112	6877
563.173	5939
563.234	5291
563.294	6383
563.355	6178
563.416	7596
563.477	5963
563.537	6211
563.598	6059
563.659	6267
563.720	6118
563.780	6468
563.841	6703
563.901	5962
563.962	6368
564.023	6059
564.083	5734
564.144	6035
564.204	6583
564.265	5566
564.325	5514
564.386	6915
564.446	7529
564.507	5643
564.567	5836
564.628	6172
564.688	6073
564.749	6251
564.809	6004
564.869	6265
564.930	5981
564.990	6046
565.050	6021
565.111	6009
565.171	6252
565.231	6462
565.292	7610
565.352	4786
565.412	6970
565.472	6523
565.532	7712
565.593	5916
565.653	6711
565.713	6642
565.773	7145
565.833	9409
565.893	13723
565.953	7051
566.013	5908
566.074	6351
566.134	7530
566.194	8366
566.254	11286
566.314	7972
566.374	7578
566.434	7054
566.494	7614
566.554	6715
566.614	8029
566.673	7294
566.733	8274
566.793	8553
566.853	8486
566.913	9108
566.973	9940
567.033	9476
567.092	9255
567.152	9180
567.212	9769
567.272	9032
567.331	10217
567.391	10076
567.451	10981
567.511	11778
567.570	11979
567.630	9984
567.690	10522
567.749	10082
567.809	12040
567.868	12827
567.928	13477
567.988	15396
568.047	18325
568.107	21976
568.166	30694
568.226	51886
568.285	80325
568.345	64498
568.404	48413
568.464	38826
568.523	34719
568.582	34975
568.642	38659
568.701	47337
568.761	74133
568.820	129509
568.879	128659
568.939	85741
568.998	59974
569.057	42779
569.116	32772
569.176	26463
569.235	20975
569.294	17496
569.353	16702
569.413	13727
569.472	13342
569.531	10255
569.590	10249
569.649	9658
569.708	9449
569.767	9453
569.827	9211
569.886	9578
569.945	8953
570.004	7716
570.063	8422
570.122	8394
570.181	8626
570.240	6742
570.299	7589
570.358	8016
570.417	6479
570.475	7275
570.534	7648
570.593	8472
570.652	7499
570.711	7566
570.770	6356
570.829	6945
570.887	7716
570.946	9012
571.005	7080
571.064	6988
571.122	7745
571.181	6721
571.240	6252
571.299	5523
571.357	5364
571.416	5805
571.475	6154
571.533	5970
571.592	6217
571.650	6382
571.709	5221
571.768	7024
571.826	6874
571.885	5977
571.943	5562
572.002	4462
572.060	5732
572.119	4986
572.177	5722
572.236	5266
572.294	4931
572.352	5716
572.411	5443
572.469	4923
572.528	5144
572.586	5390
572.644	5209
572.703	6607
572.761	5327
572.819	4274
572.877	5614
572.936	3980
572.994	4113
573.052	5229
573.110	5294
573.169	5692
573.227	5070
573.285	4926
573.343	4691
573.401	4824
573.459	5022
573.517	3982
573.576	4353
573.634	5434
573.692	4481
573.750	4986
573.808	5114
573.866	3943
573.924	5224
573.982	3693
574.040	5221
574.098	3759
574.155	5307
574.213	4667
574.271	5031
574.329	4735
574.387	4942
574.445	4057
574.503	4661
574.560	3968
574.618	4097
574.676	4410
574.734	4516
574.792	4893
574.849	4753
574.907	4248
574.965	4353
575.022	2707
575.080	4036
575.138	4180
575.195	4586
575.253	4213
575.311	5452
575.368	4345
575.426	3652
575.483	5208
575.541	4194
575.598	3396
575.656	3827
575.713	4736
575.771	4390
575.828	3194
575.886	4186
575.943	5225
576.001	3854
576.058	3566
576.115	4211
576.173	4842
576.230	5148
576.287	7562
576.345	5714
576.402	3977
576.459	5255
576.517	3649
576.574	4500
576.631	3369
576.688	4747
576.746	2724
576.803	3577
576.860	3144
576.917	3271
576.974	3018
577.031	3588
577.089	2957
577.146	3856
577.203	4045
577.260	4962
577.317	3926
577.374	3414
577.431	3408
577.488	3846
577.545	3991
577.602	4474
577.659	4125
577.716	5133
577.773	4115
577.830	3665
577.886	4216
577.943	3652
578.000	3036
578.057	3336
578.114	4283
578.171	4015
578.227	4079
578.284	4102
578.341	3784
578.398	3602
578.454	3879
578.511	4183
578.568	3976
578.625	3057
578.681	3442
578.738	3694
578.794	3363
578.851	4162
578.908	3745
578.964	4588
579.021	4457
579.077	4790
579.134	4591
579.190	4355
579.247	3773
579.303	3506
579.360	3983
579.416	4665
579.473	4143
579.529	4411
579.586	3459
579.642	4863
579.698	4007
579.755	4213
579.811	4518
579.867	4676
579.924	4453
579.980	4482
580.036	4570
580.093	4526
580.149	4867
580.205	5167
580.261	4547
580.317	4679
580.374	4525
580.430	5624
580.486	3805
580.542	4503
580.598	5066
580.619	5217
580.654	5480
580.692	4809
580.710	4480
580.765	4956
580.767	4972
580.823	4690
580.838	4788
580.879	5071
580.911	4561
580.935	4162
580.984	4847
580.991	4948
581.047	4746
581.057	4710
581.103	4536
581.130	4819
581.159	5108
581.203	4905
581.215	4863
581.270	4192
581.276	4185
581.326	4073
581.349	4224
581.382	4378
581.422	4738
581.438	4928
581.494	4768
581.494	4767
581.550	4473
581.567	4858
581.606	5609
581.640	5229
581.661	4994
581.713	5284
581.717	5306
581.773	4854
581.786	4805
581.829	4684
581.859	4991
581.885	5282
581.932	4793
581.940	4692
581.996	5813
582.004	5735
582.052	5207
582.077	5390
582.107	5623
582.150	5722
582.163	5769
582.219	5489
582.223	5513
582.274	5710
582.296	5357
582.330	4779
582.368	5165
582.386	5426
582.441	5563
582.441	5560
582.497	5660
582.514	5914
582.552	6583
582.587	6462
582.608	6365
582.659	6181
582.663	6159
582.719	6265
582.732	6254
582.774	6461
582.805	6345
582.830	6130
582.877	5842
582.885	5805
582.941	5517
582.950	5775
582.996	6977
583.023	6506
583.052	6213
583.095	6936
583.107	7027
583.162	6264
583.168	6378
583.218	7440
583.240	6867
583.273	6068
583.313	6583
583.328	6826
583.384	7201
583.385	7171
583.439	6102
583.458	6336
583.494	6851
583.531	6744
583.549	6728
583.603	7009
583.605	7010
583.660	7403
583.676	7142
583.715	6778
583.748	7434
583.770	7773
583.820	8000
583.825	8007
583.881	7317
583.893	7189
583.936	7198
583.965	7642
583.991	7692
584.038	7621
584.046	7684
584.101	7383
584.110	7395
584.156	7568
584.183	7805
584.211	7858
584.255	8022
584.266	8128
584.321	8239
584.328	8247
584.376	8500
584.400	8740
584.431	8865
584.472	8339
584.486	8236
584.541	9755
584.545	9732
584.596	9119
584.617	9204
584.651	9838
584.689	10412
584.706	10419
584.761	10678
584.762	10667
584.816	10494
584.834	10628
584.871	11042
584.906	11264
584.926	11485
584.978	12210
584.980	12236
585.035	12784
585.051	13169
585.090	14901
585.123	15817
585.145	16155
585.195	16791
585.200	17014
585.254	20030
585.267	20908
585.309	23576
585.340	25933
585.364	27948
585.412	30602
585.419	31078
585.473	35829
585.484	36936
585.528	47129
585.556	55902
585.583	80107
585.628	131314
585.637	154015
585.692	322228
585.700	354088
585.747	450680
585.772	414902
585.801	275015
585.845	92474
585.856	75087
585.910	38575
585.917	34838
585.965	28507
585.989	25522
586.019	23428
586.061	21355
586.074	21284
586.128	21695
586.133	21687
586.183	21733
586.205	21754
586.237	21536
586.277	20709
586.292	20392
586.346	19448
586.349	19391
586.401	20434
586.421	20578
586.455	20260
586.493	20386
586.509	21001
586.564	22306
586.565	22318
586.618	25495
586.637	26343
586.672	26890
586.709	27471
586.727	28065
586.781	30332
586.781	30383
586.835	27538
586.853	26861
586.889	25684
586.925	25069
586.944	25640
586.996	26552
586.998	26601
587.052	26495
587.068	26460
587.106	27441
587.140	28729
587.161	29286
587.212	28932
587.215	29024
587.269	31403
587.284	31626
587.323	31937
587.356	32590
587.377	33532
587.427	36014
587.431	36251
587.485	38289
587.499	38524
587.539	40006
587.571	41445
587.593	42765
587.643	45238
587.648	45577
587.702	48708
587.715	49305
587.755	51985
587.786	54144
587.810	56267
587.858	60046
587.864	60724
587.917	66478
587.930	67627
587.971	73273
588.001	77570
588.025	81640
588.073	89302
588.079	90817
588.133	103360
588.145	105963
588.187	118303
588.217	126935
588.241	136648
588.288	155721
588.295	159022
588.348	184824
588.360	190288
588.402	217388
588.431	235858
588.456	256470
588.503	296801
588.510	305164
588.564	371604
588.575	385033
588.617	460762
588.646	514862
588.671	594876
588.718	753148
588.725	799445
588.778	1166474
588.789	1245165
588.832	1761666
588.861	2128113
588.886	2375179
588.932	2797065
588.939	2796172
588.993	2582751
589.004	2549593
589.047	2458628
589.075	2318480
589.100	1963121
589.147	1277985
589.154	1231546
589.207	897232
589.218	831108
589.261	762732
589.290	721739
589.314	757058
589.361	833220
589.368	875842
589.421	1232538
589.433	1311711
589.475	1864834
589.504	2263975
589.528	2417228
589.576	2608928
589.582	2578878
589.635	2210738
589.647	2108112
589.689	1444444
589.718	978181
589.742	805821
589.790	489585
589.795	475458
589.849	344968
589.861	315205
589.902	265497
589.932	228904
589.955	212192
590.004	177339
590.009	175518
590.062	151498
590.075	145162
590.115	132994
590.146	123415
590.168	118670
590.218	106928
590.222	106528
590.275	97922
590.289	95266
590.328	90340
590.360	85979
590.381	84264
590.431	79589
590.435	79530
590.488	74262
590.503	72662
590.541	70574
590.574	68158
590.594	66967
590.645	63377
590.647	63488
590.700	60920
590.716	60014
590.753	59108
590.787	58000
590.806	57666
590.859	55740
590.859	55892
590.912	53966
590.930	53123
590.965	52426
591.001	51465
591.018	51135
591.071	49489
591.072	49305
591.124	49930
591.143	49856
591.177	48773
591.214	47368
591.230	47893
591.283	49193
591.285	49070
591.336	49048
591.356	48864
591.389	48890
591.427	48407
591.442	47463
591.495	43263
591.498	42811
591.547	42436
591.569	42109
591.600	42064
591.640	41541
591.653	41609
591.706	41413
591.711	41240
591.759	41115
591.782	40807
591.811	41355
591.853	41968
591.864	42035
591.917	41418
591.924	41190
591.969	40223
591.995	39430
592.022	39769
592.066	39988
592.075	40252
592.127	40970
592.137	40963
592.180	40752
592.208	40334
592.233	40397
592.279	40176
592.285	40211
592.338	39243
592.350	38898
592.390	39340
592.421	39409
592.443	39772
592.491	40141
592.495	40308
592.548	40635
592.562	40587
592.600	39407
592.633	38122
592.653	38727
592.704	39741
592.705	39969
592.775	39855
592.846	40982
592.916	42589
592.987	44215
593.058	41153
593.128	39033
593.199	37930
593.270	38115
593.341	38575
593.411	39762
593.482	41728
593.553	40251
593.623	39127
593.694	40126
593.764	39087
593.835	40009
593.906	38723
593.976	39685
594.047	40176
594.117	43211
594.188	42530
594.258	42170
594.329	41049
594.399	41995
594.470	41474
594.540	43533
594.611	43741
594.681	44305
594.751	44239
594.822	47691
594.892	47874
594.963	47855
595.033	46691
595.103	48413
595.174	48469
595.244	52917
595.314	52940
595.384	49435
595.455	50081
595.525	53389
595.595	54145
595.665	53897
595.736	52255
595.806	53901
595.876	52622
595.946	54326
596.016	55926
596.087	56747
596.157	56558
596.227	57686
596.297	59442
596.367	62953
596.437	66471
596.507	67045
596.577	68772
596.647	66480
596.717	69668
596.787	71787
596.857	70805
596.927	72761
596.997	72080
597.067	73266
597.137	75658
597.207	74617
597.277	73864
597.347	71353
597.417	70553
597.487	70576
597.557	72369
597.626	75196
597.696	74718
597.766	75327
597.836	71101
597.906	66836
597.975	65019
598.045	65008
598.115	67779
598.185	73180
598.254	82433
598.324	88924
598.394	91797
598.464	88890
598.533	84189
598.603	79854
598.672	78145
598.742	79774
598.812	77946
598.881	80776
598.951	79208
599.020	81103
599.090	83982
599.159	84336
599.229	82038
599.299	78949
599.368	80955
599.437	80571
599.507	73568
599.576	72550
599.646	72703
599.715	73464
599.785	70099
599.854	68722
599.924	67011
599.993	68118
600.062	68231
600.132	70124
600.201	75865
600.270	88676
600.340	90540
600.409	87586
600.478	85794
600.547	88842
600.617	81568
600.686	67859
600.755	61725
600.824	62556
600.894	58693
600.963	57810
601.032	56523
601.101	54524
601.170	53448
601.239	54431
601.308	59121
601.378	57600
601.447	53531
601.516	54734
601.585	59261
601.654	67842
601.723	58825
601.792	57830
601.861	58424
601.930	65818
601.999	68062
602.068	65983
602.137	75884
602.206	74588
602.275	66319
602.343	72905
602.412	71636
602.481	65322
602.550	63253
602.619	66270
602.688	67870
602.756	66333
602.825	66707
602.894	68901
602.963	68778
603.032	69742
603.100	70693
603.169	71126
603.238	69969
603.307	71136
603.375	71810
603.444	73944
603.513	74496
603.581	75856
603.650	76488
603.719	73695
603.787	74916
603.856	76622
603.924	78708
603.993	82920
604.061	84190
604.130	89281
604.198	91382
604.267	92827
604.335	91823
604.404	93888
604.472	95149
604.541	96358
604.609	95830
604.678	97417
604.746	97007
604.815	101370
604.883	101282
604.951	103396
605.020	103502
605.088	104753
605.156	105324
605.225	106792
605.293	106608
605.361	108209
605.429	109383
605.498	113887
605.566	114974
605.634	121300
605.702	123428
605.771	125868
605.839	127296
605.907	123447
605.975	118408
606.043	116960
606.111	116706
606.180	118785
606.248	116119
606.316	116713
606.384	114931
606.452	119116
606.520	129298
606.588	122046
606.656	118460
606.724	116191
606.792	106767
606.860	97884
606.928	88965
606.996	85554
607.064	84145
607.132	86628
607.200	92733
607.267	95633
607.335	96832
607.403	100136
607.471	94994
607.539	93189
607.607	93013
607.674	83266
607.742	84049
607.810	86288
607.878	83904
607.946	85550
608.013	87455
608.081	90138
608.149	90816
608.216	94734
608.284	96869
608.352	96419
608.419	93074
608.487	95082
608.555	92017
608.622	95306
608.690	101093
608.757	112225
608.825	114548
608.893	111350
608.960	105545
609.028	102990
609.095	101291
609.163	98549
609.230	88030
609.298	82316
609.365	86630
609.432	94192
609.500	101443
609.567	115087
609.635	133236
609.702	139054
609.769	132769
609.837	104410
609.904	93524
609.971	99302
610.039	120182
610.106	184381
610.173	415319
610.241	1004025
610.308	509332
610.375	151326
610.442	104674
610.509	96573
610.577	95669
610.644	96155
610.711	97584
610.778	100270
610.845	103303
610.912	111523
610.980	115955
611.047	118996
611.114	113748
611.181	108304
611.248	107108
611.315	116959
611.382	115348
611.449	121176
611.516	123552
611.583	122000
611.650	123883
611.717	126778
611.784	131179
611.851	143856
611.918	163313
611.984	211016
612.051	353095
612.118	829808
612.185	2100781
612.252	1200052
612.319	265112
612.386	185570
612.452	158407
612.519	146678
612.586	141973
612.653	144056
612.719	146032
612.786	139426
612.853	128780
612.919	124405
612.986	126063
613.053	117277
613.120	110523
613.186	106999
613.253	108209
613.319	107660
613.386	108781
613.453	112648
613.519	117079
613.586	125608
613.652	144961
613.719	131742
613.785	124012
613.852	111890
613.918	111099
613.985	115203
614.051	128039
614.118	152250
614.184	140890
614.250	112824
614.317	113212
614.383	109522
614.449	112113
614.516	112546
614.582	113080
614.648	110367
614.715	108952
614.781	106390
614.847	105898
614.914	105374
614.980	103315
615.046	105850
615.112	108151
615.179	109676
615.245	114270
615.311	121716
615.377	148827
615.443	154502
615.509	128455
615.575	126750
615.642	122573
615.708	127804
615.774	138450
615.840	154215
615.906	185629
615.972	274721
616.038	505700
616.104	1092769
616.170	2537128
616.236	1985141
616.302	442531
616.368	285223
616.434	192373
616.500	168127
616.565	192803
616.631	253194
616.697	197356
616.763	206468
616.829	350663
616.895	671603
616.961	620721
617.026	239518
617.092	140775
617.158	124060
617.224	115822
617.289	106279
617.355	98437
617.421	94550
617.487	95221
617.552	89375
617.618	88197
617.684	87818
617.749	90786
617.815	84536
617.880	81638
617.946	81679
618.012	84172
618.077	86836
618.143	81783
618.208	82180
618.274	89683
618.339	88044
618.405	71301
618.470	73430
618.536	72328
618.601	72410
618.667	64738
618.732	63383
618.798	61253
618.863	61173
618.928	60364
618.994	63479
619.059	69707
619.124	87232
619.190	68077
619.255	60172
619.320	59918
619.386	60510
619.451	58214
619.516	57491
619.581	58632
619.647	59199
619.712	58709
619.777	56492
619.842	57355
619.907	60002
619.972	60542
620.038	59784
620.103	56466
620.168	55626
620.233	57285
620.298	56576
620.363	57865
620.428	60231
620.493	61378
620.558	63609
620.623	63420
620.688	62258
620.753	63084
620.818	63594
620.883	63562
620.948	64216
621.013	62702
621.078	62632
621.143	61986
621.207	65097
621.272	63226
621.337	63808
621.402	60642
621.467	61890
621.532	60462
621.596	60227
621.661	56631
621.726	56265
621.791	57465
621.855	61049
621.920	62000
621.985	58993
622.049	60069
622.114	60723
622.179	60117
622.243	62731
622.308	62692
622.373	69565
622.437	64952
622.502	60493
622.566	60208
622.631	59526
622.695	61778
622.760	61521
622.824	61301
622.889	64825
622.953	68040
623.018	93734
623.082	88153
623.147	67332
623.211	67282
623.276	64777
623.340	59223
623.404	58411
623.469	58326
623.533	59280
623.597	56916
623.662	57735
623.726	51009
623.790	49173
623.854	48399
623.919	50182
623.983	51263
624.047	51583
624.111	51639
624.176	52724
624.240	54319
624.304	58738
624.368	52007
624.432	53880
624.496	55742
624.560	64715
624.625	67188
624.689	60311
624.753	60257
624.817	57108
624.881	55977
624.945	50178
625.009	48845
625.073	50888
625.137	55711
625.201	69558
625.265	66110
625.329	54408
625.393	57062
625.456	54355
625.520	56909
625.584	58634
625.648	60760
625.712	65068
625.776	73157
625.839	72808
625.903	50524
625.967	46901
626.031	52606
626.095	64336
626.158	52184
626.222	39271
626.286	38048
626.349	36360
626.413	33807
626.477	38650
626.540	34803
626.604	34212
626.668	33436
626.731	33774
626.795	33128
626.858	34608
626.922	32321
626.986	34535
627.049	31487
627.113	35340
627.176	34411
627.240	33343
627.303	33368
627.366	33457
627.430	33350
627.493	33485
627.557	31589
627.620	34710
627.684	35324
627.747	35733
627.810	31722
627.874	29449
627.937	28367
628.000	32376
628.064	29458
628.127	25546
628.190	26152
628.253	26547
628.317	23971
628.380	23266
628.443	22645
628.506	23230
628.569	22696
628.632	20619
628.696	20994
628.759	21971
628.822	19797
628.885	20014
628.948	19764
629.011	21299
629.074	19053
629.137	19311
629.200	18696
629.263	19896
629.326	16394
629.389	18867
629.452	18291
629.515	18422
629.578	16950
629.641	19884
629.704	19225
629.767	20609
629.830	17406
629.892	18910
629.955	17392
630.018	20961
630.081	24482
630.144	29632
630.207	21464
630.269	21213
630.332	17033
630.395	18357
630.458	18055
630.520	16978
630.583	18443
630.646	16722
630.708	17073
630.771	17030
630.834	18773
630.896	17969
630.959	17987
631.021	17236
631.084	17291
631.146	18670
631.209	18782
631.272	18354
631.334	19481
631.397	20002
631.459	21264
631.522	24359
631.584	23123
631.646	26356
631.709	29001
631.771	34900
631.834	27594
631.896	23972
631.958	20712
632.021	21298
632.083	18305
632.145	19620
632.208	18975
632.270	20531
632.332	16811
632.395	16418
632.457	17800
632.519	17466
632.581	17270
632.643	16122
632.706	16241
632.768	16151
632.830	16944
632.892	17557
632.954	16593
633.016	18847
633.078	17292
633.141	17536
633.203	17110
633.265	17876
633.327	18278
633.389	17705
633.451	21437
633.513	25911
633.575	22493
633.637	24751
633.698	22605
633.760	21324
633.822	21723
633.884	22164
633.946	23144
634.008	23773
634.070	24717
634.132	29400
634.193	30648
634.255	35113
634.317	35822
634.379	36414
634.441	29173
634.502	25784
634.564	23657
634.626	20719
634.687	19822
634.749	19096
634.811	18437
634.873	17988
634.934	17496
634.996	19403
635.057	17224
635.119	18166
635.181	18590
635.242	20328
635.304	16704
635.365	21411
635.427	18479
635.488	19969
635.550	17795
635.611	20347
635.673	18304
635.734	24341
635.796	23420
635.857	28993
635.918	30377
635.980	35029
636.041	36112
636.102	40250
636.164	40340
636.225	38247
636.286	30500
636.348	28419
636.409	23732
636.470	21249
636.531	20363
636.593	19025
636.654	17928
636.715	17344
636.776	16319
636.838	14932
636.899	15658
636.960	15391
637.021	13919
637.082	14085
637.143	14043
637.204	13660
637.265	12754
637.326	14844
637.387	14121
637.448	13810
637.509	14351
637.570	12768
637.631	14908
637.692	12664
637.753	11961
637.814	12884
637.875	12466
637.936	14756
637.997	12993
638.058	13962
638.119	12494
638.179	12661
638.240	10726
638.301	12521
638.362	11225
638.423	11642
638.483	12758
638.544	10370
638.605	11667
638.666	11172
638.726	12261
638.787	13265
638.848	10739
638.908	11402
638.969	11198
639.030	10562
639.090	9427
639.151	10909
639.211	13004
639.272	18914
639.332	32419
639.393	17827
639.453	13484
639.514	15303
639.574	11916
639.635	11108
639.695	10884
639.756	10341
639.816	14081
639.877	16506
639.937	29845
639.997	37125
640.058	13521
640.118	10267
640.178	11867
640.239	10850
640.299	9987
640.359	10904
640.420	12067
640.480	14534
640.540	18010
640.600	18360
640.661	15272
640.721	15472
640.781	19936
640.841	13545
640.901	11351
640.961	13203
641.021	14167
641.082	17794
641.142	24163
641.202	16139
641.262	7862
641.322	10161
641.382	8605
641.442	11279
641.502	9378
641.562	10330
641.622	9890
641.682	11840
641.742	14749
641.802	13098
641.861	11870
641.921	11728
641.981	14260
642.041	14405
642.101	17190
642.161	9920
642.221	7857
642.280	9162
642.340	8342
642.400	9246
642.460	10414
642.519	9151
642.579	9988
642.639	11121
642.698	7520
642.758	12806
642.818	10527
642.877	10410
642.937	11303
642.997	14651
643.056	21727
643.116	11753
643.175	11704
643.235	11108
643.294	11972
643.354	14196
643.414	15588
643.473	21603
643.532	27700
643.592	44327
643.651	76636
643.711	145126
643.770	309200
643.830	791060
643.889	1510116
643.948	311814
644.008	55093
644.067	32015
644.126	22648
644.186	19201
644.245	15483
644.304	12493
644.363	14557
644.423	11265
644.482	11573
644.541	13548
644.600	13097
644.659	20057
644.719	26494
644.778	44720
644.837	82564
644.896	189776
644.955	421525
645.014	113173
645.073	24483
645.132	17913
645.191	14316
645.250	13261
645.309	14679
645.368	16526
645.427	24316
645.486	45661
645.545	76236
645.604	19872
645.663	12102
645.722	14087
645.781	15370
645.840	19218
645.898	25468
645.957	41313
646.016	69008
646.075	139828
646.134	289163
646.192	821883
646.251	1057239
646.310	135694
646.369	38173
646.427	29799
646.486	20063
646.545	15933
646.603	12722
646.662	12323
646.721	11699
646.779	12021
646.838	12640
646.896	19283
646.955	26873
647.014	47814
647.072	99318
647.131	272793
647.189	106945
647.248	15658
647.306	10792
647.365	10497
647.423	7374
647.481	9528
647.540	6661
647.598	8034
647.657	6792
647.715	8075
647.773	6669
647.832	8139
647.890	5229
647.948	6961
648.007	6808
648.065	5500
648.123	6651
648.181	8387
648.240	7608
648.298	6061
648.356	5893
648.414	7141
648.472	6289
648.531	6709
648.589	5283
648.647	5577
648.705	5894
648.763	6489
648.821	7208
648.879	8315
648.937	10310
648.995	13637
649.053	19435
649.111	33922
649.169	60464
649.227	116707
649.285	260149
649.343	725622
649.401	289206
649.459	66914
649.516	34972
649.574	21039
649.632	31584
649.690	34026
649.748	24900
649.806	35949
649.863	70724
649.921	192613
649.979	105009
650.037	14449
650.094	7475
650.152	8806
650.210	5385
650.268	7398
650.325	6104
650.383	6585
650.440	3869
650.498	5263
650.556	5347
650.613	4819
650.671	5167
650.728	5622
650.786	6322
650.843	9176
650.901	4992
650.958	5371
651.016	4795
651.073	4882
651.131	3536
651.188	3862
651.246	4684
651.303	3350
651.360	3758
651.418	4928
651.475	3666
651.532	2840
651.590	5178
651.647	3601
651.704	3549
651.762	4602
651.819	4456
651.876	3747
651.933	4042
651.990	4680
652.048	2487
652.105	3036
652.162	3624
652.219	3778
652.276	3409
652.333	3257
652.390	2413
652.448	4494
652.505	3618
652.562	4085
652.619	4950
652.676	5355
652.733	6240
652.790	4097
652.847	2910
652.904	4254
652.961	2817
653.017	3245
653.074	3999
653.131	5143
653.188	1958
653.245	3535
653.302	3536
653.359	3909
653.415	3314
653.472	3408
653.529	4575
653.586	2758
653.642	3035
653.699	4128
653.756	2491
653.813	3275
653.869	3426
653.926	3820
653.983	2695
654.039	3536
654.096	3313
654.152	4177
654.209	1798
654.266	4348
654.322	2007
654.379	4579
654.435	3943
654.492	4355
654.548	6783
654.605	10804
654.661	5351
654.717	2971
654.774	3346
654.830	3007
654.887	2693
654.943	2932
655.000	3875
655.056	3457
655.112	3970
655.168	3018
655.225	3386
655.281	4305
655.337	4001
655.394	4681
655.450	4408
655.506	3692
655.562	3902
655.618	5298
655.675	2305
655.731	4013
655.787	2852
655.843	3372
655.899	2352
655.955	3529
656.011	3568
656.067	2375
656.123	3036
656.179	3455
656.235	5044
656.291	2823
656.347	3798
656.403	3552
656.459	2531
656.515	4366
656.571	3033
656.627	3266
656.683	2651
656.739	3830
656.795	4113
656.850	4971
656.906	5201
656.962	5408
657.018	3100
657.074	5098
657.129	5349
657.185	9330
657.241	18364
657.297	9218
657.352	3773
657.408	3072
657.464	4155
657.519	3196
657.575	2275
657.630	2425
657.686	1944
657.742	2711
657.797	1269
657.853	2524
657.908	3079
657.964	2194
658.019	2911
658.075	3335
658.130	2819
658.186	1340
658.241	2251
658.297	2548
658.352	2151
658.407	3651
658.463	1168
658.518	2848
658.573	2525
658.629	1195
658.684	1785
658.739	3314
658.795	2221
658.850	3103
658.905	2288
658.960	2693
659.016	2104
659.071	3121
659.126	2794
659.181	4300
659.236	9923
659.291	9455
659.346	4483
659.401	4208
659.457	4252
659.512	4638
659.567	3431
659.622	2711
659.677	2204
659.732	1934
659.787	2214
659.842	2454
659.897	2539
659.952	2700
660.007	1936
660.061	2793
660.116	1090
660.171	2381
660.226	1975
660.281	3360
660.336	1021
660.391	3475
660.445	920
660.500	3094
660.555	2093
660.610	1886
660.664	2525
660.719	2056
660.774	2519
660.828	3292
660.883	2286
660.938	2548
660.992	595
661.047	2345
661.101	1157
661.156	2657
661.211	1448
661.265	2315
661.320	2510
661.374	3222
661.429	1594
661.483	2711
661.538	304
661.592	2779
661.647	1982
661.701	2670
661.755	2060
661.810	1661
661.864	1365
661.919	2156
661.973	2179
662.027	1822
662.081	1052
662.136	1610
662.190	1747
662.244	2218
662.299	1795
662.353	3107
662.407	1449
662.461	801
662.515	1951
662.569	2029
662.624	2779
662.678	1538
662.732	1296
662.786	2384
662.840	1845
662.894	1845
662.948	1873
663.002	1760
663.056	1661
663.110	1361
663.164	1620
663.218	2838
663.272	3008
663.326	2348
663.380	2753
663.434	2779
663.488	1451
663.542	2127
663.595	2033
663.649	1603
663.703	1476
663.757	2749
663.811	910
663.864	2234
663.918	2509
663.972	2196
664.026	2391
664.079	1134
664.133	2173
664.187	2612
664.240	1426
664.294	1671
664.348	2222
664.401	2524
664.455	1663
664.508	2377
664.562	1955
664.615	2444
664.669	909
664.722	2321
664.776	1668
664.829	2629
664.883	1251
664.936	1505
664.990	2131
665.043	2729
665.097	1782
665.150	3181
665.203	877
665.257	1804
665.310	1845
665.363	3138
665.417	2200
665.470	1961
665.523	1950
665.576	2479
665.630	2326
665.683	2368
665.736	1955
665.789	2710
665.842	994
665.895	2107
665.949	1320
666.002	2205
666.055	1306
666.108	2534
666.161	2184
666.214	2531
666.267	3223
666.320	4163
666.373	2746
666.426	2831
666.479	1700
666.532	2330
666.585	2186
666.638	3377
666.691	2060
666.744	3046
666.796	1691
666.849	2535
666.902	1672
666.955	2343
667.008	1240
667.060	2171
667.113	948
667.166	2172
667.219	2275
667.271	2097
667.324	1241
667.377	2538
667.430	1409
667.482	2982
667.535	2013
667.587	4213
667.640	2893
667.693	4373
667.745	9759
667.798	9882
667.850	2206
667.903	2451
667.955	1826
668.008	2856
668.060	2734
668.113	1685
668.165	2569
668.218	2260
668.270	1845
668.322	1555
668.375	828
668.427	1744
668.479	1683
668.532	2460
668.584	1288
668.636	1748
668.689	1993
668.741	2521
668.793	2653
668.845	1767
668.898	1854
668.950	2896
669.002	1743
669.054	1577
669.106	1510
669.158	2959
669.211	2229
669.263	2312
669.315	2185
669.367	3471
669.419	2570
669.471	3931
669.523	4698
669.575	6902
669.627	4038
669.679	2737
669.731	2994
669.783	4156
669.835	3863
669.886	4656
669.938	1903
669.990	2365
670.042	2055
670.094	2336
670.146	1970
670.197	3232
670.249	3062
670.301	3535
670.353	6296
670.404	8933
670.456	11608
670.508	19511
670.560	32488
670.611	57291
670.663	99901
670.715	258187
670.766	360923
670.818	80644
670.869	13924
670.921	8749
670.972	6778
671.024	5093
671.075	4055
671.127	4183
671.178	2583
671.230	3106
671.281	3711
671.333	4272
671.384	4418
671.436	5948
671.487	7992
671.538	12678
671.590	19051
671.641	33174
671.692	60269
671.744	109952
671.795	67626
671.846	24158
671.897	11398
671.949	7730
672.000	5049
672.051	4569
672.102	4122
672.153	2644
672.204	2028
672.256	2114
672.307	2732
672.358	2688
672.409	1362
672.460	2054
672.511	2130
672.562	1610
672.613	2152
672.664	1535
672.715	2651
672.766	2059
672.817	1671
672.868	1014
672.919	1442
672.970	1124
673.021	1010
673.071	2093
673.122	115
673.173	1840
673.224	1110
673.275	1942
673.326	1137
673.376	1381
673.427	386
673.478	659
673.528	2158
673.579	2309
673.630	748
673.680	1869
673.731	906
673.782	920
673.832	1037
673.883	1488
673.934	802
673.984	1588
674.035	883
674.085	1618
674.136	1898
674.186	1704
674.237	849
674.287	1773
674.338	1729
674.388	1898
674.438	1151
674.489	2256
674.539	964
674.589	1543
674.640	1775
674.690	1542
674.740	1239
674.791	1426
674.841	783
674.891	1425
674.942	1272
674.992	2107
675.042	854
675.092	1104
675.142	133
675.193	301
675.243	1056
675.293	1486
675.343	1891
675.393	1670
675.443	505
675.493	1442
675.543	880
675.593	1692
675.643	822
675.693	701
675.743	853
675.793	1555
675.843	-120
675.893	806
675.943	513
675.993	887
676.043	-306
676.093	1043
676.142	859
676.192	1191
676.242	126
676.292	900
676.341	546
676.391	732
676.441	138
676.491	533
676.540	221
676.590	744
676.640	178
676.689	1040
676.739	-662
676.789	58
676.838	343
676.888	768
676.937	195
676.987	922
677.037	-248
677.086	298
677.136	46
677.185	361
677.235	462
677.284	1070
677.333	29
677.383	148
677.432	-89
677.482	577
677.531	-216
677.580	1134
677.630	111
677.679	769
677.728	-317
677.778	1146
677.827	152
677.876	819
677.925	349
677.975	649
678.024	565
678.073	860
678.122	874
678.171	1000
678.220	656
678.269	814
678.319	962
678.368	1841
678.417	556
678.466	1209
678.515	841
678.564	1177
678.613	208
678.662	262
678.711	528
678.760	528
678.809	-19
678.857	668
678.906	129
678.955	853
679.004	-153
679.053	218
679.102	320
679.151	262
679.199	807
679.248	872
679.297	894
679.346	517
679.394	382
679.443	962
679.492	234
679.540	676
679.589	62
679.638	-182
679.686	199
679.735	968
679.784	-37
679.832	1321
679.881	-131
679.929	189
679.978	79
680.026	-95
680.075	865
680.123	454
680.172	-263
680.220	150
680.268	-187
680.317	-543
680.365	232
680.414	175
680.462	458
680.510	755
680.559	-845
680.607	649
680.655	-678
680.703	785
680.752	-743
680.800	563
680.848	-209
680.896	301
680.945	109
680.993	-157
681.041	-230
681.089	-225
681.137	-752
681.185	172
681.233	-140
681.258	207
681.281	527
681.329	186
681.377	-470
681.380	-431
681.425	104
681.473	730
681.502	-336
681.521	-1102
681.569	1791
681.617	-35
681.624	86
681.665	825
681.713	-333
681.745	-217
681.761	-182
681.809	246
681.857	284
681.867	182
681.904	-202
681.952	1248
681.989	511
682.000	273
682.048	718
682.096	1272
682.111	987
682.143	330
682.191	327
682.233	1487
682.239	1657
682.286	-564
682.334	292
682.354	231
682.382	128
682.430	931
682.476	174
682.477	150
682.525	102
682.572	175
682.598	510
682.620	783
682.667	408
682.715	876
682.720	812
682.763	175
682.810	966
682.841	709
682.857	546
682.905	117
682.952	657
682.963	785
683.000	1178
683.047	382
683.085	1489
683.095	1791
683.142	959
683.190	982
683.206	791
683.237	411
683.284	1627
683.328	157
683.332	25
683.379	1291
683.426	-179
683.449	590
683.473	1351
683.521	-68
683.568	1360
683.571	1314
683.615	718
683.662	1132
683.693	874
683.709	677
683.757	1217
683.804	988
683.814	1054
683.851	1364
683.898	1592
683.936	1207
683.945	1089
683.992	1464
684.039	1948
684.057	1902
684.086	1852
684.133	1647
684.179	824
684.180	784
684.227	2002
684.274	1369
684.300	2236
684.321	2908
684.368	827
684.415	2313
684.422	2158
684.462	1127
684.509	1022
684.543	1236
684.556	1351
684.603	1894
684.649	1191
684.665	1323
684.696	1565
684.743	1496
684.786	1356
684.790	1333
684.837	835
684.883	2395
684.908	2004
684.930	1663
684.977	667
685.023	963
685.029	1065
685.070	1781
685.117	1311
685.150	1604
685.164	1727
685.210	678
685.257	2236
685.272	2091
685.303	1833
685.350	1821
685.393	2236
685.396	2268
685.443	2710
685.490	3164
685.514	3043
685.536	2714
685.583	2331
685.629	2263
685.636	2154
685.675	1645
685.722	2490
685.757	1935
685.768	1764
685.815	2076
685.861	1704
685.878	1892
685.908	2165
685.954	1608
686.000	1943
686.000	1947
686.047	1835
686.093	1863
686.121	2089
686.139	2210
686.185	1939
686.232	2074
686.242	2159
686.278	2391
686.324	2037
686.363	1845
686.370	1837
686.416	1679
686.463	2306
686.484	2029
686.509	1622
686.555	2094
686.601	1924
686.606	1958
686.647	2256
686.693	1735
686.727	1833
686.739	1898
686.785	2271
686.831	2276
686.848	2192
686.877	1956
686.923	2400
686.969	1289
686.969	1284
687.015	2065
687.061	999
687.090	1627
687.107	2032
687.153	1907
687.199	2539
687.211	2455
687.245	2172
687.291	2961
687.332	2301
687.336	2214
687.382	2891
687.428	1857
687.453	1947
687.474	2134
687.520	2052
687.565	3173
687.574	2878
687.611	1758
687.657	2560
687.695	2994
687.702	3070
687.748	3236
687.794	2975
687.816	3015
687.839	2919
687.885	2708
687.931	2950
687.937	2898
687.976	2760
688.022	3073
688.058	2557
688.067	2430
688.113	2881
688.158	2740
688.179	2643
688.204	2546
688.249	2803
688.295	3029
688.300	3020
688.340	2858
688.386	3252
688.421	2732
688.431	2658
688.477	3050
688.522	3460
688.542	3762
688.567	3961
688.613	2676
688.658	2977
688.663	2895
688.703	2352
688.749	2928
688.784	2903
688.794	2898
688.839	2248
688.884	2467
688.905	2802
688.930	3257
688.975	2705
689.020	2807
689.026	2779
689.065	2683
689.110	3240
689.146	3089
689.155	3013
689.201	3312
689.246	2818
689.267	2933
689.291	3142
689.336	3040
689.381	3009
689.388	2989
689.426	2945
689.471	3259
689.509	3113
689.516	3065
689.561	3100
689.606	2768
689.630	2983
689.651	3302
689.696	2960
689.741	3711
689.750	3665
689.785	3294
689.830	3379
689.871	3138
689.875	3138
689.920	3053
689.965	2708
689.992	3033
690.010	3229
690.054	3549
690.099	3478
690.112	3381
690.144	3258
690.189	3469
690.233	3463
690.233	3468
690.278	3602
690.323	3581
690.354	3460
690.367	3512
690.412	3422
690.457	3591
690.474	3674
690.501	3600
690.546	3510
690.590	2968
690.595	2922
690.635	2935
690.680	3303
690.716	3552
690.724	3571
690.769	3482
690.813	3816
690.836	3439
690.857	3395
690.902	4277
690.946	4708
690.957	4953
690.991	5713
691.035	6007
691.077	6852
691.080	6864
691.124	5420
691.168	5779
691.198	5155
691.213	4906
691.257	4534
691.301	4057
691.318	4118
691.346	4308
691.390	3642
691.434	3576
691.439	3547
691.478	3770
691.522	4527
691.559	4454
691.567	4454
691.611	5653
691.655	5101
691.680	5089
691.699	4810
691.743	4654
691.787	4516
691.800	4276
691.831	4070
691.875	4467
691.919	4284
691.921	4286
691.964	4472
692.008	4325
692.041	4072
692.052	4061
692.096	4108
692.139	4644
692.162	4444
692.183	4067
692.227	4117
692.271	3741
692.282	3708
692.315	3990
692.359	3793
692.402	4092
692.403	4104
692.447	4046
692.490	4467
692.523	4511
692.534	4498
692.578	4298
692.622	4314
692.643	4432
692.666	4500
692.709	4168
692.753	3980
692.763	3975
692.797	4226
692.840	4358
692.884	4353
692.884	4363
692.928	4423
692.971	4179
693.004	4111
693.015	4217
693.059	4269
693.102	5180
693.124	5090
693.146	4768
693.189	4840
693.233	4289
693.245	4312
693.276	4677
693.320	4636
693.363	4734
693.365	4723
693.407	4650
693.450	4947
693.485	4706
693.493	4704
693.537	5161
693.580	4960
693.605	5141
693.624	5448
693.667	6230
693.710	6759
693.725	6916
693.753	7791
693.797	9548
693.840	11161
693.845	11312
693.883	10551
693.926	9219
693.966	8381
693.970	8310
694.013	7024
694.056	6325
694.086	5539
694.099	5410
694.142	5351
694.185	4896
694.206	4790
694.229	5064
694.272	5299
694.315	5975
694.326	6031
694.358	6427
694.401	7276
694.444	7970
694.446	7982
694.487	7624
694.530	7103
694.566	6802
694.573	6723
694.616	5865
694.659	5338
694.686	4911
694.702	4956
694.745	5118
694.787	5140
694.806	5263
694.830	5301
694.873	4941
694.916	4842
694.926	4742
694.959	5005
695.002	5862
695.044	6139
695.046	6154
695.087	6215
695.130	5727
695.166	5641
695.172	5667
695.215	5375
695.258	5303
695.286	5060
695.301	4986
695.343	5362
695.386	5137
695.406	5184
695.428	5417
695.471	5488
695.514	5924
695.526	5907
695.556	5539
695.599	5476
695.641	5045
695.646	5019
695.684	5439
695.726	5535
695.766	5889
695.769	5899
695.811	5542
695.854	5369
695.886	5208
695.896	5326
695.938	5612
695.981	6019
696.005	6268
696.023	6290
696.065	6291
696.108	6226
696.125	6108
696.150	6016
696.192	6213
696.235	6015
696.245	6053
696.277	6284
696.319	6171
696.361	6236
696.365	6214
696.404	6249
696.446	6513
696.485	6556
696.488	6579
696.530	6649
696.572	6768
696.604	6835
696.614	6827
696.656	6661
696.698	6497
696.724	6361
696.740	6420
696.783	6639
696.825	6766
696.844	6878
696.867	6999
696.909	6871
696.951	7018
696.964	7007
696.992	6915
697.034	6847
697.076	6629
697.083	6582
697.118	6865
697.160	7220
697.202	7550
697.203	7536
697.244	6970
697.286	6521
697.323	5964
697.327	6033
697.369	6612
697.411	7017
697.442	7417
697.453	7478
697.494	7516
697.536	7697
697.562	7721
697.578	7841
697.620	8155
697.661	8439
697.682	8565
697.703	8776
697.744	9172
697.786	9612
697.801	9683
697.828	9639
697.869	9611
697.911	9557
697.921	9536
697.952	8874
697.994	7909
698.035	6952
698.040	6817
698.077	7132
698.118	7459
698.160	7765
698.160	7743
698.201	7671
698.243	7513
698.279	7437
698.284	7481
698.325	7612
698.367	7810
698.399	7898
698.408	7887
698.449	7750
698.491	7614
698.518	7493
698.532	7573
698.573	7762
698.614	7968
698.638	8051
698.656	8005
698.697	7851
698.738	7689
698.757	7600
698.779	7750
698.820	7975
698.862	8202
698.877	8263
698.903	8484
698.944	8798
698.985	9113
698.996	9176
699.026	9038
699.067	8810
699.116	8515
699.235	7475
699.354	7866
699.474	7639
699.593	8245
699.713	8874
699.832	8505
699.951	9066
700.070	8863
700.190	8188
700.309	7671
700.428	7515
700.547	8023
700.667	7967
700.786	7779
700.905	7277
701.024	7670
701.143	6802
701.262	7891
701.381	7787
701.500	8497
701.619	10892
701.738	8361
701.857	7800
701.976	7211
702.095	8455
702.214	9283
702.333	9985
702.452	8597
702.571	7262
702.690	8136
702.809	7900
702.928	9012
703.047	7595
703.165	8012
703.284	7121
703.403	7457
703.522	7973
703.640	8270
703.759	9028
703.878	8995
703.997	7278
704.115	7632
704.234	6994
704.353	7277
704.471	7312
704.590	6974
704.708	6681
704.827	6694
704.946	7069
705.064	6019
705.183	6716
705.301	6918
705.420	7334
705.538	6961
705.656	5896
705.775	7645
705.893	10136
706.012	11299
706.130	5944
706.249	7442
706.367	6960
706.485	6933
706.604	6061
706.722	7613
706.840	8782
706.958	8924
707.077	7131
707.195	6837
707.313	6957
707.431	6131
707.549	5570
707.668	5779
707.786	7623
707.904	5864
708.022	6440
708.140	5892
708.258	5735
708.376	6674
708.494	6170
708.612	7164
708.730	6366
708.848	6607
708.966	8152
709.084	7462
709.202	6928
709.320	6230
709.438	6370
709.556	6462
709.674	5917
709.791	6456
709.909	5982
710.027	5701
710.145	5504
710.263	5983
710.380	5661
710.498	5895
710.616	5472
710.733	6618
710.851	5442
710.969	6167
711.086	6197
711.204	7218
711.322	4945
711.439	6048
711.557	5489
711.674	5651
711.792	5826
711.909	6573
712.027	6407
712.144	5089
712.262	6240
712.379	6449
712.497	5871
712.614	6713
712.732	6835
712.849	6872
712.966	7601
713.084	10318
713.201	6696
713.318	6302
713.436	5506
713.553	6054
713.670	6030
713.787	7339
713.905	6909
714.022	6626
714.139	7040
714.256	9835
714.373	14573
714.490	30885
714.608	94817
714.725	409660
714.842	277962
714.959	18157
715.076	8989
715.193	8234
715.310	7337
715.427	6060
715.544	6503
715.661	5966
715.778	6279
715.895	6550
716.011	6173
716.128	6061
716.245	6825
716.362	10218
716.479	8934
716.596	6715
716.713	5390
716.829	5737
716.946	5328
717.063	5588
717.180	4989
717.296	5726
717.413	5778
717.530	6307
717.646	5156
717.763	5399
717.880	5451
717.996	5060
718.113	6296
718.229	5498
718.346	4730
718.462	6636
718.579	10530
718.695	22095
718.812	9530
718.928	6230
719.045	5426
719.161	5925
719.277	5401
719.394	5642
719.510	5562
719.626	5589
719.743	6659
719.859	12897
719.975	26621
720.092	118411
720.208	191237
720.324	17218
720.440	6393
720.557	8557
720.673	16032
720.789	10204
720.905	7473
721.021	5099
721.137	4421
721.253	5152
721.369	4759
721.486	4881
721.602	5144
721.718	4442
721.834	4152
721.950	4865
722.066	4772
722.181	4023
722.297	5538
722.413	5366
722.529	4625
722.645	4555
722.761	3951
722.877	4832
722.993	4493
723.108	4807
723.224	4927
723.340	4516
723.456	4055
723.571	4426
723.687	3822
723.803	4518
723.918	4163
724.034	3831
724.150	3835
724.265	4364
724.381	5538
724.497	4238
724.612	4005
724.728	4000
724.843	3250
724.959	4181
725.074	5285
725.190	5444
725.305	4620
725.421	4270
725.536	2669
725.651	4165
725.767	3574
725.882	4800
725.997	3475
726.113	4036
726.228	3487
726.343	3880
726.459	3558
726.574	3688
726.689	3730
726.804	3852
726.920	3528
727.035	3510
727.150	3672
727.265	3305
727.380	4149
727.495	4553
727.610	3790
727.725	3867
727.841	4404
727.956	6494
728.071	5032
728.186	4098
728.301	4151
728.416	4624
728.531	4779
728.645	4269
728.760	4562
728.875	5572
728.990	5369
729.105	4912
729.220	4217
729.335	5333
729.449	3981
729.564	3873
729.679	2971
729.794	4386
729.908	3816
730.023	3506
730.138	2894
730.253	3365
730.367	3180
730.482	4489
730.596	3728
730.711	4443
730.826	4910
730.940	4953
731.055	4682
731.169	4069
731.284	4137
731.398	3386
731.513	4027
731.627	4613
731.742	4764
731.856	5203
731.970	5594
732.085	6851
732.199	9103
732.313	15704
732.428	44996
732.542	127670
732.656	50771
732.771	10936
732.885	6501
732.999	7650
733.113	6182
733.227	6546
733.342	5872
733.456	5774
733.570	4918
733.684	5598
733.798	4639
733.912	5703
734.026	4977
734.140	5009
734.254	5441
734.368	5779
734.482	5174
734.596	4510
734.710	4795
734.824	4985
734.938	5152
735.052	5020
735.166	5216
735.280	4717
735.393	4046
735.507	4518
735.621	4541
735.735	4426
735.849	5183
735.962	5075
736.076	4255
736.190	4435
736.303	4570
736.417	5184
736.531	4120
736.644	4993
736.758	4139
736.872	4331
736.985	4574
737.099	4722
737.212	3727
737.326	3888
737.439	4401
737.553	4286
737.666	4582
737.780	3870
737.893	4525
738.007	4437
738.120	3865
738.233	4653
738.347	4082
738.460	4621
738.573	4944
738.687	5357
738.800	5278
738.913	8020
739.026	5348
739.140	4518
739.253	3978
739.366	4376
739.479	4190
739.592	3860
739.705	3769
739.818	4695
739.932	4268
740.045	4168
740.158	4987
740.271	4392
740.384	4188
740.497	4690
740.610	5366
740.723	4657
740.836	4436
740.949	6691
741.062	6946
741.174	5560
741.287	4062
741.400	4257
741.513	4638
741.626	5317
741.739	4601
741.851	4585
741.964	4061
742.077	3541
742.189	3936
742.302	5224
742.415	5105
742.527	3944
742.640	2947
742.753	4515
742.865	4449
742.978	3164
743.090	3211
743.203	3262
743.316	2873
743.428	3304
743.541	3110
743.653	3727
743.766	3508
743.878	3914
743.990	3769
744.103	3640
744.215	3979
744.327	4274
744.440	5345
744.552	9631
744.664	4718
744.777	3856
744.889	3501
745.001	4021
745.113	2964
745.226	4133
745.338	3204
745.450	3314
745.562	2787
745.674	3698
745.786	2264
745.898	3492
746.010	3051
746.122	3493
746.234	3341
746.347	3511
746.459	3597
746.570	2597
746.682	3398
746.794	3776
746.906	3664
747.018	3197
747.130	2721
747.242	2644
747.354	3455
747.466	3880
747.577	2829
747.689	3215
747.801	3192
747.913	2149
748.024	2753
748.136	2367
748.248	2529
748.359	2566
748.471	2280
748.583	3060
748.694	2742
748.806	3337
748.918	3259
749.029	3341
749.141	4202
749.252	3770
749.364	5056
749.475	10822
749.587	4394
749.698	2543
749.809	2539
749.921	2904
750.032	2600
750.144	2541
750.255	2763
750.366	2959
750.478	2669
750.589	2286
750.700	2995
750.811	2772
750.923	4754
751.034	13830
751.145	10861
751.256	3238
751.367	2714
751.479	2078
751.590	2484
751.701	2430
751.812	2438
751.923	2321
752.034	2343
752.145	2702
752.256	1996
752.367	3349
752.478	2208
752.589	3003
752.700	2188
752.811	2254
752.922	1989
753.032	3410
753.143	2861
753.254	1854
753.365	2723
753.476	1708
753.586	2094
753.697	2269
753.808	2315
753.919	2058
754.029	1617
754.140	1985
754.251	2593
754.361	2138
754.472	2022
754.582	2133
754.693	2154
754.804	3009
754.914	1841
755.025	1896
755.135	2666
755.246	2195
755.356	2231
755.466	3179
755.577	1982
755.687	2342
755.798	2490
755.908	2348
756.018	1755
756.129	2437
756.239	1806
756.349	2879
756.460	2087
756.570	2681
756.680	1426
756.790	3594
756.900	3048
757.011	1515
757.121	1877
757.231	2036
757.341	1907
757.451	2405
757.561	1766
757.671	2141
757.781	1178
757.891	3324
758.001	1910
758.111	2570
758.221	2416
758.331	3407
758.441	3536
758.551	5512
758.661	3271
758.771	2855
758.880	2229
758.990	1742
759.100	1410
759.210	2490
759.320	2618
759.429	2262
759.539	2336
759.649	2643
759.758	2769
759.868	3383
759.978	2769
760.087	3779
760.197	3454
760.307	3473
760.416	3036
760.526	2289
760.635	2783
760.745	3382
760.854	3243
760.964	3545
761.073	2823
761.182	3152
761.292	2734
761.401	2764
761.511	1868
761.620	2128
761.729	1621
761.839	1859
761.948	2747
762.057	2946
762.166	2016
762.276	1662
762.385	2275
762.494	2379
762.603	2130
762.712	2637
762.822	1950
762.931	2104
763.040	2035
763.149	2373
763.258	1629
763.367	2651
763.476	2336
763.585	1980
763.694	1674
763.803	2874
763.912	2651
764.021	2977
764.130	1534
764.238	1910
764.347	2302
764.456	2980
764.565	2386
764.674	2734
764.783	3234
764.891	2408
765.000	3949
765.109	3263
765.217	3452
765.326	4899
765.435	5683
765.543	6964
765.652	7258
765.761	9445
765.869	14158
765.978	23468
766.086	44414
766.195	94161
766.303	268290
766.412	658344
766.520	401061
766.629	87920
766.737	35096
766.846	21117
766.954	13911
767.062	12259
767.171	9351
767.279	7823
767.387	6202
767.496	5420
767.604	4463
767.712	4525
767.820	3717
767.928	3939
768.037	3452
768.145	4277
768.253	4097
768.361	3521
768.469	3084
768.577	3588
768.685	3309
768.793	3587
768.901	4029
769.009	4975
769.117	4853
769.225	6629
769.333	10846
769.441	17100
769.549	35897
769.657	92839
769.765	319304
769.873	478552
769.981	111519
770.088	25532
770.196	14066
770.304	10133
770.412	7588
770.519	5889
770.627	4161
770.735	3990
770.842	3494
770.950	4020
771.058	3041
771.165	5164
771.273	2984
771.380	3585
771.488	4647
771.595	3901
771.703	3826
771.810	3496
771.918	3059
772.025	3866
772.133	4753
772.240	4036
772.348	3445
772.455	3939
772.562	2905
772.670	3931
772.777	3755
772.884	4190
772.991	3077
773.099	3153
773.206	2996
773.313	3596
773.420	2514
773.528	3537
773.635	2607
773.742	4341
773.849	3212
773.956	3034
774.063	3700
774.170	2860
774.277	3911
774.384	3555
774.491	2668
774.598	3760
774.705	3094
774.812	6279
774.919	4310
775.026	3339
775.133	3079
775.239	2310
775.346	2855
775.453	3407
775.560	2875
775.667	2792
775.773	1466
775.880	2936
775.987	2456
776.093	4244
776.200	2436
776.307	1894
776.413	2464
776.520	2399
776.627	3236
776.733	1896
776.840	1373
776.946	3908
777.053	2664
777.159	4244
777.266	2515
777.372	4734
777.478	3259
777.585	3453
777.691	2125
777.798	2937
777.904	2978
778.010	6206
778.117	4380
778.223	2912
778.329	2371
778.435	1993
778.542	2973
778.648	3043
778.754	1411
778.860	2506
778.966	2281
779.072	2347
779.178	2195
779.284	2303
779.391	2271
779.497	1078
779.603	2596
779.708	1565
779.815	3120
779.920	7231
780.026	6562
780.132	3159
780.238	1094
780.344	2538
780.450	2690
780.556	1475
780.661	1548
780.767	1760
780.873	1450
780.979	3501
781.085	1009
781.190	1772
781.296	2165
781.402	2113
781.507	1500
781.613	1595
781.719	1247
781.824	2104
781.930	2034
782.035	2159
782.141	1861
782.246	1750
782.352	1902
782.457	1186
782.563	2136
782.668	2823
782.773	1190
782.879	1460
782.984	2611
783.090	3599
783.195	5070
783.300	2786
783.405	1670
783.511	1763
783.616	2171
783.721	1657
783.826	637
783.932	2475
784.037	1807
784.142	1963
784.247	642
784.352	2425
784.457	1146
784.562	2419
784.667	1660
784.772	1890
784.877	805
784.982	2368
785.087	2269
785.192	2309
785.297	375
785.402	2018
785.507	1337
785.611	1130
785.716	832
785.821	1648
785.926	1412
786.031	994
786.135	949
786.240	1465
786.345	-235
786.450	1361
786.554	928
786.659	665
786.763	514
786.868	1378
786.973	1804
787.077	1029
787.182	1373
787.286	1823
787.391	1314
787.495	533
787.600	44
787.704	732
787.809	1163
787.913	822
788.017	793
788.122	1872
788.226	869
788.330	1297
788.435	1240
788.539	726
788.643	646
788.747	685
788.852	1260
788.956	1565
789.060	1212
789.164	673
789.268	720
789.372	2064
789.476	582
789.580	618
789.684	266
789.788	911
789.892	666
789.996	1767
790.100	609
790.204	1513
790.308	1176
790.412	786
790.516	1076
790.620	1635
790.724	1559
790.828	1138
790.931	200
791.035	2814
791.139	353
791.242	166
791.346	1726
791.450	1138
791.554	572
791.657	475
791.761	1510
791.864	1507
791.968	531
792.072	1440
792.175	655
792.279	898
792.382	993
792.486	1122
792.589	400
792.693	1752
792.796	-784
792.899	2396
793.003	2340
793.106	-215
793.209	620
793.313	2326
793.416	-404
793.519	2137
793.623	4335
793.726	4818
793.829	1029
793.932	960
794.035	213
794.138	2534
794.242	1609
794.345	539
794.448	2355
794.551	4074
794.654	5994
794.757	4174
794.860	605
794.963	1056
795.066	177
795.169	1649
795.272	717
795.375	1128
795.477	1035
795.580	1349
795.683	-314
795.786	968
795.889	-512
795.991	1271
796.094	1527
796.197	-1004
796.300	1326
796.402	240
796.505	322
796.608	267
796.710	1526
796.813	556
796.915	452
797.018	1026
797.120	914
797.223	-531
797.326	1088
797.428	565
797.530	150
797.633	666
797.735	1879
797.838	581
797.940	1789
798.042	20
798.145	162
798.247	1030
798.349	-540
798.452	575
798.554	438
798.656	738
798.758	1461
798.860	692
798.962	291
799.065	-369
799.167	-216
799.269	1315
799.371	1189
799.473	1950
799.575	543
799.677	320
799.779	3166
799.881	2715
799.983	2111
800.085	834
800.187	398
800.289	142
800.390	-20
800.492	704
800.594	1119
800.696	-344
800.798	495
800.899	203
801.001	717
801.103	501
801.205	244
801.306	551
801.408	-171
801.509	765
801.611	733
801.713	537
801.814	11
801.916	516
802.017	629
802.119	-123
802.220	144
802.322	-611
802.423	2258
802.525	-534
802.626	-113
802.727	625
802.829	1042
802.930	-1113
803.031	1888
803.133	343
803.234	270
803.335	1331
803.436	-298
803.538	519
803.639	-1075
803.740	1244
803.841	-717
803.942	733
804.043	863
804.144	-382
804.245	371
804.346	-547
804.447	805
804.548	2447
804.649	2404
804.750	323
804.851	-41
804.952	232
805.053	589
805.154	-115
805.255	-148
805.355	46
805.456	-40
805.557	-972
805.658	-1062
805.758	1010
805.859	805
805.960	161
806.061	-351
806.161	-187
806.262	874
806.362	930
806.463	143
806.564	761
806.664	-686
806.765	-211
806.865	174
806.966	-71
807.066	-267
807.166	801
807.267	909
807.367	11
807.468	1321
807.568	-214
807.668	24
807.769	707
807.869	-741
807.969	259
808.069	18
808.170	790
808.270	110
808.370	1549
808.470	1962
808.570	808
808.670	-881
808.770	672
808.870	-979
808.970	697
809.070	-398
809.170	-472
809.271	-501
809.370	-230
809.470	497
809.570	185
809.670	-321
809.770	302
809.870	286
809.970	437
810.070	-324
810.169	88
810.269	-1294
810.369	1230
810.469	-326
810.568	-8
810.668	-317
810.768	433
810.867	329
810.967	-189
811.066	-262
811.166	-97
811.265	143
811.365	-288
811.464	-281
811.564	411
811.663	76
811.763	-1077
811.862	174
811.962	778
812.061	-552
812.160	-317
812.260	25
812.359	-109
812.458	58
812.557	1277
812.657	711
812.756	845
812.855	-186
812.954	-1012
813.053	882
813.153	-171
813.252	-1178
813.351	393
813.450	-239
813.549	-355
813.648	75
813.747	127
813.846	787
813.945	-765
814.044	122
814.143	135
814.242	926
814.341	-820
814.439	430
814.538	902
814.637	-806
814.736	153
814.835	1173
814.933	-184
815.032	188
815.131	426
815.229	1002
815.328	1556
815.427	1241
815.525	2404
815.624	1871
815.722	1578
815.821	1739
815.919	869
816.018	947
816.116	2641
816.215	1088
816.313	2203
816.412	1600
816.510	1829
816.609	4286
816.707	2589
816.805	1597
816.904	1596
817.002	2100
817.100	3793
817.198	4088
817.296	3436
817.395	2829
817.493	4943
817.591	3886
817.689	6569
817.787	7868
817.885	14242
817.983	26596
818.081	59643
818.179	149824
818.277	341799
818.375	222348
818.473	56909
818.571	23510
818.669	16140
818.767	14854
818.865	15296
818.963	17763
819.061	28607
819.158	51520
819.256	119811
819.354	287497
819.452	525335
819.549	269395
819.647	76216
819.745	32871
819.842	20829
819.940	14288
820.038	9813
820.135	7842
820.233	8044
820.330	5273
820.428	3390
820.525	4804
820.623	3812
820.720	2300
820.818	3447
820.915	2800
821.012	3559
821.110	832
821.207	2728
821.304	2001
821.402	1789
821.499	2419
821.596	2160
821.693	2573
821.791	2766
821.888	3035
821.985	7187
822.082	3857
822.179	2693
822.276	1352
822.373	1535
822.470	1623
822.567	1515
822.664	209
822.761	2482
822.858	-543
822.955	1608
823.052	847
823.149	828
823.246	942
823.343	829
823.440	1439
823.536	1000
823.633	288
823.730	1044
823.827	1091
823.923	1186
824.020	1746
824.117	561
824.213	202
824.310	1279
824.407	72
824.503	1005
824.600	967
824.696	834
824.793	1963
824.889	350
824.986	261
825.082	276
825.179	1454
825.275	642
825.371	-217
825.468	1093
825.564	-594
825.660	1323
825.757	406
825.853	1384
825.949	-780
826.045	815
826.142	301
826.238	375
826.334	561
826.430	320
826.526	462
826.622	228
826.718	357
826.814	-79
826.910	667
827.006	-222
827.102	-686
827.198	1386
827.294	17
827.390	742
827.486	330
827.582	-378
827.678	-463
827.774	927
827.869	150
827.965	713
828.061	140
828.157	496
828.252	-158
828.348	-698
828.444	1015
828.539	-372
828.635	-580
828.731	696
828.826	-34
828.922	616
829.017	-552
829.113	426
829.208	-520
829.304	166
829.399	1366
829.495	-7
829.590	379
829.685	-32
829.781	80
829.876	-264
829.971	-655
830.066	-69
830.162	966
830.257	67
830.352	-622
830.447	333
830.543	264
830.638	-1001
830.733	1101
830.828	-604
830.923	329
831.018	-257
831.113	521
831.208	-749
831.303	-89
831.398	597
831.493	255
831.588	428
831.683	-1534
831.778	-185
831.873	-326
831.967	1150
832.062	-570
832.157	-916
832.252	895
832.346	-131
832.441	1568
832.536	1756
832.631	5876
832.725	3050
832.820	-99
832.914	-221
833.009	-411
833.104	1417
833.198	1336
833.293	295
833.387	253
833.482	527
833.576	-53
833.670	460
833.765	108
833.859	459
833.954	735
834.048	735
834.142	-78
834.237	35
834.331	-520
834.425	-86
834.519	-1733
834.613	-312
834.708	-984
834.802	-387
834.896	-1470
834.990	-210
835.084	114
835.178	749
835.272	238
835.366	-1113
835.460	673
835.554	-742
835.648	-607
835.742	-50
835.836	-334
835.930	-1073
836.024	20
836.117	1112
836.211	-608
836.305	37
836.399	424
836.493	-839
836.586	47
836.680	-251
836.774	-423
836.867	265
836.961	-659
837.055	335
837.148	18
837.242	-604
837.335	167
837.429	-386
837.522	-829
837.616	-349
837.709	179
837.803	-686
837.896	-33
837.989	-773
838.083	-189
838.176	1257
838.269	-660
838.363	1562
838.456	-243
838.549	794
838.642	2787
838.735	6500
838.829	1983
838.922	-359
839.015	-347
839.108	-765
839.201	58
839.294	80
839.387	-133
839.480	-621
839.573	-250
839.666	-669
839.759	-326
839.852	-506
839.945	107
840.038	-463
840.131	-1250
840.223	-485
840.316	88
840.409	-996
840.502	-307
840.594	571
840.687	-1044
840.780	260
840.873	-880
840.965	595
841.058	-78
841.150	87
841.243	-1418
841.336	-248
841.428	-933
841.521	-598
841.613	-907
841.706	393
841.798	-622
841.890	-51
841.983	-1741
842.075	162
842.167	-861
842.260	-487
842.352	706
842.444	-505
842.537	-175
842.629	642
842.721	-451
842.813	-862
842.905	-916
842.997	78
843.090	-885
843.182	-436
843.274	-1042
843.366	281
843.458	129
843.550	489
843.642	-478
843.734	-81
843.826	-873
843.918	203
844.009	-51
844.101	-397
844.193	-483
844.285	-571
844.377	-281
844.469	-127
844.560	-1161
844.652	335
844.744	-121
844.835	-86
844.927	-999
845.019	-716
845.110	-278
845.202	-35
845.293	-1109
845.385	-1445
845.476	-860
845.568	12
845.659	-430
845.751	-39
845.842	-1343
845.934	-1010
846.025	-659
846.116	-231
846.208	-373
846.299	-895
846.390	-1081
846.482	-363
846.573	419
846.664	135
846.755	939
846.846	1176
846.937	-1723
847.029	-244
847.120	-81
847.211	-861
847.302	172
847.393	-1912
847.484	-740
847.575	-482
847.666	-236
847.757	486
847.847	-814
847.938	141
848.029	-567
848.120	-443
848.211	-1228
848.302	-719
848.392	-801
848.483	-143
848.574	-1929
848.664	-107
848.755	129
848.846	-280
848.936	-123
849.027	-634
849.118	156
849.208	-565
849.299	547
849.389	2188
849.480	5050
849.570	9373
849.661	21059
849.751	32061
849.841	8205
849.932	1072
850.022	-602
850.112	-608
850.203	-568
850.293	-631
850.383	-1033
850.474	-898
850.564	-487
850.654	581
850.744	-357
850.834	-674
850.924	-95
851.014	-236
851.104	211
851.194	-675
851.284	386
851.374	1015
851.464	-970
851.554	343
851.644	-1160
851.734	484
851.824	-133
851.914	-1142
852.004	-6
852.094	-626
852.183	-855
852.273	194
852.363	-886
852.452	357
852.542	-397
852.632	39
852.721	-566
852.811	-46
852.901	-497
852.990	-910
853.080	-436
853.169	581
853.259	-143
853.348	-429
853.438	1264
853.527	2030
853.617	2148
853.706	7221
853.795	14129
853.885	35191
853.974	65433
854.063	123544
854.152	174020
854.242	52589
854.331	7763
854.420	3143
854.509	2030
854.598	2120
854.687	922
854.777	524
854.866	211
854.955	47
855.044	-325
855.133	5
855.222	-114
855.311	-758
855.400	-442
855.488	-150
855.577	-1026
855.666	322
855.755	124
855.844	920
855.933	-537
856.021	-340
856.110	38
856.199	-609
856.288	-240
856.376	-110
856.465	-970
856.554	-390
856.642	-350
856.731	-1253
856.819	-660
856.908	-458
856.996	-762
857.085	-273
857.173	-968
857.262	66
857.350	-614
857.438	-29
857.527	27
857.615	-41
857.703	-827
857.792	-927
857.880	-1366
857.968	-1175
858.056	-641
858.145	-237
858.233	-103
858.321	-599
858.409	-54
858.497	-1381
858.585	-1393
858.673	-132
858.761	-1171
858.849	-469
858.937	-994
859.025	-962
859.113	-103
859.201	-1137
859.289	-622
859.377	-94
859.465	-16
859.552	-394
859.640	-361
859.728	-363
859.816	-366
859.903	-943
859.991	-607
860.079	-254
860.166	-1265
860.254	-275
860.342	-968
860.429	-1065
860.517	-1589
860.604	-61
860.692	-731
860.779	-483
860.867	-559
860.954	76
861.042	-169
861.129	920
861.216	-533
861.304	-394
861.391	-942
861.478	-357
861.565	-662
861.653	70
861.740	-1195
861.827	-1261
861.914	-79
862.001	37
862.089	-649
862.176	-271
862.263	-605
862.350	-781
862.437	-1217
862.524	-878
862.611	-275
862.698	-443
862.785	-855
862.871	116
862.958	-1107
863.045	-694
863.132	-1092
863.219	-608
863.306	-1057
863.392	57
863.479	-245
863.566	-881
863.652	-581
863.739	-402
863.826	-920
863.912	-701
863.999	-747
864.086	-53
864.172	-853
864.259	215
864.345	-649
864.432	-394
864.518	-159
864.604	-291
864.691	-428
864.777	-2
864.863	603
864.950	698
865.036	-713
865.122	2124
865.209	1834
865.295	1044
865.381	1270
865.467	995
865.553	2007
865.639	2854
865.726	7560
865.812	16947
865.898	32040
865.984	47226
866.070	92787
866.156	85937
866.242	17665
866.328	3908
866.414	1047
866.499	783
866.585	229
866.671	1004
866.757	791
866.843	1239
866.928	780
867.014	590
867.100	895
867.186	526
867.271	805
867.357	1014
867.442	412
867.528	457
867.614	-272
867.699	811
867.785	171
867.870	265
867.956	-537
868.041	630
868.127	-30
868.212	704
868.297	299
868.383	915
868.468	1740
868.553	2864
868.639	3777
868.724	8177
868.809	6963
868.894	796
868.979	-327
869.065	629
869.150	-182
869.235	614
869.320	-611
869.405	45
869.490	-229
869.575	-96
869.660	-657
869.745	208
869.830	-807
869.915	-490
870.000	70
870.085	280
870.169	678
870.254	92
870.339	-787
870.424	-404
870.509	91
870.593	438
870.678	124
870.763	-390
870.847	-711
870.932	13
871.016	-367
871.101	-1184
871.186	-101
871.270	210
871.355	-716
871.439	-104
871.523	-637
871.608	-238
871.692	-320
871.777	964
871.861	-581
871.945	-148
872.030	-237
872.114	-43
872.198	-262
872.282	-31
872.367	-622
872.451	278
872.535	-151
872.619	-596
872.703	-42
872.787	480
872.871	-622
872.955	-898
873.039	-851
873.123	-368
873.207	225
873.291	74
873.375	-686
873.459	269
873.543	-1275
873.627	-320
873.711	-688
873.794	-75
873.878	-1248
873.962	-303
874.045	-183
874.129	-409
874.137	-389
874.213	-194
874.245	-430
874.296	-803
874.352	-666
874.380	-603
874.460	55
874.464	82
874.547	-162
874.568	-196
874.631	-283
874.676	-167
874.714	-73
874.784	790
874.798	955
874.881	1271
874.892	1059
874.965	-345
874.999	-331
875.048	-370
875.107	-903
875.131	-1102
875.215	119
875.215	119
875.298	-712
875.323	-263
875.381	917
875.430	778
875.465	625
875.538	-18
875.548	-104
875.631	-748
875.646	-557
875.714	369
875.753	346
875.798	371
875.861	76
875.881	-47
875.964	-376
875.968	-371
876.047	-217
876.076	-81
876.130	115
876.183	12
876.213	-15
876.291	482
876.296	507
876.379	-142
876.398	-220
876.462	-363
876.506	-642
876.545	-919
876.613	-150
876.628	29
876.711	-49
876.721	58
876.794	820
876.828	448
876.877	-55
876.935	304
876.960	414
877.043	311
877.043	310
877.125	557
877.150	600
877.208	507
877.258	664
877.291	795
877.365	611
877.374	562
877.456	51
877.472	7
877.539	179
877.579	302
877.622	311
877.687	532
877.704	601
877.787	215
877.794	249
877.869	586
877.901	343
877.952	3
878.008	327
878.034	408
878.115	-342
878.117	-348
878.199	-107
878.222	4
878.282	21
878.329	54
878.364	227
878.437	790
878.447	797
878.529	-507
878.544	-494
878.611	-189
878.651	-286
878.694	-330
878.758	-232
878.776	-188
878.858	467
878.865	477
878.941	423
878.972	46
879.023	-598
879.078	-37
879.105	305
879.185	-253
879.187	-261
879.269	663
879.292	545
879.351	-95
879.399	-264
879.433	-180
879.506	343
879.516	377
879.598	-707
879.613	-600
879.680	142
879.720	390
879.762	545
879.827	11
879.844	-102
879.926	801
879.933	778
880.007	186
880.040	426
880.089	1128
880.147	1379
880.171	1428
880.253	2739
880.254	2748
880.335	4168
880.360	4623
880.417	6147
880.467	9329
880.499	11390
880.574	12135
880.580	11935
880.662	4144
880.680	3102
880.744	849
880.787	608
880.825	422
880.893	358
880.907	372
880.989	85
881.000	110
881.070	502
881.106	554
881.152	528
881.213	347
881.233	181
881.315	-123
881.319	-134
881.396	882
881.426	1002
881.478	304
881.532	205
881.559	415
881.639	6
881.641	-11
881.722	140
881.745	-95
881.803	-146
881.852	310
881.885	355
881.958	251
881.966	299
882.047	1134
882.064	1165
882.129	864
882.171	934
882.210	1304
882.277	2147
882.291	2196
882.372	634
882.383	609
882.454	718
882.489	549
882.535	270
882.596	232
882.616	314
882.697	366
882.702	373
882.778	249
882.808	336
882.859	517
882.914	558
882.940	473
883.020	-579
883.021	-576
883.102	507
883.127	649
883.183	417
883.233	298
883.264	357
883.339	446
883.345	406
883.426	-443
883.445	-413
883.507	522
883.551	592
883.587	272
883.657	71
883.668	179
883.749	799
883.763	893
883.830	39
883.869	-438
883.910	-108
883.975	459
883.991	432
884.072	348
884.081	300
884.152	514
884.187	810
884.233	699
884.292	224
884.314	136
884.394	-164
884.398	-171
884.475	-280
884.504	-333
884.555	-145
884.610	-110
884.636	-12
884.716	707
884.716	713
884.797	770
884.821	780
884.877	359
884.927	-37
884.958	71
885.033	291
885.038	268
885.118	171
885.139	-5
885.199	96
885.244	498
885.279	487
885.350	162
885.359	230
885.439	1172
885.456	1227
885.520	378
885.561	43
885.600	245
885.667	639
885.680	649
885.760	404
885.773	379
885.840	584
885.878	668
885.920	512
885.984	444
886.000	442
886.080	31
886.089	49
886.160	505
886.195	468
886.240	581
886.300	980
886.320	912
886.400	456
886.406	441
886.480	1100
886.511	1289
886.560	1288
886.616	1185
886.640	1129
886.720	786
886.722	778
886.800	844
886.827	932
886.879	886
886.932	487
886.959	457
887.038	704
887.039	716
887.119	1108
887.143	1255
887.198	1003
887.248	654
887.278	636
887.354	620
887.358	629
887.437	631
887.459	685
887.517	927
887.564	993
887.596	730
887.669	183
887.676	216
887.755	643
887.774	732
887.835	339
887.880	33
887.914	260
887.985	630
887.994	653
888.073	926
888.090	964
888.153	1156
888.195	1251
888.232	823
888.300	170
888.311	209
888.391	275
888.405	316
888.470	37
888.510	-285
888.549	42
888.615	879
888.628	895
888.708	758
888.720	741
888.787	612
888.825	520
888.866	194
888.930	-294
888.945	-71
889.024	1064
889.035	1215
889.103	1176
889.140	1154
889.182	1110
889.245	1012
889.261	843
889.340	36
889.349	-59
889.419	421
889.454	644
889.498	546
889.559	436
889.577	422
889.656	328
889.664	318
889.735	288
889.768	270
889.814	511
889.873	828
889.978	169
890.083	1163
890.187	1030
890.292	1160
890.397	21
890.501	727
890.606	12
890.710	1330
890.815	606
890.919	673
891.024	439
891.128	302
891.233	397
891.337	802
891.442	169
891.546	1187
891.650	863
891.755	834
891.859	882
891.963	1056
892.068	884
892.172	1302
892.276	-190
892.380	462
892.484	1789
892.589	557
892.693	5
892.797	171
892.901	-75
893.005	215
893.109	772
893.213	775
893.317	780
893.421	1106
893.525	-45
893.629	811
893.733	-196
893.837	454
893.941	518
894.045	837
894.148	-354
894.252	709
894.356	611
894.460	1472
894.564	411
894.667	932
894.771	68
894.875	185
894.978	376
895.082	532
895.186	245
895.289	1130
895.393	714
895.496	554
895.600	336
895.703	214
895.807	-201
895.910	853
896.014	223
896.117	257
896.221	302
896.324	481
896.427	-273
896.531	277
896.634	33
896.737	136
896.840	-59
896.944	143
897.047	-81
897.150	970
897.253	-341
897.356	786
897.460	-63
897.563	-360
897.666	117
897.769	805
897.872	379
897.975	1016
898.078	-470
898.181	607
898.284	-924
898.387	644
898.490	74
898.593	660
898.695	65
898.798	523
898.901	45
899.004	769
899.107	209
899.209	494
899.312	-168
899.415	247
899.518	-295
899.620	401
899.723	130
899.826	1241
899.928	1086
900.031	960
900.133	-54
900.236	27
900.338	-460
900.441	-96
900.543	-407
900.646	286
900.748	398
900.851	476
900.953	40
901.055	1035
901.158	354
901.260	500
901.362	393
901.465	643
901.567	246
901.669	916
901.771	-680
901.873	557
901.976	222
902.078	-16
902.180	-564
902.282	544
902.384	-6
902.486	257
902.588	123
902.690	400
902.792	-305
902.894	418
902.996	-269
903.098	755
903.200	-591
903.302	605
903.404	-521
903.505	-128
903.607	247
903.709	2591
903.811	255
903.913	733
904.014	-108
904.116	391
904.218	-323
904.319	242
904.421	318
904.523	-146
904.624	-261
904.726	525
904.827	-458
904.929	248
905.030	113
905.132	315
905.233	-148
905.335	62
905.436	-234
905.537	206
905.639	357
905.740	479
905.841	911
905.943	-222
906.044	-238
906.145	640
906.247	132
906.348	934
906.449	-37
906.550	404
906.651	242
906.752	1259
906.854	276
906.955	21
907.056	-259
907.157	827
907.258	611
907.359	177
907.460	-261
907.561	489
907.662	-170
907.762	928
907.863	-620
907.964	447
908.065	-26
908.166	899
908.267	-840
908.367	597
908.468	311
908.569	1682
908.670	440
908.770	576
908.871	163
908.971	600
909.072	59
909.173	403
909.273	77
909.374	353
909.474	219
909.575	606
909.675	-635
909.776	1092
909.876	96
909.977	-131
910.077	326
910.177	-221
910.278	-183
910.378	-57
910.478	-82
910.579	397
910.679	415
910.779	674
910.879	-342
910.980	199
911.080	-142
911.180	494
911.280	410
911.380	448
911.480	288
911.580	696
911.680	243
911.780	925
911.880	-113
911.980	251
912.080	-1149
912.180	1188
912.280	105
912.380	839
912.480	-101
912.580	1285
912.679	-144
912.779	238
912.879	407
912.979	508
913.078	-718
913.178	916
913.278	-757
913.377	502
913.477	-4
913.577	296
913.676	1311
913.776	1008
913.875	-472
913.975	581
914.074	306
914.174	1156
914.273	-233
914.373	873
914.472	-37
914.572	76
914.671	-154
914.770	640
914.870	-314
914.969	217
915.068	275
915.167	762
915.267	-701
915.366	-111
915.465	-156
915.564	618
915.663	-199
915.763	869
915.862	-28
915.961	242
916.060	29
916.159	246
916.258	73
916.357	596
916.456	-15
916.555	1451
916.654	-334
916.752	619
916.851	-336
916.950	-85
917.049	-305
917.148	-73
917.247	92
917.345	398
917.444	-381
917.543	-180
917.642	49
917.740	45
917.839	261
917.937	1221
918.036	447
918.135	-17
918.233	135
918.332	1068
918.430	504
918.529	187
918.627	-616
918.726	848
918.824	-211
918.923	700
919.021	574
919.119	293
919.218	629
919.316	53
919.414	370
919.512	517
919.611	9
919.709	428
919.807	546
919.905	874
920.003	-350
920.102	394
920.200	-299
920.298	1068
920.396	-359
920.494	891
920.592	496
920.690	1300
920.788	-7
920.886	38
920.984	525
921.082	716
921.180	1115
921.277	614
921.375	756
921.473	95
921.571	250
921.669	990
921.766	211
921.864	572
921.962	1814
922.060	123
922.157	669
922.255	1060
922.352	704
922.450	1644
922.548	1512
922.645	1478
922.743	1313
922.840	3231
922.938	3115
923.035	3458
923.133	2074
923.230	2921
923.327	3188
923.425	3447
923.522	2875
923.619	3236
923.717	1591
923.814	2270
923.911	1229
924.008	3304
924.106	2289
924.203	2856
924.300	1932
924.397	2996
924.494	3374
924.591	3459
924.688	2321
924.786	2146
924.883	2114
924.979	2325
925.077	1940
925.173	2721
925.270	2184
925.367	2248
925.464	2461
925.561	3607
925.658	2267
925.755	2142
925.852	2145
925.948	2621
926.045	1710
926.142	1947
926.239	2832
926.335	2705
926.432	2567
926.529	3301
926.625	2757
926.722	1657
926.818	2182
926.915	1968
927.011	1996
927.108	1828
927.204	2143
927.301	2247
927.397	1832
927.494	2932
927.590	1545
927.687	1931
927.783	2316
927.879	2143
927.976	1773
928.072	2316
928.168	1921
928.264	2142
928.361	2044
928.457	2733
928.553	1489
928.649	2669
928.745	1979
928.841	2230
928.937	1340
929.033	2611
929.129	1012
929.225	2054
929.321	1824
929.417	1621
929.513	1927
929.609	2333
929.705	1631
929.801	2165
929.897	921
929.993	1334
930.089	1025
930.184	2032
930.280	1907
930.376	2695
930.471	1453
930.567	2668
930.663	1066
930.758	753
930.854	889
930.950	1995
931.045	904
931.141	2032
931.236	1959
931.332	2260
931.427	1512
931.523	2391
931.618	1838
931.714	717
931.809	1455
931.905	1082
932.000	677
932.095	1773
932.191	2495
932.286	2399
932.381	546
932.476	1180
932.572	986
932.667	869
932.762	774
932.857	1760
932.952	1498
933.047	1371
933.142	1034
933.237	2059
933.332	1823
933.427	1624
933.522	919
933.617	1312
933.712	1493
933.807	1631
933.902	1105
933.997	2596
934.092	961
934.187	794
934.282	872
934.376	1482
934.471	1164
934.566	1661
934.661	1332
934.755	2465
934.850	1019
934.945	1064
935.039	86
935.134	1595
935.228	1181
935.323	1515
935.417	403
935.512	620
935.606	961
935.701	1855
935.795	1054
935.890	1528
935.984	676
936.079	1309
936.173	401
936.267	485
936.362	-119
936.456	1503
936.550	807
936.644	1605
936.738	5
936.833	1481
936.927	833
937.021	1070
937.115	612
937.209	1006
937.303	1308
937.397	611
937.491	119
937.585	1255
937.679	725
937.773	1284
937.867	543
937.961	945
938.055	1240
938.149	1267
938.243	-242
938.337	287
938.430	1107
938.524	1974
938.618	777
938.712	724
938.805	355
938.899	1688
938.993	747
939.086	889
939.180	108
939.274	1049
939.367	761
939.461	1267
939.554	-112
939.648	521
939.741	-15
939.835	1033
939.928	1183
940.022	1178
940.115	-3
940.208	970
940.302	376
940.395	2101
940.488	323
940.582	1046
940.675	-97
940.768	959
940.861	956
940.954	865
941.048	248
941.141	848
941.234	321
941.327	950
941.420	1147
941.513	2179
941.606	96
941.699	1474
941.792	515
941.885	733
941.978	605
942.071	1177
942.164	-77
942.257	767
942.349	719
942.442	930
942.535	-222
942.628	896
942.721	743
942.813	190
942.906	491
942.999	996
943.091	-220
943.184	974
943.277	-355
943.369	168
943.462	278
943.554	1290
943.647	-429
943.739	1907
943.832	247
943.924	-35
944.017	656
944.109	-358
944.201	-305
944.294	900
944.386	-191
944.478	413
944.571	638
944.663	473
944.755	152
944.847	392
944.940	-240
945.032	437
945.124	-619
945.216	1843
945.308	-12
945.400	914
945.492	131
945.584	661
945.676	186
945.768	507
945.860	-26
945.952	958
946.044	402
946.136	501
946.228	-825
946.320	612
946.412	-668
946.503	1072
946.595	647
946.687	304
946.779	-210
946.870	822
946.962	-874
947.054	389
947.145	984
947.237	321
947.329	502
947.420	313
947.512	83
947.603	367
947.695	295
947.786	-952
947.878	-220
947.969	454
948.061	-454
948.152	73
948.243	-298
948.335	-1270
948.426	-162
948.517	743
948.609	258
948.700	-66
948.791	-721
948.882	703
948.973	-353
949.065	-139
949.156	511
949.247	-541
949.338	14
949.429	283
949.520	231
949.611	-583
949.702	171
949.793	-23
949.884	-416
949.975	-359
950.066	-229
950.157	-237
950.247	-743
950.338	-246
950.429	-1006
950.520	567
950.611	-553
950.701	564
950.792	-295
950.883	835
950.973	-112
951.064	768
951.155	-679
951.245	1218
951.336	218
951.427	-242
951.517	-11
951.608	515
951.698	-991
951.788	-732
951.879	-1492
951.969	-690
952.060	-691
952.150	289
952.240	97
952.331	-501
952.421	814
952.511	344
952.602	122
952.692	-12
952.782	-167
952.872	-292
952.962	-503
953.052	-819
953.143	-993
953.233	242
953.323	-217
953.413	-367
953.503	-784
953.593	729
953.683	-554
953.773	-797
953.863	-304
953.953	-637
954.042	-280
954.132	-51
954.222	-46
954.312	16
954.402	-978
954.492	-427
954.581	-128
954.671	-1074
954.761	-1118
954.850	488
954.940	-1026
955.030	-314
955.119	-1048
955.209	-17
955.298	17
955.388	-352
955.477	-835
955.567	-858
955.656	-446
955.746	87
955.835	34
955.925	-595
956.014	-920
956.103	23
956.193	-938
956.282	918
956.371	-272
956.461	691
956.550	-1801
956.639	248
956.728	-1384
956.817	-58
956.906	-467
956.995	370
957.085	-1265
957.174	-317
957.263	-840
957.352	146
957.441	-887
957.530	121
957.619	-987
957.708	44
957.796	-1009
957.885	-119
957.974	-452
958.063	195
958.152	-596
958.241	-32
958.329	-1224
958.418	141
958.507	-784
958.596	808
958.684	-746
958.773	-41
958.861	-480
958.950	-784
959.039	-1228
959.127	162
959.216	-199
959.304	-379
959.393	-1401
959.481	-615
959.570	-460
959.658	-109
959.746	-1301
959.835	-444
959.923	-899
960.011	-990
960.100	-230
960.188	-150
960.276	-702
960.365	-203
960.453	-1089
960.541	-1062
960.629	-818
960.717	-407
960.805	-1081
960.893	168
960.981	-1324
961.069	350
961.158	-654
961.245	923
961.333	-622
961.421	-882
961.509	-402
961.597	-844
961.685	-649
961.773	-94
961.861	-1461
961.949	-401
962.036	-981
962.124	711
962.212	-1217
962.299	-455
962.387	-1580
962.475	18
962.562	-1702
962.650	180
962.738	-334
962.825	-324
962.913	-368
963.000	-827
963.088	-1025
963.175	-997
963.263	-325
963.350	-722
963.438	-1354
963.525	-360
963.612	60
963.700	-222
963.787	40
963.874	-664
963.962	-500
964.049	-450
964.136	-935
964.223	-280
964.310	-744
964.398	-933
964.485	-1288
964.572	-418
964.659	-19
964.746	-680
964.833	-763
964.920	-925
965.007	-1212
965.094	-677
965.181	-837
965.268	185
965.355	-112
965.441	-951
965.528	-2089
965.615	374
965.702	-163
965.789	-1684
965.875	-137
965.962	-888
966.049	-1804
966.136	-750
966.222	-1313
966.309	-358
966.395	-419
966.482	-256
966.569	-1321
966.655	-82
966.742	-1466
966.828	-156
966.915	-1679
967.001	276
967.087	-1199
967.174	-225
967.260	-178
967.347	-582
967.433	-1475
967.519	18
967.605	-437
967.692	-499
967.778	-920
967.864	-587
967.950	-515
968.036	-1219
968.123	28
968.209	-952
968.295	-1188
968.381	1321
968.467	-784
968.553	-1457
968.639	-1001
968.725	-1503
968.811	-148
968.897	-308
968.983	-800
969.069	-832
969.154	-611
969.240	319
969.326	-997
969.412	-964
969.497	-1756
969.583	-228
969.669	317
969.755	-698
969.840	-1253
969.926	-93
970.012	-850
970.097	289
970.183	-742
970.268	-477
970.354	-821
970.439	-1613
970.525	-303
970.610	-1153
970.696	32
970.781	-593
970.866	-1840
970.952	-48
971.037	-1450
971.122	-753
971.208	-1076
971.293	-185
971.378	-1570
971.463	-1073
971.549	-1398
971.634	-1340
971.719	-648
971.804	-896
971.889	-507
971.974	-1498
972.059	-1386
972.144	-307
972.229	-1737
972.314	-1123
972.399	-927
972.484	-1516
972.569	-604
972.654	-1198
972.739	-730
972.824	-1112
972.908	-882
972.993	-325
973.078	-867
973.163	-479
973.247	-838
973.332	-1583
973.417	22
973.501	-1582
973.586	-872
973.671	292
973.755	-1296
973.840	-436
973.924	-285
974.009	-766
974.093	-1914
974.178	159
974.262	-877
974.346	-479
974.431	-1094
974.515	-117
974.600	-1083
974.684	472
974.768	-1191
974.852	-41
974.937	-1408
975.021	201
975.105	-396
975.189	-390
975.273	-1200
975.358	-1286
975.442	-2202
975.526	212
975.610	-1921
975.694	-1266
975.778	-616
975.862	-490
975.946	-2977
976.030	410
976.114	-724
976.198	-3
976.281	-1470
976.365	-266
976.449	-1313
976.533	-364
976.617	-837
976.700	-942
976.784	-1283
976.868	-758
976.951	-732
977.035	-254
977.119	-624
977.202	-1384
977.286	-445
977.369	-206
977.453	74
977.536	-678
977.620	-1077
977.703	265
977.787	-1374
977.870	814
977.953	845
978.037	-2792
978.120	-163
978.203	-770
978.287	-523
978.370	-820
978.453	-858
978.536	-713
978.620	-362
978.703	-375
978.786	-1505
978.869	-827
978.952	-1207
979.035	760
979.118	-602
979.201	-1038
979.284	-575
979.367	-469
979.450	332
979.533	-323
979.616	-1141
979.699	-181
979.782	-687
979.865	-780
979.948	-1036
980.030	-1145
980.113	-1476
980.196	-1213
980.279	-1463
980.361	-688
980.444	-1097
980.526	-315
980.609	-1359
980.692	-745
980.774	-17
980.857	-923
980.939	-646
981.022	-849
981.104	-972
981.187	-577
981.269	-141
981.352	-872
981.434	-2469
981.516	-555
981.599	59
981.681	87
981.763	-834
981.846	-12
981.928	-829
982.010	-837
982.092	-1243
982.174	-292
982.256	-1065
982.339	-600
982.421	-832
982.503	-460
982.585	-1543
982.667	144
982.749	-1436
982.831	-412
982.913	-2416
982.995	523
983.077	-1939
983.158	502
983.240	-1505
983.322	164
983.404	-582
983.486	-740
983.568	200
983.649	-349
983.731	-913
983.813	-547
983.894	-858
983.976	-463
984.058	-1497
984.139	341
984.221	-1481
984.302	273
984.384	-750
984.465	-1766
984.547	-1057
984.628	-269
984.710	281
984.791	-219
984.872	-650
984.954	-662
985.035	-311
985.116	-1503
985.198	-1257
985.279	737
985.360	-1685
985.441	-629
985.522	126
985.604	-39
985.685	-2762
985.766	642
985.847	113
985.928	-1643
986.009	-1401
986.090	-828
986.171	-428
986.252	-801
986.333	-665
986.414	-1015
986.495	-268
986.576	-1016
986.656	-66
986.737	-213
986.818	-1073
986.899	-121
986.980	-1116
987.060	-316
987.141	-807
987.222	-134
987.302	-1260
987.383	364
987.464	-832
987.544	-330
987.625	-943
987.705	421
987.786	-608
987.866	-59
987.947	-362
988.027	14
988.108	-1314
988.188	-83
988.268	-372
988.349	321
988.429	-858
988.509	-903
988.589	-232
988.670	-957
988.750	862
988.830	-189
988.910	-899
988.990	-730
989.070	-297
989.151	-327
989.231	-1071
989.311	-630
989.391	-732
989.471	-917
989.551	-799
989.631	-262
989.711	-432
989.791	-1298
989.870	-1680
989.950	471
990.030	-1257
990.110	-397
990.190	-1840
990.269	-547
990.349	-1018
990.429	-231
990.509	-920
990.588	-1593
990.668	-819
990.747	-248
990.827	-825
990.907	-294
990.986	-1424
991.066	315
991.145	-1020
991.225	-208
991.304	-942
991.383	-544
991.463	-680
991.542	471
991.622	-1457
991.701	-1441
991.780	-794
991.859	-587
991.939	-1214
992.018	-704
992.097	-1080
992.176	-179
992.256	-1534
992.335	-1385
992.414	-899
992.493	-700
992.572	-1163
992.651	-723
992.730	-1463
992.809	-260
992.888	-681
992.967	-932
993.046	-794
993.125	-1098
993.203	-391
993.282	-193
993.361	-1792
993.440	-521
993.519	-1824
993.597	-578
993.676	-1376
993.755	90
993.834	-476
993.912	-1563
993.991	-69
994.069	-547
994.148	-1119
994.226	-1086
994.305	-889
994.384	-830
994.462	-1000
994.540	-1425
994.619	-1341
994.697	-47
994.776	-1201
994.854	-159
994.932	-1416
995.011	305
995.089	-805
995.167	-90
995.245	-1220
995.324	-1964
995.402	-998
995.480	-1386
995.558	-1467
995.636	-1783
995.714	-1396
995.792	-369
995.870	-1865
995.948	-225
996.026	-1121
996.104	-1959
996.182	-1459
996.260	-1168
996.338	-870
996.416	-1399
996.494	-2171
996.572	-744
996.649	-1404
996.727	-1072
996.805	-1619
996.883	-1072
996.960	-1542
997.038	-687
997.116	-1269
997.193	-1576
997.271	-662
997.348	-1275
997.426	-1079
997.504	-1200
997.581	-1189
997.658	41
997.736	-2603
997.813	-716
997.891	-351
997.968	-909
998.046	-1176
998.123	-650
998.200	-834
998.277	-1712
998.355	-888
998.432	-1719
998.509	-1658
998.586	-730
998.663	-847
998.741	-1378
998.818	-1592
998.895	-740
998.972	-1232
999.049	-762
999.126	-2094
999.203	-340
999.280	-2031
999.357	-1590
999.434	-1024
999.511	-1143
999.587	-1751
999.664	-812
999.741	-847
999.818	-651
999.895	-1976
999.971	-780
1000.048	-2197
1000.125	-737
1000.202	-1839
1000.278	-522
1000.355	-1657
1000.431	-1624
1000.508	-1871
1000.584	-497
1000.661	-545
1000.738	-1524
1000.814	-1585
1000.890	-880
1000.967	-1932
1001.043	-850
1001.120	-2655
1001.196	-824
1001.272	-2474
1001.349	-966
1001.425	-1693
1001.501	-812
1001.577	-1737
1001.654	-1277
1001.730	-1367
1001.806	-1003
1001.882	-2340
1001.958	-279
1002.034	-935
1002.110	-1601
1002.186	-2028
1002.262	-1642
1002.338	-2380
1002.414	-297
1002.490	-1187
1002.566	-1747
1002.642	-2553
1002.718	-485
1002.794	-2286
1002.870	-1032
1002.945	-1063
1003.021	-1363
1003.097	-1482
1003.173	-1160
1003.248	-2350
1003.324	-678
1003.400	-1470
1003.475	-1594
1003.551	-1948
1003.626	-1138
1003.702	-1685
1003.777	-1143
1003.853	-2120
1003.928	-1349
1004.004	-1482
1004.079	-913
1004.155	-2154
1004.230	-1593
1004.305	-1149
1004.381	-1860
1004.456	-1770
1004.531	-1767
1004.607	-1493
1004.682	-1361
1004.757	-1667
1004.832	-1705
1004.907	-1460
1004.982	-1828
1005.057	-2047
1005.133	-1430
1005.208	-1831
1005.283	-1086
1005.358	-1364
1005.433	-2125
1005.508	-2333
1005.583	-1910
1005.657	-2008
1005.732	-1357
1005.807	-2528
1005.882	-1639
1005.957	-1839
1006.032	-1542
1006.106	-1924
1006.181	-932
1006.256	-1224
1006.331	-2123
1006.405	-2005
1006.480	-838
1006.554	-1970
1006.629	-1205
1006.704	-2113
1006.778	-1434
1006.853	-1736
1006.927	-1623
1007.002	-1755
1007.076	-1662
1007.150	-1548
1007.225	-1074
1007.299	-1556
1007.373	-2092
1007.448	-1545
1007.522	-113
1007.596	-2539
1007.671	-1776
1007.745	-1792
1007.819	-2149
1007.893	-2311
1007.967	-1477
1008.041	-2836
1008.115	-1786
1008.190	-2642
1008.264	-726
1008.338	-3078
1008.412	-1962
1008.486	-1822
1008.560	-758
1008.633	-1504
1008.707	-1848
1008.781	-1668
1008.855	-1269
1008.929	-1597
1009.003	-1828
1009.076	-2734
1009.150	-1287
1009.224	-1700
1009.298	-2219
1009.371	-2526
1009.445	-1306
1009.519	-1014
1009.592	-2049
1009.666	-2044
1009.739	-801
1009.813	-2796
1009.886	-936
1009.960	-2163
1010.033	-1386
1010.107	-1113
1010.180	-1198
1010.253	-2111
1010.327	-1404
1010.400	-2171
1010.473	-2211
1010.547	-1400
1010.620	-1686
1010.693	-836
1010.766	-1682
1010.840	-1063
1010.913	-1289
1010.986	-3146
1011.059	-1748
1011.132	-2816
1011.205	-677
1011.278	-2085
1011.351	-1587
1011.424	-1734
1011.497	-2172
1011.570	-2289
1011.643	-2124
1011.716	-2304
1011.789	-1451
1011.862	-2288
1011.934	-1037
1012.007	-2884
1012.080	-2230
1012.153	-2367
1012.225	-665
1012.298	-2008
1012.371	-1790
1012.443	-1942
1012.516	-2391
1012.588	-2371
1012.661	-1139
1012.733	-2370
1012.806	-1253
1012.879	-2756
1012.951	-1375
1013.023	-2012
1013.096	-1035
1013.168	-2295
1013.241	-1246
1013.313	-1983
1013.385	-2550
1013.458	-2305
1013.530	-1173
1013.602	-2478
1013.674	-538
1013.746	-2507
1013.819	-2063
1013.891	-1555
1013.963	-2181
1014.035	-1572
1014.107	-2089
1014.179	-2196
1014.251	-2067
1014.323	-1666
1014.395	-1902
1014.467	-2126
1014.539	-1443
1014.611	-1954
1014.683	-1951
1014.754	-2285
1014.826	-1656
1014.898	-2067
1014.970	-2407
1015.042	-1020
1015.113	-1364
1015.185	-2207
1015.257	-2333
1015.328	-1921
1015.400	-2143
1015.471	-1384
1015.543	-2344
1015.615	-2284
1015.686	-2140
1015.757	-1906
1015.829	-1897
1015.901	-2492
1015.972	-1140
1016.043	-2374
1016.115	-943
1016.186	-2215
1016.257	-1423
1016.328	-1577
1016.400	-964
1016.471	-2593
1016.542	-2332
1016.613	-2347
1016.685	-1159
1016.756	-2425
1016.827	-2317
1016.898	-2994
1016.969	-1548
1017.040	-2148
1017.111	-2193
1017.182	-1852
1017.253	-1892
1017.324	-2537
1017.395	-1451
1017.466	-2605
1017.537	-2166
1017.608	-2314
1017.678	-1347
1017.749	-2122
1017.820	-1907
1017.891	-2661
1017.961	-1995
1018.032	-1763
1018.103	-1859
1018.173	-2718
1018.244	-1810
1018.315	-2166
1018.385	-1780
1018.456	-2006
1018.526	-859
1018.597	-2818
1018.667	-2425
1018.738	-1653
1018.808	-1524
1018.878	-2219
1018.949	-2011
1019.019	-1922
1019.089	-1817
1019.160	-2240
1019.230	-1784
1019.300	-1609
1019.371	-2271
1019.441	-2053
1019.511	-1837
1019.581	-2689
1019.651	-1544
1019.721	-2150
1019.791	-1827
1019.861	-1714
1019.931	-1174
1020.001	-2531
1020.071	-1291
1020.141	-2271
1020.211	-2311
1020.281	-2589
1020.351	-1824
1020.421	-1709
1020.491	-1644
1020.560	-2931
1020.630	-1780
1020.700	-2456
1020.770	-1252
1020.839	-1893
1020.909	-1561
1020.979	-2128
1021.048	-2060
1021.118	-2459
1021.187	-1735
1021.257	-2374
1021.326	-1074
1021.396	-3039
1021.465	-1114
1021.535	-2399
1021.604	-2453
1021.674	-3064
1021.743	-1890
1021.812	-2405
1021.882	-1969
1021.951	-2665
1022.020	-1651
1022.089	-1858
1022.159	-2589
1022.228	-2253
1022.297	-1871
1022.366	-2708
1022.435	-1951
1022.504	-2089
1022.573	-2445
1022.642	-2589
1022.711	-2779
1022.781	-2717
1022.849	-2107
1022.918	-1929
1022.987	-1724
1023.056	-2414
1023.125	-2268
1023.194	-2811
1023.263	-1505
1023.331	-2063
1023.400	-2709
1023.469	-2004
1023.538	-1684
1023.606	-2866
1023.675	-1394
1023.744	-2071
1023.812	-2709
1023.881	-1660
1023.949	-2306
1024.018	-2241
1024.086	-1761
1024.155	-2329
1024.223	-2168
1024.292	-1813
1024.360	-1274
1024.429	-2629
1024.497	-2505
1024.565	-2264
1024.634	-2277
1024.702	-2242
1024.770	-2281
1024.838	-2956
1024.907	-2290
1024.975	-2858
1025.043	-1951
1025.111	-2628
1025.179	-1964
1025.247	-2134
1025.315	-1973
1025.383	-1693
1025.451	-2209
1025.519	-2083
1025.587	-2553
1025.655	-1704
1025.723	-1703
1025.791	-2469
1025.859	-1823
1025.927	-1984
1025.995	-2130
1026.062	-2265
1026.130	-1714
1026.198	-2842
1026.266	-1803
1026.333	-2192
1026.401	-2386
1026.469	-2418
1026.536	-1289
1026.604	-2059
1026.671	-2636
1026.739	-1962
1026.806	-1803
1026.874	-2380
1026.941	-1973
1027.009	-2465
1027.076	-2302
1027.144	-2426
1027.211	-2002
1027.278	-2673
1027.345	-2103
1027.413	-2190
1027.480	-2715
1027.547	-2337
1027.614	-2384
1027.682	-1811
1027.749	-1272
1027.816	-2473
1027.883	-1404
1027.950	-2014
1028.017	-1871
1028.084	-2304
1028.151	-2412
1028.218	-2126
1028.285	-2310
1028.352	-1931
1028.419	-2133
1028.486	-2607
1028.553	-1432
1028.619	-2190
1028.686	-1493
1028.753	-2338
1028.820	-2019
1028.886	-3003
1028.953	-1814
1029.020	-2619
1029.086	-2030
1029.153	-2545
1029.220	-2873
1029.286	-2160
1029.353	-2435
1029.419	-2589
1029.486	-1954
1029.552	-2035
1029.619	-2434
1029.685	-2444
1029.751	-2140
1029.818	-2164
1029.884	-2175
1029.951	-1888
1030.017	-2353
1030.083	-2868
1030.149	-2030
1030.216	-2749
1030.282	-1983
1030.348	-2447
1030.414	-2006
1030.480	-2309
1030.546	-2473
1030.612	-2584
1030.678	-1958
1030.744	-1961
1030.810	-2032
1030.876	-2501
1030.942	-1882
1031.008	-1991
1031.074	-2069
1031.140	-2289
1031.206	-1969
1031.272	-3421
1031.337	-1257
1031.403	-2083
1031.469	-2169
1031.534	-3368
1031.600	-1348
1031.666	-2361
1031.731	-2369
1031.797	-2758
1031.863	-1385
1031.928	-2487
1031.994	-1882
1032.059	-2655
1032.125	-1615
1032.190	-2415
1032.256	-1818
1032.321	-3032
1032.386	-1625
1032.452	-1792
1032.517	-1344
1032.582	-2498
1032.647	-2142
1032.713	-2033
1032.778	-1724
1032.843	-2697
1032.908	-1844
1032.974	-2326
1033.039	-2413
1033.104	-2261
1033.169	-2111
1033.234	-1865
1033.299	-1950
1033.364	-2109
1033.429	-2484
1033.494	-2061
1033.559	-2278
1033.624	-2262
1033.688	-1483
1033.753	-3146
1033.818	-1050
1033.883	-2103
1033.948	-1146
1034.013	-2850
1034.077	-2130
1034.142	-2062
1034.207	-2040
1034.271	-1734
1034.336	-587
1034.400	-839
1034.465	-1248
1034.530	-2414
1034.594	-2789
1034.658	-3419
1034.723	-2141
1034.787	-1753
1034.852	-1623
1034.916	-3008
1034.981	-2333
1035.045	-3295
1035.109	-1794
1035.173	-2113
1035.238	-2182
1035.302	-2251
1035.366	-2346
1035.430	-2177
1035.495	-2371
1035.559	-2463
1035.623	-1404
1035.687	-3151
1035.751	-1867
1035.815	-2830
1035.879	-2242
1035.943	-1912
1036.007	-1584
1036.071	-3156
1036.135	-2097
1036.198	-2375
1036.262	-1668
1036.326	-2262
1036.390	-1634
1036.454	-3081
1036.517	-1688
1036.581	-1651
1036.645	-1311
1036.709	-2370
1036.772	-1595
1036.836	-2182
1036.900	-2026
1036.963	-2204
1037.026	-2217
1037.090	-3195
1037.154	-1736
1037.217	-2703
1037.280	-1993
1037.344	-2964
1037.407	-2172
1037.471	-2385
1037.534	-2167
1037.597	-2444
1037.661	-1910
1037.724	-2238
1037.787	-2131
1037.850	-2802
1037.913	-1994
1037.977	-2094
1038.040	-2064
1038.103	-1943
1038.166	-2162
1038.229	-2460
1038.292	-1762
1038.355	-2228
1038.418	-2413
1038.481	-1880
1038.544	-2048
1038.607	-2067
1038.670	-2108
1038.732	-2273
1038.795	-2261
1038.858	-2517
1038.921	-1977
1038.984	-2265
1039.046	-2789
1039.109	-2234
1039.172	-2037
1039.234	-2613
1039.297	-1438
1039.360	-1870
1039.422	-1920
1039.485	-2274
1039.547	-2294
1039.610	-2519
1039.672	-2433
1039.734	-2033
1039.797	-2157
1039.859	-3229
1039.922	-2316
1039.984	-2699
1040.046	-1770
1040.109	-2710
1040.171	-2696
1040.233	-2102
1040.295	-1124
1040.358	-2587
1040.420	-1996
1040.482	-2446
1040.544	-2598
1040.606	-2661
1040.668	-2170
1040.730	-2400
1040.792	-2253
1040.854	-2995
1040.916	-2068
1040.978	-2658
1041.040	-1325
1041.102	-2202
1041.164	-1218
1041.225	-1627
1041.287	-2883
1041.349	-2217
1041.411	-1807
1041.472	-2351
1041.534	-1623
1041.596	-1841
1041.657	-1794
1041.719	-2148
1041.781	-1996
1041.842	-2351
1041.904	-1921
1041.965	-2814
1042.027	-1476
1042.088	-2103
1042.150	-2686
1042.211	-2302
1042.272	-718
1042.334	-1198
1042.395	-1470
1042.456	-2881
1042.518	-1512
1042.579	-2123
1042.640	-2207
1042.701	-1906
1042.763	-2546
1042.824	-2443
1042.885	-1836
1042.946	-2803
1043.007	-2959
1043.068	-2798
1043.129	-1515
1043.190	-2228
1043.251	-1335
1043.312	-2451
1043.373	-1745
1043.434	-2637
1043.495	-2012
1043.556	-2607
1043.616	-1325
1043.677	-2343
1043.738	-1610
1043.799	-2454
1043.859	-1116
1043.920	-1486
1043.981	-1902
1044.041	-2427
1044.102	-2457
1044.162	-2621
1044.223	-1748
1044.284	-2416
1044.344	-1952
1044.405	-2833
1044.465	-2430
1044.525	-2908
1044.586	-2329
1044.646	-2649
1044.707	-1725
1044.767	-1677
1044.827	-2041
1044.887	-2453
1044.948	-2076
1045.008	-2500
1045.068	-2155
1045.128	-2236
1045.188	-1691
1045.249	-1709
1045.309	-1474
1045.369	-1908
1045.429	-1361
1045.489	-2096
1045.549	-2401
1045.609	-2262
1045.669	-2367
1045.729	-2850
1045.789	-2102
1045.848	-2497
1045.908	-1802
1045.968	-2350
1046.028	-1193
1046.088	-2417
1046.147	-1754
1046.207	-1729
1046.267	-1199
1046.326	-1752
1046.386	-1772
1046.446	-1073
1046.505	-301
1046.565	-1523
1046.624	-1184
1046.684	-1200
1046.743	-1236
1046.803	-1057
1046.862	303
1046.922	0
