'Start Wavelength	183.907
'End Wavelength	1046.922
'Gate Delay	5.000
'Gate Width (ms)	1.050
'Laser Output Level	0.000
'X Position	0.000
'Y Position	0.000
'Z Position	0.000
'Grid Point Number	1.000
'Shot Number	100.000
183.907	136.000
183.977	774.000
184.047	-295
184.116	116
184.186	65
184.256	17
184.325	-44
184.395	-1097
184.465	691
184.534	69
184.604	-380
184.674	334
184.743	-394
184.813	1560
184.883	67
184.952	46
185.022	377
185.092	14
185.161	-510
185.231	98
185.301	25
185.370	458
185.440	-454
185.509	117
185.579	73
185.649	293
185.718	-67
185.788	639
185.857	-446
185.927	115
185.996	302
186.066	-178
186.136	-501
186.205	306
186.275	-311
186.344	77
186.414	475
186.483	-311
186.553	797
186.622	536
186.692	-496
186.761	536
186.831	13
186.900	9
186.970	40
187.039	623
187.109	1255
187.178	-280
187.248	-60
187.317	357
187.387	-803
187.456	781
187.526	-235
187.595	-141
187.664	-794
187.734	249
187.803	-569
187.873	97
187.942	267
188.012	-241
188.081	-404
188.150	-208
188.220	-133
188.289	292
188.358	-413
188.428	614
188.497	-436
188.567	717
188.636	-626
188.705	63
188.775	-263
188.844	-513
188.913	-213
188.983	164
189.052	326
189.121	359
189.191	-307
189.260	375
189.329	-340
189.399	240
189.468	454
189.537	-451
189.606	325
189.676	-224
189.745	12
189.814	619
189.883	-281
189.953	114
190.022	-132
190.091	987
190.161	-130
190.230	584
190.299	-378
190.368	34
190.437	-80
190.507	-62
190.576	-1113
190.645	45
190.714	-299
190.783	-98
190.853	85
190.922	944
190.991	-183
191.060	394
191.129	-819
191.198	513
191.268	-467
191.337	779
191.406	71
191.475	203
191.544	-377
191.613	607
191.682	172
191.752	105
191.821	-155
191.890	179
191.959	404
192.028	613
192.097	-157
192.166	280
192.235	-585
192.304	392
192.373	140
192.442	32
192.511	-685
192.580	-204
192.650	-61
192.719	147
192.788	377
192.857	29
192.926	-82
192.995	-67
193.064	198
193.133	461
193.202	465
193.271	81
193.340	-630
193.409	500
193.478	361
193.547	437
193.615	760
193.684	533
193.753	182
193.822	656
193.891	-2
193.960	458
194.029	-319
194.098	565
194.167	-457
194.236	653
194.305	257
194.374	541
194.443	-199
194.512	129
194.580	317
194.649	534
194.718	-226
194.787	-280
194.856	-493
194.925	598
194.994	-352
195.062	438
195.131	170
195.200	-1
195.269	593
195.338	355
195.407	-309
195.475	-463
195.544	-47
195.613	216
195.682	107
195.751	561
195.819	266
195.888	-475
195.957	726
196.026	487
196.094	238
196.163	844
196.232	237
196.301	380
196.369	-65
196.438	-33
196.507	-34
196.576	558
196.644	-212
196.713	-174
196.782	-19
196.850	92
196.919	-76
196.988	1901
197.056	-528
197.125	236
197.194	-670
197.262	-197
197.331	78
197.400	989
197.468	-433
197.537	-114
197.606	-17
197.674	561
197.743	-498
197.812	-1113
197.880	-193
197.949	321
198.017	-266
198.086	380
198.155	139
198.223	351
198.292	309
198.360	529
198.429	-600
198.497	203
198.566	334
198.635	-105
198.703	-113
198.772	806
198.840	-402
198.909	434
198.977	-74
199.046	449
199.114	-2
199.183	7
199.251	-830
199.320	-289
199.388	246
199.457	560
199.525	57
199.594	-284
199.662	422
199.731	-6
199.799	-189
199.867	229
199.936	203
200.004	789
200.073	147
200.141	270
200.210	-960
200.278	891
200.346	367
200.415	632
200.483	36
200.552	854
200.620	184
200.688	728
200.757	153
200.825	538
200.893	-417
200.962	-773
201.030	-256
201.098	197
201.167	-408
201.235	432
201.303	99
201.372	964
201.440	-351
201.508	773
201.577	154
201.645	210
201.713	-369
201.781	823
201.850	-245
201.918	-47
201.986	-251
202.055	380
202.123	-80
202.191	949
202.259	315
202.327	345
202.396	-645
202.464	-89
202.532	158
202.600	617
202.669	329
202.737	579
202.805	440
202.873	207
202.941	565
203.009	-135
203.078	-370
203.146	414
203.214	-758
203.282	-272
203.350	761
203.418	365
203.487	-116
203.555	746
203.623	1
203.691	63
203.759	-501
203.827	-442
203.895	154
203.963	217
204.031	-253
204.099	137
204.168	-264
204.236	662
204.304	-233
204.372	1051
204.440	-314
204.508	-262
204.576	201
204.644	-302
204.712	-621
204.780	625
204.848	-339
204.916	150
204.984	-174
205.052	-232
205.120	-888
205.188	340
205.256	-77
205.324	144
205.392	29
205.460	-51
205.528	-323
205.596	388
205.664	345
205.732	-502
205.799	434
205.867	768
205.935	-898
206.003	1370
206.071	-640
206.139	63
206.207	-161
206.275	-273
206.343	-361
206.411	230
206.478	-127
206.546	586
206.614	-352
206.682	-331
206.750	-371
206.818	485
206.885	485
206.953	-835
207.021	145
207.089	394
207.157	-550
207.225	268
207.292	-740
207.360	-812
207.428	-530
207.496	331
207.563	-10
207.631	-86
207.699	187
207.767	450
207.834	-620
207.902	22
207.970	-528
208.038	744
208.105	46
208.173	255
208.241	-341
208.309	314
208.376	-618
208.444	527
208.512	-330
208.579	-410
208.647	-423
208.715	262
208.782	-510
208.850	395
208.918	-1656
208.985	664
209.053	114
209.120	739
209.188	-324
209.256	257
209.323	-1076
209.391	234
209.459	976
209.526	3
209.594	-292
209.661	-162
209.729	381
209.796	357
209.864	-161
209.932	-477
209.999	1052
210.067	13
210.134	182
210.202	229
210.269	476
210.337	1073
210.404	100
210.472	177
210.539	-179
210.607	-128
210.674	-370
210.742	644
210.809	-477
210.877	635
210.944	27
211.012	-932
211.079	1164
211.146	23
211.214	-224
211.281	-168
211.349	623
211.416	793
211.484	-1
211.551	-477
211.618	-7
211.686	570
211.753	-1123
211.821	52
211.888	-775
211.955	312
212.023	-604
212.090	789
212.157	-219
212.225	40
212.292	89
212.359	514
212.427	1971
212.494	1004
212.561	-231
212.629	471
212.696	-1148
212.763	235
212.831	-898
212.898	146
212.965	-727
213.032	185
213.100	-742
213.167	-106
213.234	250
213.301	724
213.369	47
213.436	-24
213.503	-852
213.570	129
213.638	-497
213.705	1
213.772	-1128
213.839	-282
213.906	371
213.973	400
214.041	-837
214.108	41
214.175	-464
214.242	-203
214.309	-153
214.376	141
214.444	-1724
214.511	-68
214.578	-144
214.645	492
214.712	115
214.779	335
214.846	-827
214.913	963
214.980	682
215.048	265
215.115	661
215.182	996
215.249	13
215.316	-178
215.383	202
215.450	-109
215.517	-217
215.584	-189
215.651	-182
215.718	271
215.785	-60
215.852	-466
215.919	-143
215.986	504
216.053	-339
216.120	47
216.187	407
216.254	282
216.321	-183
216.388	347
216.455	-651
216.522	559
216.589	-74
216.656	373
216.722	-108
216.789	414
216.856	292
216.923	325
216.990	-369
217.057	202
217.124	253
217.191	-417
217.258	317
217.324	167
217.391	240
217.458	-23
217.525	545
217.592	-459
217.659	-1111
217.725	972
217.792	-518
217.859	633
217.926	-255
217.993	181
218.059	613
218.126	299
218.193	-579
218.260	151
218.327	-577
218.393	-106
218.460	-1037
218.527	-235
218.594	138
218.660	-69
218.727	191
218.794	45
218.860	125
218.927	-453
218.994	-508
219.061	584
219.127	-116
219.194	-272
219.261	209
219.327	-43
219.394	369
219.461	-444
219.527	-700
219.594	195
219.661	-900
219.727	-481
219.794	-334
219.860	-908
219.927	-132
219.994	1015
220.060	1536
220.127	1813
220.193	828
220.260	-260
220.326	-168
220.393	611
220.460	737
220.526	992
220.593	-1151
220.659	1645
220.726	-727
220.792	450
220.859	581
220.925	1370
220.992	1405
221.058	2043
221.125	1082
221.191	692
221.258	-551
221.324	525
221.391	-419
221.457	-288
221.524	34
221.590	218
221.657	1535
221.723	869
221.789	607
221.856	1818
221.922	-719
221.989	917
222.055	92
222.121	-361
222.188	1647
222.254	-150
222.321	-148
222.387	-612
222.453	495
222.520	-377
222.586	-720
222.652	26
222.719	264
222.785	368
222.851	-1111
222.918	-278
222.984	53
223.050	-954
223.116	-1763
223.183	482
223.249	-521
223.315	-4
223.382	-440
223.448	-397
223.514	-488
223.580	-139
223.647	-938
223.713	-1017
223.779	197
223.845	236
223.911	315
223.978	-682
224.044	-90
224.110	-314
224.176	-409
224.242	61
224.309	-1081
224.375	331
224.441	-67
224.507	-756
224.573	-1401
224.639	964
224.705	-1179
224.772	880
224.838	-836
224.904	1185
224.970	-8
225.036	176
225.102	-1139
225.168	848
225.234	-170
225.300	-213
225.366	178
225.432	-280
225.499	-838
225.565	728
225.631	-691
225.697	-720
225.763	-381
225.829	185
225.895	-286
225.961	258
226.027	-256
226.093	-544
226.159	853
226.225	1342
226.291	1126
226.357	2871
226.423	1214
226.489	949
226.554	62
226.620	343
226.686	-308
226.752	141
226.818	692
226.884	3775
226.950	3721
227.016	955
227.082	117
227.148	843
227.214	547
227.279	-161
227.345	-370
227.411	418
227.477	535
227.543	3493
227.609	1823
227.674	1837
227.740	-218
227.806	855
227.872	-678
227.938	-152
228.003	-259
228.069	230
228.135	-483
228.201	-252
228.267	-937
228.332	180
228.398	-1368
228.464	470
228.530	-646
228.595	307
228.661	-1260
228.727	-1021
228.792	1055
228.858	-436
228.924	-1710
228.990	1538
229.055	-1557
229.121	435
229.187	-549
229.252	-251
229.318	-1029
229.384	35
229.449	-448
229.515	-1899
229.581	-1349
229.646	1380
229.712	-413
229.777	-520
229.843	-1156
229.909	-368
229.974	554
230.040	180
230.105	266
230.171	-360
230.236	380
230.302	-247
230.368	-59
230.433	-494
230.499	671
230.564	72
230.630	-1271
230.695	-63
230.761	448
230.826	-1059
230.892	883
230.957	-695
231.023	338
231.088	161
231.154	-500
231.219	348
231.284	-532
231.350	142
231.415	-312
231.481	737
231.546	-300
231.612	-201
231.677	-760
231.742	-524
231.808	627
231.873	-1299
231.939	-1966
232.004	1266
232.069	381
232.135	-449
232.200	-1076
232.265	411
232.331	-806
232.396	-538
232.461	-379
232.527	-21
232.592	-1055
232.657	131
232.723	-675
232.788	-191
232.853	-154
232.918	130
232.984	-580
233.049	-354
233.114	-901
233.179	477
233.245	-372
233.310	1454
233.375	-1820
233.440	522
233.506	-404
233.571	-622
233.636	-498
233.701	567
233.766	-475
233.832	579
233.897	-688
233.962	-984
234.027	265
234.092	553
234.157	-126
234.222	-257
234.288	-777
234.353	1382
234.418	945
234.483	557
234.548	-679
234.613	-146
234.678	-106
234.743	-122
234.808	1273
234.873	-415
234.938	1042
235.004	-91
235.069	118
235.134	-464
235.199	-605
235.264	108
235.329	-2173
235.394	456
235.459	40
235.524	-416
235.589	-22
235.654	1
235.719	-1780
235.784	1119
235.849	-480
235.913	81
235.978	-513
236.043	832
236.108	-647
236.173	-228
236.238	537
236.303	-56
236.368	-646
236.433	597
236.498	-701
236.563	513
236.627	746
236.692	5327
236.757	4845
236.822	1122
236.887	-332
236.952	646
237.017	-760
237.081	1212
237.146	352
237.211	2080
237.276	4641
237.341	11180
237.405	2808
237.470	843
237.535	936
237.600	400
237.664	-23
237.729	-410
237.794	-904
237.859	1663
237.923	223
237.988	154
238.053	243
238.118	381
238.182	1094
238.247	2849
238.312	1
238.376	424
238.441	-1800
238.506	955
238.570	-732
238.635	759
238.700	-557
238.764	-629
238.829	226
238.893	-179
238.958	392
239.023	-353
239.087	-40
239.152	689
239.216	-352
239.281	127
239.346	-305
239.410	37
239.475	-968
239.539	2047
239.604	242
239.668	675
239.733	342
239.797	2413
239.862	4613
239.926	4035
239.991	998
240.055	730
240.120	54
240.184	66
240.249	-1129
240.313	-99
240.378	-325
240.442	-126
240.507	1835
240.571	-90
240.635	-1097
240.700	296
240.764	384
240.829	336
240.893	-1117
240.957	721
241.022	811
241.086	1952
241.151	-1085
241.215	-1034
241.279	-54
241.344	-270
241.408	317
241.472	-772
241.537	443
241.601	443
241.665	-1177
241.730	-852
241.794	55
241.858	-264
241.922	-582
241.987	-230
242.051	-867
242.115	-1506
242.179	280
242.244	-234
242.308	823
242.372	58
242.436	-1453
242.501	230
242.565	-500
242.629	154
242.693	538
242.757	-1074
242.822	-497
242.886	609
242.950	603
243.014	-1329
243.078	557
243.142	-256
243.206	-544
243.271	-22
243.335	-660
243.399	1034
243.463	421
243.527	6397
243.591	722
243.655	510
243.719	-1063
243.783	1007
243.847	-59
243.911	854
243.975	-472
244.040	-1098
244.104	1028
244.168	-555
244.232	-845
244.296	58
244.360	337
244.424	-1413
244.488	408
244.552	370
244.615	-1187
244.679	186
244.743	-416
244.807	-1223
244.871	155
244.935	272
244.999	-1032
245.063	-448
245.127	-222
245.191	668
245.255	393
245.319	404
245.383	-1607
245.446	910
245.510	-1476
245.574	-228
245.638	599
245.702	-1861
245.766	406
245.829	1229
245.893	-1528
245.957	-388
246.021	620
246.085	-529
246.149	106
246.212	1633
246.276	839
246.340	-311
246.404	179
246.467	698
246.531	-2058
246.595	1445
246.659	1069
246.722	-321
246.786	495
246.850	352
246.913	-398
246.977	-838
247.041	-265
247.104	-18
247.168	392
247.232	555
247.295	2355
247.359	1293
247.423	-547
247.486	718
247.550	434
247.614	-268
247.677	-328
247.741	-516
247.804	572
247.868	1986
247.932	429
247.995	2633
248.059	241
248.122	-610
248.186	944
248.249	372
248.313	3291
248.376	4466
248.440	1665
248.503	-267
248.567	1314
248.630	373
248.694	1351
248.757	1904
248.821	3762
248.884	3726
248.948	819
249.011	4066
249.075	5444
249.138	5775
249.202	982
249.265	-67
249.328	1225
249.392	-704
249.455	265
249.519	76
249.582	317
249.645	730
249.709	-63
249.772	-457
249.835	61
249.899	341
249.962	430
250.025	-557
250.089	834
250.152	3025
250.215	489
250.279	500
250.342	565
250.405	801
250.468	-836
250.532	739
250.595	1670
250.658	4868
250.721	11452
250.785	2625
250.848	3156
250.911	-120
250.974	559
251.038	-332
251.101	2811
251.164	389
251.227	777
251.290	593
251.354	1483
251.417	8285
251.480	9149
251.543	5054
251.606	16988
251.669	13517
251.732	4186
251.795	3109
251.859	3940
251.922	10327
251.985	6281
252.048	3223
252.111	683
252.174	-86
252.237	1924
252.300	5561
252.363	5224
252.426	14977
252.489	4289
252.552	2597
252.615	1027
252.678	2049
252.741	3054
252.804	5163
252.867	14600
252.930	8214
252.993	2531
253.056	2701
253.119	912
253.182	534
253.245	741
253.308	1168
253.371	14
253.434	982
253.497	620
253.559	2570
253.622	995
253.685	967
253.748	838
253.811	400
253.874	1604
253.937	576
254.000	694
254.062	1475
254.125	2119
254.188	2581
254.251	1035
254.314	647
254.376	1044
254.439	2074
254.502	578
254.565	1062
254.628	3176
254.690	1111
254.753	-252
254.816	336
254.878	794
254.941	2235
255.004	1303
255.067	1032
255.129	-500
255.192	574
255.255	-467
255.317	421
255.380	374
255.443	1206
255.505	-357
255.568	-506
255.631	-1120
255.693	617
255.756	-843
255.819	1182
255.881	-31
255.944	105
256.006	310
256.069	-238
256.132	-910
256.194	309
256.257	203
256.319	614
256.382	279
256.444	1877
256.507	-145
256.569	104
256.632	87
256.694	68
256.757	2370
256.819	9552
256.882	1726
256.944	1385
257.007	796
257.069	275
257.132	9
257.194	689
257.257	224
257.319	-139
257.381	-1522
257.444	1856
257.506	9511
257.569	10802
257.631	2883
257.693	1855
257.756	240
257.818	247
257.880	53
257.943	1422
258.005	-352
258.067	-18
258.130	-488
258.192	-56
258.254	420
258.317	406
258.379	444
258.441	1152
258.503	1550
258.566	1592
258.628	2185
258.690	251
258.753	-15
258.815	469
258.877	-274
258.939	311
259.001	-25
259.064	685
259.126	30
259.188	283
259.250	78
259.312	243
259.375	87
259.437	328
259.499	-324
259.561	697
259.623	-80
259.685	-23
259.747	180
259.809	1597
259.872	2824
259.934	4935
259.996	5205
260.058	1340
260.120	-91
260.182	267
260.244	-169
260.306	129
260.368	80
260.430	-416
260.492	257
260.554	1039
260.616	-401
260.678	2084
260.740	3428
260.802	595
260.864	449
260.926	-237
260.988	82
261.050	-232
261.112	483
261.174	2702
261.236	2301
261.298	196
261.359	978
261.421	2819
261.483	-616
261.545	1677
261.607	-1863
261.669	789
261.731	-265
261.793	1798
261.854	-162
261.916	736
261.978	-287
262.040	88
262.102	237
262.164	313
262.225	505
262.287	686
262.349	389
262.411	908
262.472	1022
262.534	303
262.596	1361
262.658	448
262.719	-458
262.781	1063
262.843	618
262.904	964
262.966	698
263.028	696
263.090	2530
263.151	8716
263.213	3237
263.275	1140
263.336	-53
263.398	1385
263.459	-575
263.521	-373
263.583	529
263.644	648
263.706	558
263.767	-236
263.829	198
263.891	-541
263.952	-467
264.014	131
264.075	157
264.137	297
264.198	52
264.260	-257
264.321	25
264.383	1301
264.444	2134
264.506	249
264.567	-545
264.629	1077
264.690	-151
264.752	469
264.813	-31
264.875	-43
264.936	260
264.998	-296
265.059	-433
265.120	530
265.182	-184
265.243	3318
265.305	3483
265.366	1086
265.427	-8
265.489	1335
265.550	-1439
265.611	-65
265.673	-718
265.734	-224
265.795	-87
265.857	-233
265.918	-1158
265.979	1184
266.040	6348
266.102	7007
266.163	864
266.224	291
266.286	163
266.347	108
266.408	-446
266.469	375
266.530	-376
266.592	132
266.653	727
266.714	839
266.775	-140
266.836	663
266.898	-681
266.959	452
267.020	193
267.081	1772
267.142	-122
267.203	414
267.264	-338
267.326	1106
267.387	401
267.448	-468
267.509	-168
267.570	158
267.631	-776
267.692	-661
267.753	21
267.814	-59
267.875	148
267.936	1659
267.997	-136
268.058	146
268.119	-438
268.180	-161
268.241	-1434
268.302	-469
268.363	-732
268.424	-536
268.485	-124
268.546	-310
268.607	-562
268.668	-537
268.729	-1195
268.790	-221
268.851	-294
268.912	154
268.972	224
269.033	94
269.094	-701
269.155	524
269.216	53
269.277	-493
269.338	-305
269.398	13
269.459	-1155
269.520	-104
269.581	-182
269.642	128
269.702	-873
269.763	57
269.824	-279
269.885	-701
269.945	-250
270.006	168
270.067	-841
270.128	-134
270.188	-519
270.249	104
270.310	-1381
270.370	535
270.431	-631
270.492	-521
270.553	543
270.613	-55
270.674	861
270.734	-593
270.795	-426
270.856	-102
270.916	-489
270.977	-1086
271.038	177
271.098	-438
271.159	27
271.219	-265
271.280	267
271.340	122
271.401	-814
271.462	375
271.522	-147
271.583	442
271.643	-487
271.704	-235
271.764	-137
271.825	777
271.885	3662
271.946	6307
272.006	1518
272.066	2443
272.127	5365
272.187	3346
272.248	1270
272.308	355
272.369	2867
272.429	1546
272.489	-43
272.550	1019
272.610	1751
272.671	1034
272.731	1113
272.791	1325
272.852	-319
272.912	371
272.972	128
273.033	-301
273.093	-413
273.153	953
273.214	-119
273.274	1147
273.334	2451
273.394	5718
273.455	2714
273.515	3633
273.575	4723
273.635	3509
273.696	3837
273.756	6767
273.816	3652
273.876	2463
273.936	1985
273.997	4218
274.057	-20
274.117	1487
274.177	1025
274.237	4979
274.297	4361
274.358	3337
274.418	2536
274.478	3618
274.538	786
274.598	305
274.658	1952
274.718	3272
274.778	1459
274.838	501
274.898	429
274.958	5202
275.018	4974
275.078	3141
275.138	1099
275.198	375
275.258	-304
275.318	169
275.378	579
275.438	915
275.498	381
275.558	1582
275.618	5180
275.678	3005
275.738	1851
275.798	1398
275.858	615
275.918	482
275.978	180
276.038	983
276.098	208
276.157	164
276.217	2349
276.277	1144
276.337	1115
276.397	661
276.457	403
276.517	146
276.576	-361
276.636	341
276.696	588
276.756	1368
276.815	526
276.875	866
276.935	395
276.995	293
277.055	451
277.114	719
277.174	236
277.234	2388
277.293	556
277.353	653
277.413	236
277.472	211
277.532	-282
277.592	1397
277.651	5969
277.711	15045
277.771	4389
277.830	14358
277.890	13762
277.950	8715
278.009	25306
278.069	11808
278.128	10863
278.188	16139
278.248	7007
278.307	16400
278.367	11593
278.426	2913
278.486	2117
278.545	1812
278.605	977
278.664	936
278.724	150
278.783	3200
278.843	6103
278.902	1828
278.962	702
279.021	3146
279.081	5098
279.140	5046
279.199	2189
279.259	3823
279.318	4078
279.378	5289
279.437	9420
279.496	24400
279.556	90579
279.615	78576
279.675	22482
279.734	12717
279.793	13037
279.853	15096
279.912	6598
279.971	4988
280.031	4228
280.090	5668
280.149	8753
280.208	14697
280.268	61832
280.327	68174
280.386	16814
280.445	9777
280.505	6659
280.564	5422
280.623	2948
280.682	3629
280.742	4551
280.801	1871
280.860	1224
280.919	1135
280.978	1486
281.037	1711
281.097	747
281.156	2115
281.215	1251
281.274	1184
281.333	4084
281.392	3095
281.451	553
281.510	806
281.569	1318
281.628	1336
281.688	601
281.747	1600
281.806	313
281.865	1249
281.924	469
281.983	435
282.042	73
282.101	398
282.160	-9
282.219	419
282.278	93
282.337	2266
282.396	1316
282.454	1258
282.513	932
282.572	2804
282.631	1241
282.690	405
282.749	-71
282.808	1065
282.867	231
282.926	-162
282.985	595
283.043	493
283.102	369
283.161	201
283.220	1847
283.279	3891
283.338	1454
283.396	320
283.455	990
283.514	2257
283.573	1207
283.631	2336
283.690	1369
283.749	1292
283.808	1576
283.866	1829
283.925	1061
283.984	2062
284.043	1783
284.101	2363
284.160	2406
284.219	2816
284.277	2258
284.336	3697
284.395	5667
284.453	5431
284.512	3908
284.570	5483
284.629	5231
284.688	6660
284.746	7917
284.805	10452
284.863	13373
284.922	16581
284.981	19622
285.039	26300
285.098	33886
285.156	44653
285.215	44793
285.273	41491
285.332	43074
285.390	37917
285.449	29898
285.507	22068
285.566	16449
285.624	13832
285.683	10319
285.741	9286
285.799	6813
285.858	5129
285.916	5092
285.975	4533
286.033	3340
286.091	4016
286.150	2279
286.208	3057
286.267	2446
286.325	2350
286.383	1493
286.442	2032
286.500	1911
286.558	2488
286.616	1335
286.675	2525
286.733	1243
286.791	589
286.850	1776
286.908	1485
286.966	1979
287.024	1066
287.083	211
287.141	1285
287.199	162
287.257	1269
287.315	817
287.374	659
287.432	920
287.490	1644
287.548	614
287.606	1172
287.664	778
287.723	1127
287.781	1013
287.839	1334
287.897	677
287.955	1021
288.013	735
288.071	3059
288.129	10679
288.187	40589
288.245	18318
288.303	5033
288.361	2474
288.419	2539
288.477	804
288.535	787
288.593	58
288.651	-186
288.709	-739
288.767	848
288.825	421
288.883	-105
288.941	-110
288.999	-568
289.057	-339
289.115	459
289.173	-18
289.231	583
289.289	257
289.346	-173
289.404	-230
289.462	603
289.520	671
289.578	955
289.636	147
289.694	14
289.751	-153
289.809	564
289.867	155
289.925	1247
289.983	-578
290.040	191
290.098	-157
290.156	559
290.214	46
290.271	-130
290.329	1002
290.387	1306
290.444	178
290.502	-639
290.560	100
290.617	536
290.675	-441
290.733	493
290.790	-224
290.848	1406
290.906	126
290.963	528
291.021	-200
291.078	144
291.136	-137
291.194	1323
291.251	1846
291.309	135
291.366	392
291.424	604
291.481	1193
291.539	16
291.596	1713
291.654	833
291.711	-22
291.769	104
291.826	782
291.884	509
291.941	-262
291.999	430
292.056	-220
292.114	-268
292.171	251
292.228	409
292.286	-306
292.343	299
292.401	-17
292.458	944
292.515	-758
292.573	755
292.630	-67
292.687	793
292.745	508
292.802	617
292.859	1833
292.917	3643
292.974	2062
293.031	794
293.089	397
293.146	352
293.203	204
293.260	-263
293.318	-655
293.375	387
293.432	-47
293.489	744
293.546	176
293.604	857
293.661	2830
293.718	7781
293.775	2977
293.832	2537
293.889	1721
293.947	1610
294.004	1561
294.061	647
294.118	670
294.175	3306
294.232	4963
294.289	2880
294.346	888
294.403	1213
294.460	-244
294.517	277
294.574	-97
294.631	440
294.688	120
294.745	1262
294.802	5575
294.859	4715
294.916	1268
294.973	846
295.030	-104
295.087	144
295.144	-450
295.201	284
295.258	54
295.315	1243
295.372	1162
295.429	4132
295.486	1172
295.542	963
295.599	806
295.656	3345
295.713	1360
295.770	4072
295.827	856
295.883	837
295.940	-549
295.997	744
296.054	-199
296.111	-206
296.167	294
296.224	212
296.281	-655
296.338	-17
296.394	-618
296.451	-195
296.508	396
296.564	3068
296.621	1600
296.678	4251
296.734	5905
296.791	2578
296.848	1310
296.904	202
296.961	1335
297.018	3825
297.074	3241
297.131	972
297.187	505
297.244	1325
297.301	3746
297.357	9426
297.414	3016
297.470	1538
297.527	737
297.583	684
297.640	242
297.696	21
297.753	-189
297.809	-311
297.866	-783
297.922	164
297.979	-283
298.035	441
298.092	937
298.148	2174
298.204	2635
298.261	432
298.317	2263
298.374	5876
298.430	2706
298.486	1743
298.543	1084
298.599	652
298.656	255
298.712	1345
298.768	2329
298.824	1929
298.881	-592
298.937	473
298.993	-727
299.050	142
299.106	-364
299.162	-62
299.218	-190
299.275	-79
299.331	153
299.387	1272
299.443	5326
299.500	12040
299.556	7227
299.612	2576
299.668	2096
299.724	6145
299.780	9476
299.837	3275
299.893	2568
299.949	7012
300.005	11767
300.061	8605
300.117	14547
300.173	6333
300.229	1916
300.285	1955
300.341	2393
300.397	1610
300.453	-14
300.510	608
300.566	1209
300.622	3153
300.678	11071
300.734	17546
300.790	9133
300.845	8369
300.901	6936
300.957	11977
301.013	6842
301.069	2118
301.125	1217
301.181	743
301.237	632
301.293	184
301.349	195
301.405	-645
301.461	-213
301.516	583
301.572	-566
301.628	515
301.684	37
301.740	918
301.796	1603
301.851	1672
301.907	2275
301.963	2716
302.019	4574
302.074	14941
302.130	15110
302.186	6383
302.242	2075
302.297	1785
302.353	356
302.409	2748
302.464	2688
302.520	1760
302.576	3764
302.631	6054
302.687	2173
302.743	287
302.798	227
302.854	-161
302.910	210
302.965	309
303.021	746
303.076	1134
303.132	477
303.187	1992
303.243	1094
303.299	151
303.354	-818
303.410	294
303.465	-352
303.521	-96
303.576	179
303.632	654
303.687	725
303.743	4387
303.798	3922
303.853	1705
303.909	415
303.964	158
304.020	123
304.075	1279
304.130	1035
304.186	1053
304.241	2503
304.297	2097
304.352	-464
304.358	-371
304.407	379
304.449	713
304.463	829
304.518	347
304.539	177
304.573	-111
304.629	-198
304.630	-181
304.684	593
304.720	2004
304.739	2684
304.794	5774
304.811	4826
304.850	2529
304.902	372
304.905	238
304.960	181
304.992	115
305.015	56
305.071	1151
305.083	979
305.126	311
305.173	370
305.181	403
305.236	105
305.264	140
305.292	90
305.347	-306
305.354	-224
305.402	387
305.445	778
305.457	869
305.512	981
305.535	763
305.567	536
305.622	529
305.626	576
305.678	1753
305.716	4371
305.733	5274
305.788	5677
305.807	5147
305.843	4419
305.897	5412
305.898	5416
305.953	5381
305.988	3548
306.008	2627
306.063	1268
306.078	1242
306.118	1371
306.168	885
306.173	836
306.228	785
306.259	791
306.283	799
306.338	45
306.349	216
306.393	888
306.440	379
306.448	310
306.503	1241
306.530	1125
306.558	1156
306.613	2344
306.620	2453
306.668	3230
306.711	4450
306.723	4539
306.778	3572
306.801	3002
306.833	2547
306.888	982
306.892	997
306.943	1403
306.982	1118
306.997	1023
307.052	1009
307.072	796
307.107	542
307.162	1079
307.163	1078
307.217	1446
307.253	1464
307.272	1478
307.327	2201
307.343	2169
307.381	2057
307.434	1827
307.436	1872
307.491	3502
307.524	4429
307.546	4417
307.600	5273
307.614	4749
307.655	3039
307.704	1734
307.710	1729
307.765	1479
307.795	2341
307.819	3094
307.874	4555
307.885	4570
307.929	3828
307.975	3322
307.984	3537
308.038	6023
308.065	7409
308.093	14244
308.148	29967
308.156	33099
308.202	47997
308.246	60956
308.257	58865
308.312	30551
308.336	19104
308.366	13941
308.421	8368
308.426	7888
308.475	5749
308.517	4369
308.530	4237
308.585	5419
308.607	5349
308.639	5212
308.694	5301
308.697	5321
308.748	6663
308.787	7578
308.803	7611
308.857	7594
308.877	7491
308.912	8275
308.967	9476
308.967	9488
309.021	16230
309.058	20919
309.076	24612
309.130	38225
309.148	42093
309.185	64533
309.238	100811
309.239	101263
309.293	115499
309.328	115359
309.348	102727
309.402	58485
309.418	46634
309.457	35949
309.508	24753
309.511	24924
309.566	30441
309.598	34359
309.620	44618
309.674	72987
309.688	80460
309.729	75900
309.778	63536
309.783	61924
309.837	39516
309.868	27559
309.892	24515
309.946	18671
309.959	17628
310.001	16912
310.049	15732
310.055	15261
310.109	10778
310.139	8048
310.163	7089
310.218	5744
310.229	5388
310.272	4877
310.319	4877
310.326	4805
310.381	3824
310.409	3491
310.435	3439
310.489	3150
310.499	3130
310.543	3306
310.589	3378
310.598	3397
310.652	3329
310.679	3230
310.706	2893
310.760	2604
310.769	2480
310.814	2578
310.859	2924
310.868	3012
310.923	3259
310.948	3408
310.977	3228
311.031	2812
311.038	2754
311.085	2714
311.128	2512
311.139	2550
311.193	2923
311.218	2964
311.247	2828
311.301	2638
311.308	2611
311.356	2852
311.398	3032
311.410	2996
311.464	2671
311.488	2564
311.518	2513
311.572	2354
311.578	2327
311.626	2892
311.668	3358
311.680	3430
311.734	3724
311.758	3818
311.788	3747
311.842	3620
311.847	3589
311.896	3775
311.937	3961
311.950	3949
312.004	3794
312.027	3727
312.058	3573
312.112	3259
312.117	3218
312.165	3082
312.207	2949
312.297	2442
312.386	2775
312.476	3069
312.566	3274
312.656	3359
312.745	2863
312.835	3111
312.925	3153
313.015	2983
313.104	3671
313.194	3866
313.284	3540
313.374	3902
313.463	4794
313.553	4440
313.643	4193
313.732	4954
313.822	4237
313.912	5275
314.001	5846
314.091	5719
314.180	5607
314.270	5568
314.360	5573
314.449	5302
314.539	4270
314.628	5132
314.718	5368
314.808	5433
314.897	5860
314.987	6586
315.076	6508
315.166	6731
315.255	6281
315.345	5601
315.434	5444
315.524	6102
315.613	6753
315.703	8256
315.792	20455
315.881	73832
315.971	21832
316.060	8664
316.150	8002
316.239	7186
316.328	6342
316.418	5811
316.507	6420
316.597	7023
316.686	7062
316.775	6261
316.865	7482
316.954	5514
317.043	5671
317.133	4831
317.222	3781
317.311	4221
317.400	2763
317.490	6687
317.579	6266
317.668	7360
317.757	10915
317.847	33435
317.936	109896
318.025	31853
318.114	28490
318.203	13510
318.293	7400
318.382	10371
318.471	9870
318.560	11007
318.649	15525
318.738	6831
318.828	4459
318.917	3304
319.006	4592
319.095	6731
319.184	15543
319.273	8982
319.362	5850
319.451	4324
319.540	4013
319.629	5463
319.718	6498
319.807	5583
319.896	7622
319.985	19790
320.074	8207
320.163	5614
320.252	4021
320.341	5899
320.430	5084
320.519	6149
320.608	5164
320.697	6335
320.786	6488
320.875	8027
320.964	8571
321.053	9522
321.142	11255
321.230	12166
321.319	12615
321.408	16627
321.497	13773
321.586	12067
321.675	10546
321.764	10124
321.852	9537
321.941	10252
322.030	9716
322.119	10678
322.207	14603
322.296	15552
322.385	15422
322.474	19080
322.562	22339
322.651	16879
322.740	11975
322.829	11883
322.917	10384
323.006	9222
323.095	7774
323.183	6899
323.272	7105
323.361	8722
323.449	16595
323.538	7592
323.626	11433
323.715	8743
323.804	6200
323.892	10600
323.981	5998
324.069	5383
324.158	6977
324.246	6744
324.335	5390
324.424	5287
324.512	4863
324.601	5207
324.689	6713
324.778	9394
324.866	6189
324.954	4515
325.043	3869
325.131	4281
325.220	6327
325.308	6286
325.397	5464
325.485	5023
325.574	3847
325.662	4016
325.750	3506
325.839	4957
325.927	2943
326.015	3657
326.104	3785
326.192	4312
326.280	2913
326.369	3880
326.457	4603
326.545	4963
326.634	3922
326.722	4091
326.810	3646
326.898	5390
326.987	4931
327.075	4040
327.163	5616
327.251	4475
327.340	5351
327.428	8850
327.516	7277
327.604	5852
327.692	4293
327.781	4180
327.869	4285
327.957	4223
328.045	4112
328.133	3441
328.221	3532
328.309	3559
328.397	4415
328.485	4360
328.574	7458
328.662	11526
328.750	6449
328.838	4906
328.926	4050
329.014	3196
329.102	3984
329.190	6158
329.278	4291
329.366	4062
329.454	3514
329.542	3517
329.630	3007
329.718	4049
329.806	4187
329.893	4288
329.981	3008
330.069	4222
330.157	4743
330.245	6559
330.333	3802
330.421	4340
330.509	4585
330.597	7385
330.684	4957
330.772	4264
330.860	4090
330.948	4565
331.036	3354
331.123	3498
331.211	3627
331.299	3278
331.387	4682
331.475	6068
331.562	4157
331.650	3603
331.738	4178
331.825	4117
331.913	3449
332.001	3089
332.089	3465
332.176	5057
332.264	5472
332.352	5737
332.439	4208
332.527	3975
332.614	3377
332.702	4565
332.790	3761
332.877	6390
332.965	14198
333.052	11934
333.140	12906
333.228	33006
333.315	10166
333.403	5385
333.490	7523
333.578	14353
333.665	48952
333.753	20094
333.840	5568
333.928	7031
334.015	8172
334.103	11486
334.190	23501
334.278	15560
334.365	18581
334.452	18869
334.540	12802
334.627	11303
334.715	14854
334.802	22785
334.889	44789
334.977	57001
335.064	30260
335.151	15178
335.239	11514
335.326	9529
335.413	16375
335.501	18977
335.588	9569
335.675	9995
335.762	12125
335.850	17203
335.937	24802
336.024	42554
336.111	74564
336.199	61576
336.286	27371
336.373	15368
336.460	10030
336.547	8698
336.635	6801
336.722	6557
336.809	6024
336.896	6175
336.983	8553
337.070	15005
337.157	22165
337.245	14013
337.332	9811
337.419	5873
337.506	5298
337.593	5054
337.680	7702
337.767	14636
337.854	6531
337.941	6361
338.028	6031
338.115	4424
338.202	5361
338.289	7202
338.376	11040
338.463	6095
338.550	9105
338.637	9239
338.724	5054
338.811	6160
338.898	4072
338.984	3523
339.071	3550
339.158	4858
339.245	4728
339.332	4352
339.419	5441
339.506	4493
339.593	3561
339.679	3588
339.766	3985
339.853	4477
339.940	4359
340.027	4077
340.113	3398
340.200	3979
340.287	3348
340.374	4068
340.460	4553
340.547	2431
340.634	5337
340.720	8673
340.807	4965
340.894	4185
340.980	3542
341.067	3840
341.154	4211
341.240	4224
341.327	5525
341.414	4235
341.500	3833
341.587	4691
341.674	3778
341.760	4682
341.847	4823
341.933	3462
342.020	3169
342.106	4066
342.193	4119
342.279	4830
342.366	3606
342.452	4731
342.539	4451
342.625	5402
342.712	6684
342.798	5258
342.885	3663
342.971	3297
343.058	3750
343.144	3788
343.230	2985
343.317	3708
343.403	3487
343.490	3316
343.576	2875
343.662	4041
343.749	3616
343.835	3652
343.921	6169
344.008	19179
344.094	31785
344.180	8329
344.267	5582
344.353	10556
344.439	9619
344.525	4762
344.612	6593
344.698	5777
344.784	4101
344.870	4559
344.957	2770
345.043	4511
345.129	3988
345.215	4978
345.301	3017
345.387	3881
345.474	3715
345.560	3188
345.646	3018
345.732	4099
345.818	3318
345.904	3133
345.990	3433
346.076	3966
346.162	3765
346.249	4391
346.335	3366
346.421	4204
346.507	6881
346.593	13784
346.679	4309
346.765	5152
346.851	7209
346.937	4990
347.023	5137
347.108	4522
347.194	4158
347.280	4027
347.366	5673
347.452	16391
347.538	25819
347.624	16050
347.710	10422
347.796	5305
347.882	4166
347.967	3762
348.053	4098
348.139	3654
348.225	3600
348.311	3081
348.397	4176
348.482	5440
348.568	5347
348.654	6729
348.740	18297
348.825	18945
348.911	9309
348.997	12133
349.083	16190
349.168	5232
349.254	4279
349.340	4257
349.425	3586
349.511	4099
349.597	3961
349.682	6028
349.768	10940
349.854	6046
349.939	5075
350.025	4570
350.110	4162
350.196	4411
350.282	2936
350.367	3966
350.453	3860
350.538	4765
350.624	3599
350.709	4910
350.795	3154
350.880	3494
350.966	4645
351.051	4709
351.137	3662
351.222	4071
351.308	6436
351.393	8804
351.479	3740
351.564	3384
351.649	4153
351.735	4531
351.820	3113
351.906	3630
351.991	3252
352.076	8020
352.162	8128
352.247	4316
352.332	3329
352.418	4805
352.503	5463
352.588	12064
352.673	7447
352.759	4181
352.844	2637
352.929	4207
353.014	3200
353.100	4526
353.185	4097
353.270	4764
353.355	4887
353.441	4490
353.526	3387
353.611	5411
353.696	4551
353.781	4983
353.866	2953
353.952	5549
354.037	4318
354.122	7008
354.207	5389
354.292	4307
354.377	4177
354.462	3959
354.547	3374
354.632	4946
354.717	4121
354.802	3910
354.887	3651
354.972	4317
355.057	3668
355.142	3884
355.227	4187
355.312	4311
355.397	4093
355.482	7774
355.567	5111
355.652	6120
355.737	5996
355.822	13020
355.907	9027
355.991	5871
356.076	3316
356.161	4451
356.246	4481
356.331	4566
356.416	6135
356.501	22727
356.585	17556
356.670	5158
356.755	6491
356.840	6916
356.924	16272
357.009	40727
357.094	14568
357.179	4849
357.263	4779
357.348	5689
357.433	5426
357.517	5869
357.602	3944
357.687	4381
357.771	6387
357.856	9909
357.941	8422
358.025	15624
358.110	43960
358.195	18734
358.279	5792
358.364	6398
358.448	11724
358.533	19775
358.617	13226
358.702	13286
358.787	7400
358.871	6816
358.956	5656
359.040	5185
359.125	4274
359.209	4985
359.294	6835
359.378	10710
359.462	6925
359.547	5915
359.631	3822
359.716	3663
359.800	3623
359.885	6153
359.969	3471
360.053	4760
360.138	3824
360.222	4240
360.306	5248
360.391	5099
360.475	7336
360.559	9668
360.644	8521
360.728	6666
360.812	15118
360.896	27611
360.981	10908
361.065	7175
361.149	5724
361.233	4496
361.318	3906
361.402	4966
361.486	5960
361.570	5056
361.654	5482
361.739	8309
361.823	22290
361.907	28813
361.991	10001
362.075	9819
362.159	11926
362.243	20639
362.327	47438
362.411	72004
362.495	29288
362.580	13806
362.664	12576
362.748	13818
362.832	21264
362.916	43067
363.000	122179
363.084	176836
363.168	82989
363.252	24522
363.336	15014
363.420	12594
363.503	21050
363.587	20981
363.671	9824
363.755	8723
363.839	11510
363.923	9541
364.007	12565
364.091	16902
364.175	27695
364.258	71206
364.342	140565
364.426	243854
364.510	128740
364.594	40994
364.677	23940
364.761	32841
364.845	20489
364.929	11086
365.013	8528
365.096	8415
365.180	6582
365.264	10841
365.347	26626
365.431	12503
365.515	5018
365.598	4959
365.682	6237
365.766	4735
365.849	7160
365.933	5646
366.017	7252
366.100	4985
366.184	4543
366.267	6447
366.351	5260
366.435	4731
366.518	4828
366.602	5637
366.685	5395
366.769	5050
366.852	6859
366.936	7716
367.019	5768
367.103	5007
367.186	7175
367.270	5133
367.353	5387
367.436	5929
367.520	5430
367.603	7137
367.687	5951
367.770	6383
367.853	7409
367.937	12167
368.020	13317
368.104	6449
368.187	6311
368.270	6592
368.353	5735
368.437	6681
368.520	9472
368.603	7918
368.687	10044
368.770	14653
368.853	5850
368.936	7340
369.020	6729
369.103	5361
369.186	4222
369.269	4134
369.352	6117
369.436	6880
369.519	6086
369.602	3961
369.685	6344
369.768	3774
369.851	5868
369.934	4892
370.018	4906
370.101	4837
370.184	7468
370.267	6292
370.350	6562
370.433	8259
370.516	22439
370.599	44975
370.682	18806
370.765	13096
370.848	13740
370.931	18823
371.014	10416
371.097	5595
371.180	6624
371.263	7726
371.346	5688
371.429	7468
371.511	6122
371.594	7234
371.677	9267
371.760	10794
371.843	10022
371.926	24823
372.009	40014
372.091	23168
372.174	17197
372.257	24047
372.340	14151
372.423	15025
372.505	14759
372.588	9969
372.671	13573
372.754	20447
372.836	12334
372.919	13059
373.002	17193
373.085	9478
373.167	11505
373.250	14268
373.332	20624
373.415	31222
373.498	48149
373.580	25274
373.663	68982
373.746	64154
373.828	14186
373.911	9608
373.993	7654
374.076	16327
374.159	13727
374.241	10548
374.324	16422
374.406	13654
374.489	19700
374.571	39342
374.654	17029
374.736	13446
374.819	28192
374.901	38922
374.983	35190
375.066	11915
375.148	8396
375.231	15781
375.313	23329
375.395	11426
375.478	8498
375.560	8537
375.643	9280
375.725	14008
375.807	34488
375.890	24121
375.972	9755
376.054	8360
376.136	10057
376.219	7231
376.301	15112
376.383	27156
376.465	12375
376.548	8282
376.630	11158
376.712	23239
376.794	10984
376.877	5693
376.959	4248
377.041	5739
377.123	5286
377.205	6836
377.287	4487
377.369	6102
377.452	5118
377.534	5232
377.616	6127
377.698	6031
377.780	4803
377.862	5424
377.944	6596
378.026	4676
378.108	5494
378.190	5591
378.272	5926
378.354	5964
378.436	4540
378.518	4982
378.600	8304
378.682	8221
378.764	11531
378.846	10211
378.928	5635
379.010	6414
379.091	6570
379.173	5758
379.255	4898
379.337	5609
379.419	9155
379.501	15949
379.583	8273
379.664	6049
379.746	6419
379.828	14343
379.910	15024
379.991	14679
380.073	6402
380.155	7078
380.237	5283
380.318	6160
380.400	5024
380.482	7247
380.564	7023
380.645	8107
380.727	7650
380.809	8205
380.890	5343
380.972	6119
381.053	6354
381.135	7601
381.217	9345
381.298	15575
381.380	8270
381.461	11506
381.543	27744
381.624	26714
381.706	10025
381.787	9694
381.869	11445
381.951	18106
382.032	43024
382.113	28100
382.195	11792
382.276	13944
382.358	16115
382.439	28405
382.521	35461
382.602	48518
382.684	36102
382.765	60487
382.846	138273
382.928	283662
383.009	165768
383.090	134059
383.172	330457
383.253	393955
383.334	154375
383.416	80400
383.497	55633
383.578	62724
383.659	116953
383.741	299457
383.822	487358
383.903	283897
383.984	103930
384.066	69098
384.147	40505
384.228	24319
384.309	21685
384.390	19533
384.471	16793
384.553	16296
384.634	15543
384.715	15942
384.796	13069
384.877	15334
384.958	22283
385.039	18853
385.120	13518
385.201	12953
385.282	12364
385.363	15251
385.444	16601
385.525	18786
385.606	26724
385.687	21782
385.768	13413
385.849	13880
385.930	28796
386.011	34935
386.092	15481
386.173	12872
386.254	10614
386.335	10085
386.416	10668
386.496	14383
386.577	15297
386.658	11021
386.739	8781
386.820	11216
386.901	9050
386.981	12502
387.062	13705
387.143	15983
387.224	19728
387.304	19916
387.385	16693
387.466	13669
387.547	15479
387.627	15008
387.708	20268
387.789	30678
387.869	28917
387.950	16538
388.031	12099
388.111	9824
388.192	13482
388.273	16097
388.353	13368
388.434	9531
388.514	10854
388.595	24753
388.676	23593
388.756	13861
388.837	12857
388.917	9155
388.998	6338
389.078	8695
389.159	8222
389.239	5741
389.320	9195
389.400	6373
389.480	10669
389.561	14869
389.641	10115
389.722	8070
389.802	7061
389.883	10853
389.963	18386
390.043	11174
390.124	6236
390.204	9267
390.284	13073
390.365	9625
390.445	13054
390.525	24205
390.605	20746
390.686	9286
390.766	7513
390.846	8432
390.927	7273
391.007	6413
391.087	7754
391.167	6929
391.247	6080
391.328	8670
391.408	9170
391.488	9019
391.568	6472
391.648	8156
391.728	9420
391.808	9985
391.888	10803
391.969	15077
392.049	15125
392.129	13667
392.209	16057
392.289	23322
392.369	17409
392.449	17838
392.529	16994
392.609	19814
392.689	23397
392.769	33014
392.849	34914
392.929	43504
393.009	62553
393.089	82884
393.169	145133
393.248	342031
393.328	648998
393.408	623324
393.488	321595
393.568	138613
393.648	73741
393.728	47065
393.807	32540
393.887	28306
393.967	23192
394.047	19259
394.127	17444
394.206	19231
394.286	38442
394.366	139339
394.446	140027
394.525	35050
394.605	14892
394.685	13961
394.764	17225
394.844	28970
394.924	30235
395.003	14524
395.083	10210
395.163	10189
395.242	9442
395.322	9653
395.402	7373
395.481	11540
395.561	14261
395.640	40867
395.720	64815
395.799	41321
395.879	23348
395.958	19387
396.038	49197
396.117	179893
396.197	182606
396.276	55664
396.356	28307
396.435	29312
396.515	35777
396.594	55190
396.673	110814
396.753	307369
396.832	583176
396.912	436278
396.991	158900
397.070	67589
397.150	38050
397.229	32694
397.308	54408
397.388	94478
397.467	44581
397.546	18036
397.625	12015
397.705	13254
397.784	10614
397.863	10315
397.942	8661
398.022	9053
398.101	10760
398.180	17504
398.259	10603
398.338	8971
398.417	7426
398.497	6610
398.576	8060
398.655	5158
398.734	6863
398.813	7167
398.892	8534
398.971	17692
399.050	9259
399.129	5034
399.208	5785
399.287	5734
399.366	3873
399.445	4493
399.524	5306
399.603	3748
399.682	6353
399.761	8081
399.840	18497
399.919	14259
399.998	5636
400.077	3427
400.156	3736
400.235	6893
400.313	4237
400.392	4084
400.471	8749
400.550	8553
400.629	3886
400.708	4425
400.786	3030
400.865	5294
400.944	4919
401.023	6285
401.102	3329
401.180	4068
401.259	3272
401.338	3861
401.416	3558
401.495	3143
401.574	4143
401.652	3012
401.731	4287
401.810	2760
401.888	2859
401.967	3263
402.046	3498
402.124	4490
402.203	2928
402.281	3366
402.360	3386
402.438	5942
402.517	3765
402.596	4152
402.674	2574
402.753	3429
402.831	3363
402.910	4923
402.988	4243
403.066	10132
403.145	7318
403.223	6051
403.302	8532
403.380	7490
403.459	6962
403.537	5013
403.615	3867
403.694	3854
403.772	4634
403.850	3989
403.929	3161
404.007	3274
404.085	4814
404.164	4522
404.242	3971
404.320	8866
404.398	18976
404.477	19364
404.555	32503
404.633	24913
404.711	15332
404.789	10279
404.868	3911
404.946	3294
405.024	2846
405.102	3104
405.180	2187
405.258	2309
405.336	3163
405.415	2516
405.493	4571
405.571	4766
405.649	2561
405.727	3010
405.805	5327
405.883	4839
405.961	4379
406.039	3190
406.117	2362
406.195	4053
406.273	8677
406.351	22117
406.429	11380
406.507	3056
406.585	3154
406.663	3734
406.740	3295
406.818	1991
406.896	2031
406.974	3745
407.052	2405
407.130	16027
407.208	15180
407.285	5089
407.363	2125
407.441	2595
407.519	2967
407.596	3252
407.674	4371
407.752	10137
407.830	8709
407.907	4352
407.985	2577
408.063	2471
408.141	2735
408.218	3421
408.296	2109
408.373	3456
408.451	3127
408.529	4199
408.606	3375
408.684	4334
408.762	4332
408.839	4108
408.917	4583
408.994	5126
409.072	5492
409.149	7669
409.227	12626
409.304	17941
409.382	18422
409.459	20662
409.537	27629
409.614	24605
409.692	18282
409.769	18186
409.846	26987
409.924	34668
410.001	22980
410.079	16071
410.156	12622
410.233	8860
410.311	7315
410.388	6969
410.465	6965
410.543	5507
410.620	6605
410.697	6774
410.775	5880
410.852	5254
410.929	6902
411.006	7365
411.083	6239
411.161	6762
411.238	5526
411.315	5407
411.392	4474
411.469	5941
411.547	4396
411.624	2862
411.701	3394
411.778	4132
411.855	4606
411.932	3580
412.009	3590
412.086	3745
412.163	3397
412.240	3162
412.317	3308
412.394	3861
412.471	3939
412.548	2739
412.625	2550
412.702	3679
412.779	3989
412.856	3580
412.933	2223
413.010	3196
413.087	4240
413.164	6191
413.241	7053
413.318	2998
413.395	4231
413.471	3234
413.548	3606
413.625	3380
413.702	1668
413.779	2609
413.855	2471
413.932	2744
414.009	2433
414.086	2860
414.162	2751
414.239	3229
414.316	6629
414.393	10712
414.469	3616
414.546	3086
414.623	2076
414.699	3089
414.776	2726
414.853	2372
414.929	3401
415.006	2536
415.082	2178
415.159	2825
415.236	2848
415.312	2701
415.389	2878
415.465	2221
415.542	2525
415.618	2074
415.695	2520
415.771	2041
415.848	2343
415.924	2968
416.000	2015
416.077	3097
416.153	1319
416.230	1575
416.306	1838
416.383	2205
416.459	2260
416.535	2516
416.612	2640
416.688	3294
416.764	3254
416.841	2716
416.917	2504
416.993	3327
417.069	3113
417.146	3089
417.222	3234
417.298	3026
417.374	2129
417.451	3068
417.527	2549
417.603	1804
417.679	2698
417.755	2440
417.831	1863
417.908	3308
417.984	2575
418.060	2028
418.136	2429
418.212	3038
418.288	2329
418.364	3066
418.440	2056
418.516	2766
418.592	2392
418.668	4335
418.744	3425
418.820	3853
418.896	2775
418.972	1125
419.048	2166
419.124	4300
419.200	2365
419.276	3189
419.352	1882
419.428	3089
419.504	2185
419.579	2816
419.655	2395
419.731	3877
419.807	4419
419.883	5185
419.959	3973
420.034	4315
420.110	5136
420.186	8255
420.262	6932
420.337	4381
420.413	3723
420.489	3821
420.565	5544
420.640	4616
420.716	5331
420.792	4477
420.867	6622
420.943	6289
421.019	6718
421.094	6228
421.170	6616
421.245	7306
421.321	8066
421.397	9408
421.472	11007
421.548	13254
421.623	13432
421.699	13252
421.774	14621
421.850	16030
421.925	19875
422.001	22965
422.076	26930
422.152	33653
422.227	44333
422.302	62281
422.378	89246
422.453	141937
422.529	222230
422.604	257788
422.679	201125
422.755	236704
422.830	222651
422.905	149428
422.981	97870
423.056	69808
423.131	52813
423.207	39788
423.282	31118
423.357	27525
423.432	22709
423.508	20544
423.583	17317
423.658	14996
423.733	13000
423.808	12524
423.883	12838
423.959	14045
424.034	16319
424.109	14942
424.184	10483
424.259	8736
424.334	7748
424.409	7120
424.484	5879
424.559	6019
424.634	5334
424.709	5835
424.784	4769
424.859	4894
424.934	5400
425.009	7254
425.084	9207
425.159	4918
425.234	4046
425.309	3593
425.384	5102
425.459	5199
425.534	3676
425.609	3175
425.683	3367
425.758	3518
425.833	3968
425.908	4149
425.983	5530
426.058	8645
426.132	3519
426.207	3123
426.282	4316
426.357	3538
426.431	2690
426.506	3490
426.581	2969
426.655	3387
426.730	2341
426.805	2216
426.879	3354
426.954	3382
427.029	3788
427.103	9965
427.178	17243
427.253	7431
427.327	3034
427.402	3086
427.476	4713
427.551	3484
427.625	2600
427.700	3147
427.774	2452
427.849	3403
427.923	2131
427.998	2717
428.072	3939
428.147	9414
428.221	39199
428.296	110455
428.370	57795
428.444	10173
428.519	4485
428.593	5365
428.667	5538
428.742	6919
428.816	15465
428.890	69327
428.965	98663
429.039	26119
429.113	6744
429.188	4506
429.262	3316
429.336	3506
429.410	5180
429.485	4433
429.559	4496
429.633	4367
429.707	4570
429.781	14141
429.855	67014
429.930	90388
430.004	26291
430.078	21972
430.152	48828
430.226	150424
430.300	133683
430.374	31774
430.448	9944
430.522	8323
430.596	15754
430.670	25830
430.744	92257
430.818	94561
430.892	17657
430.966	5314
431.040	2848
431.114	1923
431.188	1968
431.262	2137
431.336	1215
431.410	3275
431.484	2811
431.557	4508
431.631	3798
431.705	6490
431.779	31252
431.853	105495
431.927	66023
432.000	10442
432.074	3654
432.148	2598
432.222	1624
432.295	1688
432.369	1558
432.443	2437
432.516	8617
432.590	17207
432.664	5301
432.737	1258
432.811	46
432.885	1627
432.958	842
433.032	1233
433.106	540
433.179	1001
433.253	881
433.326	1197
433.400	334
433.473	1267
433.547	965
433.620	1180
433.694	1049
433.767	825
433.841	372
433.914	1736
433.988	1180
434.061	1777
434.134	1547
434.208	1069
434.281	848
434.355	933
434.428	983
434.501	1136
434.575	792
434.648	725
434.721	195
434.795	255
434.868	306
434.941	1227
435.014	1451
435.088	2822
435.161	3488
435.234	5630
435.307	4992
435.381	6108
435.454	7860
435.527	13073
435.600	15401
435.673	11873
435.746	8481
435.819	5781
435.892	4619
435.966	4298
436.039	2650
436.112	3040
436.185	1825
436.258	1396
436.331	503
436.404	1741
436.477	1417
436.550	926
436.623	1532
436.696	472
436.769	805
436.842	1365
436.915	588
436.987	1064
437.060	462
437.133	1291
437.206	649
437.279	1393
437.352	904
437.425	376
437.498	1402
437.570	2107
437.643	1081
437.716	319
437.789	793
437.861	1294
437.934	1431
438.007	856
438.080	1159
438.152	1055
438.225	2725
438.298	13493
438.370	25593
438.443	8393
438.516	1664
438.588	985
438.661	501
438.734	511
438.806	1129
438.879	1591
438.951	935
439.024	1675
439.096	805
439.169	911
439.241	169
439.314	1259
439.386	70
439.459	1693
439.531	978
439.604	-33
439.676	1417
439.749	994
439.821	139
439.893	1450
439.966	518
440.038	1112
440.110	171
440.183	1118
440.255	138
440.327	2225
440.400	5946
440.472	14900
440.544	6482
440.617	1290
440.689	2234
440.761	2142
440.833	1536
440.905	1476
440.978	851
441.050	1500
441.122	817
441.194	799
441.266	1038
441.338	586
441.411	1652
441.483	6007
441.555	5326
441.627	1643
441.699	2113
441.771	1794
441.843	710
441.915	1512
441.987	2040
442.059	1642
442.131	3073
442.203	3212
442.275	4390
442.347	8184
442.419	20080
442.491	87934
442.563	167289
442.635	64302
442.706	14909
442.778	7398
442.850	4806
442.922	4053
442.994	4103
443.066	4561
443.137	5812
443.209	7683
443.281	13046
443.353	28662
443.425	99101
443.496	258393
443.568	259364
443.640	106276
443.711	24053
443.783	10298
443.855	6374
443.926	4617
443.998	4440
444.070	3710
444.141	3173
444.213	2696
444.285	2863
444.356	3275
444.428	2336
444.499	1944
444.571	2237
444.642	2553
444.714	3089
444.785	3686
444.857	3855
444.928	5210
445.000	4918
445.071	6899
445.143	8680
445.214	12561
445.285	21942
445.357	57346
445.428	178672
445.500	293954
445.571	240258
445.642	155918
445.714	52542
445.785	18454
445.856	7853
445.928	6042
445.999	4120
446.070	3469
446.141	3142
446.213	3309
446.284	1797
446.355	2081
446.426	1246
446.497	1445
446.569	1022
446.640	1460
446.711	1278
446.782	1357
446.853	1137
446.924	1174
446.995	89
447.066	958
447.138	1520
447.209	710
447.280	112
447.351	438
447.422	441
447.493	1500
447.564	610
447.635	1228
447.706	80
447.777	1461
447.847	606
447.918	349
447.989	967
448.060	1264
448.131	993
448.202	1362
448.273	-427
448.344	1327
448.414	-139
448.485	234
448.556	568
448.627	909
448.698	1184
448.768	361
448.839	278
448.910	222
448.981	949
449.051	584
449.122	202
449.193	669
449.263	636
449.334	567
449.405	882
449.475	1327
449.546	1042
449.616	1932
449.687	1322
449.758	771
449.828	127
449.899	386
449.969	185
450.040	53
450.110	61
450.181	266
450.251	-462
450.322	123
450.392	-277
450.463	1036
450.533	-422
450.604	760
450.674	622
450.744	1308
450.815	214
450.885	1825
450.955	1333
451.026	1579
451.096	883
451.166	1122
451.237	1687
451.307	3341
451.377	849
451.447	428
451.518	622
451.588	1552
451.658	593
451.728	1187
451.799	1935
451.869	2760
451.939	267
452.009	-240
452.079	155
452.149	293
452.219	658
452.289	3170
452.360	2206
452.430	1371
452.500	1861
452.570	4501
452.640	11180
452.710	27739
452.780	28394
452.850	13800
452.920	6027
452.990	3457
453.060	2151
453.129	1613
453.199	815
453.269	3659
453.339	5650
453.409	7667
453.479	8998
453.549	11625
453.619	10823
453.688	3692
453.758	998
453.828	489
453.898	215
453.968	415
454.037	757
454.087	791
454.107	802
454.168	-40
454.177	-171
454.247	384
454.249	374
454.316	-120
454.330	-65
454.386	114
454.411	225
454.456	355
454.492	794
454.525	1158
454.574	896
454.595	781
454.655	538
454.665	492
454.734	363
454.736	391
454.804	974
454.817	1289
454.873	2494
454.898	2268
454.943	1864
454.979	1185
455.013	500
455.060	409
455.082	431
455.141	-96
455.152	-218
455.221	2311
455.222	2332
455.291	2877
455.303	3149
455.360	4144
455.384	5414
455.430	7178
455.465	5250
455.499	3522
455.546	2299
455.569	1755
455.627	1374
455.638	1304
455.707	-37
455.708	-23
455.777	770
455.789	742
455.846	581
455.869	693
455.916	931
455.950	836
455.985	674
456.031	175
456.054	-76
456.112	678
456.124	834
456.193	992
456.193	981
456.262	1338
456.274	1378
456.332	1543
456.355	1250
456.401	613
456.436	888
456.470	1246
456.516	913
456.540	705
456.597	939
456.609	950
456.678	1695
456.678	1688
456.747	1502
456.759	1443
456.817	1114
456.840	969
456.886	782
456.920	1317
456.955	1637
457.001	1723
457.024	1879
457.082	1358
457.093	1219
457.162	2159
457.163	2169
457.232	1591
457.243	1614
457.301	1829
457.324	1823
457.370	1846
457.405	2225
457.439	2468
457.485	1726
457.508	1480
457.566	2901
457.577	3287
457.646	4312
457.647	4350
457.715	10750
457.727	12539
457.784	23891
457.808	33166
457.853	45558
457.889	52722
457.922	52684
457.969	32320
457.991	30305
458.050	36958
458.060	38099
458.129	71848
458.130	72704
458.198	79103
458.211	70527
458.267	34327
458.292	23368
458.336	14001
458.372	12473
458.405	16998
458.453	27913
458.474	36126
458.533	68553
458.543	71206
458.611	120431
458.614	120620
458.680	73186
458.694	57548
458.749	22181
458.775	15421
458.818	8734
458.855	6670
458.887	5233
458.936	4174
458.955	3847
459.016	3117
459.024	3079
459.093	3566
459.097	3546
459.162	2301
459.177	2158
459.230	2296
459.257	2415
459.299	2438
459.338	2574
459.368	2494
459.418	2229
459.437	2204
459.499	2330
459.505	2347
459.574	2010
459.579	2025
459.643	1951
459.659	1919
459.711	1949
459.740	2011
459.780	2132
459.820	2181
459.849	2266
459.900	2848
459.917	2995
459.981	2128
459.986	2018
460.054	2021
460.061	1972
460.123	2295
460.141	2503
460.191	2601
460.222	2526
460.260	2494
460.302	2625
460.328	2650
460.382	2374
460.397	2367
460.462	2717
460.465	2741
460.534	3058
460.543	3153
460.602	5947
460.623	7106
460.671	10217
460.703	13507
460.739	13501
460.783	11202
460.808	9633
460.864	3586
460.876	3005
460.944	2300
460.945	2286
461.013	2182
461.024	2076
461.081	1863
461.104	2173
461.150	2701
461.184	2717
461.218	2603
461.264	2292
461.286	2250
461.345	2268
461.355	2201
461.423	2035
461.425	2018
461.491	2156
461.505	2334
461.559	2753
461.585	2643
461.628	2809
461.665	3412
461.696	3775
461.745	4559
461.764	4354
461.825	2735
461.832	2725
461.901	3001
461.905	3019
461.969	2210
461.985	2007
462.037	2669
462.065	3084
462.105	2535
462.145	1909
462.173	2348
462.225	3078
462.241	2986
462.305	3070
462.310	3088
462.378	3147
462.385	3150
462.446	2956
462.465	2847
462.514	2960
462.545	3027
462.582	2831
462.625	2780
462.650	2789
462.705	2446
462.718	2311
462.785	1939
462.786	1941
462.854	1789
462.865	1825
462.922	2953
462.945	3387
462.990	3310
463.025	2961
463.058	2885
463.104	3086
463.126	2887
463.184	2361
463.194	2466
463.262	2725
463.264	2754
463.330	2886
463.344	2775
463.398	3215
463.424	3579
463.466	2951
463.504	2432
463.533	2553
463.583	2560
463.601	2625
463.663	2883
463.669	2880
463.737	2936
463.743	2926
463.805	3246
463.823	3368
463.873	4321
463.903	4988
463.940	5021
463.982	4881
464.008	4602
464.062	3852
464.076	3616
464.142	2527
464.144	2533
464.211	2615
464.221	2666
464.279	2630
464.301	2492
464.347	2758
464.381	3093
464.414	3030
464.461	2851
464.482	2944
464.540	3299
464.550	3325
464.617	3284
464.620	3281
464.685	3337
464.699	3324
464.753	3251
464.779	3301
464.820	3635
464.859	3757
464.888	3505
464.938	3372
464.956	3763
465.018	4825
465.023	4775
465.091	4146
465.098	4062
465.158	3591
465.177	3497
465.226	3813
465.257	3880
465.293	3882
465.336	3994
465.361	3939
465.416	3749
465.428	3826
465.495	4373
465.496	4382
465.563	4544
465.575	4632
465.631	5984
465.654	6517
465.698	5261
465.734	4055
465.765	3898
465.813	3701
465.833	3670
465.893	3667
465.900	3662
465.968	3435
465.972	3425
466.035	3334
466.052	3283
466.102	3568
466.131	3695
466.170	3641
466.210	3595
466.237	3621
466.290	3662
466.304	3621
466.369	3349
466.372	3331
466.439	2709
466.449	2600
466.506	3670
466.528	4061
466.573	4320
466.607	4545
466.641	5217
466.687	6119
466.708	6770
466.766	8542
466.775	8148
466.842	5085
466.845	4929
466.909	4204
466.925	4034
466.977	4089
467.004	4128
467.044	4385
467.083	4630
467.111	5090
467.163	5903
467.178	5953
467.242	6142
467.245	6108
467.312	5214
467.321	5089
467.379	4948
467.400	4884
467.446	5376
467.480	5718
467.559	5832
467.638	4748
467.717	5223
467.796	5328
467.875	5901
467.955	6231
468.034	6878
468.113	9138
468.192	12537
468.271	9842
468.350	13215
468.429	20090
468.508	20965
468.588	13420
468.667	7726
468.746	6423
468.825	5497
468.904	4330
468.983	5313
469.062	6653
469.141	6574
469.220	4963
469.299	5315
469.378	4719
469.456	6504
469.535	6360
469.614	5072
469.693	3872
469.772	5825
469.851	6531
469.930	5901
470.009	6444
470.088	7236
470.166	9683
470.245	18188
470.324	21589
470.403	14461
470.482	8560
470.560	6388
470.639	5534
470.718	6375
470.797	5100
470.875	4633
470.954	6494
471.033	5955
471.111	4935
471.190	4492
471.269	5207
471.347	4332
471.426	5018
471.505	5146
471.583	5563
471.662	5462
471.740	4931
471.819	4476
471.898	4442
471.976	6015
472.055	4135
472.133	4739
472.212	4852
472.290	4526
472.369	5165
472.447	5064
472.526	4942
472.604	5384
472.683	4807
472.761	5294
472.839	4914
472.918	5313
472.996	4174
473.075	5362
473.153	5596
473.231	4738
473.310	5435
473.388	5549
473.466	5333
473.545	6334
473.623	5360
473.701	5241
473.780	5027
473.858	4456
473.936	6371
474.014	5022
474.093	5692
474.171	5093
474.249	6584
474.327	5024
474.405	4235
474.484	4513
474.562	4888
474.640	3273
474.718	4190
474.796	3887
474.874	5353
474.952	4415
475.030	4277
475.108	4174
475.187	5245
475.265	4972
475.343	5357
475.421	5017
475.499	4487
475.577	5563
475.655	6074
475.733	6288
475.811	7362
475.889	6855
475.966	6698
476.044	4431
476.122	4638
476.200	4502
476.278	3924
476.356	4349
476.434	4937
476.512	4212
476.590	4882
476.667	4654
476.745	4722
476.823	4114
476.901	4358
476.979	4888
477.056	5565
477.134	4371
477.212	4813
477.290	4807
477.367	4447
477.445	5016
477.523	3397
477.601	4396
477.678	4038
477.756	4932
477.834	5067
477.911	4133
477.989	4725
478.066	3354
478.144	3509
478.222	4635
478.299	5217
478.377	5002
478.454	4326
478.532	4187
478.609	4386
478.687	5415
478.764	4315
478.842	4236
478.919	3815
478.997	4805
479.074	4124
479.152	5132
479.229	4544
479.307	4372
479.384	4028
479.461	5034
479.539	4209
479.616	4456
479.694	4185
479.771	4472
479.848	3432
479.926	3191
480.003	5779
480.080	3940
480.157	5009
480.235	3997
480.312	5130
480.389	4456
480.467	4370
480.544	5119
480.621	5446
480.698	5329
480.775	5300
480.853	5386
480.930	4067
481.007	4065
481.084	4340
481.161	4283
481.238	4317
481.315	3795
481.392	3841
481.470	4636
481.547	4154
481.624	3801
481.701	4137
481.778	4949
481.855	5104
481.932	6311
482.009	6976
482.086	6480
482.163	6349
482.240	7684
482.317	7750
482.393	7690
482.470	7103
482.547	6275
482.624	5576
482.701	6542
482.778	5194
482.855	5379
482.932	5280
483.009	5868
483.085	6478
483.162	6764
483.239	8081
483.316	7519
483.393	8845
483.469	6474
483.546	6451
483.623	5335
483.699	5449
483.776	5077
483.853	4816
483.930	5235
484.006	6214
484.083	11376
484.160	9875
484.236	12536
484.313	11268
484.389	8294
484.466	10931
484.543	11644
484.619	13112
484.696	16755
484.772	11613
484.849	9505
484.925	8079
485.002	8396
485.078	7911
485.155	7912
485.231	6290
485.308	6071
485.384	6841
485.461	8593
485.537	8355
485.614	10183
485.690	6917
485.766	7109
485.843	6402
485.919	8079
485.995	7660
486.072	7310
486.148	6553
486.224	6229
486.301	6856
486.377	6323
486.453	6473
486.530	7334
486.606	9908
486.682	9292
486.758	9606
486.835	8646
486.911	7446
486.987	11913
487.063	12707
487.139	13530
487.215	12842
487.292	12303
487.368	12336
487.444	15143
487.520	20817
487.596	29201
487.672	64763
487.748	225867
487.824	350082
487.900	115396
487.976	28408
488.052	15733
488.128	13498
488.204	9853
488.280	9247
488.356	8732
488.432	10314
488.508	11961
488.584	8140
488.660	8156
488.736	7705
488.812	6857
488.888	7885
488.964	7525
489.039	11680
489.115	15362
489.191	11588
489.267	6964
489.343	7396
489.418	6615
489.494	5805
489.570	5494
489.646	8391
489.722	6436
489.797	6024
489.873	8172
489.949	9234
490.024	9167
490.100	6393
490.176	6151
490.251	6084
490.327	7433
490.403	6102
490.478	6956
490.554	6337
490.629	6035
490.705	5321
490.781	6770
490.856	5569
490.932	6687
491.007	6282
491.083	5084
491.158	5495
491.234	6727
491.309	7970
491.385	7126
491.460	4910
491.536	6790
491.611	5674
491.686	7046
491.762	5841
491.837	7876
491.913	10471
491.988	15547
492.063	16751
492.139	8171
492.214	7246
492.289	6358
492.365	5671
492.440	6188
492.515	5218
492.590	5401
492.666	4560
492.741	6792
492.816	5832
492.891	6156
492.967	6614
493.042	5394
493.117	5583
493.192	6375
493.267	8050
493.342	16403
493.418	21713
493.493	7105
493.568	5559
493.643	4755
493.718	5697
493.793	5357
493.868	7279
493.943	6848
494.018	6024
494.093	4921
494.168	5690
494.243	5289
494.318	5834
494.393	6673
494.468	5517
494.543	5465
494.618	5674
494.693	5541
494.768	5407
494.842	6284
494.917	5540
494.992	5877
495.067	5352
495.142	5884
495.217	6686
495.292	6397
495.366	5998
495.441	5905
495.516	6866
495.591	7046
495.665	14163
495.740	28519
495.815	13162
495.890	6044
495.964	4323
496.039	7988
496.114	6266
496.188	7414
496.263	7567
496.338	5961
496.412	6212
496.487	6871
496.561	6947
496.636	6529
496.710	6510
496.785	6609
496.860	6621
496.934	5850
497.009	5962
497.083	6158
497.158	7095
497.232	7167
497.307	8434
497.381	8052
497.455	8160
497.530	8282
497.604	6672
497.679	6929
497.753	7564
497.827	7284
497.902	6477
497.976	8788
498.050	15030
498.125	46141
498.199	48458
498.273	9562
498.348	8655
498.422	7817
498.496	9718
498.570	10595
498.645	6689
498.719	4624
498.793	6581
498.867	7672
498.941	8032
499.016	19464
499.090	46767
499.164	21347
499.238	7146
499.312	7186
499.386	7658
499.460	8965
499.534	8642
499.609	11237
499.683	9652
499.757	6639
499.831	8928
499.905	29653
499.979	29838
500.053	7194
500.127	7858
500.201	6131
500.275	7154
500.349	7809
500.422	8572
500.496	9816
500.570	13850
500.644	25420
500.718	36623
500.792	11972
500.866	5586
500.940	5240
501.013	5881
501.087	4912
501.161	5962
501.235	5904
501.309	12023
501.382	23494
501.456	23471
501.530	7988
501.603	9309
501.677	5009
501.751	3369
501.825	5954
501.898	6396
501.972	9910
502.046	8205
502.119	3485
502.193	7035
502.266	11799
502.340	7435
502.413	6777
502.487	9872
502.561	6350
502.634	4661
502.708	5297
502.781	3726
502.855	5608
502.928	3785
503.002	4637
503.075	2713
503.149	4242
503.222	4863
503.295	4145
503.369	4893
503.442	4964
503.516	10715
503.589	19348
503.662	15335
503.736	10262
503.809	16499
503.882	17971
503.956	25270
504.029	43573
504.102	124473
504.175	196084
504.249	75402
504.322	23040
504.395	12624
504.468	8952
504.542	6206
504.615	4586
504.688	6059
504.761	2922
504.834	5546
504.907	4985
504.980	5681
505.053	4098
505.127	1788
505.200	6544
505.273	3431
505.346	3634
505.419	2123
505.492	5091
505.565	3196
505.638	3441
505.711	2142
505.784	2211
505.857	2663
505.930	4736
506.003	2014
506.076	4539
506.149	2498
506.221	2525
506.294	5649
506.367	3635
506.440	12568
506.513	9777
506.586	3919
506.659	3573
506.731	3093
506.804	3476
506.877	3523
506.950	3687
507.022	3831
507.095	1383
507.168	3498
507.241	3561
507.313	2965
507.386	2016
507.459	4000
507.531	3013
507.604	2273
507.677	3811
507.749	1312
507.822	4326
507.894	4636
507.967	6990
508.040	3735
508.112	4697
508.185	3332
508.257	3344
508.330	5548
508.402	3490
508.475	3448
508.547	5201
508.620	2821
508.692	4671
508.765	4985
508.837	3181
508.909	4016
508.982	3081
509.054	3773
509.127	2973
509.199	3985
509.271	2574
509.344	4149
509.416	3242
509.488	3543
509.560	3445
509.633	3757
509.705	3802
509.777	3548
509.849	4964
509.922	3615
509.994	3581
510.066	4886
510.138	2372
510.210	7885
510.283	5446
510.355	5252
510.427	5295
510.499	4235
510.571	4113
510.643	3716
510.715	5546
510.787	2376
510.859	4702
510.931	4424
511.003	5160
511.076	6165
511.148	3625
511.219	4101
511.291	5608
511.363	6067
511.435	4694
511.507	2995
511.579	4716
511.651	4276
511.723	3018
511.795	2872
511.867	3597
511.939	4446
512.010	4471
512.082	4645
512.154	2950
512.226	3759
512.298	6282
512.369	6531
512.441	7103
512.513	5056
512.585	2843
512.656	4987
512.728	4258
512.800	5495
512.871	5264
512.943	4358
513.015	3650
513.086	5199
513.158	3648
513.230	3202
513.301	3906
513.373	6690
513.444	4444
513.516	3720
513.588	4268
513.659	4310
513.731	4947
513.802	3128
513.874	7254
513.945	7609
514.016	4539
514.088	5130
514.159	3423
514.231	4988
514.302	5951
514.374	5048
514.445	3654
514.516	9044
514.588	5352
514.659	5931
514.730	4721
514.802	5352
514.873	2448
514.944	6624
515.016	4467
515.087	3652
515.158	4351
515.229	6570
515.301	3228
515.372	5062
515.443	3657
515.514	4930
515.585	3150
515.656	4970
515.728	5437
515.799	3265
515.870	5108
515.941	5697
516.012	4921
516.083	7979
516.154	6121
516.225	10591
516.296	11492
516.367	10832
516.438	14692
516.509	19063
516.580	27570
516.651	101940
516.722	366582
516.793	157407
516.864	28927
516.935	25851
517.006	31570
517.077	38376
517.148	84673
517.219	424831
517.289	655528
517.360	111779
517.431	27611
517.502	13980
517.573	13895
517.643	10785
517.714	11107
517.785	14064
517.856	14314
517.926	20927
517.997	26380
518.068	34013
518.138	48515
518.209	71320
518.280	269944
518.350	945197
518.421	390480
518.492	60487
518.562	34184
518.633	33277
518.703	40085
518.774	84975
518.845	241471
518.915	247796
518.986	67547
519.056	26884
519.127	19513
519.197	16956
519.268	21010
519.338	16985
519.408	8622
519.479	8432
519.549	6365
519.620	7247
519.690	5675
519.760	5440
519.831	5444
519.901	4444
519.971	5737
520.042	4995
520.112	3984
520.182	5623
520.253	6233
520.323	4779
520.393	3771
520.463	7961
520.534	1947
520.604	8567
520.674	6336
520.744	3881
520.814	6405
520.885	7050
520.955	6953
521.025	17288
521.095	8915
521.165	6025
521.235	3472
521.305	3061
521.375	4636
521.445	5431
521.515	3774
521.585	5403
521.655	3113
521.725	5078
521.795	4435
521.865	2469
521.935	6993
522.005	4582
522.075	4047
522.145	5064
522.215	3152
522.285	4946
522.355	5331
522.424	6966
522.494	5811
522.564	5403
522.634	6436
522.704	15888
522.774	7017
522.843	4510
522.913	4896
522.983	3861
523.053	3634
523.122	5383
523.192	4585
523.262	8800
523.331	7775
523.401	4670
523.471	3776
523.540	5097
523.610	3211
523.680	4279
523.749	4749
523.819	5577
523.888	4148
523.958	4698
524.027	3328
524.097	4930
524.166	4587
524.236	3533
524.305	7407
524.375	3374
524.444	3777
524.514	6350
524.583	3931
524.653	4805
524.722	5095
524.791	3466
524.861	6571
524.930	3567
524.999	4029
525.069	6500
525.138	5578
525.207	5163
525.277	6151
525.346	6370
525.415	7900
525.484	8187
525.554	7640
525.623	10722
525.692	12920
525.761	16397
525.830	20688
525.900	26681
525.969	40681
526.038	75605
526.107	154764
526.176	478334
526.245	404630
526.314	110111
526.383	224905
526.452	324808
526.522	452788
526.591	453397
526.660	75246
526.729	42190
526.797	45832
526.867	61688
526.935	189736
527.004	712696
527.073	478143
527.142	60900
527.211	22274
527.280	15103
527.349	11409
527.418	7477
527.487	8777
527.555	6033
527.624	5988
527.693	4661
527.762	6856
527.831	5125
527.899	5540
527.968	5480
528.037	3654
528.106	5970
528.174	5867
528.243	5704
528.312	5562
528.380	6578
528.449	4315
528.518	6332
528.586	3096
528.655	5852
528.723	4401
528.792	3946
528.861	3296
528.929	3123
528.998	5247
529.066	4770
529.135	6098
529.203	5096
529.272	5128
529.340	8025
529.409	8284
529.477	6074
529.545	6894
529.614	8658
529.682	6694
529.751	8318
529.819	11155
529.887	9847
529.956	8364
530.024	8880
530.092	8429
530.161	9517
530.229	9534
530.297	9252
530.365	10705
530.434	9280
530.502	8514
530.570	10000
530.638	7476
530.707	7775
530.775	9635
530.843	7101
530.911	8173
530.979	9294
531.047	9332
531.115	9442
531.183	8197
531.252	8852
531.320	7658
531.388	7703
531.456	9121
531.524	8553
531.592	10667
531.660	11817
531.728	8907
531.796	8829
531.864	9805
531.932	8834
532.000	9491
532.067	9071
532.135	10993
532.203	13107
532.271	12064
532.339	14317
532.407	16463
532.475	13731
532.542	12904
532.610	12307
532.678	11716
532.746	22104
532.814	36619
532.881	17506
532.949	11940
533.017	12015
533.084	11225
533.152	9872
533.220	11097
533.287	9756
533.355	10927
533.423	11849
533.490	10631
533.558	11464
533.625	11430
533.693	10872
533.761	11750
533.828	10756
533.896	9521
533.963	14245
534.031	14812
534.098	16178
534.166	15580
534.233	14122
534.300	16975
534.368	16060
534.435	15463
534.503	15770
534.570	18544
534.637	20810
534.705	23095
534.772	25867
534.840	43682
534.907	202596
534.974	281826
535.041	42037
535.109	19922
535.176	14859
535.243	14317
535.310	12658
535.378	12214
535.445	13751
535.512	12553
535.579	11767
535.646	11212
535.714	11902
535.781	13488
535.848	14772
535.915	14122
535.982	13905
536.049	14205
536.116	14847
536.183	12356
536.250	11427
536.317	11787
536.384	12469
536.451	13934
536.518	13875
536.585	11965
536.652	14343
536.719	15197
536.786	11296
536.853	12420
536.920	14472
536.987	14114
537.053	12649
537.120	25290
537.187	22707
537.254	13532
537.321	13350
537.388	15131
537.454	12807
537.521	12526
537.588	12451
537.654	14614
537.721	14926
537.788	14969
537.855	12887
537.921	13392
537.988	12662
538.055	13037
538.121	11629
538.188	11633
538.254	12447
538.321	12940
538.388	14057
538.454	13961
538.521	15383
538.587	13501
538.654	13441
538.720	13174
538.787	14420
538.853	13737
538.920	13501
538.986	11757
539.053	11866
539.119	12632
539.185	13154
539.252	14995
539.318	13963
539.385	15753
539.451	12809
539.517	14703
539.583	14933
539.650	15376
539.716	19824
539.782	13740
539.849	12328
539.915	13449
539.981	12047
540.047	12547
540.114	12624
540.180	14444
540.246	12489
540.312	15079
540.378	15261
540.444	16458
540.510	16053
540.576	23168
540.643	14827
540.709	12006
540.775	13283
540.841	12580
540.907	13738
540.973	13839
541.039	12676
541.105	14174
541.171	14091
541.237	14192
541.303	14286
541.369	15704
541.435	15145
541.500	14028
541.566	12149
541.632	11826
541.698	12728
541.764	14036
541.830	12851
541.896	12648
541.961	13520
542.027	12102
542.093	14953
542.159	16030
542.224	12991
542.290	14956
542.356	13800
542.421	15149
542.487	13308
542.553	12107
542.618	13610
542.684	12249
542.750	12972
542.815	14342
542.881	14007
542.947	20725
543.012	18297
543.078	13112
543.143	13018
543.209	13332
543.274	12013
543.340	13385
543.405	15782
543.471	17078
543.536	14405
543.602	14625
543.667	12669
543.732	14584
543.798	13480
543.863	15127
543.928	13180
543.994	13546
544.059	14357
544.124	14076
544.190	13649
544.255	15163
544.320	14688
544.386	13912
544.451	15971
544.516	15874
544.581	14193
544.646	19588
544.712	23477
544.777	16492
544.842	16360
544.907	15004
544.972	15984
545.037	16744
545.102	16705
545.168	17304
545.233	17957
545.298	18511
545.363	18246
545.428	18803
545.493	20614
545.558	22931
545.623	19411
545.688	17737
545.753	19706
545.818	19880
545.883	20858
545.947	21145
546.012	22743
546.077	23182
546.142	24499
546.207	24380
546.272	26124
546.337	27150
546.401	27310
546.466	29673
546.531	29733
546.596	32443
546.661	33741
546.725	36425
546.790	36472
546.855	40699
546.919	43285
546.984	49526
547.049	52406
547.113	59518
547.178	67307
547.243	75302
547.307	88217
547.372	98724
547.436	97899
547.501	102815
547.565	111884
547.630	102654
547.695	99192
547.759	98474
547.823	100842
547.888	101236
547.952	104607
548.017	108176
548.081	110056
548.146	109175
548.210	112679
548.274	121721
548.339	119150
548.403	110207
548.468	103269
548.532	102234
548.596	104847
548.660	103181
548.725	112141
548.789	123012
548.853	120579
548.917	115701
548.982	112892
549.046	102516
549.110	92219
549.174	93469
549.238	108930
549.303	119939
549.367	125409
549.431	119325
549.495	110188
549.559	110479
549.623	126545
549.687	141764
549.751	137865
549.815	161707
549.879	166926
549.943	159011
550.007	165624
550.071	166469
550.135	150013
550.199	140538
550.263	140054
550.327	131539
550.391	133818
550.455	148628
550.519	156824
550.582	164784
550.646	184628
550.710	191069
550.774	188218
550.838	190066
550.901	193635
550.965	205029
551.029	211646
551.093	225775
551.156	240794
551.220	265445
551.284	297256
551.347	240099
551.411	207265
551.475	198660
551.538	204282
551.602	194445
551.666	182037
551.729	173017
551.793	167946
551.856	164763
551.920	162719
551.983	162233
552.047	160392
552.110	161480
552.174	162820
552.237	166575
552.301	157070
552.364	151150
552.428	147270
552.491	149543
552.554	151809
552.618	151238
552.681	158149
552.745	154702
552.808	171750
552.871	194509
552.934	170133
552.998	156975
553.061	151707
553.124	146224
553.187	144219
553.251	151373
553.314	148860
553.377	150056
553.440	160275
553.503	169664
553.567	175637
553.630	163518
553.693	162142
553.756	161269
553.819	160297
553.882	154070
553.945	153619
554.008	154677
554.071	155810
554.134	159520
554.197	149224
554.260	147425
554.323	150053
554.386	148848
554.449	155550
554.512	157244
554.575	150834
554.638	148325
554.701	145944
554.764	147688
554.827	141076
554.889	135821
554.952	129537
555.015	125264
555.078	128404
555.141	130379
555.203	127059
555.266	124531
555.329	126186
555.391	121569
555.454	119722
555.517	116304
555.580	109073
555.642	107330
555.705	105067
555.768	104773
555.830	102197
555.893	96332
555.955	94308
556.018	92456
556.080	91944
556.143	95219
556.206	93603
556.268	91672
556.330	88485
556.393	87017
556.455	85703
556.518	83249
556.580	80771
556.643	77500
556.705	75383
556.767	74005
556.830	72775
556.892	72139
556.955	70876
557.017	68307
557.079	68217
557.142	65843
557.204	65443
557.266	66592
557.328	62541
557.391	56736
557.453	56666
557.515	56410
557.577	57639
557.639	59231
557.701	57086
557.764	55921
557.826	58329
557.888	60359
557.950	61924
558.012	65682
558.074	77828
558.136	153741
558.198	370115
558.260	150011
558.322	63917
558.384	63711
558.446	66214
558.508	71824
558.570	80730
558.632	90800
558.694	109500
558.756	162218
558.818	451484
558.880	983638
558.942	404293
559.003	390276
559.065	206506
559.127	83617
559.189	77444
559.251	82372
559.312	107541
559.374	242740
559.436	734113
559.498	390224
559.559	95267
559.621	77790
559.683	81964
559.744	123743
559.806	380113
559.868	580160
559.929	137733
559.991	81901
560.052	120822
560.114	346377
560.176	230412
560.237	194983
560.299	329011
560.360	81699
560.422	35678
560.483	30817
560.545	28062
560.606	25815
560.667	26006
560.729	24837
560.790	22737
560.852	23152
560.913	23183
560.974	21304
561.036	21250
561.097	22675
561.158	21627
561.220	21353
561.281	19168
561.342	20105
561.403	20996
561.465	20841
561.526	22255
561.587	23394
561.648	17834
561.709	18452
561.771	18545
561.832	17831
561.893	17425
561.954	17772
562.015	17465
562.076	16932
562.137	16472
562.198	16119
562.259	17018
562.320	16766
562.381	17292
562.442	16843
562.503	17305
562.564	16358
562.625	16127
562.686	15893
562.747	15089
562.808	15990
562.869	15476
562.930	15819
562.991	15503
563.051	14968
563.112	15237
563.173	13844
563.234	14263
563.294	14358
563.355	13508
563.416	14924
563.477	14278
563.537	14327
563.598	13900
563.659	14265
563.720	13277
563.780	14222
563.841	14181
563.901	13919
563.962	13510
564.023	13705
564.083	13745
564.144	13934
564.204	12459
564.265	12575
564.325	12887
564.386	14275
564.446	13488
564.507	12776
564.567	13045
564.628	12494
564.688	12374
564.749	13556
564.809	13614
564.869	13130
564.930	12564
564.990	13036
565.050	12398
565.111	12503
565.171	12574
565.231	12549
565.292	12976
565.352	12145
565.412	12276
565.472	12315
565.532	12488
565.593	12637
565.653	11965
565.713	12311
565.773	12675
565.833	13046
565.893	14822
565.953	13033
566.013	11276
566.074	11456
566.134	12640
566.194	12839
566.254	12444
566.314	12137
566.374	10542
566.434	12720
566.494	11018
566.554	11860
566.614	11765
566.673	12362
566.733	11861
566.793	13242
566.853	12805
566.913	11918
566.973	12862
567.033	13612
567.092	12008
567.152	11778
567.212	12475
567.272	12773
567.331	12484
567.391	12969
567.451	13733
567.511	13982
567.570	13320
567.630	12520
567.690	12731
567.749	11157
567.809	12377
567.868	12535
567.928	12463
567.988	12145
568.047	12473
568.107	12380
568.166	11889
568.226	12916
568.285	13302
568.345	12936
568.404	13982
568.464	13985
568.523	12211
568.582	12408
568.642	12832
568.701	12235
568.761	13298
568.820	13225
568.879	12867
568.939	14010
568.998	12837
569.057	12182
569.116	11927
569.176	12867
569.235	11198
569.294	12689
569.353	11500
569.413	11268
569.472	10570
569.531	11296
569.590	11244
569.649	10972
569.708	11294
569.767	12224
569.827	10977
569.886	11643
569.945	10543
570.004	11509
570.063	11494
570.122	11674
570.181	12774
570.240	12271
570.299	12864
570.358	12196
570.417	13089
570.475	12287
570.534	12776
570.593	12035
570.652	12741
570.711	13641
570.770	12045
570.829	12429
570.887	12346
570.946	12655
571.005	13232
571.064	13735
571.122	14735
571.181	13140
571.240	12601
571.299	12741
571.357	10893
571.416	12238
571.475	11357
571.533	12120
571.592	12124
571.650	11779
571.709	12346
571.768	14384
571.826	13836
571.885	13691
571.943	13138
572.002	11286
572.060	12034
572.119	12009
572.177	12275
572.236	12445
572.294	11937
572.352	13566
572.411	12086
572.469	12287
572.528	11496
572.586	11195
572.644	11099
572.703	11478
572.761	11296
572.819	10314
572.877	10384
572.936	9713
572.994	10946
573.052	10389
573.110	9745
573.169	12074
573.227	10732
573.285	11099
573.343	11407
573.401	10662
573.459	10223
573.517	11314
573.576	11494
573.634	11374
573.692	11053
573.750	11867
573.808	10786
573.866	10884
573.924	10178
573.982	10965
574.040	9445
574.098	10102
574.155	9706
574.213	10832
574.271	10958
574.329	11638
574.387	9844
574.445	9467
574.503	8975
574.560	10521
574.618	9843
574.676	9737
574.734	8984
574.792	9124
574.849	9144
574.907	7862
574.965	7937
575.022	7480
575.080	7748
575.138	8360
575.195	8515
575.253	8040
575.311	7823
575.368	8565
575.426	7871
575.483	9502
575.541	9076
575.598	6781
575.656	7910
575.713	8120
575.771	8229
575.828	7946
575.886	7848
575.943	8169
576.001	7843
576.058	6740
576.115	7893
576.173	8603
576.230	8289
576.287	8477
576.345	8976
576.402	8144
576.459	9293
576.517	7529
576.574	8223
576.631	8081
576.688	7821
576.746	6198
576.803	6875
576.860	7541
576.917	7678
576.974	8201
577.031	7970
577.089	7955
577.146	8294
577.203	6383
577.260	7205
577.317	7087
577.374	7852
577.431	6871
577.488	6741
577.545	6843
577.602	7727
577.659	7358
577.716	8280
577.773	7380
577.830	7839
577.886	8157
577.943	6620
578.000	6770
578.057	7118
578.114	7927
578.171	8688
578.227	9503
578.284	9251
578.341	8432
578.398	8231
578.454	7842
578.511	7170
578.568	8062
578.625	7715
578.681	8273
578.738	7694
578.794	7152
578.851	7572
578.908	7176
578.964	7435
579.021	7110
579.077	6803
579.134	7140
579.190	6706
579.247	7830
579.303	7029
579.360	6146
579.416	6834
579.473	8478
579.529	7094
579.586	7707
579.642	6754
579.698	8148
579.755	8264
579.811	7088
579.867	8015
579.924	7628
579.980	8338
580.036	9154
580.093	9591
580.149	13285
580.205	13439
580.261	11225
580.317	9025
580.374	8672
580.430	8478
580.486	9050
580.542	8351
580.598	8345
580.619	8134
580.654	7772
580.692	7800
580.710	7820
580.765	7522
580.767	7516
580.823	8626
580.838	8615
580.879	8600
580.911	8976
580.935	9267
580.984	8812
580.991	8752
581.047	9245
581.057	9297
581.103	9623
581.130	9319
581.159	8973
581.203	9743
581.215	9942
581.270	9381
581.276	9299
581.326	8617
581.349	8670
581.382	8724
581.422	9228
581.438	9446
581.494	7520
581.494	7520
581.550	7734
581.567	7991
581.606	8525
581.640	8178
581.661	7968
581.713	8582
581.717	8633
581.773	8465
581.786	8538
581.829	8760
581.859	8589
581.885	8499
581.932	8880
581.940	8928
581.996	9688
582.004	9627
582.052	9360
582.077	9036
582.107	8627
582.150	8581
582.163	8583
582.219	8187
582.223	8299
582.274	9530
582.296	9143
582.330	8611
582.368	9147
582.386	9454
582.441	9120
582.441	9117
582.497	9354
582.514	9088
582.552	8790
582.587	9022
582.608	9077
582.659	9248
582.663	9263
582.719	10750
582.732	10582
582.774	10143
582.805	10163
582.830	10164
582.877	10199
582.885	10197
582.941	10265
582.950	10392
582.996	11108
583.023	11675
583.052	12434
583.095	12828
583.107	12876
583.162	13608
583.168	13614
583.218	13259
583.240	12488
583.273	11412
583.313	11019
583.328	10967
583.384	10652
583.385	10656
583.439	10651
583.458	10595
583.494	10318
583.531	10422
583.549	10663
583.603	10175
583.605	10149
583.660	10440
583.676	10247
583.715	9919
583.748	10001
583.770	10060
583.820	10981
583.825	11051
583.881	10325
583.893	10291
583.936	10469
583.965	10363
583.991	10088
584.038	11020
584.046	11216
584.101	10762
584.110	10705
584.156	10498
584.183	10807
584.211	11086
584.255	11122
584.266	11184
584.321	11552
584.328	11575
584.376	11713
584.400	11957
584.431	12217
584.472	11945
584.486	11841
584.541	12345
584.545	12380
584.596	13335
584.617	13092
584.651	12753
584.689	13393
584.706	13515
584.761	13868
584.762	13861
584.816	14156
584.834	14452
584.871	15053
584.906	15372
584.926	15590
584.978	16472
584.980	16529
585.035	17897
585.051	18509
585.090	20426
585.123	21793
585.145	22653
585.195	24997
585.200	25336
585.254	30041
585.267	31253
585.309	35730
585.340	39644
585.364	43241
585.412	48875
585.419	49938
585.473	60157
585.484	62983
585.528	83551
585.556	101778
585.583	146295
585.628	244616
585.637	283056
585.692	587031
585.700	636613
585.747	773714
585.772	689317
585.801	447600
585.845	160940
585.856	130832
585.910	64283
585.917	57244
585.965	43278
585.989	37604
586.019	33776
586.061	29435
586.074	28647
586.128	26551
586.133	26353
586.183	24936
586.205	24167
586.237	23724
586.277	23406
586.292	23301
586.346	22629
586.349	22579
586.401	22521
586.421	22600
586.455	22544
586.493	22283
586.509	22768
586.564	23831
586.565	23858
586.618	27132
586.637	28168
586.672	31002
586.709	34076
586.727	35483
586.781	38802
586.781	38840
586.835	30351
586.853	28086
586.889	25198
586.925	22705
586.944	22514
586.996	22539
586.998	22560
587.052	21955
587.068	21954
587.106	22673
587.140	22607
587.161	22588
587.212	23184
587.215	23266
587.269	23571
587.284	23715
587.323	23678
587.356	23566
587.377	23739
587.427	24606
587.431	24749
587.485	26018
587.499	26047
587.539	25576
587.571	25913
587.593	26792
587.643	28135
587.648	28235
587.702	28634
587.715	28774
587.755	29175
587.786	29201
587.810	29369
587.858	29681
587.864	29765
587.917	29764
587.930	29838
587.971	30714
588.001	30871
588.025	30770
588.073	31109
588.079	31241
588.133	31386
588.145	31396
588.187	31902
588.217	32272
588.241	33094
588.288	34635
588.295	34899
588.348	36781
588.360	37028
588.402	38037
588.431	38806
588.456	39824
588.503	41727
588.510	42206
588.564	45919
588.575	46638
588.617	49917
588.646	51883
588.671	54480
588.718	60038
588.725	62076
588.778	79066
588.789	83111
588.832	129735
588.861	165480
588.886	235471
588.932	385084
588.939	395959
588.993	460124
589.004	457054
589.047	266351
589.075	150714
589.100	116455
589.147	68616
589.154	67243
589.207	58270
589.218	56557
589.261	56728
589.290	56739
589.314	58853
589.361	63938
589.368	66822
589.421	91658
589.433	97730
589.475	171757
589.504	228913
589.528	292147
589.576	419994
589.582	406486
589.635	220856
589.647	182574
589.689	104759
589.718	58139
589.742	53713
589.790	45388
589.795	45097
589.849	42336
589.861	41655
589.902	41099
589.932	40521
589.955	39724
590.004	37733
590.009	37760
590.062	37515
590.075	37232
590.115	36482
590.146	35940
590.168	36001
590.218	35806
590.222	35960
590.275	37009
590.289	37189
590.328	38427
590.360	39220
590.381	39302
590.431	39061
590.435	39165
590.488	39407
590.503	39398
590.541	40063
590.574	40253
590.594	40615
590.645	41518
590.647	41661
590.700	42381
590.716	42571
590.753	43884
590.787	44837
590.806	45346
590.859	46379
590.859	46508
590.912	46863
590.930	46931
590.965	47821
591.001	48369
591.018	48045
591.071	46683
591.072	46553
591.124	46318
591.143	46096
591.177	46903
591.214	47596
591.230	47881
591.283	48497
591.285	48390
591.336	48086
591.356	47784
591.389	48001
591.427	47854
591.442	47905
591.495	47642
591.498	47500
591.547	48162
591.569	48353
591.600	49385
591.640	50173
591.653	50503
591.706	51459
591.711	51419
591.759	52859
591.782	53397
591.811	54847
591.853	56512
591.864	56516
591.917	55716
591.924	55446
591.969	55258
591.995	54911
592.022	55283
592.066	55459
592.075	56085
592.127	59032
592.137	59421
592.180	60305
592.208	60541
592.233	61122
592.279	61795
592.285	62150
592.338	63652
592.350	63804
592.390	63326
592.421	62665
592.443	63945
592.491	66190
592.495	66447
592.548	67332
592.562	67381
592.600	66761
592.633	65875
592.653	66234
592.704	66320
592.705	66737
592.775	68560
592.846	70630
592.916	72404
592.987	71903
593.058	73406
593.128	73801
593.199	73864
593.270	75758
593.341	76805
593.411	78781
593.482	80722
593.553	84822
593.623	84995
593.694	85696
593.764	87229
593.835	86995
593.906	87064
593.976	88790
594.047	90023
594.117	97571
594.188	97287
594.258	97637
594.329	98486
594.399	98767
594.470	103001
594.540	106821
594.611	108973
594.681	107033
594.751	106584
594.822	112620
594.892	115919
594.963	120515
595.033	121907
595.103	124845
595.174	126913
595.244	132838
595.314	138020
595.384	137162
595.455	141987
595.525	147181
595.595	152157
595.665	150859
595.736	147500
595.806	149540
595.876	152114
595.946	153774
596.016	161795
596.087	165963
596.157	164361
596.227	167036
596.297	176758
596.367	189517
596.437	197387
596.507	196619
596.577	199912
596.647	203180
596.717	212941
596.787	215467
596.857	215828
596.927	217735
596.997	218958
597.067	221103
597.137	222534
597.207	225632
597.277	225614
597.347	216819
597.417	211048
597.487	212386
597.557	218400
597.626	221575
597.696	224002
597.766	224273
597.836	210892
597.906	200284
597.975	196996
598.045	201497
598.115	211856
598.185	225677
598.254	253247
598.324	272317
598.394	276065
598.464	269208
598.533	264486
598.603	247093
598.672	238236
598.742	246560
598.812	245418
598.881	255743
598.951	251569
599.020	256900
599.090	267304
599.159	270215
599.229	258207
599.299	253731
599.368	261382
599.437	256216
599.507	238254
599.576	230945
599.646	224445
599.715	223807
599.785	221161
599.854	215653
599.924	214703
599.993	213095
600.062	216798
600.132	225220
600.201	238937
600.270	275656
600.340	290034
600.409	283315
600.478	282494
600.547	288354
600.617	259172
600.686	210440
600.755	191788
600.824	183671
600.894	182668
600.963	185357
601.032	180638
601.101	173543
601.170	167996
601.239	163561
601.308	163295
601.378	165242
601.447	167457
601.516	167672
601.585	167972
601.654	174635
601.723	173727
601.792	181032
601.861	184817
601.930	191724
601.999	195341
602.068	193768
602.137	195524
602.206	200508
602.275	202919
602.343	204533
602.412	205521
602.481	209929
602.550	211278
602.619	217041
602.688	217394
602.756	220891
602.825	220847
602.894	229226
602.963	232175
603.032	235711
603.100	235255
603.169	235372
603.238	239492
603.307	237952
603.375	240719
603.444	246717
603.513	245140
603.581	249497
603.650	254599
603.719	241997
603.787	247412
603.856	254177
603.924	260108
603.993	269312
604.061	279968
604.130	291668
604.198	298030
604.267	302723
604.335	304735
604.404	309660
604.472	313801
604.541	318534
604.609	323134
604.678	323833
604.746	326110
604.815	339247
604.883	338374
604.951	339359
605.020	346217
605.088	345532
605.156	352319
605.225	355873
605.293	354448
605.361	356892
605.429	357420
605.498	369254
605.566	375440
605.634	391430
605.702	402727
605.771	415735
605.839	417058
605.907	406040
605.975	394973
606.043	387361
606.111	388525
606.180	390082
606.248	380557
606.316	376581
606.384	379996
606.452	375657
606.520	377591
606.588	391444
606.656	393195
606.724	381784
606.792	359699
606.860	325869
606.928	298936
606.996	287766
607.064	284427
607.132	292910
607.200	310308
607.267	317781
607.335	328041
607.403	331717
607.471	318765
607.539	312285
607.607	311188
607.674	274357
607.742	272847
607.810	272952
607.878	273819
607.946	282054
608.013	295511
608.081	300270
608.149	301655
608.216	313317
608.284	322404
608.352	321634
608.419	317033
608.487	311249
608.555	305831
608.622	316564
608.690	337577
608.757	369398
608.825	373806
608.893	364333
608.960	343221
609.028	329416
609.095	330102
609.163	327160
609.230	290929
609.298	269364
609.365	284805
609.432	305775
609.500	335360
609.567	383281
609.635	436432
609.702	453894
609.769	427795
609.837	332079
609.904	295555
609.971	306615
610.039	335646
610.106	429709
610.173	762747
610.241	1503751
610.308	872201
610.375	389644
610.442	326548
610.509	306758
610.577	306908
610.644	310045
610.711	321112
610.778	327114
610.845	343104
610.912	364486
610.980	375805
611.047	377650
611.114	369424
611.181	357800
611.248	356951
611.315	374785
611.382	387090
611.449	399870
611.516	402428
611.583	398894
611.650	402199
611.717	406205
611.784	417657
611.851	431359
611.918	457592
611.984	521239
612.051	687787
612.118	1179605
612.185	2156682
612.252	1508120
612.319	656004
612.386	539228
612.452	486354
612.519	459088
612.586	448667
612.653	457835
612.719	473552
612.786	449851
612.853	421119
612.919	412691
612.986	418230
613.053	393666
613.120	368830
613.186	358963
613.253	361258
613.319	360914
613.386	364932
613.453	370346
613.519	373157
613.586	362907
613.652	370947
613.719	364539
613.785	371032
613.852	376587
613.918	370129
613.985	377670
614.051	392806
614.118	391773
614.184	376873
614.250	371914
614.317	380233
614.383	376155
614.449	382042
614.516	379307
614.582	382148
614.648	374069
614.715	370253
614.781	360678
614.847	362524
614.914	358354
614.980	350428
615.046	351831
615.112	365274
615.179	367232
615.245	368722
615.311	366104
615.377	371377
615.443	375824
615.509	380490
615.575	393156
615.642	388304
615.708	399792
615.774	416775
615.840	439658
615.906	464873
615.972	550232
616.038	774276
616.104	1396209
616.170	2355854
616.236	1984823
616.302	915796
616.368	725711
616.434	534177
616.500	485405
616.565	544993
616.631	681026
616.697	557526
616.763	570826
616.829	851438
616.895	1437032
616.961	1320863
617.026	619977
617.092	435293
617.158	401120
617.224	385804
617.289	358424
617.355	340014
617.421	334055
617.487	334743
617.552	318884
617.618	314356
617.684	313434
617.749	317908
617.815	303372
617.880	299954
617.946	298409
618.012	304701
618.077	308487
618.143	294108
618.208	297487
618.274	320699
618.339	317382
618.405	263884
618.470	267305
618.536	261764
618.601	260489
618.667	240136
618.732	228255
618.798	228041
618.863	227457
618.928	224898
618.994	230004
619.059	225134
619.124	229271
619.190	226963
619.255	223192
619.320	222339
619.386	226717
619.451	220602
619.516	216423
619.581	217334
619.647	225566
619.712	225533
619.777	214394
619.842	216044
619.907	221484
619.972	224317
620.038	222841
620.103	216918
620.168	217733
620.233	220659
620.298	223825
620.363	225934
620.428	231501
620.493	238140
620.558	240367
620.623	243034
620.688	241424
620.753	239351
620.818	245508
620.883	243193
620.948	244220
621.013	238314
621.078	235036
621.143	239325
621.207	241016
621.272	236243
621.337	227477
621.402	227556
621.467	222803
621.532	223053
621.596	224322
621.661	218591
621.726	215823
621.791	217884
621.855	217314
621.920	215442
621.985	220461
622.049	225564
622.114	227078
622.179	229383
622.243	234676
622.308	241438
622.373	250835
622.437	242347
622.502	230265
622.566	228208
622.631	228998
622.695	233070
622.760	228878
622.824	228293
622.889	230412
622.953	232563
623.018	248766
623.082	249191
623.147	244802
623.211	236999
623.276	240817
623.340	230866
623.404	225995
623.469	222773
623.533	225924
623.597	219071
623.662	220658
623.726	201487
623.790	190788
623.854	185066
623.919	189697
623.983	192542
624.047	196717
624.111	196972
624.176	201222
624.240	202656
624.304	208374
624.368	200644
624.432	201791
624.496	207382
624.560	219131
624.625	220656
624.689	218388
624.753	228669
624.817	214868
624.881	210303
624.945	190460
625.009	186945
625.073	189941
625.137	196476
625.201	206151
625.265	203017
625.329	194754
625.393	197665
625.456	202141
625.520	206558
625.584	210988
625.648	216236
625.712	225334
625.776	229273
625.839	216327
625.903	174973
625.967	165191
626.031	180994
626.095	214608
626.158	189641
626.222	149890
626.286	139814
626.349	133579
626.413	125692
626.477	125084
626.540	128081
626.604	125340
626.668	124875
626.731	121152
626.795	123845
626.858	123190
626.922	121117
626.986	119765
627.049	120688
627.113	126482
627.176	121826
627.240	118499
627.303	118736
627.366	117718
627.430	119438
627.493	117697
627.557	115217
627.620	117464
627.684	125187
627.747	123640
627.810	112287
627.874	102936
627.937	97531
628.000	104242
628.064	99392
628.127	87847
628.190	87710
628.253	86191
628.317	81724
628.380	77448
628.443	75999
628.506	76621
628.569	73260
628.632	70039
628.696	69719
628.759	69246
628.822	66748
628.885	65019
628.948	63846
629.011	63210
629.074	61155
629.137	59533
629.200	56924
629.263	58839
629.326	55970
629.389	57247
629.452	57251
629.515	55956
629.578	55397
629.641	55987
629.704	56744
629.767	56178
629.830	55029
629.892	53011
629.955	52061
630.018	55984
630.081	53179
630.144	54130
630.207	51384
630.269	54988
630.332	51161
630.395	51994
630.458	49187
630.520	47611
630.583	49861
630.646	50876
630.708	50606
630.771	51433
630.834	54991
630.896	53882
630.959	52463
631.021	50784
631.084	51471
631.146	53755
631.209	53377
631.272	52583
631.334	56244
631.397	55663
631.459	55853
631.522	59557
631.584	63147
631.646	66511
631.709	70174
631.771	69750
631.834	67186
631.896	62062
631.958	58354
632.021	56297
632.083	52378
632.145	52182
632.208	50670
632.270	50348
632.332	49767
632.395	50511
632.457	50618
632.519	49186
632.581	49082
632.643	47678
632.706	49820
632.768	47200
632.830	47699
632.892	50789
632.954	48743
633.016	51102
633.078	49482
633.141	50615
633.203	49404
633.265	50130
633.327	48949
633.389	49489
633.451	51629
633.513	50650
633.575	51988
633.637	52062
633.698	53166
633.760	56713
633.822	57473
633.884	59455
633.946	61032
634.008	63004
634.070	67237
634.132	71610
634.193	78660
634.255	85531
634.317	87742
634.379	86275
634.441	75414
634.502	67888
634.564	61769
634.626	57174
634.687	53557
634.749	51131
634.811	51270
634.873	49219
634.934	50588
634.996	50777
635.057	49465
635.119	50359
635.181	52346
635.242	53481
635.304	49554
635.365	55347
635.427	51211
635.488	51780
635.550	50197
635.611	52496
635.673	52403
635.734	58787
635.796	61890
635.857	68596
635.918	74033
635.980	83120
636.041	89870
636.102	96050
636.164	97815
636.225	91992
636.286	77412
636.348	69965
636.409	61197
636.470	56081
636.531	54334
636.593	50548
636.654	50644
636.715	46805
636.776	45399
636.838	43484
636.899	43867
636.960	41407
637.021	41684
637.082	40884
637.143	40821
637.204	38709
637.265	39809
637.326	41650
637.387	42429
637.448	40545
637.509	41328
637.570	40252
637.631	40705
637.692	38094
637.753	36524
637.814	37713
637.875	36902
637.936	38043
637.997	37294
638.058	36635
638.119	37736
638.179	36858
638.240	36815
638.301	36852
638.362	33767
638.423	33435
638.483	35127
638.544	31975
638.605	33350
638.666	33621
638.726	34379
638.787	33958
638.848	33831
638.908	32941
638.969	32821
639.030	32122
639.090	31321
639.151	32592
639.211	34511
639.272	33787
639.332	34928
639.393	35431
639.453	38252
639.514	39192
639.574	33579
639.635	30926
639.695	31432
639.756	30282
639.816	29960
639.877	29930
639.937	32402
639.997	31738
640.058	29237
640.118	29608
640.178	30521
640.239	30398
640.299	30484
640.359	31857
640.420	33875
640.480	39261
640.540	46978
640.600	46450
640.661	39813
640.721	37126
640.781	37100
640.841	30600
640.901	31015
640.961	32360
641.021	33513
641.082	37437
641.142	31909
641.202	29592
641.262	27441
641.322	30098
641.382	27712
641.442	28684
641.502	28224
641.562	29039
641.622	31171
641.682	34090
641.742	39938
641.802	35315
641.861	30490
641.921	27753
641.981	27935
642.041	26716
642.101	25191
642.161	25383
642.221	26262
642.280	26816
642.340	26418
642.400	27088
642.460	28164
642.519	28419
642.579	27141
642.639	28417
642.698	25377
642.758	31115
642.818	28677
642.877	28343
642.937	27988
642.997	29124
643.056	28952
643.116	26436
643.175	29621
643.235	29829
643.294	29793
643.354	33178
643.414	35621
643.473	42082
643.532	49501
643.592	66317
643.651	102240
643.711	176000
643.770	335021
643.830	782679
643.889	1246446
643.948	376025
644.008	100805
644.067	61322
644.126	46225
644.186	39744
644.245	34616
644.304	30421
644.363	32794
644.423	28548
644.482	30430
644.541	32509
644.600	33286
644.659	43103
644.719	54545
644.778	83137
644.837	144132
644.896	307792
644.955	615909
645.014	180717
645.073	52221
645.132	39531
645.191	35569
645.250	33324
645.309	36177
645.368	40724
645.427	56137
645.486	107179
645.545	171879
645.604	46544
645.663	30871
645.722	30004
645.781	33612
645.840	37175
645.898	44971
645.957	62671
646.016	94735
646.075	167467
646.134	322650
646.192	814093
646.251	955561
646.310	197293
646.369	72680
646.427	60212
646.486	41719
646.545	33467
646.603	29845
646.662	28323
646.721	27692
646.779	27554
646.838	28536
646.896	37915
646.955	52125
647.014	86149
647.072	177337
647.131	451492
647.189	178414
647.248	35749
647.306	27867
647.365	24802
647.423	20494
647.481	23144
647.540	19403
647.598	20663
647.657	20032
647.715	20489
647.773	18043
647.832	19841
647.890	17108
647.948	17304
648.007	17828
648.065	16945
648.123	16862
648.181	18351
648.240	17656
648.298	16429
648.356	16973
648.414	17315
648.472	15576
648.531	16526
648.589	15120
648.647	16494
648.705	15542
648.763	15765
648.821	16902
648.879	17729
648.937	20853
648.995	24380
649.053	31389
649.111	47357
649.169	79060
649.227	145883
649.285	314562
649.343	772949
649.401	322671
649.459	56667
649.516	33914
649.574	27733
649.632	30941
649.690	33751
649.748	39954
649.806	61999
649.863	124248
649.921	341222
649.979	186105
650.037	28719
650.094	17589
650.152	17381
650.210	14991
650.268	14344
650.325	14143
650.383	12930
650.440	11785
650.498	12004
650.556	11946
650.613	11461
650.671	12199
650.728	13103
650.786	14830
650.843	22074
650.901	13745
650.958	11437
651.016	10696
651.073	10930
651.131	9822
651.188	10204
651.246	9951
651.303	9607
651.360	10156
651.418	9832
651.475	9773
651.532	9243
651.590	10865
651.647	9023
651.704	9784
651.762	9955
651.819	8871
651.876	9574
651.933	9310
651.990	8701
652.048	7724
652.105	8317
652.162	9355
652.219	7793
652.276	8847
652.333	9363
652.390	7632
652.448	7764
652.505	9066
652.562	9007
652.619	8213
652.676	9117
652.733	9671
652.790	7479
652.847	6736
652.904	9046
652.961	6838
653.017	7330
653.074	9281
653.131	7690
653.188	7838
653.245	8596
653.302	7769
653.359	7769
653.415	9069
653.472	7755
653.529	8649
653.586	7614
653.642	8406
653.699	9091
653.756	6696
653.813	6929
653.869	8326
653.926	7937
653.983	7277
654.039	8066
654.096	7576
654.152	8647
654.209	6490
654.266	7196
654.322	6702
654.379	7858
654.435	7763
654.492	7077
654.548	7264
654.605	8415
654.661	7580
654.717	7506
654.774	7425
654.830	7397
654.887	7410
654.943	7658
655.000	7375
655.056	7849
655.112	8302
655.168	6937
655.225	8089
655.281	7980
655.337	7750
655.394	7640
655.450	6839
655.506	7024
655.562	8154
655.618	8404
655.675	6140
655.731	6923
655.787	6795
655.843	8290
655.899	6230
655.955	8070
656.011	7497
656.067	6701
656.123	7713
656.179	6871
656.235	8539
656.291	6775
656.347	8203
656.403	6254
656.459	6761
656.515	7156
656.571	6956
656.627	5773
656.683	6890
656.739	7058
656.795	7013
656.850	6939
656.906	7559
656.962	7771
657.018	7604
657.074	10090
657.129	13546
657.185	23171
657.241	52004
657.297	23525
657.352	8762
657.408	6336
657.464	7597
657.519	5832
657.575	5793
657.630	5139
657.686	6405
657.742	4337
657.797	6095
657.853	6008
657.908	6459
657.964	5356
658.019	6559
658.075	6033
658.130	5942
658.186	4934
658.241	5912
658.297	5653
658.352	5244
658.407	6009
658.463	4849
658.518	6199
658.573	5184
658.629	4180
658.684	5343
658.739	6072
658.795	5386
658.850	5586
658.905	5916
658.960	4696
659.016	4391
659.071	5235
659.126	5111
659.181	5615
659.236	6616
659.291	6624
659.346	4911
659.401	5971
659.457	5576
659.512	4339
659.567	6625
659.622	5453
659.677	4951
659.732	4717
659.787	5106
659.842	4527
659.897	5313
659.952	5450
660.007	4965
660.061	5039
660.116	4043
660.171	3652
660.226	4744
660.281	5937
660.336	4694
660.391	5390
660.445	3458
660.500	4963
660.555	5211
660.610	4217
660.664	4599
660.719	4784
660.774	4935
660.828	5045
660.883	4863
660.938	5660
660.992	3582
661.047	5046
661.101	4323
661.156	4650
661.211	4469
661.265	4970
661.320	4574
661.374	4893
661.429	4076
661.483	5116
661.538	3285
661.592	4490
661.647	4614
661.701	4853
661.755	4006
661.810	5229
661.864	3449
661.919	3591
661.973	5027
662.027	4594
662.081	3358
662.136	3921
662.190	5148
662.244	4791
662.299	4866
662.353	4616
662.407	4036
662.461	3855
662.515	3823
662.569	4342
662.624	4691
662.678	4338
662.732	4503
662.786	4876
662.840	4361
662.894	4768
662.948	5031
663.002	4773
663.056	4535
663.110	4823
663.164	4223
663.218	4639
663.272	4438
663.326	4016
663.380	4483
663.434	5053
663.488	4322
663.542	4924
663.595	4648
663.649	4627
663.703	4600
663.757	4310
663.811	4359
663.864	4845
663.918	4578
663.972	4187
664.026	4842
664.079	3831
664.133	4710
664.187	4342
664.240	3818
664.294	5052
664.348	4195
664.401	4436
664.455	3782
664.508	4261
664.562	4431
664.615	4797
664.669	3771
664.722	3767
664.776	3654
664.829	4595
664.883	4161
664.936	4218
664.990	4325
665.043	5137
665.097	4069
665.150	5934
665.203	4532
665.257	3779
665.310	5008
665.363	5234
665.417	4832
665.470	4168
665.523	5490
665.576	5630
665.630	4711
665.683	5256
665.736	4894
665.789	5131
665.842	4327
665.895	5098
665.949	4638
666.002	4414
666.055	4579
666.108	5412
666.161	4919
666.214	5460
666.267	5110
666.320	4621
666.373	5588
666.426	4810
666.479	5345
666.532	5748
666.585	5916
666.638	5912
666.691	5503
666.744	6264
666.796	4976
666.849	6140
666.902	5785
666.955	4784
667.008	4402
667.060	4740
667.113	5278
667.166	5549
667.219	4688
667.271	5590
667.324	5090
667.377	5607
667.430	5115
667.482	5574
667.535	5773
667.587	5614
667.640	5115
667.693	4476
667.745	4705
667.798	5525
667.850	4776
667.903	5620
667.955	4981
668.008	5175
668.060	5342
668.113	4980
668.165	4557
668.218	5757
668.270	5405
668.322	5407
668.375	4405
668.427	5872
668.479	5122
668.532	5665
668.584	4634
668.636	5214
668.689	4089
668.741	4711
668.793	4786
668.845	4759
668.898	5302
668.950	4998
669.002	4761
669.054	5243
669.106	3889
669.158	4841
669.211	4161
669.263	4461
669.315	5263
669.367	4619
669.419	3744
669.471	5662
669.523	5305
669.575	6597
669.627	4332
669.679	4780
669.731	4805
669.783	5202
669.835	5069
669.886	4661
669.938	4121
669.990	4700
670.042	3740
670.094	4646
670.146	5019
670.197	3945
670.249	5238
670.301	5486
670.353	6797
670.404	8716
670.456	10125
670.508	15370
670.560	24968
670.611	39795
670.663	66983
670.715	167665
670.766	224295
670.818	53995
670.869	13037
670.921	9400
670.972	8498
671.024	6764
671.075	6770
671.127	6315
671.178	6082
671.230	7703
671.281	6286
671.333	8387
671.384	9611
671.436	13315
671.487	19011
671.538	28882
671.590	46030
671.641	77829
671.692	142067
671.744	252634
671.795	159550
671.846	56655
671.897	25809
671.949	16894
672.000	12899
672.051	9687
672.102	8322
672.153	6421
672.204	6029
672.256	6687
672.307	6029
672.358	5437
672.409	4700
672.460	4883
672.511	4317
672.562	4705
672.613	3923
672.664	4029
672.715	4170
672.766	3306
672.817	3748
672.868	3520
672.919	2858
672.970	2996
673.021	3738
673.071	3514
673.122	3715
673.173	3204
673.224	3193
673.275	3686
673.326	2837
673.376	3219
673.427	2711
673.478	4414
673.528	3794
673.579	3556
673.630	2649
673.680	3037
673.731	3231
673.782	3086
673.832	3396
673.883	3339
673.934	3328
673.984	3634
674.035	2215
674.085	4270
674.136	3437
674.186	3000
674.237	4178
674.287	4160
674.338	3508
674.388	3533
674.438	4666
674.489	4408
674.539	3718
674.589	4545
674.640	3170
674.690	3901
674.740	2868
674.791	3959
674.841	3706
674.891	3195
674.942	2222
674.992	3176
675.042	2705
675.092	3360
675.142	2105
675.193	3158
675.243	3036
675.293	3143
675.343	2269
675.393	3851
675.443	3069
675.493	3527
675.543	3043
675.593	2714
675.643	2726
675.693	3801
675.743	2367
675.793	2663
675.843	2114
675.893	2321
675.943	2700
675.993	2761
676.043	2222
676.093	2558
676.142	1051
676.192	1936
676.242	1492
676.292	2845
676.341	2237
676.391	2730
676.441	2170
676.491	2137
676.540	1443
676.590	2112
676.640	2361
676.689	2257
676.739	1644
676.789	1948
676.838	1192
676.888	1989
676.937	2372
676.987	1772
677.037	2064
677.086	1465
677.136	2260
677.185	1758
677.235	1199
677.284	2222
677.333	2409
677.383	1554
677.432	1268
677.482	2222
677.531	1476
677.580	2054
677.630	2180
677.679	1852
677.728	1505
677.778	2274
677.827	1659
677.876	2089
677.925	2020
677.975	2437
678.024	2395
678.073	2826
678.122	2652
678.171	2973
678.220	2769
678.269	2662
678.319	4173
678.368	4080
678.417	2656
678.466	2409
678.515	2131
678.564	2139
678.613	1533
678.662	894
678.711	1699
678.760	1556
678.809	2034
678.857	1476
678.906	2166
678.955	1814
679.004	2111
679.053	1360
679.102	1569
679.151	2218
679.199	1780
679.248	2612
679.297	2242
679.346	1904
679.394	1225
679.443	1291
679.492	1629
679.540	1992
679.589	1662
679.638	1683
679.686	2097
679.735	2917
679.784	2823
679.832	3697
679.881	1565
679.929	1881
679.978	2183
680.026	1250
680.075	1120
680.123	1072
680.172	2242
680.220	2181
680.268	1355
680.317	1045
680.365	563
680.414	1320
680.462	1570
680.510	1391
680.559	1074
680.607	1257
680.655	882
680.703	1966
680.752	1294
680.800	1751
680.848	1257
680.896	562
680.945	1309
680.993	1214
681.041	1073
681.089	1605
681.137	1586
681.185	1693
681.233	1329
681.258	1521
681.281	1685
681.329	444
681.377	1354
681.380	1387
681.425	1628
681.473	1383
681.502	1662
681.521	1816
681.569	2146
681.617	1096
681.624	1198
681.665	1704
681.713	1621
681.745	1580
681.761	1526
681.809	1308
681.857	2820
681.867	2484
681.904	1264
681.952	2075
681.989	2652
682.000	2797
682.048	1807
682.096	2010
682.111	2195
682.143	2526
682.191	2321
682.233	2638
682.239	2665
682.286	2177
682.334	2303
682.354	2283
682.382	2236
682.430	2247
682.476	1833
682.477	1805
682.525	2666
682.572	1424
682.598	1764
682.620	2030
682.667	2066
682.715	2499
682.720	2528
682.763	2637
682.810	2632
682.841	2483
682.857	2381
682.905	2445
682.952	2367
682.963	2432
683.000	2554
683.047	2155
683.085	3479
683.095	3830
683.142	2789
683.190	2120
683.206	2350
683.237	2725
683.284	2879
683.328	2843
683.332	2824
683.379	2581
683.426	3032
683.449	3087
683.473	3099
683.521	2353
683.568	2723
683.571	2771
683.615	3323
683.662	3335
683.693	3373
683.709	3318
683.757	3147
683.804	2920
683.814	2920
683.851	2883
683.898	3610
683.936	3259
683.945	3163
683.992	2532
684.039	3641
684.057	3518
684.086	3304
684.133	3414
684.179	2430
684.180	2387
684.227	3380
684.274	3781
684.300	3822
684.321	3837
684.368	2767
684.415	3777
684.422	3614
684.462	2574
684.509	3199
684.543	3734
684.556	3904
684.603	3719
684.649	3453
684.665	3588
684.696	3841
684.743	4026
684.786	4249
684.790	4255
684.837	3767
684.883	3852
684.908	3829
684.930	3799
684.977	3841
685.023	3994
685.029	4016
685.070	4039
685.117	4524
685.150	4228
685.164	4134
685.210	3409
685.257	4347
685.272	4375
685.303	4377
685.350	4522
685.393	4158
685.396	4115
685.443	4141
685.490	4606
685.514	4525
685.536	4482
685.583	4310
685.629	4459
685.636	4398
685.675	3980
685.722	4763
685.757	4619
685.768	4576
685.815	4505
685.861	4904
685.878	4757
685.908	4537
685.954	4622
686.000	4789
686.000	4786
686.047	5279
686.093	5474
686.121	5352
686.139	5231
686.185	4856
686.232	4558
686.242	4657
686.278	4972
686.324	4772
686.363	5054
686.370	5121
686.416	4820
686.463	5477
686.484	5498
686.509	5453
686.555	5128
686.601	4880
686.606	4916
686.647	5193
686.693	4896
686.727	5242
686.739	5388
686.785	4923
686.831	4652
686.848	4788
686.877	5095
686.923	5084
686.969	5439
686.969	5440
687.015	5241
687.061	5646
687.090	6316
687.107	6620
687.153	6371
687.199	5871
687.211	5848
687.245	5758
687.291	5632
687.332	5843
687.336	5871
687.382	6080
687.428	5691
687.453	5812
687.474	5905
687.520	6042
687.565	6182
687.574	6034
687.611	5556
687.657	6087
687.695	6191
687.702	6199
687.748	6443
687.794	6541
687.816	6589
687.839	6632
687.885	6490
687.931	6602
687.937	6573
687.976	6423
688.022	6657
688.058	6502
688.067	6455
688.113	6269
688.158	6133
688.179	6324
688.204	6577
688.249	6222
688.295	6398
688.300	6448
688.340	6931
688.386	7357
688.421	6698
688.431	6521
688.477	6543
688.522	7177
688.542	7256
688.567	7395
688.613	7374
688.658	7154
688.663	7177
688.703	7245
688.749	7360
688.784	7442
688.794	7467
688.839	7198
688.884	7363
688.905	7329
688.930	7372
688.975	7151
689.020	7125
689.026	7134
689.065	7109
689.110	6781
689.146	7145
689.155	7263
689.201	7047
689.246	6997
689.267	7145
689.291	7327
689.336	7013
689.381	7134
689.388	7074
689.426	6707
689.471	7096
689.509	7131
689.516	7186
689.561	7742
689.606	7389
689.630	7446
689.651	7426
689.696	7479
689.741	7541
689.750	7547
689.785	7756
689.830	7725
689.871	7751
689.875	7751
689.920	7762
689.965	8195
689.992	7983
690.010	7842
690.054	7462
690.099	7664
690.112	7703
690.144	7788
690.189	7859
690.233	7368
690.233	7377
690.278	7724
690.323	7378
690.354	7647
690.367	7793
690.412	8050
690.457	7972
690.474	8062
690.501	8134
690.546	8254
690.590	7860
690.595	7890
690.635	8354
690.680	8005
690.716	7795
690.724	7894
690.769	8997
690.813	10357
690.836	10430
690.857	11057
690.902	13601
690.946	15717
690.957	16270
690.991	20527
691.035	26613
691.077	32490
691.080	32394
691.124	26507
691.168	21966
691.198	18888
691.213	17631
691.257	14658
691.301	10754
691.318	9627
691.346	9619
691.390	9199
691.434	8535
691.439	8514
691.478	8895
691.522	8992
691.559	8663
691.567	8633
691.611	9257
691.655	9138
691.680	9253
691.699	9231
691.743	9050
691.787	9005
691.800	8813
691.831	8657
691.875	9096
691.919	9400
691.921	9383
691.964	9065
692.008	8901
692.041	8854
692.052	8955
692.096	9001
692.139	9586
692.162	9582
692.183	9316
692.227	9055
692.271	8397
692.282	8388
692.315	8800
692.359	8566
692.402	8988
692.403	9009
692.447	9139
692.490	9265
692.523	9274
692.534	9280
692.578	9452
692.622	9081
692.643	9094
692.666	9092
692.709	9270
692.753	9005
692.763	8949
692.797	9067
692.840	9221
692.884	9394
692.884	9413
692.928	9186
692.971	9233
693.004	9043
693.015	9118
693.059	9110
693.102	9886
693.124	10014
693.146	10012
693.189	9771
693.233	9627
693.245	9575
693.276	9746
693.320	10162
693.363	10390
693.365	10381
693.407	11032
693.450	11455
693.485	11900
693.493	12191
693.537	13740
693.580	15151
693.605	15973
693.624	17872
693.667	22284
693.710	27147
693.725	28754
693.753	36734
693.797	50028
693.840	62928
693.845	64117
693.883	54575
693.926	43633
693.966	34284
693.970	33600
694.013	26125
694.056	19035
694.086	13800
694.099	13431
694.142	12391
694.185	11177
694.206	10734
694.229	10817
694.272	10629
694.315	10669
694.326	10581
694.358	10423
694.401	10765
694.444	10420
694.446	10403
694.487	10721
694.530	10506
694.566	10712
694.573	10741
694.616	10366
694.659	10390
694.686	10292
694.702	10388
694.745	10618
694.787	10676
694.806	10795
694.830	10821
694.873	10515
694.916	10308
694.926	10261
694.959	10510
695.002	10700
695.044	10800
695.046	10789
695.087	11251
695.130	11497
695.166	11693
695.172	11753
695.215	11933
695.258	12276
695.286	12275
695.301	12152
695.343	11921
695.386	11781
695.406	11607
695.428	12231
695.471	13321
695.514	14701
695.526	15006
695.556	15304
695.599	15900
695.641	15953
695.646	15977
695.684	15717
695.726	15099
695.766	14474
695.769	14473
695.811	14147
695.854	13601
695.886	13314
695.896	13445
695.938	13849
695.981	14023
696.005	14191
696.023	14480
696.065	15114
696.108	15745
696.125	15953
696.150	16241
696.192	16653
696.235	17093
696.245	17148
696.277	17224
696.319	17330
696.361	17341
696.365	17307
696.404	17053
696.446	16672
696.485	16387
696.488	16441
696.530	16445
696.572	16552
696.604	16659
696.614	16657
696.656	16377
696.698	16135
696.724	15863
696.740	16128
696.783	16932
696.825	17564
696.844	17835
696.867	17776
696.909	17544
696.951	17361
696.964	17282
696.992	17452
697.034	17549
697.076	17638
697.083	17615
697.118	18055
697.160	18557
697.202	18956
697.203	18922
697.244	18836
697.286	18723
697.323	18363
697.327	18400
697.369	18395
697.411	18529
697.442	18487
697.453	18498
697.494	18334
697.536	18272
697.562	18122
697.578	18233
697.620	18479
697.661	18699
697.682	18763
697.703	18946
697.744	19218
697.786	19543
697.801	19594
697.828	19691
697.869	19717
697.911	19676
697.921	19662
697.952	19815
697.994	19849
698.035	19862
698.040	19815
698.077	19945
698.118	20062
698.160	20155
698.160	20103
698.201	20407
698.243	20645
698.279	20842
698.284	20943
698.325	21373
698.367	21783
698.399	22047
698.408	22062
698.449	21909
698.491	21719
698.518	21530
698.532	21689
698.573	22027
698.614	22403
698.638	22524
698.656	22633
698.697	22792
698.738	22918
698.757	22939
698.779	22844
698.820	22524
698.862	22209
698.877	22042
698.903	22305
698.944	22616
698.985	22934
698.996	22966
699.026	22917
699.067	22764
699.116	22527
699.235	22016
699.354	21633
699.474	20552
699.593	20200
699.713	20328
699.832	20377
699.951	22679
700.070	22483
700.190	19999
700.309	19935
700.428	19986
700.547	18657
700.667	18865
700.786	18787
700.905	18591
701.024	19831
701.143	18074
701.262	19389
701.381	19521
701.500	20124
701.619	19430
701.738	20137
701.857	18762
701.976	18610
702.095	18861
702.214	19160
702.333	17989
702.452	19415
702.571	20865
702.690	19513
702.809	19144
702.928	18712
703.047	17277
703.165	17868
703.284	17576
703.403	17977
703.522	17148
703.640	16938
703.759	17645
703.878	16606
703.997	16086
704.115	17606
704.234	17191
704.353	17294
704.471	15824
704.590	15604
704.708	15498
704.827	15420
704.946	15449
705.064	16110
705.183	15915
705.301	16030
705.420	16229
705.538	16211
705.656	13332
705.775	14680
705.893	16474
706.012	17516
706.130	14606
706.249	15822
706.367	13780
706.485	14378
706.604	14002
706.722	14135
706.840	14627
706.958	15278
707.077	13304
707.195	14073
707.313	14262
707.431	13382
707.549	12483
707.668	12402
707.786	14185
707.904	13927
708.022	12927
708.140	13690
708.258	13468
708.376	14153
708.494	12213
708.612	13888
708.730	14382
708.848	13252
708.966	13110
709.084	13870
709.202	13400
709.320	12367
709.438	11577
709.556	12654
709.674	12867
709.791	12668
709.909	12092
710.027	11874
710.145	11556
710.263	11596
710.380	12165
710.498	11528
710.616	11991
710.733	10957
710.851	11177
710.969	11224
711.086	10523
711.204	11812
711.322	11027
711.439	11251
711.557	10538
711.674	10930
711.792	10320
711.909	11095
712.027	11375
712.144	10900
712.262	10820
712.379	11373
712.497	11526
712.614	10791
712.732	11848
712.849	9970
712.966	10825
713.084	12026
713.201	10011
713.318	10868
713.436	11151
713.553	10825
713.670	12748
713.787	12481
713.905	10783
714.022	12302
714.139	12842
714.256	15669
714.373	24157
714.490	48189
714.608	145365
714.725	579126
714.842	381621
714.959	35062
715.076	16406
715.193	14441
715.310	13091
715.427	10284
715.544	10216
715.661	11330
715.778	9959
715.895	11311
716.011	10267
716.128	10596
716.245	9808
716.362	9842
716.479	8806
716.596	9110
716.713	8807
716.829	8522
716.946	9357
717.063	8383
717.180	8094
717.296	8861
717.413	8692
717.530	7977
717.646	8364
717.763	8430
717.880	7869
717.996	8076
718.113	8069
718.229	8173
718.346	7441
718.462	7887
718.579	8097
718.695	7913
718.812	7145
718.928	8743
719.045	7234
719.161	7668
719.277	8241
719.394	8742
719.510	9167
719.626	9826
719.743	12556
719.859	21854
719.975	50495
720.092	221055
720.208	349293
720.324	32462
720.440	11390
720.557	9900
720.673	10087
720.789	9382
720.905	10937
721.021	8478
721.137	7766
721.253	7312
721.369	7292
721.486	7926
721.602	7743
721.718	7013
721.834	7156
721.950	7296
722.066	6261
722.181	6795
722.297	6394
722.413	7069
722.529	7201
722.645	6485
722.761	6479
722.877	6647
722.993	7895
723.108	8759
723.224	7419
723.340	6674
723.456	6333
723.571	6449
723.687	5784
723.803	6369
723.918	5380
724.034	5672
724.150	6295
724.265	6063
724.381	6862
724.497	6297
724.612	6006
724.728	5669
724.843	5772
724.959	6074
725.074	7084
725.190	6745
725.305	5944
725.421	6378
725.536	6906
725.651	6762
725.767	5992
725.882	6563
725.997	6190
726.113	5654
726.228	5980
726.343	5324
726.459	5227
726.574	5796
726.689	6232
726.804	5855
726.920	5724
727.035	6104
727.150	5281
727.265	5515
727.380	5655
727.495	5362
727.610	5199
727.725	5441
727.841	5392
727.956	7452
728.071	5571
728.186	5130
728.301	4942
728.416	5831
728.531	5648
728.645	4982
728.760	5609
728.875	5312
728.990	5069
729.105	5062
729.220	5162
729.335	4986
729.449	5994
729.564	4828
729.679	5242
729.794	6047
729.908	5521
730.023	5941
730.138	4830
730.253	6286
730.367	4914
730.482	5049
730.596	6262
730.711	6534
730.826	8372
730.940	7654
731.055	6620
731.169	6516
731.284	7062
731.398	6914
731.513	7857
731.627	8555
731.742	10674
731.856	12033
731.970	12810
732.085	15282
732.199	23188
732.313	41959
732.428	122065
732.542	348291
732.656	141111
732.771	27417
732.885	18165
732.999	16481
733.113	17040
733.227	16688
733.342	15985
733.456	15800
733.570	15358
733.684	13946
733.798	13646
733.912	14020
734.026	13359
734.140	14189
734.254	13190
734.368	14414
734.482	14605
734.596	13112
734.710	12177
734.824	13095
734.938	13209
735.052	12955
735.166	13124
735.280	12050
735.393	11642
735.507	12222
735.621	12283
735.735	12429
735.849	11900
735.962	12136
736.076	11886
736.190	11317
736.303	11892
736.417	11684
736.531	10629
736.644	11943
736.758	10600
736.872	10335
736.985	10552
737.099	10880
737.212	9901
737.326	10786
737.439	12123
737.553	10348
737.666	11225
737.780	9781
737.893	11589
738.007	10636
738.120	10139
738.233	10553
738.347	10114
738.460	9409
738.573	11361
738.687	9489
738.800	10778
738.913	10102
739.026	10166
739.140	9293
739.253	9230
739.366	9054
739.479	10093
739.592	8542
739.705	8396
739.818	10150
739.932	8767
740.045	9793
740.158	8993
740.271	9808
740.384	8817
740.497	8547
740.610	9690
740.723	9084
740.836	8902
740.949	9570
741.062	9404
741.174	8833
741.287	8747
741.400	8709
741.513	8187
741.626	9135
741.739	8274
741.851	9180
741.964	8496
742.077	8016
742.189	7058
742.302	8657
742.415	7797
742.527	7923
742.640	7991
742.753	7315
742.865	8612
742.978	7584
743.090	8016
743.203	7935
743.316	7713
743.428	8042
743.541	7186
743.653	7077
743.766	8089
743.878	7411
743.990	7270
744.103	7898
744.215	7597
744.327	6457
744.440	9087
744.552	6400
744.664	6672
744.777	8291
744.889	7043
745.001	7297
745.113	7100
745.226	6398
745.338	7313
745.450	7237
745.562	7733
745.674	6839
745.786	7763
745.898	7400
746.010	7003
746.122	7302
746.234	7393
746.347	7329
746.459	7267
746.570	6185
746.682	7630
746.794	8231
746.906	5955
747.018	6841
747.130	6771
747.242	4852
747.354	6003
747.466	6669
747.577	6293
747.689	7671
747.801	7116
747.913	6701
748.024	5523
748.136	5326
748.248	6156
748.359	6673
748.471	6426
748.583	5329
748.694	5593
748.806	6988
748.918	6249
749.029	5936
749.141	6837
749.252	7102
749.364	5322
749.475	5655
749.587	5730
749.698	5279
749.809	5084
749.921	6396
750.032	5147
750.144	5044
750.255	5277
750.366	6300
750.478	5540
750.589	5590
750.700	5141
750.811	6108
750.923	6314
751.034	5453
751.145	6248
751.256	5782
751.367	4720
751.479	4903
751.590	4175
751.701	4917
751.812	4832
751.923	5568
752.034	6136
752.145	5985
752.256	5503
752.367	5434
752.478	5588
752.589	5868
752.700	4981
752.811	5609
752.922	4858
753.032	5931
753.143	4973
753.254	4880
753.365	6858
753.476	5922
753.586	5798
753.697	5320
753.808	5659
753.919	5131
754.029	4845
754.140	4643
754.251	4619
754.361	5077
754.472	5541
754.582	4453
754.693	4923
754.804	5638
754.914	4933
755.025	4407
755.135	4887
755.246	5021
755.356	4540
755.466	5346
755.577	5164
755.687	4780
755.798	4379
755.908	4337
756.018	4210
756.129	5210
756.239	4811
756.349	5603
756.460	5403
756.570	6348
756.680	4220
756.790	5108
756.900	4954
757.011	5870
757.121	5204
757.231	4749
757.341	5110
757.451	4746
757.561	4693
757.671	4966
757.781	5227
757.891	5287
758.001	4279
758.111	6252
758.221	5331
758.331	6359
758.441	5808
758.551	5821
758.661	5352
758.771	6213
758.880	5991
758.990	5359
759.100	5709
759.210	6017
759.320	6188
759.429	6538
759.539	5916
759.649	7389
759.758	7752
759.868	7266
759.978	7886
760.087	8670
760.197	7687
760.307	8184
760.416	6615
760.526	6849
760.635	7286
760.745	8338
760.854	7874
760.964	8660
761.073	10017
761.182	8485
761.292	7908
761.401	7261
761.511	6446
761.620	5938
761.729	6921
761.839	6469
761.948	6435
762.057	6937
762.166	7646
762.276	6466
762.385	7891
762.494	7740
762.603	7009
762.712	8028
762.822	6511
762.931	7224
763.040	7196
763.149	7469
763.258	8383
763.367	8204
763.476	8111
763.585	8289
763.694	8754
763.803	9546
763.912	10077
764.021	10502
764.130	11082
764.238	11895
764.347	11761
764.456	12892
764.565	13777
764.674	14751
764.783	15540
764.891	16770
765.000	19979
765.109	21205
765.217	24253
765.326	29065
765.435	33910
765.543	41816
765.652	53705
765.761	70352
765.869	96696
765.978	144110
766.086	225208
766.195	362265
766.303	521590
766.412	444776
766.520	471758
766.629	419650
766.737	263375
766.846	170712
766.954	115800
767.062	85462
767.171	64408
767.279	50739
767.387	41788
767.496	36585
767.604	31451
767.712	27392
767.820	24889
767.928	23259
768.037	20708
768.145	19998
768.253	19258
768.361	18779
768.469	18234
768.577	19195
768.685	20676
768.793	21366
768.901	23391
769.009	26930
769.117	32529
769.225	42794
769.333	60936
769.441	95107
769.549	163486
769.657	304615
769.765	466962
769.873	417453
769.981	368662
770.088	204228
770.196	117138
770.304	76786
770.412	55418
770.519	42687
770.627	35143
770.735	28549
770.842	24768
770.950	21607
771.058	19257
771.165	20054
771.273	17346
771.380	16488
771.488	19199
771.595	17159
771.703	16990
771.810	15472
771.918	14756
772.025	16531
772.133	17273
772.240	16147
772.348	18051
772.455	16276
772.562	15181
772.670	14270
772.777	14594
772.884	15325
772.991	14761
773.099	13591
773.206	12319
773.313	13312
773.420	13306
773.528	11806
773.635	11737
773.742	13413
773.849	12057
773.956	12339
774.063	11440
774.170	12083
774.277	12793
774.384	10675
774.491	11577
774.598	11375
774.705	10582
774.812	11701
774.919	10594
775.026	10229
775.133	11346
775.239	10786
775.346	10113
775.453	10393
775.560	9160
775.667	10885
775.773	8629
775.880	10417
775.987	10039
776.093	9605
776.200	9255
776.307	7762
776.413	9035
776.520	10832
776.627	8534
776.733	8251
776.840	7094
776.946	11626
777.053	9115
777.159	9340
777.266	7367
777.372	9671
777.478	10129
777.585	9104
777.691	7324
777.798	8317
777.904	7926
778.010	7630
778.117	7864
778.223	7465
778.329	7874
778.435	6804
778.542	9002
778.648	7151
778.754	6506
778.860	7779
778.966	6820
779.072	6784
779.178	7576
779.284	5464
779.391	7746
779.497	6928
779.603	9317
779.708	7254
779.815	13827
779.920	39257
780.026	41705
780.132	8998
780.238	5872
780.344	6716
780.450	8809
780.556	5825
780.661	6442
780.767	6844
780.873	4363
780.979	6509
781.085	6906
781.190	6541
781.296	5983
781.402	6014
781.507	5987
781.613	5210
781.719	5662
781.824	6006
781.930	6051
782.035	6796
782.141	5965
782.246	4116
782.352	4631
782.457	5943
782.563	6143
782.668	5997
782.773	4915
782.879	4767
782.984	5926
783.090	5979
783.195	6136
783.300	5803
783.405	4466
783.511	3754
783.616	4716
783.721	6214
783.826	4518
783.932	5273
784.037	5406
784.142	4847
784.247	5221
784.352	4864
784.457	4143
784.562	5247
784.667	4741
784.772	4146
784.877	3499
784.982	5442
785.087	4530
785.192	4782
785.297	4037
785.402	4882
785.507	4247
785.611	3573
785.716	3009
785.821	4954
785.926	5113
786.031	5188
786.135	4522
786.240	4455
786.345	2876
786.450	3729
786.554	3846
786.659	4310
786.763	3272
786.868	4176
786.973	4787
787.077	3845
787.182	3794
787.286	4335
787.391	4422
787.495	2641
787.600	2465
787.704	3630
787.809	4291
787.913	3434
788.017	3971
788.122	4551
788.226	4194
788.330	2813
788.435	4482
788.539	4452
788.643	2784
788.747	2967
788.852	3433
788.956	2566
789.060	5097
789.164	3954
789.268	2635
789.372	4323
789.476	3300
789.580	2146
789.684	2647
789.788	3691
789.892	3634
789.996	2736
790.100	2424
790.204	3817
790.308	3261
790.412	2076
790.516	2778
790.620	2556
790.724	4069
790.828	2788
790.931	1707
791.035	3615
791.139	2491
791.242	3176
791.346	3692
791.450	3393
791.554	2149
791.657	1702
791.761	2976
791.864	3005
791.968	3586
792.072	3251
792.175	2484
792.279	2687
792.382	2229
792.486	3303
792.589	2183
792.693	2598
792.796	1239
792.899	3663
793.003	3531
793.106	638
793.209	2621
793.313	3174
793.416	565
793.519	3271
793.623	3341
793.726	2858
793.829	2651
793.932	1964
794.035	1407
794.138	3826
794.242	3214
794.345	1395
794.448	2487
794.551	5105
794.654	18602
794.757	20695
794.860	3542
794.963	3035
795.066	1602
795.169	4256
795.272	1985
795.375	3351
795.477	1220
795.580	1785
795.683	1247
795.786	2336
795.889	671
795.991	3165
796.094	3520
796.197	1233
796.300	2829
796.402	2375
796.505	1866
796.608	1606
796.710	2613
796.813	3339
796.915	2569
797.018	2668
797.120	2827
797.223	1989
797.326	2843
797.428	858
797.530	582
797.633	1967
797.735	3872
797.838	1774
797.940	2906
798.042	1012
798.145	1378
798.247	2638
798.349	512
798.452	2906
798.554	1816
798.656	1477
798.758	2869
798.860	1959
798.962	1362
799.065	1545
799.167	1399
799.269	2671
799.371	2556
799.473	3398
799.575	2131
799.677	1369
799.779	3213
799.881	618
799.983	1602
800.085	1460
800.187	1573
800.289	748
800.390	2790
800.492	1818
800.594	2460
800.696	710
800.798	1842
800.899	1185
801.001	1711
801.103	1683
801.205	1683
801.306	2340
801.408	796
801.509	1815
801.611	2817
801.713	2165
801.814	700
801.916	1281
802.017	619
802.119	445
802.220	1901
802.322	595
802.423	2523
802.525	-146
802.626	922
802.727	2219
802.829	1746
802.930	-704
803.031	2176
803.133	635
803.234	1891
803.335	2447
803.436	348
803.538	489
803.639	-143
803.740	2330
803.841	881
803.942	2383
804.043	1917
804.144	910
804.245	754
804.346	971
804.447	960
804.548	1056
804.649	1976
804.750	135
804.851	877
804.952	950
805.053	1402
805.154	-16
805.255	1977
805.355	651
805.456	1819
805.557	1395
805.658	31
805.758	1660
805.859	1504
805.960	1852
806.061	-280
806.161	890
806.262	1849
806.362	479
806.463	863
806.564	2224
806.664	718
806.765	-226
806.865	909
806.966	229
807.066	303
807.166	1042
807.267	1983
807.367	941
807.468	1035
807.568	-77
807.668	1705
807.769	1964
807.869	398
807.969	1087
808.069	1309
808.170	1239
808.270	660
808.370	1492
808.470	431
808.570	577
808.670	671
808.770	1085
808.870	-117
808.970	1219
809.070	649
809.170	-29
809.271	811
809.370	93
809.470	1170
809.570	1026
809.670	-299
809.770	904
809.870	1636
809.970	1215
810.070	551
810.169	1492
810.269	-169
810.369	2691
810.469	925
810.568	179
810.668	344
810.768	501
810.867	233
810.967	204
811.066	888
811.166	1458
811.265	832
811.365	446
811.464	138
811.564	218
811.663	1141
811.763	-343
811.862	974
811.962	1360
812.061	554
812.160	474
812.260	1069
812.359	398
812.458	424
812.557	2028
812.657	1319
812.756	1096
812.855	741
812.954	586
813.053	850
813.153	1342
813.252	555
813.351	1161
813.450	1802
813.549	906
813.648	768
813.747	300
813.846	1405
813.945	1157
814.044	1096
814.143	1007
814.242	1865
814.341	-74
814.439	1999
814.538	1784
814.637	1074
814.736	309
814.835	2009
814.933	1100
815.032	1731
815.131	3555
815.229	6554
815.328	8439
815.427	5539
815.525	4859
815.624	4960
815.722	4775
815.821	5081
815.919	5622
816.018	4435
816.116	5677
816.215	4928
816.313	6326
816.412	6950
816.510	6326
816.609	8990
816.707	9027
816.805	6214
816.904	7378
817.002	7231
817.100	7144
817.198	7948
817.296	6518
817.395	6190
817.493	7230
817.591	5174
817.689	6969
817.787	5743
817.885	6834
817.983	7078
818.081	7882
818.179	8086
818.277	14636
818.375	10580
818.473	7159
818.571	5855
818.669	6642
818.767	6190
818.865	5681
818.963	6320
819.061	5874
819.158	6480
819.256	10088
819.354	11508
819.452	22643
819.549	10560
819.647	7830
819.745	4740
819.842	6199
819.940	5165
820.038	5050
820.135	4393
820.233	6373
820.330	4336
820.428	4224
820.525	6160
820.623	5193
820.720	3287
820.818	4988
820.915	5503
821.012	5466
821.110	3668
821.207	6052
821.304	3849
821.402	5304
821.499	5642
821.596	4665
821.693	4454
821.791	4946
821.888	4951
821.985	5503
822.082	3147
822.179	5666
822.276	5494
822.373	3324
822.470	4520
822.567	4339
822.664	3125
822.761	4657
822.858	4485
822.955	4332
823.052	3472
823.149	4911
823.246	3588
823.343	2697
823.440	4773
823.536	4578
823.633	3850
823.730	3242
823.827	4584
823.923	4030
824.020	3772
824.117	4793
824.213	2435
824.310	3553
824.407	2865
824.503	4663
824.600	3704
824.696	3249
824.793	4253
824.889	3985
824.986	2784
825.082	2813
825.179	3181
825.275	4572
825.371	3938
825.468	3209
825.564	1076
825.660	5016
825.757	4021
825.853	3181
825.949	2230
826.045	2236
826.142	3476
826.238	2281
826.334	4189
826.430	2609
826.526	2618
826.622	1790
826.718	4425
826.814	3832
826.910	3034
827.006	1865
827.102	2205
827.198	4450
827.294	3600
827.390	3004
827.486	2795
827.582	1028
827.678	1032
827.774	4336
827.869	1538
827.965	3087
828.061	2066
828.157	3615
828.252	3335
828.348	2659
828.444	2065
828.539	1915
828.635	2383
828.731	3671
828.826	2356
828.922	3316
829.017	3214
829.113	3014
829.208	1971
829.304	2674
829.399	5055
829.495	3123
829.590	2733
829.685	2768
829.781	3376
829.876	1489
829.971	1378
830.066	1503
830.162	2272
830.257	4193
830.352	2378
830.447	1949
830.543	1872
830.638	1588
830.733	3592
830.828	2212
830.923	2797
831.018	3075
831.113	2825
831.208	1010
831.303	1237
831.398	1694
831.493	2607
831.588	3180
831.683	319
831.778	1319
831.873	1563
831.967	2338
832.062	2342
832.157	1771
832.252	2489
832.346	1649
832.441	2635
832.536	1335
832.631	2489
832.725	1458
832.820	1765
832.914	2116
833.009	1097
833.104	1665
833.198	1665
833.293	1589
833.387	2564
833.482	1527
833.576	1613
833.670	2061
833.765	2189
833.859	2282
833.954	2155
834.048	1555
834.142	757
834.237	812
834.331	2251
834.425	2083
834.519	544
834.613	1564
834.708	838
834.802	1525
834.896	648
834.990	1767
835.084	1445
835.178	1752
835.272	1269
835.366	2632
835.460	2053
835.554	1736
835.648	1036
835.742	519
835.836	1892
835.930	1115
836.024	1432
836.117	1968
836.211	659
836.305	1207
836.399	1038
836.493	182
836.586	1516
836.680	685
836.774	703
836.867	1291
836.961	544
837.055	277
837.148	1044
837.242	616
837.335	1030
837.429	935
837.522	61
837.616	1407
837.709	1176
837.803	956
837.896	934
837.989	1113
838.083	17
838.176	638
838.269	-476
838.363	1543
838.456	1118
838.549	1067
838.642	369
838.735	1491
838.829	1925
838.922	759
839.015	291
839.108	-284
839.201	1101
839.294	1296
839.387	969
839.480	537
839.573	777
839.666	623
839.759	945
839.852	1091
839.945	1521
840.038	471
840.131	-137
840.223	54
840.316	1269
840.409	620
840.502	722
840.594	1707
840.687	-684
840.780	11
840.873	282
840.965	114
841.058	1264
841.150	1593
841.243	-362
841.336	1267
841.428	333
841.521	366
841.613	283
841.706	14
841.798	40
841.890	512
841.983	136
842.075	920
842.167	-350
842.260	467
842.352	1826
842.444	199
842.537	808
842.629	456
842.721	138
842.813	979
842.905	-23
842.997	1424
843.090	1
843.182	203
843.274	-116
843.366	1215
843.458	1808
843.550	1532
843.642	372
843.734	893
843.826	-240
843.918	1077
844.009	1034
844.101	602
844.193	960
844.285	599
844.377	760
844.469	519
844.560	191
844.652	-360
844.744	387
844.835	355
844.927	455
845.019	698
845.110	174
845.202	688
845.293	262
845.385	-240
845.476	-81
845.568	672
845.659	207
845.751	67
845.842	404
845.934	273
846.025	503
846.116	912
846.208	189
846.299	-695
846.390	412
846.482	119
846.573	-700
846.664	820
846.755	108
846.846	958
846.937	-509
847.029	431
847.120	545
847.211	27
847.302	1522
847.393	-338
847.484	135
847.575	-792
847.666	-107
847.757	30
847.847	250
847.938	1072
848.029	1200
848.120	266
848.211	192
848.302	-370
848.392	-196
848.483	1206
848.574	269
848.664	392
848.755	367
848.846	390
848.936	-483
849.027	893
849.118	99
849.208	418
849.299	1995
849.389	3669
849.480	8186
849.570	17210
849.661	34589
849.751	50461
849.841	13440
849.932	1443
850.022	746
850.112	278
850.203	1284
850.293	234
850.383	612
850.474	-458
850.564	57
850.654	1236
850.744	183
850.834	393
850.924	599
851.014	1288
851.104	895
851.194	-443
851.284	124
851.374	340
851.464	-742
851.554	-661
851.644	-496
851.734	1665
851.824	462
851.914	244
852.004	679
852.094	0
852.183	337
852.273	70
852.363	30
852.452	218
852.542	-677
852.632	-452
852.721	251
852.811	518
852.901	557
852.990	653
853.080	620
853.169	580
853.259	678
853.348	739
853.438	1795
853.527	2853
853.617	4060
853.706	9063
853.795	17691
853.885	39422
853.974	70772
854.063	134118
854.152	163221
854.242	54663
854.331	12126
854.420	5633
854.509	3171
854.598	2262
854.687	1655
854.777	799
854.866	681
854.955	1144
855.044	716
855.133	1197
855.222	125
855.311	-299
855.400	-93
855.488	131
855.577	-565
855.666	372
855.755	476
855.844	562
855.933	-499
856.021	19
856.110	333
856.199	-997
856.288	-900
856.376	-766
856.465	-1426
856.554	-124
856.642	-2
856.731	866
856.819	457
856.908	293
856.996	67
857.085	162
857.173	-809
857.262	73
857.350	-18
857.438	-10
857.527	-96
857.615	459
857.703	577
857.792	-93
857.880	145
857.968	-379
858.056	359
858.145	-88
858.233	-523
858.321	-673
858.409	-179
858.497	-890
858.585	190
858.673	30
858.761	-281
858.849	-633
858.937	-339
859.025	-291
859.113	426
859.201	-436
859.289	374
859.377	393
859.465	-309
859.552	-65
859.640	-803
859.728	451
859.816	-202
859.903	522
859.991	-770
860.079	-5
860.166	-98
860.254	-26
860.342	259
860.429	269
860.517	-239
860.604	365
860.692	-861
860.779	-1265
860.867	-375
860.954	-398
861.042	59
861.129	-255
861.216	-29
861.304	-15
861.391	-189
861.478	-45
861.565	-224
861.653	200
861.740	-895
861.827	-69
861.914	-497
862.001	59
862.089	4
862.176	-34
862.263	-232
862.350	265
862.437	-281
862.524	160
862.611	18
862.698	550
862.785	-560
862.871	875
862.958	260
863.045	662
863.132	211
863.219	120
863.306	-346
863.392	416
863.479	-387
863.566	-323
863.652	-116
863.739	-171
863.826	495
863.912	310
863.999	987
864.086	-187
864.172	191
864.259	995
864.345	385
864.432	634
864.518	267
864.604	95
864.691	934
864.777	1375
864.863	1972
864.950	3202
865.036	4234
865.122	7810
865.209	7332
865.295	6695
865.381	6585
865.467	6455
865.553	7730
865.639	9378
865.726	13352
865.812	23528
865.898	41436
865.984	61498
866.070	109907
866.156	93712
866.242	25078
866.328	10419
866.414	6236
866.499	6866
866.585	5968
866.671	5626
866.757	5967
866.843	4612
866.928	4533
867.014	4804
867.100	4252
867.186	4385
867.271	4481
867.357	4703
867.442	4561
867.528	5171
867.614	4413
867.699	4224
867.785	4640
867.870	3616
867.956	3397
868.041	3994
868.127	4498
868.212	4132
868.297	3636
868.383	4040
868.468	4499
868.553	4856
868.639	4089
868.724	3858
868.809	4539
868.894	3421
868.979	4148
869.065	3434
869.150	2939
869.235	3855
869.320	3924
869.405	2998
869.490	3536
869.575	2569
869.660	3471
869.745	4843
869.830	4781
869.915	3182
870.000	3478
870.085	3083
870.169	5232
870.254	3818
870.339	2085
870.424	2090
870.509	4119
870.593	4079
870.678	3615
870.763	3032
870.847	2788
870.932	3677
871.016	3438
871.101	2215
871.186	3084
871.270	4189
871.355	1849
871.439	3823
871.523	3199
871.608	2345
871.692	2286
871.777	4847
871.861	4009
871.945	2552
872.030	2504
872.114	2802
872.198	2578
872.282	1872
872.367	2327
872.451	2652
872.535	2189
872.619	2357
872.703	2353
872.787	2146
872.871	2912
872.955	1259
873.039	2057
873.123	3027
873.207	3670
873.291	1085
873.375	3032
873.459	3668
873.543	2627
873.627	1674
873.711	1260
873.794	2528
873.878	1447
873.962	873
874.045	1628
874.129	1766
874.137	1746
874.213	1550
874.245	1982
874.296	2680
874.352	2205
874.380	1973
874.460	2138
874.464	2145
874.547	1961
874.568	2105
874.631	2556
874.676	2373
874.714	2199
874.784	2364
874.798	2407
874.881	2700
874.892	2463
874.965	766
874.999	1327
875.048	2137
875.107	1670
875.131	1457
875.215	825
875.215	825
875.298	933
875.323	1156
875.381	1710
875.430	2552
875.465	3133
875.538	2002
875.548	1838
875.631	1701
875.646	1630
875.714	1337
875.753	1419
875.798	1536
875.861	2160
875.881	2360
875.964	2077
875.968	2034
876.047	1205
876.076	1653
876.130	2589
876.183	2598
876.213	2534
876.291	2252
876.296	2235
876.379	2113
876.398	1833
876.462	930
876.506	954
876.545	970
876.613	1232
876.628	1311
876.711	1736
876.721	1844
876.794	2595
876.828	2142
876.877	1419
876.935	949
876.960	781
877.043	1166
877.043	1168
877.125	1791
877.150	1890
877.208	2024
877.258	1825
877.291	1719
877.365	1198
877.374	1139
877.456	1610
877.472	1492
877.539	1085
877.579	1247
877.622	1340
877.687	1605
877.704	1693
877.787	1562
877.794	1566
877.869	1795
877.901	1879
877.952	1695
878.008	1252
878.034	1149
878.115	1239
878.117	1241
878.199	1121
878.222	1136
878.282	1290
878.329	1948
878.364	2271
878.437	1700
878.447	1661
878.529	1766
878.544	1716
878.611	1249
878.651	1319
878.694	1596
878.758	1775
878.776	1738
878.858	1257
878.865	1205
878.941	647
878.972	683
879.023	767
879.078	795
879.105	982
879.185	1135
879.187	1126
879.269	1273
879.292	1269
879.351	1570
879.399	1272
879.433	896
879.506	1247
879.516	1347
879.598	1158
879.613	1198
879.680	1144
879.720	1438
879.762	1680
879.827	936
879.844	780
879.926	1194
879.933	1219
880.007	1528
880.040	1396
880.089	1292
880.147	2476
880.171	2938
880.253	4097
880.254	4106
880.335	5311
880.360	5684
880.417	7267
880.467	10350
880.499	12079
880.574	11691
880.580	11454
880.662	4145
880.680	3398
880.744	1303
880.787	722
880.825	887
880.893	1088
880.907	1052
880.989	1584
881.000	1515
881.070	1530
881.106	1832
881.152	1720
881.213	964
881.233	927
881.315	1469
881.319	1484
881.396	1284
881.426	1241
881.478	1459
881.532	1989
881.559	2077
881.639	1237
881.641	1217
881.722	1111
881.745	1085
881.803	1707
881.852	1967
881.885	1672
881.958	719
881.966	675
882.047	1057
882.064	990
882.129	651
882.171	579
882.210	632
882.277	754
882.291	780
882.372	1556
882.383	1572
882.454	1403
882.489	1206
882.535	1131
882.596	1508
882.616	1515
882.697	841
882.702	800
882.778	764
882.808	892
882.859	784
882.914	657
882.940	787
883.020	1430
883.021	1435
883.102	1568
883.127	1627
883.183	2059
883.233	2100
883.264	1620
883.339	602
883.345	583
883.426	432
883.445	549
883.507	1159
883.551	1319
883.587	1462
883.657	1678
883.668	1686
883.749	1526
883.763	1565
883.830	1190
883.869	811
883.910	572
883.975	204
883.991	377
884.072	1613
884.081	1708
884.152	1468
884.187	1382
884.233	1671
884.292	2125
884.314	1929
884.394	471
884.398	425
884.475	1032
884.504	1311
884.555	1228
884.610	1068
884.636	1114
884.716	1083
884.716	1086
884.797	1469
884.821	1408
884.877	1447
884.927	1321
884.958	1024
885.033	778
885.038	778
885.118	457
885.139	459
885.199	796
885.244	1002
885.279	1308
885.350	1900
885.359	1954
885.439	2361
885.456	2327
885.520	1488
885.561	1287
885.600	1116
885.667	705
885.680	824
885.760	1359
885.773	1454
885.840	1014
885.878	804
885.920	1066
885.984	1368
886.000	1308
886.080	1124
886.089	1098
886.160	1700
886.195	1817
886.240	1342
886.300	966
886.320	1050
886.400	1226
886.406	1242
886.480	1012
886.511	887
886.560	1092
886.616	1279
886.640	1178
886.720	865
886.722	851
886.800	1131
886.827	1379
886.879	1275
886.932	745
886.959	1045
887.038	2306
887.039	2304
887.119	1459
887.143	1248
887.198	1153
887.248	1015
887.278	950
887.354	722
887.358	763
887.437	1698
887.459	1917
887.517	1638
887.564	1374
887.596	1272
887.669	1114
887.676	1091
887.755	686
887.774	595
887.835	1103
887.880	1503
887.914	1295
887.985	786
887.994	944
888.073	2443
888.090	2736
888.153	2108
888.195	1573
888.232	1637
888.300	1957
888.311	1913
888.391	1437
888.405	1348
888.470	952
888.510	704
888.549	927
888.615	1347
888.628	1511
888.708	2380
888.720	2530
888.787	1825
888.825	1337
888.866	1224
888.930	1127
888.945	1188
889.024	1483
889.035	1519
889.103	2042
889.140	2284
889.182	1586
889.245	633
889.261	780
889.340	1428
889.349	1501
889.419	1378
889.454	1325
889.498	1257
889.559	1160
889.577	1198
889.656	1359
889.664	1376
889.735	1771
889.768	1955
889.814	1328
889.873	489
889.978	1555
890.083	1813
890.187	1942
890.292	1364
890.397	1873
890.501	1268
890.606	1433
890.710	2133
890.815	2281
890.919	1109
891.024	1586
891.128	1279
891.233	1425
891.337	1262
891.442	2641
891.546	1409
891.650	1869
891.755	1842
891.859	3008
891.963	1192
892.068	1571
892.172	595
892.276	895
892.380	1033
892.484	1823
892.589	1459
892.693	1822
892.797	460
892.901	1719
893.005	1270
893.109	1951
893.213	1564
893.317	1317
893.421	328
893.525	316
893.629	-122
893.733	1570
893.837	726
893.941	1207
894.045	533
894.148	1237
894.252	1705
894.356	1769
894.460	2669
894.564	1649
894.667	1032
894.771	1338
894.875	214
894.978	637
895.082	1345
895.186	2182
895.289	870
895.393	1469
895.496	1847
895.600	1057
895.703	365
895.807	1094
895.910	1705
896.014	1192
896.117	270
896.221	1681
896.324	1187
896.427	1031
896.531	1034
896.634	982
896.737	1242
896.840	1428
896.944	1583
897.047	2009
897.150	1465
897.253	835
897.356	1299
897.460	1314
897.563	869
897.666	1448
897.769	1291
897.872	1019
897.975	670
898.078	1279
898.181	616
898.284	1615
898.387	2046
898.490	1688
898.593	945
898.695	1067
898.798	1379
898.901	1087
899.004	641
899.107	1570
899.209	1285
899.312	2209
899.415	9
899.518	1152
899.620	-266
899.723	1239
899.826	822
899.928	595
900.031	545
900.133	1790
900.236	-20
900.338	418
900.441	201
900.543	901
900.646	373
900.748	500
900.851	1962
900.953	1163
901.055	565
901.158	1082
901.260	896
901.362	695
901.465	870
901.567	1630
901.669	953
901.771	453
901.873	253
901.976	1020
902.078	834
902.180	217
902.282	34
902.384	660
902.486	1283
902.588	1955
902.690	335
902.792	701
902.894	1607
902.996	761
903.098	805
903.200	1896
903.302	-207
903.404	800
903.505	553
903.607	1182
903.709	1268
903.811	878
903.913	126
904.014	571
904.116	331
904.218	157
904.319	1083
904.421	2074
904.523	1192
904.624	1056
904.726	836
904.827	953
904.929	161
905.030	1118
905.132	700
905.233	1502
905.335	-4
905.436	1283
905.537	582
905.639	731
905.740	279
905.841	2213
905.943	1760
906.044	1125
906.145	478
906.247	203
906.348	37
906.449	1063
906.550	1122
906.651	625
906.752	-61
906.854	895
906.955	414
907.056	355
907.157	983
907.258	962
907.359	-201
907.460	787
907.561	420
907.662	923
907.762	414
907.863	617
907.964	1104
908.065	1791
908.166	321
908.267	828
908.367	-573
908.468	903
908.569	324
908.670	687
908.770	857
908.871	860
908.971	1270
909.072	611
909.173	481
909.273	370
909.374	552
909.474	586
909.575	766
909.675	954
909.776	854
909.876	546
909.977	799
910.077	1265
910.177	919
910.278	749
910.378	342
910.478	522
910.579	1008
910.679	994
910.779	352
910.879	1354
910.980	996
911.080	1120
911.180	167
911.280	-368
911.380	-47
911.480	762
911.580	1053
911.680	981
911.780	982
911.880	904
911.980	-372
912.080	726
912.180	1053
912.280	1007
912.380	709
912.480	896
912.580	281
912.679	601
912.779	1383
912.879	788
912.979	370
913.078	38
913.178	224
913.278	756
913.377	945
913.477	132
913.577	105
913.676	1265
913.776	1327
913.875	1044
913.975	468
914.074	849
914.174	-303
914.273	-366
914.373	569
914.472	9
914.572	-355
914.671	659
914.770	-552
914.870	748
914.969	-59
915.068	223
915.167	809
915.267	327
915.366	-604
915.465	-294
915.564	239
915.663	1706
915.763	233
915.862	1216
915.961	19
916.060	269
916.159	283
916.258	340
916.357	-313
916.456	1720
916.555	1160
916.654	1168
916.752	1129
916.851	550
916.950	817
917.049	353
917.148	528
917.247	1127
917.345	-1039
917.444	288
917.543	807
917.642	1419
917.740	348
917.839	2020
917.937	1799
918.036	439
918.135	203
918.233	630
918.332	-179
918.430	1097
918.529	372
918.627	367
918.726	1340
918.824	919
918.923	-69
919.021	-160
919.119	-759
919.218	1390
919.316	1194
919.414	808
919.512	336
919.611	1450
919.709	292
919.807	1202
919.905	390
920.003	1419
920.102	580
920.200	359
920.298	1039
920.396	1269
920.494	802
920.592	576
920.690	794
920.788	976
920.886	1045
920.984	1281
921.082	1442
921.180	2224
921.277	1086
921.375	1859
921.473	2308
921.571	2741
921.669	982
921.766	1678
921.864	1562
921.962	1412
922.060	1544
922.157	2313
922.255	1956
922.352	1975
922.450	2180
922.548	3111
922.645	1977
922.743	3013
922.840	6969
922.938	7850
923.035	5151
923.133	6035
923.230	7350
923.327	8959
923.425	7411
923.522	7893
923.619	6402
923.717	5827
923.814	5641
923.911	6012
924.008	6111
924.106	5228
924.203	5628
924.300	6177
924.397	4888
924.494	6019
924.591	5133
924.688	5415
924.786	5800
924.883	5251
924.979	5502
925.077	5767
925.173	5678
925.270	5358
925.367	5000
925.464	6102
925.561	6366
925.658	5547
925.755	5193
925.852	5902
925.948	5172
926.045	5216
926.142	5352
926.239	5193
926.335	4358
926.432	5672
926.529	5142
926.625	5481
926.722	4302
926.818	4911
926.915	5313
927.011	4520
927.108	4423
927.204	5407
927.301	4191
927.397	5538
927.494	5845
927.590	3670
927.687	4542
927.783	5675
927.879	4743
927.976	4574
928.072	3361
928.168	5527
928.264	4642
928.361	4263
928.457	4774
928.553	4592
928.649	4319
928.745	4803
928.841	3718
928.937	3613
929.033	4326
929.129	4750
929.225	4590
929.321	4326
929.417	3621
929.513	5075
929.609	3466
929.705	3455
929.801	4222
929.897	3814
929.993	3751
930.089	4824
930.184	3368
930.280	4074
930.376	5398
930.471	3338
930.567	3295
930.663	4534
930.758	3084
930.854	3721
930.950	3384
931.045	3934
931.141	3747
931.236	4978
931.332	2635
931.427	2964
931.523	4059
931.618	3483
931.714	2546
931.809	3732
931.905	4023
932.000	1652
932.095	2110
932.191	3774
932.286	3944
932.381	2655
932.476	2670
932.572	3670
932.667	2709
932.762	3894
932.857	3246
932.952	3912
933.047	2902
933.142	2952
933.237	2744
933.332	3220
933.427	3855
933.522	2825
933.617	2859
933.712	3708
933.807	3148
933.902	4157
933.997	3680
934.092	2886
934.187	2980
934.282	3213
934.376	2972
934.471	2871
934.566	2632
934.661	3290
934.755	3128
934.850	3470
934.945	2300
935.039	1539
935.134	2004
935.228	3752
935.323	4082
935.417	2458
935.512	1511
935.606	2741
935.701	2421
935.795	4159
935.890	2543
935.984	3186
936.079	2088
936.173	2304
936.267	2409
936.362	2367
936.456	3324
936.550	3363
936.644	2843
936.738	1854
936.833	1675
936.927	1708
937.021	2004
937.115	2743
937.209	2498
937.303	3134
937.397	1333
937.491	2834
937.585	2735
937.679	2941
937.773	2387
937.867	2224
937.961	2060
938.055	3381
938.149	2301
938.243	1995
938.337	731
938.430	2859
938.524	2324
938.618	2676
938.712	1652
938.805	2352
938.899	2908
938.993	2835
939.086	2064
939.180	768
939.274	2252
939.367	3418
939.461	2474
939.554	1772
939.648	1663
939.741	1946
939.835	2591
939.928	2771
940.022	2659
940.115	1396
940.208	2107
940.302	3369
940.395	3094
940.488	1398
940.582	1665
940.675	1779
940.768	2003
940.861	3184
940.954	1754
941.048	1707
941.141	778
941.234	1486
941.327	1649
941.420	2658
941.513	2188
941.606	1392
941.699	1645
941.792	3040
941.885	1393
941.978	2616
942.071	2435
942.164	1347
942.257	1532
942.349	1418
942.442	1836
942.535	1173
942.628	1468
942.721	1291
942.813	995
942.906	2913
942.999	837
943.091	1004
943.184	2070
943.277	1990
943.369	1050
943.462	1118
943.554	1858
943.647	1035
943.739	2667
943.832	1984
943.924	-181
944.017	1155
944.109	125
944.201	1322
944.294	1884
944.386	1663
944.478	775
944.571	1045
944.663	206
944.755	1507
944.847	1652
944.940	2383
945.032	-294
945.124	1273
945.216	1485
945.308	2611
945.400	748
945.492	1790
945.584	1006
945.676	2071
945.768	1691
945.860	2684
945.952	1512
946.044	1672
946.136	2115
946.228	1353
946.320	493
946.412	1106
946.503	1809
946.595	2791
946.687	281
946.779	444
946.870	189
946.962	1167
947.054	845
947.145	2285
947.237	916
947.329	1461
947.420	145
947.512	1031
947.603	71
947.695	1721
947.786	53
947.878	764
947.969	1815
948.061	915
948.152	985
948.243	833
948.335	599
948.426	-37
948.517	808
948.609	1108
948.700	1273
948.791	131
948.882	26
948.973	1168
949.065	825
949.156	1112
949.247	403
949.338	1144
949.429	538
949.520	355
949.611	598
949.702	1924
949.793	974
949.884	1373
949.975	430
950.066	478
950.157	-313
950.247	1058
950.338	-368
950.429	1018
950.520	1393
950.611	33
950.701	580
950.792	769
950.883	1154
950.973	409
951.064	748
951.155	1140
951.245	1697
951.336	1231
951.427	200
951.517	1678
951.608	1430
951.698	588
951.788	-461
951.879	1109
951.969	418
952.060	466
952.150	600
952.240	1588
952.331	-674
952.421	1903
952.511	-397
952.602	-137
952.692	404
952.782	388
952.872	815
952.962	937
953.052	585
953.143	274
953.233	496
953.323	823
953.413	750
953.503	1627
953.593	327
953.683	576
953.773	-1217
953.863	43
953.953	90
954.042	723
954.132	-231
954.222	608
954.312	100
954.402	-19
954.492	7
954.581	1229
954.671	729
954.761	-269
954.850	684
954.940	195
955.030	161
955.119	-87
955.209	117
955.298	594
955.388	624
955.477	1667
955.567	-672
955.656	728
955.746	62
955.835	702
955.925	-448
956.014	292
956.103	708
956.193	1178
956.282	717
956.371	532
956.461	747
956.550	113
956.639	632
956.728	490
956.817	-23
956.906	350
956.995	460
957.085	309
957.174	868
957.263	-41
957.352	1019
957.441	340
957.530	240
957.619	876
957.708	471
957.796	1140
957.885	432
957.974	424
958.063	354
958.152	-420
958.241	253
958.329	536
958.418	-123
958.507	-286
958.596	666
958.684	445
958.773	388
958.861	54
958.950	-52
959.039	746
959.127	-68
959.216	1245
959.304	194
959.393	1072
959.481	557
959.570	437
959.658	-401
959.746	534
959.835	478
959.923	799
960.011	-674
960.100	1362
960.188	189
960.276	-320
960.365	-61
960.453	-131
960.541	-112
960.629	254
960.717	-752
960.805	-16
960.893	283
960.981	-220
961.069	924
961.158	999
961.245	1002
961.333	416
961.421	-694
961.509	701
961.597	-177
961.685	233
961.773	685
961.861	220
961.949	-50
962.036	-6
962.124	960
962.212	704
962.299	201
962.387	-472
962.475	-48
962.562	13
962.650	-121
962.738	492
962.825	-747
962.913	160
963.000	-792
963.088	500
963.175	-692
963.263	-52
963.350	-761
963.438	49
963.525	-377
963.612	953
963.700	-594
963.787	1295
963.874	-249
963.962	221
964.049	628
964.136	-136
964.223	-651
964.310	-302
964.398	-510
964.485	-194
964.572	123
964.659	218
964.746	-886
964.833	151
964.920	-894
965.007	507
965.094	-280
965.181	-416
965.268	-421
965.355	557
965.441	-229
965.528	-202
965.615	141
965.702	266
965.789	-36
965.875	-297
965.962	-189
966.049	3
966.136	342
966.222	-632
966.309	250
966.395	859
966.482	507
966.569	894
966.655	-532
966.742	-2
966.828	-202
966.915	-179
967.001	-109
967.087	-798
967.174	-558
967.260	95
967.347	-289
967.433	-217
967.519	-328
967.605	-377
967.692	110
967.778	-426
967.864	-29
967.950	85
968.036	-451
968.123	447
968.209	-151
968.295	-1029
968.381	1279
968.467	-44
968.553	-1855
968.639	563
968.725	-732
968.811	103
968.897	-413
968.983	-308
969.069	-1635
969.154	590
969.240	83
969.326	-649
969.412	-695
969.497	-374
969.583	-1185
969.669	628
969.755	-130
969.840	-83
969.926	1127
970.012	846
970.097	1700
970.183	244
970.268	-800
970.354	369
970.439	-1334
970.525	1038
970.610	-944
970.696	996
970.781	-324
970.866	-1496
970.952	208
971.037	-493
971.122	-149
971.208	-582
971.293	-611
971.378	-1583
971.463	-64
971.549	107
971.634	-438
971.719	-258
971.804	-1051
971.889	1186
971.974	-839
972.059	-333
972.144	-220
972.229	-41
972.314	-1182
972.399	-440
972.484	-675
972.569	798
972.654	-752
972.739	378
972.824	-1260
972.908	-75
972.993	-961
973.078	-204
973.163	-880
973.247	-112
973.332	-1052
973.417	374
973.501	-995
973.586	516
973.671	-596
973.755	120
973.840	273
973.924	890
974.009	452
974.093	-108
974.178	557
974.262	24
974.346	-1050
974.431	98
974.515	-540
974.600	-175
974.684	-210
974.768	-891
974.852	113
974.937	-1166
975.021	-123
975.105	181
975.189	-168
975.273	-94
975.358	-351
975.442	-1184
975.526	562
975.610	-1089
975.694	-875
975.778	922
975.862	-146
975.946	-1891
976.030	1361
976.114	-780
976.198	-594
976.281	-381
976.365	562
976.449	-303
976.533	-852
976.617	-437
976.700	-908
976.784	-212
976.868	-676
976.951	516
977.035	-300
977.119	527
977.202	-1358
977.286	334
977.369	320
977.453	1312
977.536	371
977.620	184
977.703	-803
977.787	-58
977.870	401
977.953	868
978.037	-637
978.120	1412
978.203	70
978.287	1005
978.370	-1257
978.453	339
978.536	-813
978.620	616
978.703	725
978.786	-722
978.869	-892
978.952	-283
979.035	1224
979.118	1480
979.201	-1109
979.284	558
979.367	-877
979.450	-18
979.533	-1291
979.616	-19
979.699	-257
979.782	805
979.865	-629
979.948	-589
980.030	-686
980.113	68
980.196	-1371
980.279	503
980.361	-1328
980.444	17
980.526	542
980.609	1273
980.692	574
980.774	808
980.857	-1022
980.939	1208
981.022	-148
981.104	-26
981.187	-475
981.269	257
981.352	-321
981.434	-1308
981.516	-603
981.599	706
981.681	-204
981.763	298
981.846	-13
981.928	-397
982.010	-714
982.092	-93
982.174	24
982.256	128
982.339	625
982.421	-205
982.503	409
982.585	-820
982.667	-785
982.749	430
982.831	-198
982.913	-454
982.995	1009
983.077	-293
983.158	871
983.240	-1201
983.322	990
983.404	1465
983.486	-178
983.568	1037
983.649	-75
983.731	261
983.813	-230
983.894	846
983.976	365
984.058	-776
984.139	224
984.221	-561
984.302	737
984.384	75
984.465	-1280
984.547	503
984.628	-712
984.710	793
984.791	23
984.872	885
984.954	-565
985.035	860
985.116	163
985.198	34
985.279	1119
985.360	-239
985.441	160
985.522	1063
985.604	-899
985.685	-1613
985.766	672
985.847	1778
985.928	-446
986.009	764
986.090	-1097
986.171	1311
986.252	-313
986.333	982
986.414	-559
986.495	515
986.576	164
986.656	553
986.737	1012
986.818	147
986.899	382
986.980	317
987.060	855
987.141	926
987.222	504
987.302	1160
987.383	1130
987.464	841
987.544	885
987.625	883
987.705	1315
987.786	1306
987.866	27
987.947	1789
988.027	675
988.108	361
988.188	300
988.268	970
988.349	1592
988.429	12
988.509	561
988.589	813
988.670	-1339
988.750	879
988.830	-32
988.910	988
988.990	101
989.070	607
989.151	644
989.231	19
989.311	423
989.391	471
989.471	46
989.551	147
989.631	-518
989.711	952
989.791	519
989.870	504
989.950	935
990.030	-51
990.110	165
990.190	-116
990.269	-19
990.349	905
990.429	-265
990.509	670
990.588	-791
990.668	563
990.747	146
990.827	-201
990.907	896
990.986	-694
991.066	48
991.145	-241
991.225	-81
991.304	384
991.383	987
991.463	-42
991.542	1072
991.622	0
991.701	-909
991.780	-24
991.859	745
991.939	109
992.018	114
992.097	616
992.176	375
992.256	449
992.335	-788
992.414	928
992.493	-544
992.572	228
992.651	1481
992.730	240
992.809	115
992.888	-1247
992.967	-897
993.046	252
993.125	-926
993.203	-487
993.282	-178
993.361	-541
993.440	-565
993.519	-836
993.597	211
993.676	-348
993.755	-284
993.834	343
993.912	-984
993.991	1021
994.069	-144
994.148	443
994.226	-811
994.305	-250
994.384	-575
994.462	586
994.540	-1417
994.619	-810
994.697	-555
994.776	-1003
994.854	43
994.932	-600
995.011	-960
995.089	273
995.167	-316
995.245	-210
995.324	-610
995.402	-825
995.480	-1554
995.558	-624
995.636	-1402
995.714	-1255
995.792	-129
995.870	-563
995.948	-848
996.026	-406
996.104	-1366
996.182	691
996.260	-1845
996.338	323
996.416	-1259
996.494	218
996.572	349
996.649	-1643
996.727	-1467
996.805	188
996.883	-1360
996.960	-864
997.038	-207
997.116	211
997.193	-548
997.271	-40
997.348	-1327
997.426	-377
997.504	-1565
997.581	427
997.658	-93
997.736	-1067
997.813	-1939
997.891	-383
997.968	-1127
998.046	-751
998.123	-966
998.200	-523
998.277	-1640
998.355	320
998.432	-1713
998.509	-597
998.586	29
998.663	225
998.741	-945
998.818	-1005
998.895	-1668
998.972	-415
999.049	-542
999.126	-1227
999.203	-1047
999.280	-664
999.357	-918
999.434	-1370
999.511	-1098
999.587	-632
999.664	-2626
999.741	-120
999.818	-1755
999.895	-712
999.971	-1209
1000.048	-948
1000.125	-740
1000.202	-1597
1000.278	-1605
1000.355	-26
1000.431	-1474
1000.508	-2248
1000.584	-1519
1000.661	-674
1000.738	-1935
1000.814	-1095
1000.890	-736
1000.967	-822
1001.043	-1785
1001.120	-1443
1001.196	-1138
1001.272	-1454
1001.349	-1064
1001.425	146
1001.501	-1613
1001.577	-1512
1001.654	-1395
1001.730	-1157
1001.806	-1148
1001.882	-1976
1001.958	-621
1002.034	-832
1002.110	-911
1002.186	-1509
1002.262	-1905
1002.338	-1276
1002.414	-1029
1002.490	-930
1002.566	-1856
1002.642	-2081
1002.718	-944
1002.794	-1211
1002.870	-2178
1002.945	-1071
1003.021	-1391
1003.097	-1228
1003.173	-711
1003.248	-668
1003.324	-1057
1003.400	-1492
1003.475	-1812
1003.551	-909
1003.626	-1254
1003.702	-2156
1003.777	-1371
1003.853	-1078
1003.928	-2357
1004.004	-919
1004.079	-1288
1004.155	-845
1004.230	-2328
1004.305	-72
1004.381	-1858
1004.456	-983
1004.531	-2057
1004.607	-1153
1004.682	-2098
1004.757	-1032
1004.832	-2190
1004.907	-1697
1004.982	-955
1005.057	-1495
1005.133	-1786
1005.208	-1486
1005.283	-2096
1005.358	-520
1005.433	-1764
1005.508	-1300
1005.583	-2399
1005.657	-1264
1005.732	-1940
1005.807	-1248
1005.882	-1575
1005.957	-944
1006.032	-1203
1006.106	-777
1006.181	-1061
1006.256	-603
1006.331	-2101
1006.405	-1751
1006.480	-1545
1006.554	-1149
1006.629	-1699
1006.704	-1247
1006.778	-1821
1006.853	-1195
1006.927	-1763
1007.002	-1294
1007.076	-1854
1007.150	-1692
1007.225	-1411
1007.299	-1052
1007.373	-1796
1007.448	-1371
1007.522	-1203
1007.596	-1254
1007.671	-2359
1007.745	-1156
1007.819	-2945
1007.893	-2486
1007.967	-1980
1008.041	-2636
1008.115	-1784
1008.190	-3116
1008.264	-1828
1008.338	-2582
1008.412	-1828
1008.486	-1426
1008.560	-1848
1008.633	-1003
1008.707	-1485
1008.781	-1397
1008.855	-1503
1008.929	-1768
1009.003	-1822
1009.076	-2262
1009.150	-1601
1009.224	-1444
1009.298	-1552
1009.371	-1949
1009.445	-779
1009.519	-1537
1009.592	-2324
1009.666	-2267
1009.739	-1742
1009.813	-1812
1009.886	-1350
1009.960	-2530
1010.033	-1692
1010.107	-1620
1010.180	-2700
1010.253	-2119
1010.327	-2997
1010.400	-1459
1010.473	-2220
1010.547	-999
1010.620	-2493
1010.693	-1289
1010.766	-1317
1010.840	-1746
1010.913	-1740
1010.986	-1324
1011.059	-2291
1011.132	-1691
1011.205	-1383
1011.278	-1742
1011.351	-2451
1011.424	-1108
1011.497	-2411
1011.570	-510
1011.643	-1632
1011.716	-602
1011.789	-1598
1011.862	-1193
1011.934	-1401
1012.007	-2237
1012.080	-1089
1012.153	-2084
1012.225	-1626
1012.298	-1801
1012.371	-1624
1012.443	-773
1012.516	-2329
1012.588	-1515
1012.661	-1707
1012.733	-1389
1012.806	-1623
1012.879	-1749
1012.951	-2084
1013.023	-1869
1013.096	-1849
1013.168	-1353
1013.241	-704
1013.313	-1365
1013.385	-2178
1013.458	-1779
1013.530	-821
1013.602	-2137
1013.674	-2160
1013.746	-2157
1013.819	-1875
1013.891	-1394
1013.963	-3148
1014.035	-789
1014.107	-1532
1014.179	-1871
1014.251	-2620
1014.323	-1122
1014.395	-1414
1014.467	-1786
1014.539	-1825
1014.611	-2222
1014.683	-1552
1014.754	-1927
1014.826	-2659
1014.898	-1618
1014.970	-2621
1015.042	-1307
1015.113	-2012
1015.185	-1363
1015.257	-2363
1015.328	-1868
1015.400	-2638
1015.471	-1200
1015.543	-2319
1015.615	-2042
1015.686	-2046
1015.757	-1593
1015.829	-1579
1015.901	-1434
1015.972	-1631
1016.043	-1258
1016.115	-1689
1016.186	-1398
1016.257	-2222
1016.328	-1416
1016.400	-2157
1016.471	-1964
1016.542	-1634
1016.613	-1568
1016.685	-1842
1016.756	-1338
1016.827	-1982
1016.898	-1592
1016.969	-1429
1017.040	-2137
1017.111	-2429
1017.182	-980
1017.253	-1174
1017.324	-1798
1017.395	-2215
1017.466	-940
1017.537	-2062
1017.608	-1279
1017.678	-1933
1017.749	-713
1017.820	-2292
1017.891	-1847
1017.961	-2787
1018.032	-1748
1018.103	-1964
1018.173	-2233
1018.244	-1818
1018.315	-1122
1018.385	-1536
1018.456	-1628
1018.526	-2505
1018.597	-2185
1018.667	-1351
1018.738	-1811
1018.808	-2015
1018.878	-1045
1018.949	-1999
1019.019	-1126
1019.089	-1710
1019.160	-1220
1019.230	-3363
1019.300	-1769
1019.371	-2535
1019.441	-1620
1019.511	-2406
1019.581	-1726
1019.651	-1681
1019.721	-2004
1019.791	-1914
1019.861	-1668
1019.931	-1997
1020.001	-1476
1020.071	-1601
1020.141	-1559
1020.211	-1565
1020.281	-1566
1020.351	-2202
1020.421	-2208
1020.491	-1558
1020.560	-2113
1020.630	-2191
1020.700	-2017
1020.770	-1415
1020.839	-1341
1020.909	-2389
1020.979	-2133
1021.048	-2131
1021.118	-1827
1021.187	-2419
1021.257	-974
1021.326	-1690
1021.396	-1241
1021.465	-1625
1021.535	-1964
1021.604	-2187
1021.674	-1736
1021.743	-1671
1021.812	-1339
1021.882	-1751
1021.951	-1715
1022.020	-2166
1022.089	-405
1022.159	-2235
1022.228	-1507
1022.297	-1358
1022.366	-2194
1022.435	-2540
1022.504	-2000
1022.573	-2400
1022.642	-1122
1022.711	-1866
1022.781	-1413
1022.849	-1525
1022.918	-2050
1022.987	-2037
1023.056	-1312
1023.125	-2548
1023.194	-1745
1023.263	-1987
1023.331	-1650
1023.400	-2311
1023.469	-1568
1023.538	-1439
1023.606	-2420
1023.675	-2106
1023.744	-1767
1023.812	-2327
1023.881	-1697
1023.949	-1749
1024.018	-1990
1024.086	-2126
1024.155	-1466
1024.223	-1822
1024.292	-1653
1024.360	-1511
1024.429	-1446
1024.497	-2366
1024.565	-1623
1024.634	-2096
1024.702	-1730
1024.770	-1771
1024.838	-1720
1024.907	-1824
1024.975	-1383
1025.043	-1747
1025.111	-2101
1025.179	-2846
1025.247	-1432
1025.315	-1833
1025.383	-1923
1025.451	-2010
1025.519	-1897
1025.587	-2451
1025.655	-1409
1025.723	-2178
1025.791	-2123
1025.859	-2351
1025.927	-1060
1025.995	-2987
1026.062	-1946
1026.130	-2096
1026.198	-1516
1026.266	-2432
1026.333	-998
1026.401	-1600
1026.469	-1672
1026.536	-1633
1026.604	-1655
1026.671	-2631
1026.739	-1481
1026.806	-2258
1026.874	-2103
1026.941	-2246
1027.009	-1678
1027.076	-2576
1027.144	-2033
1027.211	-2503
1027.278	-1854
1027.345	-1956
1027.413	-1392
1027.480	-2430
1027.547	-1269
1027.614	-2338
1027.682	-1179
1027.749	-2016
1027.816	-2234
1027.883	-1856
1027.950	-1120
1028.017	-2249
1028.084	-917
1028.151	-2289
1028.218	-2216
1028.285	-2043
1028.352	-1380
1028.419	-2349
1028.486	-1260
1028.553	-2149
1028.619	-1999
1028.686	-2397
1028.753	-1746
1028.820	-2087
1028.886	-1683
1028.953	-1580
1029.020	-1943
1029.086	-1818
1029.153	-2257
1029.220	-2317
1029.286	-1782
1029.353	-2121
1029.419	-2088
1029.486	-2145
1029.552	-2541
1029.619	-2075
1029.685	-1461
1029.751	-1846
1029.818	-951
1029.884	-2099
1029.951	-995
1030.017	-2505
1030.083	-1554
1030.149	-2169
1030.216	-2069
1030.282	-2498
1030.348	-1828
1030.414	-1902
1030.480	-1628
1030.546	-2283
1030.612	-1729
1030.678	-2900
1030.744	-2150
1030.810	-2640
1030.876	-1425
1030.942	-1803
1031.008	-1214
1031.074	-2397
1031.140	-1902
1031.206	-2041
1031.272	-1864
1031.337	-2186
1031.403	-451
1031.469	-2520
1031.534	-2299
1031.600	-1962
1031.666	-2140
1031.731	-2848
1031.797	-1295
1031.863	-2199
1031.928	-2490
1031.994	-2079
1032.059	-1541
1032.125	-1892
1032.190	-1565
1032.256	-2913
1032.321	-2193
1032.386	-1213
1032.452	-1512
1032.517	-2392
1032.582	-2305
1032.647	-2631
1032.713	-2313
1032.778	-1490
1032.843	-1898
1032.908	-2176
1032.974	-1591
1033.039	-2767
1033.104	-1202
1033.169	-3085
1033.234	-1713
1033.299	-1579
1033.364	-1628
1033.429	-2852
1033.494	-1508
1033.559	-2596
1033.624	-1434
1033.688	-2502
1033.753	-2051
1033.818	-1128
1033.883	-1523
1033.948	-1747
1034.013	-1238
1034.077	-2073
1034.142	-147
1034.207	-1929
1034.271	193
1034.336	-17
1034.400	-555
1034.465	-1183
1034.530	-1332
1034.594	-1876
1034.658	-1730
1034.723	-2901
1034.787	-1207
1034.852	-2523
1034.916	-1791
1034.981	-2834
1035.045	-2408
1035.109	-2554
1035.173	-1687
1035.238	-2126
1035.302	-1423
1035.366	-2492
1035.430	-2656
1035.495	-2838
1035.559	-1996
1035.623	-1835
1035.687	-2110
1035.751	-2848
1035.815	-1976
1035.879	-2164
1035.943	-1719
1036.007	-2477
1036.071	-2299
1036.135	-2711
1036.198	-1477
1036.262	-2983
1036.326	-1566
1036.390	-2411
1036.454	-1319
1036.517	-2141
1036.581	-2189
1036.645	-1922
1036.709	-2057
1036.772	-1963
1036.836	-1964
1036.900	-2787
1036.963	-2416
1037.026	-2533
1037.090	-2108
1037.154	-2146
1037.217	-1583
1037.280	-2526
1037.344	-2321
1037.407	-2523
1037.471	-1485
1037.534	-3056
1037.597	-1882
1037.661	-2224
1037.724	-2179
1037.787	-2010
1037.850	-1766
1037.913	-2971
1037.977	-2210
1038.040	-2325
1038.103	-1978
1038.166	-2592
1038.229	-1846
1038.292	-2702
1038.355	-2133
1038.418	-2313
1038.481	-1673
1038.544	-2982
1038.607	-2100
1038.670	-2172
1038.732	-1269
1038.795	-3356
1038.858	-1601
1038.921	-2669
1038.984	-2099
1039.046	-3333
1039.109	-2321
1039.172	-2568
1039.234	-2348
1039.297	-2040
1039.360	-2322
1039.422	-3009
1039.485	-1991
1039.547	-3094
1039.610	-1627
1039.672	-2990
1039.734	-1689
1039.797	-2875
1039.859	-2281
1039.922	-2579
1039.984	-2225
1040.046	-2891
1040.109	-2109
1040.171	-1946
1040.233	-2611
1040.295	-2504
1040.358	-1853
1040.420	-2626
1040.482	-2964
1040.544	-2815
1040.606	-1967
1040.668	-3077
1040.730	-2286
1040.792	-2827
1040.854	-1155
1040.916	-2956
1040.978	-2266
1041.040	-1953
1041.102	-1317
1041.164	-1990
1041.225	-2389
1041.287	-2854
1041.349	-2032
1041.411	-2200
1041.472	-2368
1041.534	-2645
1041.596	-2386
1041.657	-2523
1041.719	-2583
1041.781	-2357
1041.842	-2440
1041.904	-1890
1041.965	-2213
1042.027	-2385
1042.088	-2485
1042.150	-3450
1042.211	-2372
1042.272	-2876
1042.334	-2173
1042.395	-2970
1042.456	-1789
1042.518	-2510
1042.579	-1718
1042.640	-2357
1042.701	-2874
1042.763	-2759
1042.824	-2464
1042.885	-2483
1042.946	-3268
1043.007	-3099
1043.068	-2630
1043.129	-2333
1043.190	-2001
1043.251	-2283
1043.312	-1626
1043.373	-1697
1043.434	-1687
1043.495	-2701
1043.556	-1873
1043.616	-2241
1043.677	-2427
1043.738	-2562
1043.799	-1921
1043.859	-2363
1043.920	-2228
1043.981	-1816
1044.041	-2058
1044.102	-2007
1044.162	-2063
1044.223	-2181
1044.284	-2049
1044.344	-2265
1044.405	-2305
1044.465	-2333
1044.525	-2446
1044.586	-2251
1044.646	-1915
1044.707	-1612
1044.767	-2148
1044.827	-1761
1044.887	-2494
1044.948	-1366
1045.008	-1766
1045.068	-2089
1045.128	-1840
1045.188	-2838
1045.249	-2122
1045.309	-2691
1045.369	-1617
1045.429	-2159
1045.489	-2653
1045.549	-2031
1045.609	-1794
1045.669	-2734
1045.729	-2010
1045.789	-2486
1045.848	-1913
1045.908	-2242
1045.968	-1464
1046.028	-2486
1046.088	-1413
1046.147	-1696
1046.207	-2204
1046.267	-2092
1046.326	-581
1046.386	-1503
1046.446	-950
1046.505	-1080
1046.565	-955
1046.624	-1527
1046.684	-635
1046.743	-379
1046.803	-1014
1046.862	-322
1046.922	0
