'Start Wavelength	183.907
'End Wavelength	1046.922
'Gate Delay	5.000
'Gate Width (ms)	1.050
'Laser Output Level	0.000
'X Position	0.000
'Y Position	0.000
'Z Position	0.000
'Grid Point Number	1.000
'Shot Number	100.000
183.907	601.000
183.977	789.000
184.047	331
184.116	129
184.186	788
184.256	574
184.325	261
184.395	-157
184.465	599
184.534	271
184.604	353
184.674	489
184.743	-421
184.813	496
184.883	295
184.952	762
185.022	68
185.092	702
185.161	310
185.231	280
185.301	931
185.370	1032
185.440	-92
185.509	-439
185.579	938
185.649	925
185.718	321
185.788	722
185.857	826
185.927	618
185.996	455
186.066	-63
186.136	-424
186.205	645
186.275	642
186.344	1032
186.414	274
186.483	-410
186.553	960
186.622	1990
186.692	1182
186.761	871
186.831	463
186.900	129
186.970	1214
187.039	1115
187.109	1056
187.178	1238
187.248	882
187.317	359
187.387	363
187.456	838
187.526	1639
187.595	1346
187.664	500
187.734	1029
187.803	1543
187.873	1377
187.942	1533
188.012	1469
188.081	1102
188.150	249
188.220	2380
188.289	1784
188.358	1663
188.428	1040
188.497	-203
188.567	825
188.636	303
188.705	737
188.775	803
188.844	1012
188.913	1173
188.983	881
189.052	1246
189.121	774
189.191	1230
189.260	2071
189.329	1099
189.399	1118
189.468	882
189.537	1051
189.606	1451
189.676	1697
189.745	1323
189.814	1505
189.883	786
189.953	1811
190.022	2407
190.091	3763
190.161	5757
190.230	2523
190.299	1064
190.368	846
190.437	1134
190.507	1127
190.576	1080
190.645	1382
190.714	1297
190.783	324
190.853	1571
190.922	1231
190.991	1391
191.060	835
191.129	851
191.198	1658
191.268	1078
191.337	1129
191.406	1557
191.475	1429
191.544	916
191.613	896
191.682	-242
191.752	899
191.821	1607
191.890	1046
191.959	1761
192.028	1314
192.097	1600
192.166	1765
192.235	1468
192.304	1385
192.373	1033
192.442	999
192.511	1855
192.580	1191
192.650	1090
192.719	1346
192.788	1073
192.857	1571
192.926	1653
192.995	1844
193.064	2191
193.133	2916
193.202	4499
193.271	3606
193.340	2801
193.409	3235
193.478	3990
193.547	4334
193.615	5042
193.684	5679
193.753	3252
193.822	2114
193.891	2186
193.960	2236
194.029	1688
194.098	2035
194.167	1051
194.236	1996
194.305	1392
194.374	1584
194.443	1565
194.512	1560
194.580	1406
194.649	2166
194.718	2071
194.787	2328
194.856	1673
194.925	2011
194.994	2220
195.062	2124
195.131	2221
195.200	2222
195.269	2548
195.338	2293
195.407	1937
195.475	1363
195.544	2882
195.613	2496
195.682	2139
195.751	2779
195.819	2727
195.888	3208
195.957	3207
196.026	2695
196.094	2774
196.163	3042
196.232	2571
196.301	2201
196.369	2807
196.438	2121
196.507	2510
196.576	1214
196.644	1980
196.713	2427
196.782	1712
196.850	1889
196.919	1613
196.988	1508
197.056	1383
197.125	1682
197.194	2502
197.262	2020
197.331	2575
197.400	2300
197.468	1828
197.537	2113
197.606	2532
197.674	4704
197.743	6562
197.812	3338
197.880	5401
197.949	4133
198.017	6107
198.086	4318
198.155	2603
198.223	3092
198.292	6448
198.360	3946
198.429	2898
198.497	2773
198.566	5492
198.635	6652
198.703	4422
198.772	3830
198.840	7679
198.909	7341
198.977	4010
199.046	2997
199.114	2220
199.183	3587
199.251	2525
199.320	2191
199.388	1765
199.457	2054
199.525	2807
199.594	1798
199.662	1802
199.731	2796
199.799	2516
199.867	2300
199.936	2142
200.004	1870
200.073	2182
200.141	2485
200.210	1323
200.278	2685
200.346	1851
200.415	3006
200.483	3132
200.552	2927
200.620	2671
200.688	2890
200.757	1452
200.825	1700
200.893	2368
200.962	1936
201.030	1642
201.098	2570
201.167	2630
201.235	2900
201.303	3012
201.372	2619
201.440	2118
201.508	3635
201.577	2252
201.645	2874
201.713	2387
201.781	2534
201.850	3544
201.918	3250
201.986	2651
202.055	3075
202.123	2705
202.191	2635
202.259	2729
202.327	2476
202.396	2080
202.464	3091
202.532	4134
202.600	6941
202.669	5536
202.737	3083
202.805	2858
202.873	2494
202.941	3582
203.009	2174
203.078	1929
203.146	2737
203.214	2652
203.282	1691
203.350	2392
203.418	2622
203.487	2677
203.555	2602
203.623	2405
203.691	3283
203.759	2490
203.827	3292
203.895	3217
203.963	3111
204.031	2088
204.099	3390
204.168	2253
204.236	2774
204.304	2805
204.372	3453
204.440	3209
204.508	3093
204.576	3165
204.644	2038
204.712	2614
204.780	2747
204.848	2837
204.916	3297
204.984	2364
205.052	3297
205.120	3541
205.188	3237
205.256	3128
205.324	3210
205.392	2880
205.460	4230
205.528	3528
205.596	3220
205.664	3558
205.732	4109
205.799	9629
205.867	13761
205.935	4983
206.003	4507
206.071	3120
206.139	3786
206.207	3795
206.275	3715
206.343	3073
206.411	4496
206.478	3073
206.546	3861
206.614	3786
206.682	3688
206.750	3661
206.818	3960
206.885	4517
206.953	2367
207.021	3850
207.089	3871
207.157	3204
207.225	3332
207.292	3537
207.360	4212
207.428	4264
207.496	3441
207.563	3101
207.631	3468
207.699	3594
207.767	3658
207.834	4013
207.902	3976
207.970	3752
208.038	4431
208.105	4318
208.173	4330
208.241	6298
208.309	5431
208.376	5201
208.444	7647
208.512	6160
208.579	3713
208.647	5157
208.715	5749
208.782	4264
208.850	4715
208.918	5506
208.985	6017
209.053	5065
209.120	4403
209.188	3659
209.256	4188
209.323	4153
209.391	4983
209.459	5350
209.526	4445
209.594	4206
209.661	5013
209.729	4223
209.796	4724
209.864	4767
209.932	3850
209.999	5279
210.067	5167
210.134	5556
210.202	5410
210.269	6413
210.337	6287
210.404	4503
210.472	4960
210.539	5390
210.607	5502
210.674	6808
210.742	5734
210.809	4764
210.877	6151
210.944	6126
211.012	4279
211.079	6403
211.146	5308
211.214	4880
211.281	6301
211.349	5862
211.416	5550
211.484	6249
211.551	4671
211.618	4948
211.686	5326
211.753	5104
211.821	5512
211.888	4991
211.955	5022
212.023	5169
212.090	6422
212.157	6150
212.225	6747
212.292	11072
212.359	19526
212.427	32262
212.494	19018
212.561	9532
212.629	8317
212.696	7161
212.763	6033
212.831	5580
212.898	6863
212.965	5720
213.032	5970
213.100	5672
213.167	6614
213.234	6685
213.301	5897
213.369	5671
213.436	5531
213.503	5117
213.570	5712
213.638	6716
213.705	5235
213.772	5652
213.839	6867
213.906	6907
213.973	6175
214.041	5638
214.108	5652
214.175	6421
214.242	6382
214.309	5659
214.376	5677
214.444	5855
214.511	6911
214.578	6319
214.645	6117
214.712	7319
214.779	7072
214.846	6301
214.913	6885
214.980	7824
215.048	7420
215.115	7957
215.182	7153
215.249	6676
215.316	6738
215.383	6328
215.450	5698
215.517	5797
215.584	5120
215.651	5826
215.718	5699
215.785	6921
215.852	6861
215.919	7427
215.986	7227
216.053	5160
216.120	5709
216.187	6546
216.254	6574
216.321	6102
216.388	6173
216.455	7392
216.522	6714
216.589	8442
216.656	11808
216.722	10782
216.789	9058
216.856	9313
216.923	9425
216.990	8435
217.057	8195
217.124	10338
217.191	9305
217.258	11067
217.324	12232
217.391	12598
217.458	11045
217.525	8429
217.592	7839
217.659	7577
217.725	8821
217.792	9211
217.859	9722
217.926	6560
217.993	5839
218.059	6179
218.126	5421
218.193	5766
218.260	5269
218.327	5253
218.393	5616
218.460	5943
218.527	5527
218.594	5929
218.660	9263
218.727	9462
218.794	5751
218.860	6051
218.927	5521
218.994	5185
219.061	4702
219.127	6432
219.194	8759
219.261	5546
219.327	4424
219.394	4987
219.461	4013
219.527	4357
219.594	6478
219.661	6197
219.727	3615
219.794	5102
219.860	5003
219.927	6604
219.994	8811
220.060	12193
220.127	9901
220.193	8755
220.260	9077
220.326	12862
220.393	16400
220.460	19580
220.526	14734
220.593	11697
220.659	12817
220.726	13322
220.792	23361
220.859	21762
220.925	26682
220.992	31153
221.058	30350
221.125	29488
221.191	23511
221.258	12496
221.324	9033
221.391	8613
221.457	7480
221.524	7432
221.590	10210
221.657	24708
221.723	19215
221.789	17719
221.856	14998
221.922	10739
221.989	7641
222.055	5679
222.121	5156
222.188	7742
222.254	6855
222.321	5811
222.387	4119
222.453	5482
222.520	4791
222.586	4858
222.652	4979
222.719	4712
222.785	5218
222.851	4860
222.918	4295
222.984	4651
223.050	4806
223.116	3628
223.183	4844
223.249	4541
223.315	3585
223.382	4122
223.448	5025
223.514	3619
223.580	4032
223.647	3851
223.713	3859
223.779	4013
223.845	3968
223.911	4689
223.978	4709
224.044	4385
224.110	3688
224.176	4895
224.242	3813
224.309	3991
224.375	4162
224.441	3921
224.507	3317
224.573	3207
224.639	4316
224.705	2859
224.772	3696
224.838	3656
224.904	5675
224.970	4606
225.036	4523
225.102	4498
225.168	4927
225.234	4597
225.300	4508
225.366	4054
225.432	4107
225.499	4063
225.565	5368
225.631	5966
225.697	6255
225.763	7381
225.829	8434
225.895	8082
225.961	12459
226.027	10515
226.093	10504
226.159	12762
226.225	19816
226.291	38774
226.357	49505
226.423	29262
226.489	18916
226.554	14039
226.620	14004
226.686	17098
226.752	24253
226.818	38003
226.884	62927
226.950	54299
227.016	28453
227.082	18585
227.148	13159
227.214	12457
227.279	10063
227.345	9025
227.411	8725
227.477	8637
227.543	12851
227.609	15297
227.674	10054
227.740	7626
227.806	7388
227.872	7028
227.938	7581
228.003	9502
228.069	6151
228.135	4946
228.201	5687
228.267	5325
228.332	6598
228.398	8246
228.464	5777
228.530	4372
228.595	4589
228.661	4854
228.727	8537
228.792	6862
228.858	4975
228.924	5524
228.990	8539
229.055	6960
229.121	8020
229.187	5795
229.252	5464
229.318	5168
229.384	5422
229.449	6634
229.515	3074
229.581	3433
229.646	5972
229.712	5396
229.777	12319
229.843	11349
229.909	9441
229.974	10010
230.040	9850
230.105	8575
230.171	8856
230.236	11291
230.302	16446
230.368	12791
230.433	9826
230.499	8047
230.564	7987
230.630	6306
230.695	6265
230.761	6270
230.826	4448
230.892	10118
230.957	6103
231.023	5979
231.088	5837
231.154	6888
231.219	5585
231.284	8615
231.350	9648
231.415	5859
231.481	5690
231.546	4770
231.612	5703
231.677	4103
231.742	3992
231.808	6465
231.873	5280
231.939	3365
232.004	8647
232.069	8782
232.135	6913
232.200	5417
232.265	4615
232.331	4151
232.396	4204
232.461	4415
232.527	4072
232.592	5391
232.657	5315
232.723	8306
232.788	6383
232.853	5122
232.918	4760
232.984	4630
233.049	4303
233.114	7491
233.179	7539
233.245	10372
233.310	11922
233.375	5301
233.440	5133
233.506	6126
233.571	4879
233.636	4042
233.701	5392
233.766	8268
233.832	10418
233.897	5706
233.962	5300
234.027	6805
234.092	5919
234.157	5660
234.222	5957
234.288	8683
234.353	23241
234.418	18969
234.483	11422
234.548	9691
234.613	8556
234.678	8981
234.743	9092
234.808	24428
234.873	16234
234.938	8718
235.004	7387
235.069	6751
235.134	7239
235.199	6639
235.264	6495
235.329	4800
235.394	6641
235.459	8315
235.524	7558
235.589	6388
235.654	5749
235.719	5288
235.784	6422
235.849	7638
235.913	14564
235.978	14342
236.043	16098
236.108	8451
236.173	7696
236.238	7996
236.303	7372
236.368	7872
236.433	12232
236.498	18137
236.563	16976
236.627	32138
236.692	82017
236.757	72277
236.822	33825
236.887	24006
236.952	19731
237.017	17383
237.081	18463
237.146	23950
237.211	48115
237.276	84937
237.341	112755
237.405	66900
237.470	32813
237.535	23101
237.600	15987
237.664	12694
237.729	11770
237.794	15314
237.859	28273
237.923	19475
237.988	11779
238.053	13846
238.118	13889
238.182	32141
238.247	26726
238.312	14775
238.376	11781
238.441	8870
238.506	9796
238.570	6033
238.635	7915
238.700	6516
238.764	6268
238.829	14913
238.893	17749
238.958	10190
239.023	9488
239.087	7635
239.152	7398
239.216	5745
239.281	7122
239.346	6265
239.410	6828
239.475	7679
239.539	29293
239.604	22334
239.668	9883
239.733	7038
239.797	10479
239.862	20254
239.926	26350
239.991	11606
240.055	7316
240.120	5774
240.184	6740
240.249	5670
240.313	6076
240.378	6636
240.442	18284
240.507	26774
240.571	9535
240.635	14179
240.700	18008
240.764	7763
240.829	5922
240.893	4919
240.957	6701
241.022	18008
241.086	27939
241.151	13261
241.215	6358
241.279	9783
241.344	15619
241.408	9867
241.472	7921
241.537	9422
241.601	7559
241.665	7162
241.730	7825
241.794	8838
241.858	7527
241.922	7842
241.987	8884
242.051	6925
242.115	7513
242.179	7304
242.244	7246
242.308	7695
242.372	8091
242.436	9334
242.501	8233
242.565	6524
242.629	6747
242.693	7340
242.757	6089
242.822	6635
242.886	8423
242.950	7591
243.014	7655
243.078	8917
243.142	9320
243.206	8913
243.271	10222
243.335	10543
243.399	19039
243.463	61872
243.527	127642
243.591	44274
243.655	19186
243.719	11980
243.783	12954
243.847	21702
243.911	26571
243.975	25323
244.040	17034
244.104	10959
244.168	8940
244.232	13118
244.296	18272
244.360	23838
244.424	11295
244.488	9386
244.552	9646
244.615	6696
244.679	7476
244.743	8729
244.807	9033
244.871	6694
244.935	6552
244.999	5259
245.063	7087
245.127	8906
245.191	17457
245.255	15794
245.319	10998
245.383	9499
245.446	8231
245.510	6238
245.574	7446
245.638	7416
245.702	8158
245.766	19722
245.829	11278
245.893	8938
245.957	8659
246.021	9177
246.085	8901
246.149	11315
246.212	25428
246.276	35124
246.340	16274
246.404	12808
246.467	14004
246.531	18982
246.595	12793
246.659	10745
246.722	10097
246.786	12776
246.850	14436
246.913	16838
246.977	9502
247.041	9027
247.104	9951
247.168	10370
247.232	23981
247.295	45338
247.359	22752
247.423	12935
247.486	21480
247.550	13684
247.614	10736
247.677	13121
247.741	9408
247.804	8094
247.868	11119
247.932	21762
247.995	41390
248.059	16651
248.122	10108
248.186	13535
248.249	23034
248.313	68707
248.376	69653
248.440	46281
248.503	18932
248.567	16554
248.630	22849
248.694	30331
248.757	38205
248.821	73816
248.884	44875
248.948	42346
249.011	58318
249.075	86343
249.138	69485
249.202	30410
249.265	21173
249.328	25576
249.392	17809
249.455	16176
249.519	14037
249.582	17189
249.645	31340
249.709	30661
249.772	35321
249.835	21599
249.899	16378
249.962	14425
250.025	14279
250.089	31425
250.152	38874
250.215	20377
250.279	16893
250.342	17577
250.405	16709
250.468	16264
250.532	22028
250.595	38964
250.658	126193
250.721	175583
250.785	73546
250.848	38863
250.911	25094
250.974	23308
251.038	29227
251.101	50752
251.164	28575
251.227	30599
251.290	30826
251.354	52932
251.417	163905
251.480	159055
251.543	138338
251.606	258858
251.669	204821
251.732	100059
251.795	87541
251.859	93857
251.922	182546
251.985	109139
252.048	46742
252.111	33773
252.174	32411
252.237	50594
252.300	95034
252.363	121968
252.426	206497
252.489	97836
252.552	50370
252.615	35900
252.678	37625
252.741	79161
252.804	119025
252.867	219649
252.930	133143
252.993	70463
253.056	42433
253.119	32501
253.182	27276
253.245	52536
253.308	36428
253.371	27820
253.434	26084
253.497	24581
253.559	43259
253.622	30422
253.685	36972
253.748	34931
253.811	19646
253.874	24356
253.937	22055
254.000	17759
254.062	31882
254.125	45881
254.188	41624
254.251	34622
254.314	18713
254.376	33104
254.439	34403
254.502	27068
254.565	32444
254.628	52045
254.690	30646
254.753	16922
254.816	15093
254.878	17641
254.941	33866
255.004	32710
255.067	15056
255.129	14600
255.192	10367
255.255	9392
255.317	11961
255.380	8533
255.443	7081
255.505	7390
255.568	7756
255.631	8534
255.693	9051
255.756	7380
255.819	7826
255.881	7383
255.944	7061
256.006	6868
256.069	7085
256.132	7920
256.194	10999
256.257	25895
256.319	18769
256.382	17435
256.444	12976
256.507	10492
256.569	11260
256.632	11836
256.694	21366
256.757	55734
256.819	139654
256.882	63571
256.944	27566
257.007	20529
257.069	20292
257.132	13824
257.194	13207
257.257	12428
257.319	12312
257.381	17072
257.444	43361
257.506	156663
257.569	162004
257.631	69758
257.693	40560
257.756	23240
257.818	20196
257.880	12787
257.943	11824
258.005	10124
258.067	9807
258.130	10120
258.192	11447
258.254	22043
258.317	13707
258.379	11463
258.441	27442
258.503	23988
258.566	33325
258.628	37642
258.690	11805
258.753	13395
258.815	19928
258.877	13803
258.939	10001
259.001	10439
259.064	9682
259.126	12224
259.188	15075
259.250	10771
259.312	12385
259.375	22828
259.437	15803
259.499	9942
259.561	8926
259.623	8818
259.685	9666
259.747	11282
259.809	32766
259.872	52243
259.934	80961
259.996	64960
260.058	19908
260.120	12224
260.182	10565
260.244	9202
260.306	8329
260.368	9359
260.430	8264
260.492	16709
260.554	24115
260.616	18209
260.678	43998
260.740	52401
260.802	15649
260.864	13149
260.926	10193
260.988	10615
261.050	11047
261.112	24574
261.174	58785
261.236	39841
261.298	15034
261.359	26648
261.421	33268
261.483	12111
261.545	11016
261.607	7960
261.669	9006
261.731	17340
261.793	36395
261.854	16594
261.916	12041
261.978	10451
262.040	10646
262.102	9164
262.164	16207
262.225	11973
262.287	9049
262.349	23264
262.411	17289
262.472	10089
262.534	18473
262.596	33184
262.658	12253
262.719	8351
262.781	12870
262.843	32293
262.904	15377
262.966	13340
263.028	19448
263.090	88988
263.151	189800
263.213	59144
263.275	29748
263.336	15682
263.398	12373
263.459	9341
263.521	9671
263.583	20965
263.644	15066
263.706	7609
263.767	6683
263.829	5420
263.891	4716
263.952	5723
264.014	5435
264.075	11058
264.137	22593
264.198	12528
264.260	5993
264.321	7364
264.383	17652
264.444	36711
264.506	13075
264.567	9574
264.629	17335
264.690	30884
264.752	13942
264.813	10329
264.875	7244
264.936	8116
264.998	7356
265.059	6702
265.120	9535
265.182	17036
265.243	79604
265.305	77348
265.366	21202
265.427	12776
265.489	9999
265.550	7351
265.611	9686
265.673	8663
265.734	7729
265.795	6562
265.857	7432
265.918	10152
265.979	26221
266.040	123219
266.102	102449
266.163	31172
266.224	20637
266.286	12530
266.347	9512
266.408	9276
266.469	9346
266.530	7486
266.592	6435
266.653	14187
266.714	21811
266.775	8682
266.836	6726
266.898	6451
266.959	10999
267.020	7770
267.081	5999
267.142	6384
267.203	6546
267.264	5169
267.326	7468
267.387	5383
267.448	6066
267.509	6533
267.570	6261
267.631	5565
267.692	5225
267.753	7075
267.814	5761
267.875	14792
267.936	28016
267.997	14447
268.058	12148
268.119	8587
268.180	7992
268.241	6622
268.302	6754
268.363	5852
268.424	6041
268.485	7657
268.546	5587
268.607	4722
268.668	5405
268.729	5621
268.790	6308
268.851	7715
268.912	19099
268.972	20291
269.033	10747
269.094	6638
269.155	6679
269.216	5259
269.277	6722
269.338	5492
269.398	6689
269.459	7255
269.520	10312
269.581	12478
269.642	14238
269.702	10856
269.763	8470
269.824	7901
269.885	9484
269.945	13201
270.006	6921
270.067	6000
270.128	6389
270.188	5940
270.249	6287
270.310	4801
270.370	6091
270.431	5931
270.492	5265
270.553	6822
270.613	14859
270.674	26587
270.734	11845
270.795	8177
270.856	10609
270.916	7949
270.977	6746
271.038	8660
271.098	8511
271.159	13987
271.219	12947
271.280	6851
271.340	6293
271.401	8698
271.462	18435
271.522	10365
271.583	7102
271.643	6746
271.704	7696
271.764	9914
271.825	22233
271.885	66499
271.946	80665
272.006	28302
272.066	41418
272.127	63394
272.187	20747
272.248	13814
272.308	15706
272.369	47301
272.429	25273
272.489	19393
272.550	19194
272.610	20930
272.671	16355
272.731	15795
272.791	23181
272.852	13404
272.912	11583
272.972	7641
273.033	8032
273.093	12420
273.153	12174
273.214	9483
273.274	11546
273.334	37435
273.394	66554
273.455	25953
273.515	26740
273.575	58124
273.635	23515
273.696	32226
273.756	60684
273.816	24775
273.876	15160
273.936	32831
273.997	48967
274.057	15421
274.117	13366
274.177	20627
274.237	80583
274.297	63820
274.358	43231
274.418	51891
274.478	37390
274.538	15035
274.598	15485
274.658	45277
274.718	51782
274.778	20647
274.838	13552
274.898	29696
274.958	72011
275.018	63630
275.078	38185
275.138	17274
275.198	11267
275.258	9087
275.318	11755
275.378	19107
275.438	20346
275.498	15134
275.558	39085
275.618	68734
275.678	42793
275.738	27472
275.798	20307
275.858	12322
275.918	8193
275.978	10321
276.038	8888
276.098	8508
276.157	17426
276.217	44320
276.277	19823
276.337	14978
276.397	9028
276.457	10453
276.517	7994
276.576	7452
276.636	7250
276.696	12978
276.756	27766
276.815	18577
276.875	10047
276.935	11638
276.995	9676
277.055	7111
277.114	7700
277.174	12279
277.234	34188
277.293	16002
277.353	9301
277.413	8259
277.472	8678
277.532	8842
277.592	10580
277.651	33284
277.711	53897
277.771	21930
277.830	68045
277.890	49712
277.950	42714
278.009	106446
278.069	38355
278.128	42227
278.188	53080
278.248	26718
278.307	63598
278.367	34876
278.426	13533
278.486	9949
278.545	8032
278.605	9044
278.664	8175
278.724	9951
278.783	28351
278.843	61001
278.902	18440
278.962	12274
279.021	13652
279.081	16758
279.140	15164
279.199	12951
279.259	13133
279.318	14191
279.378	18394
279.437	33203
279.496	103197
279.556	278861
279.615	197776
279.675	55612
279.734	35764
279.793	51377
279.853	68523
279.912	27915
279.971	17499
280.031	14915
280.090	29330
280.149	47146
280.208	47656
280.268	199361
280.327	173208
280.386	44814
280.445	36435
280.505	32253
280.564	17594
280.623	15053
280.682	22422
280.742	29212
280.801	11629
280.860	9211
280.919	8594
280.978	7815
281.037	7520
281.097	7293
281.156	7086
281.215	7533
281.274	10499
281.333	41558
281.392	29696
281.451	8821
281.510	6790
281.569	7907
281.628	6361
281.688	6480
281.747	8255
281.806	7059
281.865	5503
281.924	6334
281.983	5536
282.042	5056
282.101	5249
282.160	5523
282.219	6083
282.278	7244
282.337	23498
282.396	14647
282.454	7358
282.513	10311
282.572	33289
282.631	18576
282.690	6972
282.749	6456
282.808	8503
282.867	7637
282.926	8137
282.985	5698
283.043	4813
283.102	5682
283.161	8022
283.220	19003
283.279	38836
283.338	12511
283.396	7864
283.455	7957
283.514	8476
283.573	13365
283.631	9112
283.690	7512
283.749	7143
283.808	15685
283.866	17121
283.925	7634
283.984	7736
284.043	9463
284.101	11262
284.160	6771
284.219	9748
284.277	10367
284.336	16011
284.395	46715
284.453	35961
284.512	14872
284.570	18779
284.629	16307
284.688	14516
284.746	14781
284.805	17388
284.863	21871
284.922	27330
284.981	32432
285.039	49415
285.098	88545
285.156	195122
285.215	309275
285.273	292006
285.332	193038
285.390	103613
285.449	66497
285.507	46632
285.566	35013
285.624	26851
285.683	20523
285.741	17043
285.799	14645
285.858	14351
285.916	12226
285.975	10485
286.033	9694
286.091	8694
286.150	7295
286.208	8810
286.267	10052
286.325	9803
286.383	13057
286.442	11823
286.500	7664
286.558	7624
286.616	7286
286.675	9525
286.733	8383
286.791	8561
286.850	8996
286.908	12243
286.966	18309
287.024	8575
287.083	7612
287.141	5545
287.199	7779
287.257	11445
287.315	9239
287.374	9419
287.432	22174
287.490	14241
287.548	10214
287.606	8477
287.664	9145
287.723	12482
287.781	14451
287.839	11136
287.897	13457
287.955	20492
288.013	34661
288.071	80920
288.129	252169
288.187	470665
288.245	255796
288.303	100478
288.361	57037
288.419	41545
288.477	30184
288.535	22122
288.593	16956
288.651	13563
288.709	10163
288.767	9703
288.825	9151
288.883	7640
288.941	7640
288.999	7157
289.057	6326
289.115	6132
289.173	6521
289.231	7000
289.289	8099
289.346	7428
289.404	7313
289.462	12387
289.520	10876
289.578	6566
289.636	5208
289.694	5542
289.751	4504
289.809	5874
289.867	5139
289.925	7726
289.983	8735
290.040	5574
290.098	5522
290.156	6294
290.214	6701
290.271	4937
290.329	4770
290.387	4927
290.444	4598
290.502	3177
290.560	4313
290.617	4592
290.675	5503
290.733	4435
290.790	5668
290.848	4974
290.906	6637
290.963	6389
291.021	5710
291.078	5643
291.136	7359
291.194	17107
291.251	36623
291.309	10992
291.366	5182
291.424	5156
291.481	6033
291.539	6190
291.596	5484
291.654	3963
291.711	4593
291.769	6164
291.826	11542
291.884	7707
291.941	4626
291.999	4243
292.056	5938
292.114	6058
292.171	4708
292.228	5984
292.286	6862
292.343	12413
292.401	15744
292.458	10632
292.515	6358
292.573	8612
292.630	8013
292.687	7552
292.745	6637
292.802	9813
292.859	21396
292.917	37691
292.974	20009
293.031	8333
293.089	6531
293.146	5805
293.203	4394
293.260	4936
293.318	5409
293.375	8219
293.432	6113
293.489	4887
293.546	5914
293.604	10526
293.661	25626
293.718	60249
293.775	28247
293.832	13913
293.889	11407
293.947	10031
294.004	7865
294.061	9443
294.118	18586
294.175	36689
294.232	41116
294.289	16722
294.346	11980
294.403	13427
294.460	10423
294.517	7594
294.574	6266
294.631	6778
294.688	9043
294.745	21415
294.802	69437
294.859	68450
294.916	25213
294.973	14366
295.030	13095
295.087	11324
295.144	8562
295.201	7133
295.258	6956
295.315	9807
295.372	29023
295.429	49761
295.486	21111
295.542	14239
295.599	31895
295.656	50342
295.713	34981
295.770	46351
295.827	18791
295.883	11462
295.940	9405
295.997	15614
296.054	14459
296.111	7958
296.167	7090
296.224	5520
296.281	5451
296.338	5522
296.394	5440
296.451	8103
296.508	22924
296.564	40266
296.621	27106
296.678	55490
296.734	72934
296.791	27789
296.848	15406
296.904	17604
296.961	34256
297.018	54231
297.074	39737
297.131	16198
297.187	13396
297.244	19316
297.301	56785
297.357	90412
297.414	30580
297.470	13766
297.527	10315
297.583	9339
297.640	9142
297.696	7385
297.753	6260
297.809	5063
297.866	5297
297.922	5007
297.979	4982
298.035	7022
298.092	11956
298.148	32747
298.204	28573
298.261	15524
298.317	26529
298.374	64205
298.430	35745
298.486	17866
298.543	14323
298.599	13353
298.656	18526
298.712	29616
298.768	75899
298.824	54744
298.881	18156
298.937	10401
298.993	9749
299.050	11218
299.106	9524
299.162	7746
299.218	8185
299.275	7786
299.331	10619
299.387	17314
299.443	58337
299.500	57885
299.556	22982
299.612	12451
299.668	12753
299.724	15080
299.780	15164
299.837	10957
299.893	16644
299.949	50618
300.005	57982
300.061	47725
300.117	76404
300.173	36139
300.229	18867
300.285	20845
300.341	23471
300.397	12070
300.453	9001
300.510	8031
300.566	9297
300.622	11826
300.678	28565
300.734	51323
300.790	47422
300.845	57343
300.901	35910
300.957	49645
301.013	37199
301.069	14619
301.125	12390
301.181	13085
301.237	9447
301.293	6972
301.349	6952
301.405	7352
301.461	8884
301.516	10864
301.572	10048
301.628	15036
301.684	14060
301.740	21629
301.796	34647
301.851	23334
301.907	38504
301.963	39455
302.019	62268
302.074	151959
302.130	144585
302.186	64440
302.242	27422
302.297	19756
302.353	20345
302.409	35719
302.464	30810
302.520	26219
302.576	59207
302.631	62912
302.687	34004
302.743	15461
302.798	10266
302.854	9511
302.910	9986
302.965	11562
303.021	20667
303.076	18143
303.132	22643
303.187	26205
303.243	13364
303.299	9232
303.354	7984
303.410	7959
303.465	7311
303.521	6536
303.576	7401
303.632	10126
303.687	18488
303.743	51235
303.798	40246
303.853	16651
303.909	10335
303.964	9245
304.020	14086
304.075	20908
304.130	19349
304.186	31333
304.241	32070
304.297	25170
304.352	14335
304.358	13912
304.407	10476
304.449	9720
304.463	9476
304.518	9671
304.539	8937
304.573	7750
304.629	9357
304.630	9491
304.684	16027
304.720	30924
304.739	38359
304.794	55814
304.811	46903
304.850	25289
304.902	13405
304.905	12683
304.960	9910
304.992	11264
305.015	12225
305.071	11479
305.083	11008
305.126	9080
305.173	6017
305.181	5554
305.236	6157
305.264	6576
305.292	7109
305.347	8660
305.354	9002
305.402	11213
305.445	12261
305.457	12479
305.512	13977
305.535	13525
305.567	13028
305.622	15559
305.626	16126
305.678	30039
305.716	55099
305.733	63459
305.788	66209
305.807	57059
305.843	41591
305.897	52499
305.898	52600
305.953	50273
305.988	34363
306.008	25802
306.063	18265
306.078	16612
306.118	12890
306.168	9010
306.173	8716
306.228	7232
306.259	7182
306.283	7298
306.338	7440
306.349	7540
306.393	8296
306.440	11013
306.448	11370
306.503	10786
306.530	11531
306.558	15366
306.613	32018
306.620	34109
306.668	46342
306.711	58410
306.723	59032
306.778	43763
306.801	33378
306.833	22045
306.888	12728
306.892	12301
306.943	9789
306.982	8803
306.997	8616
307.052	8487
307.072	8532
307.107	9627
307.162	12815
307.163	12853
307.217	17841
307.253	21292
307.272	21856
307.327	22191
307.343	20964
307.381	18418
307.434	17042
307.436	17554
307.491	34397
307.524	49279
307.546	52729
307.600	51840
307.614	46946
307.655	29688
307.704	17734
307.710	17643
307.765	21111
307.795	25610
307.819	30778
307.874	46948
307.885	47452
307.929	39183
307.975	33655
307.984	35454
308.038	54187
308.065	68853
308.093	112901
308.148	222287
308.156	243227
308.202	343226
308.246	401024
308.257	387989
308.312	236852
308.336	174759
308.366	133814
308.421	80233
308.426	75514
308.475	51535
308.517	37662
308.530	35441
308.585	29972
308.607	28159
308.639	27865
308.694	28838
308.697	29040
308.748	46513
308.787	63664
308.803	62831
308.857	49838
308.877	43878
308.912	40271
308.967	40291
308.967	40298
309.021	56402
309.058	70695
309.076	90357
309.130	159393
309.148	185763
309.185	295092
309.238	473858
309.239	475419
309.293	493715
309.328	472227
309.348	418268
309.402	240363
309.418	192983
309.457	139730
309.508	84169
309.511	82874
309.566	68415
309.598	61860
309.620	65055
309.674	75764
309.688	78835
309.729	74629
309.778	65520
309.783	64289
309.837	49196
309.868	41680
309.892	48478
309.946	67301
309.959	73313
310.001	93145
310.049	109643
310.055	105965
310.109	63906
310.139	40825
310.163	33703
310.218	22306
310.229	20409
310.272	17402
310.319	13984
310.326	13701
310.381	12509
310.409	11852
310.435	11559
310.489	11132
310.499	11046
310.543	10981
310.589	11349
310.598	11365
310.652	11365
310.679	11084
310.706	10053
310.760	8095
310.769	7802
310.814	7068
310.859	6432
310.868	6546
310.923	7257
310.948	7525
310.977	8393
311.031	10503
311.038	10762
311.085	9867
311.128	8687
311.139	8676
311.193	8683
311.218	8718
311.247	8023
311.301	6631
311.308	6469
311.356	7067
311.398	7543
311.410	7380
311.464	6663
311.488	6282
311.518	6609
311.572	7260
311.578	7336
311.626	10016
311.668	12312
311.680	12376
311.734	12521
311.758	12530
311.788	12327
311.842	11993
311.847	11936
311.896	14922
311.937	17534
311.950	17457
312.004	16929
312.027	16635
312.058	14381
312.112	10327
312.117	9905
312.165	8617
312.207	7494
312.297	12678
312.386	9932
312.476	9332
312.566	20525
312.656	10361
312.745	6772
312.835	7298
312.925	9535
313.015	9813
313.104	10220
313.194	8003
313.284	7809
313.374	10924
313.463	10084
313.553	7053
313.643	6821
313.732	5659
313.822	6707
313.912	7424
314.001	8286
314.091	10469
314.180	13825
314.270	12595
314.360	12955
314.449	11675
314.539	7866
314.628	7492
314.718	9051
314.808	11458
314.897	7563
314.987	7936
315.076	9885
315.166	13033
315.255	11639
315.345	11709
315.434	11552
315.524	10477
315.613	12186
315.703	16190
315.792	20295
315.881	46590
315.971	21016
316.060	22929
316.150	34020
316.239	35798
316.328	14053
316.418	7499
316.507	8112
316.597	11564
316.686	10755
316.775	17119
316.865	37214
316.954	9000
317.043	5776
317.133	8211
317.222	6852
317.311	7321
317.400	6352
317.490	11363
317.579	12532
317.668	9365
317.757	13875
317.847	28505
317.936	82339
318.025	43785
318.114	24347
318.203	17707
318.293	25637
318.382	54528
318.471	37613
318.560	51656
318.649	90099
318.738	21722
318.828	14081
318.917	16406
319.006	18902
319.095	45510
319.184	112561
319.273	63436
319.362	31722
319.451	12612
319.540	12188
319.629	26112
319.718	43211
319.807	22294
319.896	39547
319.985	140111
320.074	53139
320.163	15399
320.252	25025
320.341	17956
320.430	16287
320.519	22226
320.608	14096
320.697	11772
320.786	11902
320.875	14844
320.964	18611
321.053	29586
321.142	42366
321.230	46005
321.319	33091
321.408	73016
321.497	31705
321.586	31129
321.675	37696
321.764	37721
321.852	24800
321.941	43821
322.030	30914
322.119	31557
322.207	78539
322.296	55218
322.385	28645
322.474	32068
322.562	92103
322.651	47716
322.740	32773
322.829	46331
322.917	49010
323.006	29015
323.095	24745
323.183	20833
323.272	31054
323.361	53629
323.449	158101
323.538	53989
323.626	105485
323.715	66701
323.804	27926
323.892	96036
323.981	54016
324.069	19018
324.158	52287
324.246	50285
324.335	17281
324.424	27554
324.512	11644
324.601	14628
324.689	26702
324.778	45883
324.866	36683
324.954	12017
325.043	11549
325.131	23278
325.220	38470
325.308	44599
325.397	33147
325.485	20612
325.574	6989
325.662	7243
325.750	9046
325.839	6358
325.927	6372
326.015	10177
326.104	17262
326.192	24830
326.280	8642
326.369	8612
326.457	12282
326.545	21434
326.634	10397
326.722	5402
326.810	6796
326.898	7340
326.987	9249
327.075	22126
327.163	22068
327.251	12827
327.340	17324
327.428	22843
327.516	7451
327.604	8239
327.692	8595
327.781	10040
327.869	18360
327.957	12678
328.045	11487
328.133	6429
328.221	10234
328.309	9249
328.397	6821
328.485	9915
328.574	14518
328.662	48533
328.750	28777
328.838	12236
328.926	7564
329.014	7061
329.102	11055
329.190	28003
329.278	19411
329.366	6568
329.454	6033
329.542	6486
329.630	6009
329.718	7508
329.806	10186
329.893	11392
329.981	13072
330.069	24936
330.157	85269
330.245	221781
330.333	120737
330.421	25472
330.509	20066
330.597	59401
330.684	41193
330.772	14191
330.860	18416
330.948	23747
331.036	11412
331.123	5386
331.211	6503
331.299	9192
331.387	19619
331.475	35940
331.562	11724
331.650	6842
331.738	8069
331.825	11654
331.913	6015
332.001	6077
332.089	9736
332.176	20478
332.264	49426
332.352	38174
332.439	11538
332.527	8623
332.614	7230
332.702	10172
332.790	8390
332.877	22689
332.965	46674
333.052	14055
333.140	13959
333.228	30415
333.315	10568
333.403	10430
333.490	28389
333.578	25288
333.665	33910
333.753	19501
333.840	8230
333.928	11499
334.015	30923
334.103	48260
334.190	144234
334.278	37877
334.365	14637
334.452	11734
334.540	10177
334.627	12901
334.715	18866
334.802	37914
334.889	185341
334.977	179138
335.064	22787
335.151	11674
335.239	11856
335.326	17602
335.413	68235
335.501	95811
335.588	15729
335.675	10419
335.762	12927
335.850	21112
335.937	18479
336.024	46295
336.111	183088
336.199	71899
336.286	15388
336.373	9379
336.460	6999
336.547	7007
336.635	9507
336.722	9548
336.809	8347
336.896	14339
336.983	42188
337.070	101904
337.157	148297
337.245	120364
337.332	83126
337.419	13044
337.506	8542
337.593	10841
337.680	32015
337.767	93354
337.854	29167
337.941	30587
338.028	38941
338.115	15013
338.202	15694
338.289	34880
338.376	116843
338.463	37842
338.550	55235
338.637	60594
338.724	22065
338.811	34195
338.898	8523
338.984	7068
339.071	9303
339.158	11699
339.245	29185
339.332	19214
339.419	24505
339.506	22922
339.593	5538
339.679	6185
339.766	6175
339.853	9257
339.940	20250
340.027	7813
340.113	7382
340.200	10882
340.287	8749
340.374	10723
340.460	19588
340.547	9792
340.634	15194
340.720	57267
340.807	33812
340.894	7244
340.980	6689
341.067	6761
341.154	8164
341.240	13742
341.327	28833
341.414	11154
341.500	12025
341.587	7365
341.674	7450
341.760	18196
341.847	22748
341.933	7917
342.020	3916
342.106	4281
342.193	7731
342.279	15460
342.366	11011
342.452	19360
342.539	11814
342.625	25438
342.712	61875
342.798	26713
342.885	10551
342.971	5076
343.058	3911
343.144	4676
343.230	5611
343.317	6131
343.403	5876
343.490	4651
343.576	4593
343.662	6138
343.749	7584
343.835	11122
343.921	20041
344.008	104236
344.094	228609
344.180	53353
344.267	21965
344.353	67396
344.439	72159
344.525	34048
344.612	26494
344.698	30002
344.784	17558
344.870	8926
344.957	7267
345.043	12344
345.129	9256
345.215	17671
345.301	10679
345.387	9007
345.474	4873
345.560	5365
345.646	7786
345.732	6786
345.818	8272
345.904	8217
345.990	8972
346.076	8979
346.162	18280
346.249	8066
346.335	5689
346.421	8400
346.507	29807
346.593	94092
346.679	23867
346.765	7423
346.851	6156
346.937	7621
347.023	6679
347.108	7871
347.194	6714
347.280	7382
347.366	9815
347.452	29551
347.538	113712
347.624	82914
347.710	67072
347.796	12742
347.882	7063
347.967	5888
348.053	8928
348.139	7115
348.225	5683
348.311	5711
348.397	5764
348.482	7044
348.568	9408
348.654	5215
348.740	6465
348.825	7647
348.911	13337
348.997	54178
349.083	102208
349.168	18430
349.254	7981
349.340	8108
349.425	5247
349.511	9164
349.597	11498
349.682	21387
349.768	65402
349.854	31307
349.939	7497
350.025	5981
350.110	7970
350.196	5978
350.282	4558
350.367	4352
350.453	10856
350.538	12680
350.624	9920
350.709	8408
350.795	4601
350.880	5346
350.966	7084
351.051	12070
351.137	9310
351.222	7201
351.308	20702
351.393	58364
351.479	17057
351.564	7225
351.649	6333
351.735	5350
351.820	4693
351.906	6942
351.991	9892
352.076	37028
352.162	55820
352.247	12343
352.332	8889
352.418	17567
352.503	22221
352.588	79033
352.673	67004
352.759	16149
352.844	8903
352.929	9588
353.014	12857
353.100	7916
353.185	11205
353.270	21653
353.355	22007
353.441	8154
353.526	8934
353.611	20668
353.696	23161
353.781	13778
353.866	6951
353.952	7894
354.037	19785
354.122	44510
354.207	40004
354.292	16052
354.377	7193
354.462	6631
354.547	9396
354.632	8987
354.717	11205
354.802	12149
354.887	6247
354.972	5118
355.057	5096
355.142	4343
355.227	8074
355.312	14572
355.397	30100
355.482	69434
355.567	35696
355.652	24879
355.737	26938
355.822	79528
355.907	65684
355.991	11374
356.076	6341
356.161	5640
356.246	5370
356.331	8090
356.416	20993
356.501	128679
356.585	131437
356.670	21694
356.755	13749
356.840	20210
356.924	87400
357.009	296527
357.094	115371
357.179	27081
357.263	17226
357.348	16915
357.433	17049
357.517	15160
357.602	13455
357.687	11399
357.771	18014
357.856	60567
357.941	38294
358.025	69693
358.110	281525
358.195	131644
358.279	24242
358.364	17988
358.448	55884
358.533	145896
358.617	105539
358.702	104264
358.787	39449
358.871	22025
358.956	18124
359.040	7784
359.125	6012
359.209	7741
359.294	28269
359.378	49659
359.462	20729
359.547	10935
359.631	7543
359.716	6271
359.800	6506
359.885	11020
359.969	8327
360.053	8037
360.138	8226
360.222	12212
360.306	22467
360.391	17335
360.475	33444
360.559	73451
360.644	61826
360.728	44549
360.812	71055
360.896	192520
360.981	79662
361.065	40688
361.149	12422
361.233	11046
361.318	9681
361.402	11671
361.486	10257
361.570	7911
361.654	11488
361.739	30630
361.823	125293
361.907	188038
361.991	36311
362.075	21180
362.159	45055
362.243	31456
362.327	25491
362.411	25595
362.495	17672
362.580	11642
362.664	8447
362.748	8951
362.832	10820
362.916	19232
363.000	48045
363.084	140393
363.168	217618
363.252	54168
363.336	20790
363.420	27711
363.503	94666
363.587	112488
363.671	22735
363.755	15345
363.839	21526
363.923	12716
364.007	24046
364.091	29224
364.175	40676
364.258	157077
364.342	105775
364.426	77652
364.510	43671
364.594	28928
364.677	40033
364.761	165728
364.845	118653
364.929	40092
365.013	30953
365.096	26264
365.180	33764
365.264	42860
365.347	153785
365.431	65395
365.515	16703
365.598	9932
365.682	8637
365.766	14352
365.849	18510
365.933	10827
366.017	13023
366.100	11210
366.184	5532
366.267	6897
366.351	6983
366.435	6220
366.518	4350
366.602	5628
366.685	6204
366.769	8218
366.852	14680
366.936	25116
367.019	14999
367.103	11856
367.186	20094
367.270	7520
367.353	5214
367.436	6030
367.520	5241
367.603	8462
367.687	14231
367.770	27239
367.853	15482
367.937	47265
368.020	77810
368.104	20105
368.187	19254
368.270	26171
368.353	24366
368.437	34376
368.520	76419
368.603	46299
368.687	58427
368.770	108713
368.853	28652
368.936	26261
369.020	23717
369.103	11238
369.186	7221
369.269	9061
369.352	16690
369.436	25023
369.519	16906
369.602	8503
369.685	8745
369.768	10169
369.851	8482
369.934	5588
370.018	9468
370.101	21770
370.184	16670
370.267	13165
370.350	23817
370.433	34784
370.516	84442
370.599	101431
370.682	32484
370.765	55021
370.848	68677
370.931	132911
371.014	50397
371.097	11237
371.180	7983
371.263	5625
371.346	4182
371.429	6320
371.511	6799
371.594	13818
371.677	20488
371.760	23124
371.843	21630
371.926	98207
372.009	217313
372.091	71200
372.174	50192
372.257	118367
372.340	46302
372.423	33485
372.505	36577
372.588	17796
372.671	39413
372.754	130522
372.836	64799
372.919	44317
373.002	86677
373.085	28331
373.167	21724
373.250	54546
373.332	119005
373.415	155911
373.498	312681
373.580	116470
373.663	142487
373.746	191918
373.828	47104
373.911	21497
373.993	22994
374.076	84009
374.159	80751
374.241	36636
374.324	108765
374.406	73923
374.489	93035
374.571	249932
374.654	104786
374.736	52795
374.819	155736
374.901	226185
374.983	229072
375.066	42818
375.148	17473
375.231	69774
375.313	133214
375.395	48346
375.478	12733
375.560	9140
375.643	13625
375.725	51533
375.807	205359
375.890	164488
375.972	72079
376.054	39369
376.136	61731
376.219	28293
376.301	60158
376.383	179280
376.465	69148
376.548	43893
376.630	54813
376.712	152784
376.794	70316
376.877	10699
376.959	6439
377.041	8309
377.123	16731
377.205	20880
377.287	5840
377.369	5803
377.452	6798
377.534	6037
377.616	6578
377.698	6248
377.780	5285
377.862	6919
377.944	7004
378.026	4523
378.108	4810
378.190	5526
378.272	5010
378.354	4510
378.436	4212
378.518	10733
378.600	36462
378.682	32967
378.764	74650
378.846	59110
378.928	16929
379.010	22498
379.091	13030
379.173	7251
379.255	6471
379.337	11442
379.419	36372
379.501	107689
379.583	44625
379.664	12000
379.746	27691
379.828	70855
379.910	99148
379.991	86929
380.073	17386
380.155	11129
380.237	8143
380.318	6846
380.400	7609
380.482	17388
380.564	26872
380.645	23021
380.727	22275
380.809	14219
380.890	10657
380.972	7779
381.053	7948
381.135	10061
381.217	25468
381.298	76249
381.380	38862
381.461	34707
381.543	153459
381.624	186189
381.706	35609
381.787	19727
381.869	21102
381.951	65028
382.032	237925
382.113	149139
382.195	35665
382.276	22230
382.358	46569
382.439	129891
382.521	148426
382.602	227094
382.684	108831
382.765	198163
382.846	214262
382.928	266841
383.009	152416
383.090	123644
383.172	414674
383.253	581758
383.334	218515
383.416	216460
383.497	114181
383.578	59635
383.659	111448
383.741	385778
383.822	887477
383.903	458422
383.984	170290
384.066	263554
384.147	165801
384.228	36123
384.309	26575
384.390	20298
384.471	15765
384.553	16446
384.634	21837
384.715	23211
384.796	12812
384.877	18069
384.958	67148
385.039	83259
385.120	29422
385.201	14585
385.282	17344
385.363	18747
385.444	16363
385.525	32312
385.606	105145
385.687	87453
385.768	21843
385.849	27758
385.930	108294
386.011	182824
386.092	50770
386.173	14128
386.254	10391
386.335	12386
386.416	14348
386.496	44963
386.577	72913
386.658	28065
386.739	16890
386.820	16058
386.901	12820
386.981	12338
387.062	9248
387.143	19084
387.224	71303
387.304	65957
387.385	22151
387.466	15697
387.547	18844
387.627	14258
387.708	28168
387.789	125672
387.869	154079
387.950	41585
388.031	9544
388.111	9023
388.192	23893
388.273	33517
388.353	20210
388.434	13518
388.514	27292
388.595	116314
388.676	148356
388.756	72473
388.837	67357
388.917	44291
388.998	10568
389.078	11174
389.159	10348
389.239	9591
389.320	15142
389.400	13662
389.480	27228
389.561	75337
389.641	37630
389.722	14136
389.802	22757
389.883	33013
389.963	89435
390.043	58928
390.124	20210
390.204	29264
390.284	85966
390.365	58205
390.445	78433
390.525	259424
390.605	233116
390.686	55806
390.766	19118
390.846	10858
390.927	7570
391.007	9084
391.087	10057
391.167	11453
391.247	8688
391.328	15880
391.408	20203
391.488	15011
391.568	6875
391.648	11366
391.728	15806
391.808	15780
391.888	17756
391.969	40390
392.049	65961
392.129	30510
392.209	32518
392.289	84801
392.369	47966
392.449	36896
392.529	25109
392.609	21319
392.689	27043
392.769	83901
392.849	73256
392.929	50018
393.009	117945
393.089	91952
393.169	74153
393.248	239178
393.328	877346
393.408	923636
393.488	248378
393.568	71196
393.648	36895
393.728	25385
393.807	20660
393.887	20529
393.967	19885
394.047	24877
394.127	33423
394.206	59891
394.286	201955
394.366	713002
394.446	764930
394.525	239125
394.605	67582
394.685	42880
394.764	60331
394.844	95979
394.924	70218
395.003	26972
395.083	19435
395.163	19168
395.242	17511
395.322	18159
395.402	13570
395.481	19802
395.561	44017
395.640	107405
395.720	85415
395.799	124844
395.879	111505
395.958	96509
396.038	306877
396.117	911550
396.197	979324
396.276	383949
396.356	133899
396.435	79281
396.515	52149
396.594	50368
396.673	77979
396.753	267794
396.832	821205
396.912	607509
396.991	151210
397.070	43489
397.150	24397
397.229	18918
397.308	21045
397.388	30806
397.467	19860
397.546	12004
397.625	9841
397.705	13945
397.784	13634
397.863	8986
397.942	6798
398.022	9175
398.101	33398
398.180	92086
398.259	47087
398.338	13852
398.417	9847
398.497	7244
398.576	8112
398.655	6359
398.734	5545
398.813	7517
398.892	29387
398.971	102363
399.050	52495
399.129	7532
399.208	5309
399.287	5998
399.366	5336
399.445	5898
399.524	5561
399.603	5392
399.682	11772
399.761	34764
399.840	111069
399.919	85749
399.998	13049
400.077	4483
400.156	3942
400.235	7934
400.313	5419
400.392	8325
400.471	37624
400.550	62890
400.629	17147
400.708	8491
400.786	7913
400.865	20580
400.944	22703
401.023	11904
401.102	3955
401.180	4146
401.259	4944
401.338	6701
401.416	8673
401.495	7632
401.574	5964
401.652	5186
401.731	8690
401.810	5809
401.888	4180
401.967	3656
402.046	5665
402.124	8346
402.203	10333
402.281	7102
402.360	9789
402.438	26110
402.517	18410
402.596	7206
402.674	6579
402.753	4890
402.831	4590
402.910	5750
402.988	17553
403.066	54385
403.145	32908
403.223	19249
403.302	44978
403.380	31876
403.459	29305
403.537	13208
403.615	6369
403.694	3275
403.772	4809
403.850	4043
403.929	4410
404.007	5196
404.085	10050
404.164	10922
404.242	10925
404.320	38418
404.398	122222
404.477	139443
404.555	217567
404.633	190192
404.711	99302
404.789	67800
404.868	18923
404.946	8019
405.024	5748
405.102	4979
405.180	4613
405.258	3477
405.336	4896
405.415	4915
405.493	9934
405.571	8419
405.649	3900
405.727	3918
405.805	7132
405.883	6869
405.961	7706
406.039	8857
406.117	4767
406.195	9785
406.273	44286
406.351	164377
406.429	98130
406.507	16448
406.585	6088
406.663	6700
406.740	8245
406.818	8249
406.896	4469
406.974	5874
407.052	14842
407.130	94707
407.208	134786
407.285	27438
407.363	6810
407.441	6461
407.519	5450
407.596	7342
407.674	24941
407.752	90658
407.830	76009
407.907	20654
407.985	6958
408.063	4903
408.141	3618
408.218	7625
408.296	6822
408.373	4975
408.451	6176
408.529	6620
408.606	3210
408.684	3266
408.762	2548
408.839	1983
408.917	1579
408.994	2907
409.072	2698
409.149	2888
409.227	5951
409.304	7255
409.382	4197
409.459	5659
409.537	8168
409.614	7686
409.692	5657
409.769	5711
409.846	7845
409.924	10942
410.001	9612
410.079	8164
410.156	6290
410.233	7283
410.311	6950
410.388	4351
410.465	6093
410.543	6648
410.620	4210
410.697	5126
410.775	6562
410.852	2746
410.929	6757
411.006	8196
411.083	6116
411.161	14925
411.238	15512
411.315	7604
411.392	3793
411.469	7982
411.547	8904
411.624	4464
411.701	4396
411.778	6376
411.855	13911
411.932	7448
412.009	2891
412.086	4068
412.163	5355
412.240	6017
412.317	7526
412.394	7998
412.471	3765
412.548	2511
412.625	3578
412.702	6181
412.779	12063
412.856	8469
412.933	3051
413.010	3937
413.087	8715
413.164	36861
413.241	51401
413.318	13040
413.395	8681
413.471	12561
413.548	6274
413.625	4359
413.702	5164
413.779	4538
413.855	2312
413.932	1371
414.009	1707
414.086	2478
414.162	2183
414.239	7304
414.316	33653
414.393	77145
414.469	27913
414.546	4882
414.623	2187
414.699	3049
414.776	4341
414.853	2477
414.929	4177
415.006	3536
415.082	4545
415.159	3413
415.236	2581
415.312	3761
415.389	8154
415.465	11495
415.542	6484
415.618	4292
415.695	7400
415.771	5949
415.848	4109
415.924	4090
416.000	3880
416.077	3085
416.153	616
416.230	946
416.306	2399
416.383	2969
416.459	2536
416.535	1823
416.612	2145
416.688	2374
416.764	2445
416.841	2639
416.917	2744
416.993	2487
417.069	4140
417.146	7849
417.222	13074
417.298	7211
417.374	3544
417.451	4366
417.527	5742
417.603	6431
417.679	4342
417.755	3545
417.831	1843
417.908	1991
417.984	2103
418.060	1680
418.136	9421
418.212	14377
418.288	5153
418.364	2919
418.440	3117
418.516	6053
418.592	7953
418.668	15657
418.744	23000
418.820	17380
418.896	4248
418.972	2152
419.048	2438
419.124	10083
419.200	8498
419.276	2372
419.352	1515
419.428	2362
419.504	3193
419.579	5302
419.655	3971
419.731	4172
419.807	15165
419.883	28661
419.959	20670
420.034	6285
420.110	11661
420.186	48099
420.262	37657
420.337	7949
420.413	5214
420.489	3688
420.565	2966
420.640	2717
420.716	3633
420.792	2140
420.867	3923
420.943	2667
421.019	7175
421.094	6323
421.170	2812
421.245	2154
421.321	3702
421.397	5076
421.472	15872
421.548	48217
421.623	29913
421.699	8285
421.774	7153
421.850	6752
421.925	11167
422.001	11039
422.076	7572
422.152	10212
422.227	15336
422.302	19126
422.378	26386
422.453	47997
422.529	115131
422.604	337601
422.679	547292
422.755	362929
422.830	130502
422.905	51038
422.981	28154
423.056	17859
423.131	13873
423.207	10550
423.282	10234
423.357	18524
423.432	12197
423.508	11580
423.583	24063
423.658	19991
423.733	7769
423.808	8782
423.883	10250
423.959	7721
424.034	5633
424.109	4838
424.184	3290
424.259	3250
424.334	3188
424.409	2257
424.484	3320
424.559	4731
424.634	3250
424.709	5682
424.784	7406
424.859	4723
424.934	7900
425.009	31656
425.084	54790
425.159	20903
425.234	4944
425.309	3141
425.384	14644
425.459	24440
425.534	8224
425.609	3171
425.683	2156
425.758	2361
425.833	2746
425.908	5176
425.983	19701
426.058	57330
426.132	25307
426.207	5470
426.282	7742
426.357	7545
426.431	2880
426.506	2668
426.581	2975
426.655	3019
426.730	2622
426.805	2986
426.879	3747
426.954	3960
427.029	8472
427.103	53173
427.178	134566
427.253	60056
427.327	8123
427.402	10124
427.476	26894
427.551	13873
427.625	5659
427.700	5277
427.774	1846
427.849	4770
427.923	2335
427.998	2909
428.072	3769
428.147	9591
428.221	39213
428.296	108880
428.370	56567
428.444	9654
428.519	9499
428.593	19155
428.667	15869
428.742	19477
428.816	20893
428.890	69925
428.965	110917
429.039	39355
429.113	23045
429.188	9785
429.262	4002
429.336	8212
429.410	25378
429.485	16924
429.559	15965
429.633	13006
429.707	5556
429.781	14391
429.855	74939
429.930	113564
430.004	61439
430.078	90956
430.152	85176
430.226	156053
430.300	153930
430.374	26141
430.448	9797
430.522	31403
430.596	91377
430.670	57657
430.744	129789
430.818	187781
430.892	42016
430.966	7152
431.040	4642
431.114	2457
431.188	1866
431.262	3405
431.336	2911
431.410	9779
431.484	24314
431.557	16929
431.631	3179
431.705	4498
431.779	20457
431.853	91949
431.927	65717
432.000	9328
432.074	3693
432.148	4314
432.222	4211
432.295	2635
432.369	2649
432.443	7461
432.516	52106
432.590	135470
432.664	48782
432.737	6604
432.811	1413
432.885	1600
432.958	1525
433.032	2004
433.106	1014
433.179	1105
433.253	1031
433.326	1655
433.400	701
433.473	2255
433.547	1296
433.620	2420
433.694	5321
433.767	6802
433.841	2418
433.914	1701
433.988	2122
434.061	2485
434.134	1926
434.208	898
434.281	746
434.355	1529
434.428	1766
434.501	1921
434.575	2006
434.648	1412
434.721	2053
434.795	1351
434.868	1180
434.941	1122
435.014	1021
435.088	1873
435.161	2848
435.234	6506
435.307	7747
435.381	3179
435.454	3117
435.527	3269
435.600	2963
435.673	4090
435.746	2366
435.819	2695
435.892	2184
435.966	2092
436.039	2119
436.112	3078
436.185	1434
436.258	997
436.331	513
436.404	840
436.477	547
436.550	1080
436.623	805
436.696	1254
436.769	2241
436.842	1258
436.915	2439
436.987	4080
437.060	1482
437.133	943
437.206	1055
437.279	2034
437.352	2172
437.425	1239
437.498	2645
437.570	6665
437.643	6211
437.716	1883
437.789	1499
437.861	6627
437.934	19812
438.007	9113
438.080	1845
438.152	3670
438.225	9398
438.298	68612
438.370	183202
438.443	74500
438.516	19214
438.588	5504
438.661	2049
438.734	1783
438.806	2578
438.879	3335
438.951	5250
439.024	9853
439.096	3482
439.169	1608
439.241	1431
439.314	1555
439.386	3943
439.459	6611
439.531	11554
439.604	4969
439.676	1157
439.749	1293
439.821	1360
439.893	2458
439.966	2093
440.038	3959
440.110	4449
440.183	2267
440.255	1812
440.327	5654
440.400	26893
440.472	111699
440.544	70412
440.617	10230
440.689	8366
440.761	9769
440.833	15701
440.905	11070
440.978	1766
441.050	613
441.122	1234
441.194	1619
441.266	1773
441.338	1956
441.411	5004
441.483	32846
441.555	46839
441.627	10488
441.699	6080
441.771	5447
441.843	2572
441.915	1396
441.987	1727
442.059	2570
442.131	2521
442.203	5402
442.275	5920
442.347	5958
442.419	8534
442.491	38383
442.563	90088
442.635	44973
442.706	25993
442.778	17946
442.850	3989
442.922	3493
442.994	4208
443.066	6124
443.137	5412
443.209	5189
443.281	7125
443.353	15271
443.425	54471
443.496	177917
443.568	165715
443.640	61391
443.711	15320
443.783	6546
443.855	4723
443.926	3584
443.998	2753
444.070	3512
444.141	4391
444.213	6494
444.285	6403
444.356	6971
444.428	6281
444.499	2633
444.571	1873
444.642	2522
444.714	2784
444.785	5996
444.857	7174
444.928	15886
445.000	9569
445.071	12147
445.143	13263
445.214	8985
445.285	15570
445.357	42006
445.428	130427
445.500	286249
445.571	170372
445.642	83094
445.714	34818
445.785	29074
445.856	9788
445.928	8407
445.999	7992
446.070	6033
446.141	5167
446.213	6498
446.284	3822
446.355	3756
446.426	2495
446.497	2067
446.569	5542
446.640	7744
446.711	6248
446.782	2825
446.853	4384
446.924	3916
446.995	3237
447.066	3208
447.138	5657
447.209	4024
447.280	766
447.351	1029
447.422	1083
447.493	3388
447.564	3411
447.635	5686
447.706	2941
447.777	1385
447.847	1050
447.918	1536
447.989	2942
448.060	4296
448.131	10683
448.202	8794
448.273	6310
448.344	3350
448.414	2245
448.485	2273
448.556	1271
448.627	753
448.698	1320
448.768	1150
448.839	1389
448.910	5835
448.981	5244
449.051	2261
449.122	969
449.193	1290
449.263	1140
449.334	1443
449.405	3931
449.475	7898
449.546	5132
449.616	6137
449.687	4944
449.758	2707
449.828	2037
449.899	1354
449.969	1488
450.040	1682
450.110	3752
450.181	3637
450.251	606
450.322	1898
450.392	2219
450.463	1378
450.533	1369
450.604	1963
450.674	1649
450.744	1337
450.815	1228
450.885	1933
450.955	1162
451.026	1591
451.096	1796
451.166	2913
451.237	6313
451.307	15270
451.377	6119
451.447	1707
451.518	1146
451.588	1050
451.658	2051
451.728	4238
451.799	16557
451.869	17889
451.939	3895
452.009	2217
452.079	2242
452.149	2307
452.219	5224
452.289	19531
452.360	13152
452.430	4297
452.500	3460
452.570	4704
452.640	5818
452.710	13658
452.780	20743
452.850	16045
452.920	14801
452.990	5529
453.060	3473
453.129	5278
453.199	6715
453.269	23927
453.339	46258
453.409	68635
453.479	71474
453.549	96543
453.619	102578
453.688	35595
453.758	6256
453.828	3238
453.898	2362
453.968	2592
454.037	1590
454.087	1683
454.107	1711
454.168	1878
454.177	1885
454.247	1579
454.249	1610
454.316	2063
454.330	2171
454.386	2513
454.411	5307
454.456	9851
454.492	11702
454.525	13358
454.574	7040
454.595	4297
454.655	2718
454.665	2471
454.734	3600
454.736	3685
454.804	6066
454.817	8173
454.873	16427
454.898	17217
454.943	18316
454.979	13095
455.013	8436
455.060	4826
455.082	3439
455.141	4275
455.152	4463
455.221	14662
455.222	14921
455.291	33687
455.303	37721
455.360	51555
455.384	78131
455.430	122289
455.465	86590
455.499	53259
455.546	29914
455.569	19552
455.627	11517
455.638	10116
455.707	3475
455.708	3483
455.777	2664
455.789	2707
455.846	2818
455.869	2602
455.916	2189
455.950	2364
455.985	2548
456.031	2565
456.054	2471
456.112	2015
456.124	2004
456.193	1945
456.193	1925
456.262	2531
456.274	2763
456.332	3785
456.355	4055
456.401	4388
456.436	3796
456.470	3099
456.516	2180
456.540	1853
456.597	1418
456.609	1304
456.678	2063
456.678	2055
456.747	1562
456.759	1518
456.817	1065
456.840	1233
456.886	1675
456.920	1705
456.955	1692
457.001	2294
457.024	2710
457.082	3035
457.093	3063
457.162	4696
457.163	4716
457.232	5339
457.243	4997
457.301	3033
457.324	2584
457.370	1863
457.405	2098
457.439	2412
457.485	2515
457.508	2658
457.566	3059
457.577	3104
457.646	3283
457.647	3310
457.715	6098
457.727	6377
457.784	8392
457.808	10169
457.853	12609
457.889	15508
457.922	16108
457.969	12510
457.991	12696
458.050	14384
458.060	14671
458.129	20720
458.130	20943
458.198	22514
458.211	21116
458.267	14320
458.292	10673
458.336	6923
458.372	5997
458.405	6936
458.453	9741
458.474	12123
458.533	20526
458.543	21307
458.611	34730
458.614	35022
458.680	26116
458.694	21934
458.749	11920
458.775	8833
458.818	5789
458.855	4838
458.887	4120
458.936	3608
458.955	3520
459.016	3551
459.024	3511
459.093	3379
459.097	3356
459.162	3160
459.177	3418
459.230	4452
459.257	4800
459.299	5065
459.338	4863
459.368	4689
459.418	5385
459.437	5422
459.499	4786
459.505	4747
459.574	3088
459.579	3077
459.643	3205
459.659	3210
459.711	3461
459.740	3749
459.780	3879
459.820	4124
459.849	4374
459.900	4647
459.917	4772
459.981	5397
459.986	5392
460.054	4745
460.061	4708
460.123	4728
460.141	4747
460.191	5492
460.222	6036
460.260	6439
460.302	7658
460.328	7825
460.382	6771
460.397	6649
460.462	5992
460.465	6102
460.534	9437
460.543	9923
460.602	30378
460.623	38628
460.671	59569
460.703	81503
460.739	82934
460.783	75764
460.808	65133
460.864	15828
460.876	11328
460.944	5585
460.945	5520
461.013	4552
461.024	4463
461.081	4692
461.104	4969
461.150	4802
461.184	4583
461.218	4572
461.264	4331
461.286	4313
461.345	4422
461.355	4369
461.423	3840
461.425	3827
461.491	3595
461.505	3738
461.559	6953
461.585	8148
461.628	11543
461.665	15604
461.696	18161
461.745	24342
461.764	22495
461.825	9257
461.832	8769
461.901	4771
461.905	4706
461.969	4432
461.985	4346
462.037	4849
462.065	4990
462.105	4833
462.145	4981
462.173	6638
462.225	9741
462.241	10429
462.305	14421
462.310	14221
462.378	10594
462.385	9777
462.446	5167
462.465	4393
462.514	4748
462.545	4993
462.582	4586
462.625	4322
462.650	4401
462.705	4244
462.718	4282
462.785	4862
462.786	4892
462.854	6064
462.865	6375
462.922	8097
462.945	8942
462.990	7832
463.025	5939
463.058	5102
463.104	4305
463.126	3956
463.184	3478
463.194	3606
463.262	4410
463.264	4433
463.330	4276
463.344	4268
463.398	5060
463.424	5440
463.466	5132
463.504	4750
463.533	4893
463.583	5286
463.601	5450
463.663	5606
463.669	5658
463.737	6689
463.743	6794
463.805	10436
463.823	11379
463.873	15553
463.903	18527
463.940	20836
463.982	23892
464.008	20311
464.062	10188
464.076	9333
464.142	5321
464.144	5292
464.211	5135
464.221	5157
464.279	5664
464.301	5808
464.347	6048
464.381	6290
464.414	6421
464.461	6450
464.482	6976
464.540	8824
464.550	8768
464.617	7706
464.620	7668
464.685	7692
464.699	7673
464.753	9556
464.779	10586
464.820	11694
464.859	12660
464.888	12092
464.938	11096
464.956	11075
465.018	10701
465.023	10602
465.091	9130
465.098	8969
465.158	9382
465.177	9560
465.226	9171
465.257	8808
465.293	9064
465.336	9451
465.361	9910
465.416	10889
465.428	11437
465.495	14261
465.496	14322
465.563	20784
465.575	21941
465.631	26075
465.654	27933
465.698	20007
465.734	12561
465.765	10906
465.813	8531
465.833	8493
465.893	8928
465.900	8875
465.968	8299
465.972	8242
466.035	8755
466.052	8884
466.102	9355
466.131	9643
466.170	9476
466.210	9195
466.237	9467
466.290	10086
466.304	10213
466.369	10525
466.372	10533
466.439	10429
466.449	10401
466.506	11189
466.528	11463
466.573	13633
466.607	15221
466.641	21423
466.687	30075
466.708	33196
466.766	41893
466.775	39404
466.842	20016
466.845	19059
466.909	14030
466.925	12889
466.977	11934
467.004	11448
467.044	12401
467.083	13346
467.111	14432
467.163	16376
467.178	16968
467.242	19348
467.245	19294
467.312	17525
467.321	17263
467.379	15955
467.400	15442
467.446	15691
467.480	15826
467.559	15494
467.638	13365
467.717	13620
467.796	14416
467.875	16506
467.955	14727
468.034	18917
468.113	36572
468.192	51139
468.271	20999
468.350	13574
468.429	13907
468.508	14700
468.588	12929
468.667	12175
468.746	13357
468.825	14287
468.904	11435
468.983	12887
469.062	17224
469.141	21738
469.220	12276
469.299	11472
469.378	12886
469.456	15559
469.535	14594
469.614	13026
469.693	13119
469.772	16152
469.851	18600
469.930	16319
470.009	13048
470.088	12043
470.166	13534
470.245	17108
470.324	19641
470.403	16873
470.482	14427
470.560	13023
470.639	12862
470.718	13575
470.797	11775
470.875	13528
470.954	15731
471.033	18773
471.111	11966
471.190	9624
471.269	10084
471.347	9651
471.426	10028
471.505	12011
471.583	13280
471.662	13135
471.740	10536
471.819	10672
471.898	10309
471.976	10355
472.055	10644
472.133	11868
472.212	15635
472.290	14633
472.369	11417
472.447	9845
472.526	9822
472.604	10401
472.683	11796
472.761	11943
472.839	10690
472.918	10688
472.996	10469
473.075	11464
473.153	11716
473.231	10134
473.310	11377
473.388	11872
473.466	10381
473.545	12079
473.623	16058
473.701	15330
473.780	11676
473.858	9738
473.936	12228
474.014	10760
474.093	11225
474.171	16315
474.249	19597
474.327	15617
474.405	8791
474.484	10232
474.562	10647
474.640	9583
474.718	10216
474.796	11375
474.874	10458
474.952	9544
475.030	9809
475.108	9563
475.187	10891
475.265	11505
475.343	14182
475.421	14972
475.499	11179
475.577	10395
475.655	13114
475.733	20611
475.811	34347
475.889	32982
475.966	26465
476.044	8987
476.122	10418
476.200	11720
476.278	11190
476.356	8357
476.434	9274
476.512	9863
476.590	12275
476.667	11937
476.745	9534
476.823	8614
476.901	9221
476.979	9905
477.056	10139
477.134	9562
477.212	9494
477.290	9494
477.367	8788
477.445	8495
477.523	8232
477.601	8439
477.678	8364
477.756	10421
477.834	10906
477.911	8702
477.989	8663
478.066	7818
478.144	8202
478.222	9950
478.299	11636
478.377	13498
478.454	8449
478.532	7772
478.609	9254
478.687	9546
478.764	7685
478.842	8094
478.919	9935
478.997	9658
479.074	8742
479.152	8744
479.229	10964
479.307	8932
479.384	7581
479.461	6958
479.539	7901
479.616	9475
479.694	8794
479.771	9007
479.848	9388
479.926	9902
480.003	14178
480.080	8149
480.157	7443
480.235	7427
480.312	8422
480.389	7934
480.467	12455
480.544	15399
480.621	10389
480.698	8306
480.775	9138
480.853	8542
480.930	8860
481.007	8635
481.084	11217
481.161	13191
481.238	10843
481.315	7185
481.392	7118
481.470	7849
481.547	7929
481.624	7513
481.701	6603
481.778	7306
481.855	7795
481.932	11592
482.009	17657
482.086	16212
482.163	8158
482.240	9914
482.317	12991
482.393	12682
482.470	8523
482.547	8130
482.624	7312
482.701	7882
482.778	7299
482.855	6794
482.932	6988
483.009	6289
483.085	9243
483.162	11117
483.239	12290
483.316	7424
483.393	7600
483.469	7518
483.546	7854
483.623	9590
483.699	6941
483.776	7596
483.853	10120
483.930	10310
484.006	27619
484.083	49531
484.160	36997
484.236	48138
484.313	39952
484.389	29710
484.466	26371
484.543	24793
484.619	24190
484.696	26811
484.772	25451
484.849	26796
484.925	23459
485.002	22108
485.078	23945
485.155	24863
485.231	21610
485.308	21407
485.384	21749
485.461	24881
485.537	34586
485.614	44870
485.690	24581
485.766	20468
485.843	21145
485.919	27476
485.995	32007
486.072	20368
486.148	19639
486.224	18642
486.301	19688
486.377	22483
486.453	22030
486.530	21721
486.606	28914
486.682	32786
486.758	35577
486.835	39831
486.911	32906
486.987	44705
487.063	55014
487.139	66648
487.215	53397
487.292	31140
487.368	23984
487.444	24931
487.520	30025
487.596	31962
487.672	39215
487.748	79364
487.824	124793
487.900	61576
487.976	27814
488.052	23959
488.128	29670
488.204	25136
488.280	22881
488.356	23145
488.432	38062
488.508	59710
488.584	31616
488.660	20431
488.736	20335
488.812	19417
488.888	25462
488.964	30431
489.039	55852
489.115	95343
489.191	71255
489.267	22629
489.343	19902
489.418	17422
489.494	16689
489.570	14930
489.646	16206
489.722	16251
489.797	17068
489.873	21759
489.949	42582
490.024	47836
490.100	17582
490.176	16284
490.251	18751
490.327	24062
490.403	17891
490.478	15248
490.554	13261
490.629	14181
490.705	13589
490.781	14720
490.856	14904
490.932	16436
491.007	17269
491.083	16428
491.158	14412
491.234	16955
491.309	32456
491.385	39207
491.460	16928
491.536	16636
491.611	15035
491.686	14909
491.762	20503
491.837	36999
491.913	64875
491.988	85773
492.063	123697
492.139	43190
492.214	22601
492.289	13101
492.365	13257
492.440	15454
492.515	13603
492.590	14774
492.666	12305
492.741	16017
492.816	21992
492.891	16881
492.967	14482
493.042	14394
493.117	17477
493.192	19443
493.267	40276
493.342	163770
493.418	291973
493.493	64319
493.568	13568
493.643	12139
493.718	13418
493.793	18580
493.868	23534
493.943	16313
494.018	12055
494.093	10604
494.168	11254
494.243	10564
494.318	10755
494.393	10135
494.468	10546
494.543	9827
494.618	11783
494.693	11395
494.768	9920
494.842	11052
494.917	8776
494.992	10488
495.067	10806
495.142	9178
495.217	11288
495.292	11029
495.366	12355
495.441	14729
495.516	17585
495.591	22272
495.665	71049
495.740	185803
495.815	120487
495.890	19036
495.964	12339
496.039	13948
496.114	12852
496.188	16297
496.263	15900
496.338	11616
496.412	13189
496.487	15988
496.561	16481
496.636	18641
496.710	15332
496.785	14907
496.860	18208
496.934	14808
497.009	14399
497.083	14708
497.158	15854
497.232	17218
497.307	20342
497.381	17259
497.455	18287
497.530	25392
497.604	21486
497.679	20240
497.753	28498
497.827	37873
497.902	35732
497.976	39189
498.050	74406
498.125	275851
498.199	393073
498.273	74855
498.348	42786
498.422	36681
498.496	33439
498.570	31361
498.645	24482
498.719	23741
498.793	26942
498.867	33386
498.941	44804
499.016	105258
499.090	315053
499.164	188199
499.238	20921
499.312	15012
499.386	17248
499.460	17774
499.534	16060
499.609	17644
499.683	25067
499.757	25530
499.831	43562
499.905	183720
499.979	251749
500.053	40187
500.127	31322
500.201	26344
500.275	16317
500.349	14861
500.422	16053
500.496	21531
500.570	44055
500.644	107439
500.718	217399
500.792	83272
500.866	14875
500.940	16878
501.013	14971
501.087	13868
501.161	22948
501.235	31283
501.309	53979
501.382	160903
501.456	201024
501.530	42620
501.603	54167
501.677	32308
501.751	10400
501.825	13352
501.898	21176
501.972	62374
502.046	60425
502.119	13193
502.193	28086
502.266	70117
502.340	51406
502.413	28442
502.487	64444
502.561	44566
502.634	18731
502.708	12550
502.781	10992
502.855	9723
502.928	7257
503.002	7958
503.075	6321
503.149	8850
503.222	9136
503.295	9003
503.369	11534
503.442	14648
503.516	42002
503.589	124943
503.662	108863
503.736	32090
503.809	55536
503.882	61885
503.956	63487
504.029	80485
504.102	50559
504.175	67151
504.249	30641
504.322	16247
504.395	14162
504.468	9667
504.542	9283
504.615	7589
504.688	8070
504.761	6032
504.834	10096
504.907	11109
504.980	19702
505.053	11269
505.127	10243
505.200	15120
505.273	12323
505.346	10475
505.419	7055
505.492	6159
505.565	6299
505.638	5928
505.711	5758
505.784	4947
505.857	4512
505.930	6947
506.003	5289
506.076	8679
506.149	8742
506.221	11224
506.294	11837
506.367	21156
506.440	85071
506.513	73748
506.586	14698
506.659	9570
506.731	7818
506.804	7413
506.877	13424
506.950	10389
507.022	7469
507.095	7817
507.168	12142
507.241	8696
507.313	6767
507.386	7267
507.459	12902
507.531	9606
507.604	5564
507.677	6408
507.749	5027
507.822	9578
507.894	17830
507.967	25597
508.040	15589
508.112	12100
508.185	11294
508.257	9768
508.330	14984
508.402	11672
508.475	11174
508.547	11466
508.620	11052
508.692	15292
508.765	12385
508.837	8778
508.909	9372
508.982	8762
509.054	10252
509.127	9622
509.199	8699
509.271	7727
509.344	7843
509.416	8377
509.488	8322
509.560	9493
509.633	10647
509.705	12691
509.777	12439
509.849	15610
509.922	14228
509.994	11687
510.066	10896
510.138	12007
510.210	22034
510.283	21043
510.355	17847
510.427	14421
510.499	15572
510.571	14830
510.643	12998
510.715	17951
510.787	17967
510.859	13914
510.931	14535
511.003	17391
511.076	18277
511.148	11885
511.219	12926
511.291	17608
511.363	22192
511.435	14186
511.507	11447
511.579	12095
511.651	12216
511.723	11274
511.795	10767
511.867	10776
511.939	12784
512.010	20192
512.082	22847
512.154	10404
512.226	12427
512.298	16176
512.369	24493
512.441	19801
512.513	18438
512.585	15699
512.656	14485
512.728	15351
512.800	13293
512.871	12544
512.943	12423
513.015	11213
513.086	11927
513.158	12622
513.230	11946
513.301	17854
513.373	22722
513.444	15003
513.516	11702
513.588	10556
513.659	12505
513.731	15263
513.802	14229
513.874	22556
513.945	45145
514.016	23479
514.088	11248
514.159	11783
514.231	15712
514.302	22054
514.374	16848
514.445	13518
514.516	24144
514.588	23065
514.659	13817
514.730	21098
514.802	22437
514.873	15284
514.944	18218
515.016	16348
515.087	16804
515.158	18029
515.229	25718
515.301	17860
515.372	22079
515.443	18428
515.514	15456
515.585	12215
515.656	12762
515.728	11607
515.799	10941
515.870	12577
515.941	12609
516.012	11183
516.083	16506
516.154	17294
516.225	22351
516.296	21681
516.367	18718
516.438	20014
516.509	25140
516.580	31568
516.651	76254
516.722	307554
516.793	241400
516.864	40695
516.935	33878
517.006	35971
517.077	44740
517.148	88739
517.219	306366
517.289	711274
517.360	233872
517.431	73824
517.502	21064
517.573	17199
517.643	16913
517.714	18230
517.785	19848
517.856	18812
517.926	25840
517.997	29066
518.068	36377
518.138	47521
518.209	62662
518.280	205007
518.350	892536
518.421	633998
518.492	69634
518.562	30418
518.633	26047
518.703	24214
518.774	35701
518.845	72805
518.915	81103
518.986	34999
519.056	24818
519.127	35916
519.197	53553
519.268	106295
519.338	95061
519.408	23372
519.479	24570
519.549	22073
519.620	14321
519.690	11052
519.760	11286
519.831	10587
519.901	12187
519.971	9341
520.042	11207
520.112	13143
520.182	14337
520.253	17257
520.323	12597
520.393	15333
520.463	27809
520.534	16753
520.604	36813
520.674	23280
520.744	15060
520.814	35620
520.885	43715
520.955	30782
521.025	117019
521.095	80607
521.165	14195
521.235	11839
521.305	9957
521.375	9673
521.445	11589
521.515	13058
521.585	16224
521.655	15769
521.725	13894
521.795	14339
521.865	8824
521.935	13231
522.005	14312
522.075	9161
522.145	10428
522.215	10354
522.285	15541
522.355	18448
522.424	33837
522.494	36425
522.564	19971
522.634	28037
522.704	89791
522.774	55359
522.843	12272
522.913	10291
522.983	14296
523.053	11870
523.122	12529
523.192	14511
523.262	43442
523.331	67550
523.401	16155
523.471	8138
523.540	9523
523.610	6694
523.680	7105
523.749	7295
523.819	9358
523.888	11139
523.958	7951
524.027	7357
524.097	8723
524.166	7965
524.236	8830
524.305	10685
524.375	7195
524.444	7483
524.514	8759
524.583	7919
524.653	9750
524.722	11192
524.791	9042
524.861	8482
524.930	6220
524.999	7701
525.069	12255
525.138	8914
525.207	9931
525.277	10183
525.346	8678
525.415	8493
525.484	8366
525.554	10172
525.623	11110
525.692	10521
525.761	10239
525.830	10639
525.900	13576
525.969	18242
526.038	28878
526.107	48771
526.176	148677
526.245	150598
526.314	53441
526.383	79639
526.452	119992
526.522	170086
526.591	228735
526.660	78367
526.729	43702
526.797	36759
526.867	61696
526.935	260309
527.004	495081
527.073	337347
527.142	40667
527.211	15552
527.280	14287
527.349	15020
527.418	8449
527.487	8718
527.555	7475
527.624	6074
527.693	5535
527.762	8073
527.831	6056
527.899	7045
527.968	7136
528.037	4698
528.106	8758
528.174	15636
528.243	15190
528.312	16259
528.380	29215
528.449	10654
528.518	7782
528.586	4528
528.655	6576
528.723	5204
528.792	5332
528.861	6102
528.929	5699
528.998	6818
529.066	5507
529.135	6934
529.203	5961
529.272	6883
529.340	9640
529.409	10487
529.477	8785
529.545	9111
529.614	13031
529.682	11995
529.751	15918
529.819	16310
529.887	15105
529.956	10103
530.024	11643
530.092	9222
530.161	11636
530.229	16859
530.297	14094
530.365	11323
530.434	11065
530.502	10271
530.570	10463
530.638	7990
530.707	10231
530.775	10545
530.843	8156
530.911	10307
530.979	9288
531.047	9590
531.115	11078
531.183	10039
531.252	9541
531.320	9526
531.388	8458
531.456	9530
531.524	9105
531.592	11802
531.660	13931
531.728	9771
531.796	10456
531.864	10508
531.932	10764
532.000	11188
532.067	12272
532.135	13930
532.203	15142
532.271	15617
532.339	23512
532.407	49961
532.475	44431
532.542	20685
532.610	20107
532.678	21862
532.746	60259
532.814	197815
532.881	77247
532.949	17870
533.017	14689
533.084	12761
533.152	11337
533.220	11737
533.287	12664
533.355	12652
533.423	12627
533.490	12369
533.558	11970
533.625	11965
533.693	13490
533.761	13294
533.828	14578
533.896	13668
533.963	24136
534.031	31844
534.098	35824
534.166	25354
534.233	16916
534.300	17399
534.368	17261
534.435	16316
534.503	15444
534.570	17097
534.637	16087
534.705	15893
534.772	16905
534.840	21126
534.907	66828
534.974	112586
535.041	24622
535.109	15309
535.176	10953
535.243	10487
535.310	10875
535.378	11825
535.445	9330
535.512	9753
535.579	10246
535.646	9109
535.714	10176
535.781	13524
535.848	13433
535.915	15699
535.982	16925
536.049	16957
536.116	16823
536.183	13546
536.250	13950
536.317	13474
536.384	13849
536.451	18422
536.518	20726
536.585	13648
536.652	17437
536.719	22996
536.786	20218
536.853	14683
536.920	18683
536.987	30785
537.053	28047
537.120	77712
537.187	103767
537.254	15479
537.321	9378
537.388	10478
537.454	7879
537.521	8075
537.588	8174
537.654	8966
537.721	10847
537.788	11866
537.855	9105
537.921	9025
537.988	9902
538.055	9990
538.121	9345
538.188	9699
538.254	13278
538.321	29527
538.388	24027
538.454	10810
538.521	8748
538.587	8122
538.654	8400
538.720	8169
538.787	8206
538.853	8344
538.920	10742
538.986	11380
539.053	10180
539.119	9846
539.185	9334
539.252	10899
539.318	16585
539.385	15731
539.451	12076
539.517	11786
539.583	12124
539.650	21624
539.716	70036
539.782	29925
539.849	9712
539.915	9413
539.981	9137
540.047	12148
540.114	11796
540.180	11368
540.246	10770
540.312	13867
540.378	27723
540.444	34187
540.510	25326
540.576	76765
540.643	38912
540.709	9114
540.775	9647
540.841	9544
540.907	12411
540.973	19756
541.039	19467
541.105	19941
541.171	11872
541.237	10024
541.303	10344
541.369	11732
541.435	14366
541.500	26179
541.566	19927
541.632	9820
541.698	8276
541.764	9096
541.830	8575
541.896	8506
541.961	8497
542.027	7873
542.093	9473
542.159	9515
542.224	11046
542.290	15623
542.356	25037
542.421	34424
542.487	18431
542.553	11247
542.618	11518
542.684	9998
542.750	9503
542.815	11253
542.881	16314
542.947	57700
543.012	66375
543.078	11637
543.143	8559
543.209	9410
543.274	8897
543.340	11093
543.405	20607
543.471	45259
543.536	14091
543.602	8703
543.667	7715
543.732	9195
543.798	7498
543.863	8331
543.928	7902
543.994	6879
544.059	8846
544.124	8718
544.190	8048
544.255	9214
544.320	8630
544.386	9194
544.451	13666
544.516	16682
544.581	14409
544.646	33520
544.712	75820
544.777	20475
544.842	11315
544.907	11537
544.972	10206
545.037	9483
545.102	11494
545.168	10053
545.233	11069
545.298	11945
545.363	13845
545.428	15722
545.493	22677
545.558	55331
545.623	33181
545.688	11127
545.753	10784
545.818	10215
545.883	11578
545.947	10227
546.012	12089
546.077	11739
546.142	12108
546.207	11335
546.272	15551
546.337	16916
546.401	14441
546.466	13123
546.531	11347
546.596	12466
546.661	12582
546.725	13268
546.790	10590
546.855	12386
546.919	11854
546.984	13207
547.049	13981
547.113	16371
547.178	16073
547.243	18645
547.307	20173
547.372	22728
547.436	24698
547.501	21206
547.565	21857
547.630	23485
547.695	25270
547.759	24565
547.823	23854
547.888	20399
547.952	20387
548.017	20556
548.081	26145
548.146	28126
548.210	26694
548.274	21757
548.339	22038
548.403	20724
548.468	18535
548.532	19182
548.596	20068
548.660	20465
548.725	22704
548.789	24766
548.853	27193
548.917	22166
548.982	24113
549.046	27516
549.110	18260
549.174	18351
549.238	20485
549.303	20540
549.367	22738
549.431	21715
549.495	20806
549.559	20404
549.623	22720
549.687	25245
549.751	30402
549.815	30767
549.879	29272
549.943	25273
550.007	28486
550.071	28195
550.135	30964
550.199	28635
550.263	24692
550.327	24635
550.391	29385
550.455	29870
550.519	28170
550.582	29647
550.646	35055
550.710	39493
550.774	32867
550.838	31659
550.901	31972
550.965	35283
551.029	36305
551.093	40214
551.156	46638
551.220	66238
551.284	83239
551.347	50748
551.411	59455
551.475	78084
551.538	38601
551.602	31430
551.666	29259
551.729	28256
551.793	28030
551.856	27405
551.920	29637
551.983	29467
552.047	26995
552.110	26980
552.174	27238
552.237	26797
552.301	25887
552.364	24805
552.428	24508
552.491	23165
552.554	27045
552.618	26632
552.681	28455
552.745	27903
552.808	35703
552.871	50234
552.934	41163
552.998	30810
553.061	30087
553.124	28090
553.187	29198
553.251	31063
553.314	34169
553.377	35550
553.440	47322
553.503	129872
553.567	296705
553.630	82925
553.693	31791
553.756	28074
553.819	25903
553.882	24483
553.945	24258
554.008	24705
554.071	23960
554.134	24399
554.197	22681
554.260	22442
554.323	24568
554.386	23540
554.449	24117
554.512	24582
554.575	22524
554.638	23153
554.701	23069
554.764	22259
554.827	22283
554.889	20560
554.952	19055
555.015	18986
555.078	19317
555.141	19844
555.203	19852
555.266	19441
555.329	19872
555.391	19479
555.454	20127
555.517	21054
555.580	19128
555.642	17557
555.705	17869
555.768	19528
555.830	18341
555.893	17053
555.955	16494
556.018	17267
556.080	16413
556.143	16038
556.206	16470
556.268	17530
556.330	17398
556.393	17498
556.455	16017
556.518	20848
556.580	24380
556.643	16559
556.705	15404
556.767	14418
556.830	15736
556.892	15623
556.955	23957
557.017	22645
557.079	15181
557.142	15053
557.204	16050
557.266	28479
557.328	31638
557.391	14415
557.453	13324
557.515	13145
557.577	15811
557.639	18624
557.701	13768
557.764	13149
557.826	14747
557.888	15457
557.950	16066
558.012	16855
558.074	20848
558.136	41427
558.198	121115
558.260	60406
558.322	21309
558.384	22042
558.446	24782
558.508	28747
558.570	34533
558.632	49625
558.694	79859
558.756	81166
558.818	209775
558.880	657242
558.942	281462
559.003	136017
559.065	86267
559.127	31533
559.189	29907
559.251	32780
559.312	42641
559.374	94173
559.436	367763
559.498	259954
559.559	41250
559.621	30283
559.683	31952
559.744	47534
559.806	144576
559.868	289947
559.929	73875
559.991	30428
560.052	38982
560.114	108632
560.176	92314
560.237	60334
560.299	119194
560.360	38585
560.422	14605
560.483	12960
560.545	10716
560.606	10060
560.667	9494
560.729	9195
560.790	9361
560.852	9304
560.913	10257
560.974	9241
561.036	9500
561.097	8977
561.158	9479
561.220	10128
561.281	9917
561.342	10875
561.403	12379
561.465	13588
561.526	32286
561.587	59767
561.648	20156
561.709	10706
561.771	9691
561.832	8661
561.893	9025
561.954	9234
562.015	8910
562.076	9460
562.137	9449
562.198	8601
562.259	9134
562.320	8811
562.381	10942
562.442	15707
562.503	15232
562.564	10107
562.625	9430
562.686	8883
562.747	10701
562.808	10544
562.869	9281
562.930	10737
562.991	10056
563.051	9577
563.112	9236
563.173	8876
563.234	9155
563.294	9610
563.355	8517
563.416	10384
563.477	9067
563.537	9474
563.598	10094
563.659	9355
563.720	9749
563.780	10186
563.841	11727
563.901	9780
563.962	8641
564.023	9282
564.083	9550
564.144	10079
564.204	10236
564.265	9339
564.325	11664
564.386	19779
564.446	23633
564.507	9799
564.567	9382
564.628	10133
564.688	9021
564.749	9544
564.809	10567
564.869	12780
564.930	10608
564.990	10567
565.050	8861
565.111	9007
565.171	9550
565.231	8688
565.292	10571
565.352	8196
565.412	10990
565.472	9987
565.532	11444
565.593	10818
565.653	10573
565.713	10734
565.773	11806
565.833	13408
565.893	17977
565.953	12995
566.013	10412
566.074	11753
566.134	13754
566.194	20328
566.254	24830
566.314	17949
566.374	13351
566.434	12866
566.494	13769
566.554	13660
566.614	13704
566.673	14257
566.733	15370
566.793	14925
566.853	16606
566.913	16433
566.973	17078
567.033	18571
567.092	18310
567.152	17020
567.212	18249
567.272	17334
567.331	18024
567.391	18785
567.451	19877
567.511	23627
567.570	24633
567.630	19232
567.690	18145
567.749	17075
567.809	18542
567.868	20726
567.928	24060
567.988	26479
568.047	30376
568.107	35044
568.166	44351
568.226	60846
568.285	85017
568.345	87982
568.404	79929
568.464	71805
568.523	66366
568.582	66281
568.642	68752
568.701	78245
568.761	98801
568.820	135526
568.879	155598
568.939	142414
568.998	114106
569.057	92559
569.116	76956
569.176	62302
569.235	52235
569.294	44862
569.353	39554
569.413	34185
569.472	30512
569.531	26941
569.590	24631
569.649	24012
569.708	20357
569.767	21311
569.827	22772
569.886	21241
569.945	16983
570.004	16510
570.063	15622
570.122	14739
570.181	15811
570.240	16170
570.299	16468
570.358	16662
570.417	13450
570.475	11553
570.534	13034
570.593	13139
570.652	13906
570.711	14505
570.770	12476
570.829	14102
570.887	13884
570.946	14361
571.005	11318
571.064	11123
571.122	11222
571.181	12149
571.240	11402
571.299	10005
571.357	10423
571.416	11331
571.475	11839
571.533	12631
571.592	9919
571.650	10804
571.709	9446
571.768	10268
571.826	10076
571.885	8670
571.943	9279
572.002	8844
572.060	9569
572.119	8295
572.177	8399
572.236	7640
572.294	7792
572.352	8518
572.411	8295
572.469	8690
572.528	9051
572.586	8582
572.644	9576
572.703	13890
572.761	10524
572.819	8547
572.877	8072
572.936	7346
572.994	7201
573.052	7780
573.110	7558
573.169	8531
573.227	7555
573.285	7609
573.343	7873
573.401	7843
573.459	8501
573.517	6668
573.576	7429
573.634	7944
573.692	9447
573.750	8085
573.808	7597
573.866	8102
573.924	10260
573.982	10314
574.040	8780
574.098	7216
574.155	7394
574.213	6773
574.271	7550
574.329	7741
574.387	7844
574.445	7085
574.503	7149
574.560	7134
574.618	6658
574.676	6641
574.734	7466
574.792	7480
574.849	7270
574.907	6304
574.965	7073
575.022	5661
575.080	5837
575.138	7262
575.195	7751
575.253	6208
575.311	8628
575.368	7455
575.426	6158
575.483	7114
575.541	6484
575.598	6346
575.656	7275
575.713	7290
575.771	7066
575.828	7037
575.886	6523
575.943	6553
576.001	7720
576.058	7195
576.115	8247
576.173	8513
576.230	9561
576.287	11210
576.345	9963
576.402	8094
576.459	7316
576.517	7688
576.574	9302
576.631	9001
576.688	7942
576.746	7911
576.803	7599
576.860	6735
576.917	6849
576.974	7949
577.031	7506
577.089	7713
577.146	7589
577.203	7448
577.260	8677
577.317	8243
577.374	9454
577.431	9068
577.488	8228
577.545	7838
577.602	8768
577.659	9140
577.716	10924
577.773	13426
577.830	12024
577.886	9482
577.943	8858
578.000	9214
578.057	10942
578.114	12538
578.171	15594
578.227	21699
578.284	23597
578.341	19359
578.398	15586
578.454	14333
578.511	12900
578.568	12445
578.625	10928
578.681	9794
578.738	9363
578.794	8513
578.851	9312
578.908	8255
578.964	9096
579.021	8325
579.077	9032
579.134	7967
579.190	8038
579.247	8105
579.303	7618
579.360	7967
579.416	8306
579.473	7318
579.529	8407
579.586	8714
579.642	8917
579.698	9003
579.755	9947
579.811	10684
579.867	11927
579.924	11853
579.980	12056
580.036	16796
580.093	21116
580.149	30377
580.205	40521
580.261	33436
580.317	26409
580.374	22146
580.430	19121
580.486	16540
580.542	14353
580.598	13436
580.619	12845
580.654	11828
580.692	11250
580.710	10974
580.765	10383
580.767	10370
580.823	10384
580.838	10698
580.879	11550
580.911	10745
580.935	10161
580.984	10337
580.991	10375
581.047	11400
581.057	11362
581.103	11197
581.130	11529
581.159	11904
581.203	14937
581.215	15740
581.270	15596
581.276	15417
581.326	13727
581.349	13574
581.382	13327
581.422	12007
581.438	11481
581.494	11486
581.494	11479
581.550	11084
581.567	10936
581.606	10629
581.640	10677
581.661	10732
581.713	11389
581.717	11441
581.773	10557
581.786	10612
581.829	10826
581.859	10810
581.885	10812
581.932	10492
581.940	10441
581.996	11168
582.004	11047
582.052	10216
582.077	10382
582.107	10719
582.150	10948
582.163	10983
582.219	10560
582.223	10557
582.274	10526
582.296	10676
582.330	11024
582.368	11431
582.386	11552
582.441	10943
582.441	10942
582.497	11596
582.514	12010
582.552	13273
582.587	14875
582.608	15603
582.659	14487
582.663	14386
582.719	12844
582.732	12848
582.774	13263
582.805	13200
582.830	13076
582.877	13961
582.885	14119
582.941	13700
582.950	13940
582.996	15261
583.023	16127
583.052	17286
583.095	19729
583.107	20462
583.162	23554
583.168	23990
583.218	27332
583.240	26593
583.273	24987
583.313	22683
583.328	21827
583.384	19627
583.385	19577
583.439	18012
583.458	17335
583.494	16308
583.531	15617
583.549	15292
583.603	15408
583.605	15415
583.660	14694
583.676	14617
583.715	14450
583.748	14819
583.770	15196
583.820	15218
583.825	15178
583.881	14844
583.893	14681
583.936	14327
583.965	14583
583.991	14746
584.038	14803
584.046	14852
584.101	14838
584.110	14817
584.156	14606
584.183	14962
584.211	15206
584.255	14927
584.266	14960
584.321	15180
584.328	15286
584.376	16107
584.400	16147
584.431	16186
584.472	16068
584.486	15960
584.541	16228
584.545	16246
584.596	16873
584.617	16743
584.651	16685
584.689	17463
584.706	17740
584.761	18004
584.762	17997
584.816	17906
584.834	18252
584.871	18840
584.906	18563
584.926	18529
584.978	18383
584.980	18401
585.035	19352
585.051	19920
585.090	21254
585.123	21795
585.145	22258
585.195	22842
585.200	23013
585.254	26882
585.267	27855
585.309	32117
585.340	37379
585.364	40187
585.412	37511
585.419	36909
585.473	33617
585.484	33742
585.528	37643
585.556	41128
585.583	49091
585.628	70025
585.637	78349
585.692	144685
585.700	158622
585.747	224746
585.772	213990
585.801	157476
585.845	73999
585.856	61715
585.910	38390
585.917	36131
585.965	32709
585.989	31258
586.019	30170
586.061	28915
586.074	28739
586.128	28843
586.133	28784
586.183	29225
586.205	29739
586.237	30186
586.277	30079
586.292	30069
586.346	30235
586.349	30192
586.401	29871
586.421	30068
586.455	31129
586.493	32168
586.509	33520
586.564	38726
586.565	38886
586.618	50396
586.637	52477
586.672	48686
586.709	41535
586.727	39311
586.781	37690
586.781	37735
586.835	36758
586.853	36732
586.889	36811
586.925	37007
586.944	37471
586.996	38739
586.998	38835
587.052	40342
587.068	40807
587.106	42175
587.140	42984
587.161	43351
587.212	44349
587.215	44525
587.269	47328
587.284	47955
587.323	49322
587.356	50567
587.377	52007
587.427	55010
587.431	55292
587.485	58087
587.499	58871
587.539	61445
587.571	63088
587.593	64795
587.643	68546
587.648	69067
587.702	73895
587.715	75076
587.755	80296
587.786	84239
587.810	87152
587.858	92778
587.864	93755
587.917	102415
587.930	104321
587.971	112869
588.001	119469
588.025	125527
588.073	136017
588.079	138022
588.133	157223
588.145	161022
588.187	177426
588.217	189973
588.241	202381
588.288	225807
588.295	230129
588.348	266258
588.360	274107
588.402	311053
588.431	336918
588.456	364128
588.503	418625
588.510	429585
588.564	517317
588.575	536163
588.617	637196
588.646	710567
588.671	802486
588.718	987427
588.725	1030790
588.778	1380591
588.789	1455432
588.832	1816490
588.861	2064323
588.886	2154982
588.932	2247612
588.939	2229105
588.993	1921829
589.004	1896393
589.047	2167382
589.075	2280151
589.100	2111284
589.147	1704853
589.154	1652921
589.207	1267882
589.218	1194088
589.261	1079486
589.290	1011476
589.314	1029163
589.361	1079152
589.368	1111040
589.421	1388666
589.433	1451842
589.475	1786210
589.504	2022220
589.528	2067859
589.576	2031753
589.582	2030846
589.635	2038012
589.647	2019599
589.689	1674303
589.718	1400828
589.742	1190840
589.790	801586
589.795	779109
589.849	577517
589.861	532312
589.902	451617
589.932	392698
589.955	361122
590.004	294311
590.009	290693
590.062	248836
590.075	238321
590.115	216755
590.146	199229
590.168	190846
590.218	171967
590.222	170998
590.275	154102
590.289	149269
590.328	141063
590.360	134088
590.381	130617
590.431	121867
590.435	121601
590.488	111933
590.503	109134
590.541	105016
590.574	100807
590.594	98820
590.645	92933
590.647	92981
590.700	88559
590.716	86929
590.753	84121
590.787	81175
590.806	80048
590.859	76341
590.859	76485
590.912	73298
590.930	72175
590.965	70788
591.001	69017
591.018	68567
591.071	66756
591.072	66563
591.124	65304
591.143	64562
591.177	62992
591.214	61148
591.230	61032
591.283	60056
591.285	59855
591.336	59448
591.356	59120
591.389	58264
591.427	56775
591.442	56306
591.495	53966
591.498	53650
591.547	52712
591.569	52111
591.600	51642
591.640	50688
591.653	50673
591.706	49941
591.711	49743
591.759	49419
591.782	48979
591.811	50186
591.853	51679
591.864	51097
591.917	47348
591.924	46674
591.969	46658
591.995	46456
592.022	46456
592.066	46141
592.075	46342
592.127	46730
592.137	46697
592.180	49711
592.208	51413
592.233	49369
592.279	44967
592.285	44888
592.338	43258
592.350	42767
592.390	41626
592.421	40586
592.443	40906
592.491	41217
592.495	41283
592.548	40649
592.562	40356
592.600	40172
592.633	39822
592.653	39739
592.704	39023
592.705	39245
592.775	39092
592.846	40037
592.916	40491
592.987	40449
593.058	39774
593.128	38388
593.199	36578
593.270	36928
593.341	36904
593.411	35948
593.482	37208
593.553	36850
593.623	35025
593.694	34669
593.764	37544
593.835	35744
593.906	34213
593.976	35175
594.047	35692
594.117	39273
594.188	39913
594.258	35254
594.329	34138
594.399	34304
594.470	34435
594.540	34557
594.611	35197
594.681	34137
594.751	35823
594.822	36226
594.892	36724
594.963	37348
595.033	36480
595.103	36276
595.174	38709
595.244	45719
595.314	55354
595.384	39509
595.455	37284
595.525	38209
595.595	38766
595.665	38676
595.736	38296
595.806	37842
595.876	37211
595.946	37773
596.016	37093
596.087	38849
596.157	38283
596.227	38388
596.297	39916
596.367	41321
596.437	45063
596.507	49575
596.577	57790
596.647	45314
596.717	43025
596.787	43769
596.857	43848
596.927	44338
596.997	43853
597.067	47975
597.137	54803
597.207	51826
597.277	47201
597.347	45354
597.417	43871
597.487	45837
597.557	45675
597.626	46600
597.696	49082
597.766	52375
597.836	56713
597.906	47844
597.975	43485
598.045	43305
598.115	44817
598.185	45649
598.254	49906
598.324	53113
598.394	54040
598.464	52845
598.533	51644
598.603	50031
598.672	50301
598.742	50471
598.812	49320
598.881	50025
598.951	51383
599.020	50874
599.090	52301
599.159	53523
599.229	51895
599.299	51216
599.368	52335
599.437	53612
599.507	51394
599.576	53358
599.646	56439
599.715	59984
599.785	53295
599.854	51158
599.924	54361
599.993	53545
600.062	51535
600.132	53629
600.201	54618
600.270	61327
600.340	61927
600.409	60694
600.478	62018
600.547	61754
600.617	61438
600.686	55756
600.755	54651
600.824	54951
600.894	53896
600.963	54491
601.032	52980
601.101	54305
601.170	53867
601.239	54526
601.308	55687
601.378	56795
601.447	55735
601.516	57750
601.585	59363
601.654	61630
601.723	61669
601.792	63998
601.861	69160
601.930	79442
601.999	75641
602.068	69193
602.137	69412
602.206	70988
602.275	70485
602.343	73423
602.412	75548
602.481	71576
602.550	70735
602.619	71653
602.688	73414
602.756	72590
602.825	71930
602.894	74032
602.963	72703
603.032	73357
603.100	73196
603.169	73995
603.238	75661
603.307	72477
603.375	73510
603.444	76553
603.513	71749
603.581	73771
603.650	78982
603.719	68297
603.787	63836
603.856	65687
603.924	65798
603.993	68713
604.061	68360
604.130	70705
604.198	73192
604.267	72403
604.335	74939
604.404	75558
604.472	76833
604.541	78667
604.609	79418
604.678	81666
604.746	81712
604.815	87603
604.883	83399
604.951	80974
605.020	83856
605.088	78781
605.156	74733
605.225	75532
605.293	74795
605.361	75487
605.429	75373
605.498	77167
605.566	76865
605.634	79285
605.702	79557
605.771	80465
605.839	82736
605.907	76808
605.975	78926
606.043	76742
606.111	74062
606.180	81651
606.248	86287
606.316	90513
606.384	80883
606.452	71730
606.520	63097
606.588	59380
606.656	57135
606.724	56288
606.792	53514
606.860	49064
606.928	45435
606.996	45282
607.064	43698
607.132	44296
607.200	46674
607.267	48328
607.335	48447
607.403	50209
607.471	47899
607.539	46804
607.607	47668
607.674	43091
607.742	43961
607.810	43699
607.878	45016
607.946	42625
608.013	44172
608.081	47067
608.149	47423
608.216	46169
608.284	48688
608.352	48113
608.419	47973
608.487	52836
608.555	48072
608.622	45615
608.690	47818
608.757	50686
608.825	53153
608.893	52593
608.960	53797
609.028	55293
609.095	55869
609.163	49780
609.230	45903
609.298	42013
609.365	41897
609.432	44640
609.500	47643
609.567	53921
609.635	61082
609.702	64033
609.769	63283
609.837	54814
609.904	49446
609.971	51914
610.039	63191
610.106	89418
610.173	178590
610.241	424374
610.308	416536
610.375	196151
610.442	79173
610.509	56718
610.577	51834
610.644	49295
610.711	48626
610.778	49178
610.845	51013
610.912	56015
610.980	64570
611.047	86812
611.114	71198
611.181	52350
611.248	51042
611.315	52934
611.382	53971
611.449	54695
611.516	56451
611.583	56170
611.650	56300
611.717	57803
611.784	59108
611.851	64935
611.918	75369
611.984	91386
612.051	140723
612.118	306104
612.185	790446
612.252	662516
612.319	143202
612.386	85495
612.452	73762
612.519	70725
612.586	72017
612.653	67390
612.719	65938
612.786	62832
612.853	57479
612.919	56631
612.986	56103
613.053	54377
613.120	51283
613.186	48358
613.253	51142
613.319	50115
613.386	51536
613.453	52810
613.519	54928
613.586	57141
613.652	69368
613.719	61699
613.785	60174
613.852	55179
613.918	56130
613.985	63491
614.051	87368
614.118	163778
614.184	179405
614.250	64113
614.317	55799
614.383	51997
614.449	52153
614.516	52542
614.582	53020
614.648	51163
614.715	50265
614.781	50114
614.847	50728
614.914	51344
614.980	51281
615.046	50265
615.112	51264
615.179	52911
615.245	55941
615.311	62603
615.377	81059
615.443	97755
615.509	76725
615.575	63960
615.642	60434
615.708	63245
615.774	67325
615.840	75746
615.906	92914
615.972	133421
616.038	240815
616.104	473834
616.170	1028083
616.236	1101702
616.302	255643
616.368	131543
616.434	93389
616.500	81445
616.565	81766
616.631	99792
616.697	88992
616.763	86125
616.829	122160
616.895	215738
616.961	245176
617.026	123419
617.092	70783
617.158	60114
617.224	55915
617.289	52734
617.355	48709
617.421	47434
617.487	47699
617.552	45678
617.618	44104
617.684	43915
617.749	46787
617.815	43566
617.880	41963
617.946	41752
618.012	42915
618.077	43371
618.143	41869
618.208	42581
618.274	44950
618.339	45024
618.405	39255
618.470	39323
618.536	39823
618.601	40446
618.667	37740
618.732	36045
618.798	36479
618.863	35039
618.928	34649
618.994	37085
619.059	39496
619.124	46716
619.190	41655
619.255	35518
619.320	35464
619.386	35467
619.451	33421
619.516	33064
619.581	34113
619.647	35262
619.712	34249
619.777	35027
619.842	35572
619.907	35181
619.972	36015
620.038	36341
620.103	34199
620.168	33148
620.233	34023
620.298	33849
620.363	34472
620.428	34918
620.493	35353
620.558	36365
620.623	37182
620.688	36638
620.753	35916
620.818	36420
620.883	36863
620.948	37434
621.013	35948
621.078	36641
621.143	35681
621.207	40284
621.272	37876
621.337	38952
621.402	38618
621.467	41807
621.532	44942
621.596	41243
621.661	38060
621.726	37088
621.791	37712
621.855	38275
621.920	40516
621.985	39335
622.049	43154
622.114	41381
622.179	39489
622.243	40620
622.308	39601
622.373	41802
622.437	41324
622.502	39640
622.566	38839
622.631	39380
622.695	39663
622.760	39601
622.824	39112
622.889	38733
622.953	41302
623.018	52399
623.082	54895
623.147	41782
623.211	41117
623.276	40259
623.340	38478
623.404	36649
623.469	36753
623.533	36637
623.597	36756
623.662	36454
623.726	36238
623.790	34041
623.854	33352
623.919	34749
623.983	34667
624.047	34294
624.111	34131
624.176	34420
624.240	37504
624.304	41568
624.368	35223
624.432	35489
624.496	35698
624.560	38618
624.625	40710
624.689	37766
624.753	36548
624.817	36200
624.881	34480
624.945	33045
625.009	32625
625.073	32843
625.137	33333
625.201	39683
625.265	40972
625.329	34477
625.393	34916
625.456	34958
625.520	34878
625.584	37925
625.648	43848
625.712	53273
625.776	91671
625.839	108273
625.903	56880
625.967	33917
626.031	45753
626.095	68450
626.158	38928
626.222	26562
626.286	26762
626.349	25145
626.413	24187
626.477	26271
626.540	24880
626.604	25196
626.668	24667
626.731	23936
626.795	24655
626.858	25046
626.922	23131
626.986	23663
627.049	22266
627.113	23713
627.176	23010
627.240	22141
627.303	22169
627.366	22936
627.430	23434
627.493	22916
627.557	22177
627.620	23105
627.684	23762
627.747	22771
627.810	21335
627.874	21333
627.937	19239
628.000	22121
628.064	21406
628.127	18976
628.190	19659
628.253	19409
628.317	17659
628.380	17172
628.443	17952
628.506	19052
628.569	16693
628.632	16225
628.696	16306
628.759	15716
628.822	15433
628.885	15569
628.948	16551
629.011	15849
629.074	14910
629.137	14596
629.200	14844
629.263	17495
629.326	14058
629.389	15034
629.452	15711
629.515	15591
629.578	16242
629.641	16553
629.704	15567
629.767	16781
629.830	16051
629.892	15571
629.955	14407
630.018	17363
630.081	16824
630.144	20469
630.207	16120
630.269	17569
630.332	16329
630.395	15670
630.458	13485
630.520	14003
630.583	14617
630.646	14083
630.708	13442
630.771	13614
630.834	13856
630.896	12599
630.959	13674
631.021	12786
631.084	14044
631.146	15139
631.209	17144
631.272	13810
631.334	14560
631.397	14266
631.459	13529
631.522	15276
631.584	15447
631.646	16093
631.709	15862
631.771	19308
631.834	17826
631.896	15242
631.958	13575
632.021	14614
632.083	13039
632.145	14695
632.208	14071
632.270	14375
632.332	12098
632.395	12992
632.457	13117
632.519	12839
632.581	13196
632.643	12220
632.706	13633
632.768	11288
632.830	12315
632.892	12156
632.954	12675
633.016	13018
633.078	12552
633.141	12545
633.203	12423
633.265	12690
633.327	12725
633.389	12664
633.451	13767
633.513	15818
633.575	15587
633.637	15752
633.698	15255
633.760	14401
633.822	13336
633.884	13969
633.946	14098
634.008	15191
634.070	17272
634.132	24656
634.193	20993
634.255	17007
634.317	16909
634.379	18015
634.441	15374
634.502	15678
634.564	13961
634.626	13208
634.687	13464
634.749	12727
634.811	13245
634.873	11595
634.934	12677
634.996	12461
635.057	12033
635.119	11684
635.181	12750
635.242	12494
635.304	10979
635.365	14207
635.427	11921
635.488	12430
635.550	11276
635.611	13143
635.673	11655
635.734	14666
635.796	14235
635.857	16057
635.918	15148
635.980	16676
636.041	16668
636.102	17776
636.164	17749
636.225	18113
636.286	15104
636.348	15264
636.409	13766
636.470	12533
636.531	12747
636.593	13145
636.654	13201
636.715	10977
636.776	11387
636.838	10383
636.899	11453
636.960	10804
637.021	10401
637.082	10448
637.143	10724
637.204	9596
637.265	9580
637.326	10845
637.387	9425
637.448	9192
637.509	10451
637.570	10159
637.631	10900
637.692	9637
637.753	8461
637.814	9973
637.875	9829
637.936	10481
637.997	10114
638.058	10590
638.119	10396
638.179	8898
638.240	9640
638.301	8667
638.362	8940
638.423	8539
638.483	9878
638.544	8579
638.605	9274
638.666	8187
638.726	9829
638.787	9796
638.848	8878
638.908	9072
638.969	8492
639.030	8468
639.090	7990
639.151	8443
639.211	9636
639.272	12014
639.332	18005
639.393	13235
639.453	9723
639.514	9628
639.574	9082
639.635	8415
639.695	8248
639.756	8177
639.816	9703
639.877	10813
639.937	15203
639.997	20473
640.058	10222
640.118	8256
640.178	8885
640.239	7485
640.299	7794
640.359	8482
640.420	8662
640.480	9633
640.540	9984
640.600	10696
640.661	11090
640.721	10307
640.781	15201
640.841	14451
640.901	10671
640.961	9206
641.021	9326
641.082	10687
641.142	13910
641.202	11599
641.262	6666
641.322	8726
641.382	7479
641.442	8801
641.502	7896
641.562	8587
641.622	7918
641.682	8027
641.742	9119
641.802	9423
641.861	8752
641.921	8360
641.981	9883
642.041	9377
642.101	12091
642.161	8171
642.221	7688
642.280	7561
642.340	7145
642.400	7178
642.460	8666
642.519	8083
642.579	7429
642.639	8506
642.698	6384
642.758	10159
642.818	7908
642.877	7322
642.937	8949
642.997	9925
643.056	12792
643.116	8971
643.175	10059
643.235	8265
643.294	8984
643.354	9081
643.414	10871
643.473	13560
643.532	15695
643.592	22494
643.651	37438
643.711	65986
643.770	128007
643.830	294654
643.889	718973
643.948	231476
644.008	33901
644.067	19160
644.126	14200
644.186	11664
644.245	9986
644.304	8037
644.363	10532
644.423	8120
644.482	9174
644.541	9393
644.600	8249
644.659	12412
644.719	12710
644.778	18804
644.837	30804
644.896	60481
644.955	152558
645.014	70521
645.073	21209
645.132	12232
645.191	10361
645.250	8447
645.309	10057
645.368	9437
645.427	12784
645.486	16623
645.545	32346
645.604	12561
645.663	9464
645.722	8696
645.781	9071
645.840	11629
645.898	14029
645.957	21696
646.016	31917
646.075	60595
646.134	116302
646.192	289139
646.251	527562
646.310	100387
646.369	22742
646.427	16330
646.486	10982
646.545	10438
646.603	9627
646.662	8114
646.721	7867
646.779	7570
646.838	7551
646.896	11073
646.955	12357
647.014	19180
647.072	33184
647.131	90745
647.189	57771
647.248	9617
647.306	7990
647.365	7660
647.423	5980
647.481	6830
647.540	4787
647.598	6135
647.657	5487
647.715	6068
647.773	4837
647.832	6722
647.890	4833
647.948	5992
648.007	7075
648.065	5263
648.123	5545
648.181	9668
648.240	12429
648.298	12037
648.356	6251
648.414	5866
648.472	5943
648.531	7409
648.589	5385
648.647	5995
648.705	5781
648.763	5368
648.821	5657
648.879	6183
648.937	6961
648.995	9699
649.053	10524
649.111	16097
649.169	26575
649.227	45405
649.285	88595
649.343	264892
649.401	173649
649.459	38909
649.516	30474
649.574	25748
649.632	54151
649.690	83057
649.748	30648
649.806	33152
649.863	59715
649.921	69470
649.979	55744
650.037	11215
650.094	5826
650.152	6614
650.210	5941
650.268	6836
650.325	6819
650.383	8392
650.440	5598
650.498	5697
650.556	4812
650.613	3591
650.671	5134
650.728	4634
650.786	4780
650.843	6059
650.901	4848
650.958	4663
651.016	4792
651.073	4123
651.131	4030
651.188	4188
651.246	4458
651.303	3496
651.360	5276
651.418	4142
651.475	4206
651.532	2592
651.590	4511
651.647	3045
651.704	3390
651.762	4072
651.819	4746
651.876	3543
651.933	4443
651.990	5066
652.048	2727
652.105	3289
652.162	4340
652.219	2951
652.276	4069
652.333	4233
652.390	3703
652.448	4804
652.505	4917
652.562	5468
652.619	7726
652.676	15304
652.733	18998
652.790	5570
652.847	3067
652.904	3943
652.961	3490
653.017	3579
653.074	3159
653.131	4059
653.188	3081
653.245	3466
653.302	3492
653.359	3182
653.415	3972
653.472	3654
653.529	3830
653.586	2711
653.642	3178
653.699	3859
653.756	2924
653.813	2823
653.869	3522
653.926	3109
653.983	2574
654.039	3808
654.096	2899
654.152	4281
654.209	2484
654.266	4110
654.322	3086
654.379	3931
654.435	4780
654.492	4243
654.548	6031
654.605	9065
654.661	6244
654.717	4110
654.774	3304
654.830	3817
654.887	4374
654.943	3977
655.000	4745
655.056	4893
655.112	4261
655.168	3149
655.225	4267
655.281	4150
655.337	5158
655.394	8555
655.450	7536
655.506	5141
655.562	8079
655.618	8285
655.675	3266
655.731	3511
655.787	3200
655.843	4089
655.899	2123
655.955	4915
656.011	4169
656.067	2803
656.123	4584
656.179	3747
656.235	4666
656.291	2169
656.347	4268
656.403	3364
656.459	3744
656.515	3825
656.571	4493
656.627	3782
656.683	3504
656.739	4413
656.795	3246
656.850	4125
656.906	4703
656.962	4498
657.018	2961
657.074	3269
657.129	4090
657.185	5189
657.241	8818
657.297	6184
657.352	3681
657.408	3096
657.464	4029
657.519	3231
657.575	2919
657.630	3106
657.686	3519
657.742	3215
657.797	2949
657.853	2384
657.908	3739
657.964	2760
658.019	3728
658.075	2927
658.130	3792
658.186	2466
658.241	4214
658.297	2202
658.352	2508
658.407	2936
658.463	2611
658.518	3750
658.573	4130
658.629	1942
658.684	2695
658.739	2946
658.795	2797
658.850	3199
658.905	3200
658.960	2972
659.016	2233
659.071	3365
659.126	3848
659.181	3527
659.236	6882
659.291	7964
659.346	4346
659.401	6148
659.457	7317
659.512	13896
659.567	7616
659.622	2996
659.677	1901
659.732	3094
659.787	2602
659.842	3467
659.897	5021
659.952	3800
660.007	3095
660.061	3176
660.116	2372
660.171	2443
660.226	2638
660.281	3581
660.336	2370
660.391	4192
660.445	2701
660.500	2492
660.555	3729
660.610	2434
660.664	3009
660.719	3062
660.774	2974
660.828	3163
660.883	3079
660.938	3344
660.992	2212
661.047	3514
661.101	3095
661.156	2740
661.211	2180
661.265	2799
661.320	2958
661.374	3024
661.429	2732
661.483	3789
661.538	3069
661.592	2964
661.647	3246
661.701	4342
661.755	3463
661.810	3323
661.864	1797
661.919	2641
661.973	3028
662.027	2262
662.081	2835
662.136	2172
662.190	3639
662.244	2773
662.299	3001
662.353	2764
662.407	2258
662.461	2844
662.515	3112
662.569	2644
662.624	3617
662.678	2305
662.732	3373
662.786	2514
662.840	3243
662.894	2709
662.948	2717
663.002	2555
663.056	2717
663.110	1738
663.164	2261
663.218	2727
663.272	2526
663.326	3374
663.380	3009
663.434	2544
663.488	2709
663.542	2385
663.595	2857
663.649	2505
663.703	3382
663.757	3252
663.811	2167
663.864	1549
663.918	3465
663.972	2173
664.026	3482
664.079	1860
664.133	3265
664.187	2870
664.240	2324
664.294	2675
664.348	2544
664.401	2864
664.455	2152
664.508	2263
664.562	1698
664.615	2306
664.669	2071
664.722	2838
664.776	2973
664.829	2782
664.883	2757
664.936	2215
664.990	2746
665.043	2977
665.097	2535
665.150	3584
665.203	2245
665.257	2927
665.310	2866
665.363	2446
665.417	3638
665.470	2666
665.523	2116
665.576	2988
665.630	3669
665.683	2989
665.736	2606
665.789	2412
665.842	2180
665.895	2106
665.949	2505
666.002	2157
666.055	3331
666.108	3226
666.161	2994
666.214	2888
666.267	3596
666.320	3602
666.373	3338
666.426	3462
666.479	2688
666.532	2799
666.585	3485
666.638	4544
666.691	3042
666.744	3860
666.796	3143
666.849	4183
666.902	3492
666.955	2615
667.008	2519
667.060	1628
667.113	2005
667.166	2687
667.219	3349
667.271	2187
667.324	2951
667.377	3371
667.430	4286
667.482	5430
667.535	6116
667.587	4668
667.640	3806
667.693	2911
667.745	5835
667.798	6912
667.850	3509
667.903	2783
667.955	2747
668.008	2931
668.060	3294
668.113	2806
668.165	3966
668.218	3334
668.270	3056
668.322	2784
668.375	1891
668.427	2594
668.479	2558
668.532	3252
668.584	3425
668.636	3399
668.689	3285
668.741	2654
668.793	3486
668.845	3025
668.898	2655
668.950	3442
669.002	3132
669.054	2348
669.106	3633
669.158	3750
669.211	4037
669.263	4465
669.315	6715
669.367	8702
669.419	5154
669.471	5030
669.523	6045
669.575	8416
669.627	7774
669.679	5309
669.731	4791
669.783	5865
669.835	5795
669.886	6305
669.938	6511
669.990	3982
670.042	4097
670.094	5324
670.146	6165
670.197	7403
670.249	9927
670.301	10856
670.353	16517
670.404	24752
670.456	35045
670.508	55061
670.560	87649
670.611	143275
670.663	243491
670.715	513626
670.766	852552
670.818	417952
670.869	82147
670.921	34627
670.972	21838
671.024	15398
671.075	12520
671.127	10585
671.178	7908
671.230	8283
671.281	6495
671.333	6634
671.384	5779
671.436	7315
671.487	7528
671.538	7593
671.590	10233
671.641	13654
671.692	20327
671.744	34900
671.795	34026
671.846	15145
671.897	9515
671.949	6161
672.000	4739
672.051	4443
672.102	4488
672.153	4129
672.204	3529
672.256	3611
672.307	2868
672.358	4157
672.409	3310
672.460	3440
672.511	3182
672.562	2288
672.613	2810
672.664	3508
672.715	2624
672.766	2848
672.817	2512
672.868	2503
672.919	3094
672.970	2464
673.021	2391
673.071	2147
673.122	3094
673.173	2842
673.224	3015
673.275	2442
673.326	2032
673.376	2957
673.427	1711
673.478	2764
673.528	3063
673.579	2996
673.630	2145
673.680	2630
673.731	2490
673.782	2014
673.832	2224
673.883	2580
673.934	2470
673.984	2139
674.035	2548
674.085	2778
674.136	2178
674.186	3403
674.237	3388
674.287	4877
674.338	3332
674.388	2080
674.438	1524
674.489	3010
674.539	2849
674.589	2124
674.640	2724
674.690	3005
674.740	2183
674.791	2353
674.841	2640
674.891	2377
674.942	2474
674.992	2058
675.042	2204
675.092	1951
675.142	1958
675.193	2154
675.243	2183
675.293	2753
675.343	2492
675.393	1795
675.443	2775
675.493	2386
675.543	1793
675.593	1654
675.643	1879
675.693	2138
675.743	1740
675.793	2192
675.843	1341
675.893	1641
675.943	1819
675.993	1960
676.043	2071
676.093	2522
676.142	1583
676.192	2037
676.242	1744
676.292	1708
676.341	2232
676.391	2529
676.441	1334
676.491	2074
676.540	1382
676.590	1584
676.640	984
676.689	1863
676.739	945
676.789	1927
676.838	1610
676.888	1457
676.937	1699
676.987	2161
677.037	1755
677.086	1221
677.136	1666
677.185	2137
677.235	957
677.284	2018
677.333	1134
677.383	1155
677.432	1041
677.482	1635
677.531	1980
677.580	1626
677.630	881
677.679	1728
677.728	1334
677.778	1395
677.827	1235
677.876	1753
677.925	681
677.975	1784
678.024	1184
678.073	1777
678.122	2388
678.171	1248
678.220	1799
678.269	1636
678.319	2588
678.368	1572
678.417	1865
678.466	2042
678.515	2169
678.564	1117
678.613	1325
678.662	1259
678.711	1894
678.760	2160
678.809	1426
678.857	1476
678.906	2369
678.955	1055
679.004	1378
679.053	1335
679.102	2075
679.151	1900
679.199	1074
679.248	1842
679.297	702
679.346	1844
679.394	1404
679.443	2575
679.492	1877
679.540	1876
679.589	981
679.638	1830
679.686	965
679.735	748
679.784	1109
679.832	1585
679.881	1247
679.929	1630
679.978	1111
680.026	929
680.075	2154
680.123	1166
680.172	656
680.220	1146
680.268	653
680.317	1437
680.365	2084
680.414	504
680.462	1010
680.510	1105
680.559	1037
680.607	1166
680.655	1208
680.703	1195
680.752	815
680.800	665
680.848	1073
680.896	1002
680.945	437
680.993	1103
681.041	1376
681.089	1800
681.137	1254
681.185	1665
681.233	629
681.258	1103
681.281	1516
681.329	414
681.377	869
681.380	917
681.425	1181
681.473	1160
681.502	1652
681.521	1927
681.569	1909
681.617	1592
681.624	1600
681.665	1394
681.713	1776
681.745	1856
681.761	1846
681.809	1735
681.857	1652
681.867	1681
681.904	1628
681.952	2029
681.989	1677
682.000	1528
682.048	1808
682.096	1969
682.111	2135
682.143	2385
682.191	2383
682.233	3013
682.239	3076
682.286	2202
682.334	2882
682.354	2825
682.382	2689
682.430	3143
682.476	2774
682.477	2734
682.525	2731
682.572	2757
682.598	3031
682.620	3230
682.667	2390
682.715	3055
682.720	3073
682.763	2946
682.810	3710
682.841	3259
682.857	2981
682.905	2743
682.952	3796
682.963	3808
683.000	3746
683.047	3768
683.085	3983
683.095	4005
683.142	3797
683.190	4054
683.206	3822
683.237	3304
683.284	4319
683.328	3987
683.332	3937
683.379	3937
683.426	3700
683.449	4033
683.473	4318
683.521	3875
683.568	4554
683.571	4545
683.615	4072
683.662	4832
683.693	4342
683.709	4037
683.757	4676
683.804	4669
683.814	4739
683.851	4858
683.898	5113
683.936	4973
683.945	4931
683.992	4807
684.039	5127
684.057	5202
684.086	5256
684.133	5495
684.179	5195
684.180	5158
684.227	5743
684.274	5505
684.300	5765
684.321	5977
684.368	5429
684.415	5993
684.422	5912
684.462	5307
684.509	5795
684.543	5952
684.556	5983
684.603	5795
684.649	5580
684.665	5608
684.696	5644
684.743	5726
684.786	6045
684.790	6055
684.837	5993
684.883	7028
684.908	6817
684.930	6592
684.977	7223
685.023	7145
685.029	7137
685.070	6894
685.117	6961
685.150	6977
685.164	6983
685.210	7040
685.257	7873
685.272	7900
685.303	7827
685.350	7550
685.393	8118
685.396	8150
685.443	7594
685.490	7913
685.514	7980
685.536	8054
685.583	8220
685.629	8673
685.636	8612
685.675	8027
685.722	7974
685.757	7742
685.768	7691
685.815	8443
685.861	8248
685.878	8254
685.908	8283
685.954	8106
686.000	8552
686.000	8551
686.047	9134
686.093	9689
686.121	9793
686.139	9672
686.185	9327
686.232	8466
686.242	8505
686.278	8744
686.324	8858
686.363	9125
686.370	9188
686.416	9087
686.463	9639
686.484	9392
686.509	9109
686.555	9900
686.601	8819
686.606	8898
686.647	9309
686.693	9298
686.727	8998
686.739	8969
686.785	9375
686.831	9302
686.848	9324
686.877	9188
686.923	9143
686.969	9206
686.969	9206
687.015	9148
687.061	9542
687.090	9658
687.107	9634
687.153	9575
687.199	9498
687.211	9402
687.245	9265
687.291	9418
687.332	10247
687.336	10332
687.382	10450
687.428	9868
687.453	10151
687.474	10286
687.520	10193
687.565	10545
687.574	10409
687.611	10251
687.657	11102
687.695	11293
687.702	11433
687.748	13170
687.794	14781
687.816	14970
687.839	14186
687.885	13213
687.931	11982
687.937	11838
687.976	11513
688.022	11148
688.058	10991
688.067	11013
688.113	11095
688.158	10497
688.179	10601
688.204	10833
688.249	11168
688.295	11458
688.300	11478
688.340	11835
688.386	12345
688.421	12040
688.431	11871
688.477	11554
688.522	11748
688.542	11601
688.567	11626
688.613	11999
688.658	11923
688.663	11920
688.703	11913
688.749	12429
688.784	12109
688.794	11991
688.839	12233
688.884	11938
688.905	11952
688.930	12014
688.975	11950
689.020	12344
689.026	12297
689.065	12423
689.110	12669
689.146	13158
689.155	13252
689.201	13446
689.246	13529
689.267	13488
689.291	13263
689.336	13437
689.381	12686
689.388	12672
689.426	13084
689.471	13409
689.509	13268
689.516	13221
689.561	13037
689.606	13176
689.630	13187
689.651	13285
689.696	13334
689.741	13618
689.750	13662
689.785	13854
689.830	13550
689.871	13758
689.875	13804
689.920	13736
689.965	13661
689.992	13822
690.010	14024
690.054	14532
690.099	14781
690.112	14875
690.144	15185
690.189	15150
690.233	15488
690.233	15512
690.278	15945
690.323	16234
690.354	16649
690.367	16915
690.412	17272
690.457	17805
690.474	18059
690.501	18910
690.546	20004
690.590	21237
690.595	21346
690.635	23399
690.680	25794
690.716	27338
690.724	28210
690.769	33396
690.813	38332
690.836	40935
690.857	47134
690.902	60242
690.946	73998
690.957	77394
690.991	107431
691.035	148158
691.077	188537
691.080	189548
691.124	196918
691.168	200702
691.198	203593
691.213	189764
691.257	149996
691.301	110362
691.318	94791
691.346	84086
691.390	66648
691.434	49169
691.439	47171
691.478	42112
691.522	36524
691.559	31498
691.567	31146
691.611	29225
691.655	26659
691.680	25020
691.699	24328
691.743	23502
691.787	22353
691.800	21922
691.831	21468
691.875	21026
691.919	20137
691.921	20088
691.964	20207
692.008	19877
692.041	19935
692.052	20024
692.096	19682
692.139	20217
692.162	20106
692.183	19799
692.227	19188
692.271	18918
692.282	18755
692.315	18885
692.359	18572
692.402	18867
692.403	18904
692.447	18864
692.490	18567
692.523	18877
692.534	19143
692.578	19369
692.622	19349
692.643	19541
692.666	19631
692.709	19762
692.753	19669
692.763	19646
692.797	20081
692.840	20478
692.884	20662
692.884	20710
692.928	21397
692.971	22580
693.004	23103
693.015	23186
693.059	23567
693.102	23905
693.124	23997
693.146	24794
693.189	26531
693.233	27748
693.245	28105
693.276	30220
693.320	33358
693.363	36241
693.365	36280
693.407	41092
693.450	46018
693.485	50002
693.493	52438
693.537	64375
693.580	76461
693.605	83735
693.624	96989
693.667	127284
693.710	158795
693.725	169824
693.753	228217
693.797	320043
693.840	414366
693.845	424546
693.883	437896
693.926	447049
693.966	455890
693.970	447882
694.013	356942
694.056	265949
694.086	203414
694.099	191657
694.142	152644
694.185	113836
694.206	95098
694.229	88054
694.272	74675
694.315	61080
694.326	57409
694.358	53318
694.401	47826
694.444	42317
694.446	41948
694.487	39330
694.530	36427
694.566	33825
694.573	33496
694.616	31107
694.659	28790
694.686	27039
694.702	26779
694.745	26425
694.787	25419
694.806	25077
694.830	24762
694.873	24102
694.916	23617
694.926	23374
694.959	23142
695.002	22794
695.044	22406
695.046	22344
695.087	22733
695.130	22944
695.166	23100
695.172	23058
695.215	22539
695.258	21861
695.286	21353
695.301	21378
695.343	21290
695.386	21354
695.406	21274
695.428	21222
695.471	21171
695.514	20791
695.526	20722
695.556	21103
695.599	21410
695.641	21749
695.646	21754
695.684	21574
695.726	21008
695.766	20582
695.769	20641
695.811	20693
695.854	20743
695.886	20872
695.896	20929
695.938	20630
695.981	20532
696.005	20389
696.023	20615
696.065	20873
696.108	21463
696.125	21596
696.150	21736
696.192	21950
696.235	21925
696.245	21936
696.277	22478
696.319	22909
696.361	23459
696.365	23448
696.404	24618
696.446	25710
696.485	26715
696.488	26711
696.530	25677
696.572	24826
696.604	24014
696.614	23949
696.656	23447
696.698	22933
696.724	22562
696.740	22515
696.783	22233
696.825	21980
696.844	21791
696.867	21736
696.909	21525
696.951	21295
696.964	21186
696.992	21228
697.034	21160
697.076	21100
697.083	21023
697.118	21350
697.160	21753
697.202	22208
697.203	22160
697.244	21617
697.286	21081
697.323	20484
697.327	20577
697.369	21039
697.411	21353
697.442	21580
697.453	21583
697.494	21353
697.536	21159
697.562	20971
697.578	21031
697.620	21010
697.661	21020
697.682	20960
697.703	21266
697.744	21732
697.786	22320
697.801	22402
697.828	22308
697.869	22232
697.911	22103
697.921	22004
697.952	21784
697.994	21447
698.035	21089
698.040	20993
698.077	21180
698.118	21280
698.160	21402
698.160	21344
698.201	21386
698.243	21332
698.279	21271
698.284	21380
698.325	21842
698.367	22276
698.399	22579
698.408	22605
698.449	22413
698.491	22254
698.518	22063
698.532	22193
698.573	22423
698.614	22653
698.638	22725
698.656	22708
698.697	22524
698.738	22325
698.757	22170
698.779	22391
698.820	22702
698.862	23006
698.877	23061
698.903	23162
698.944	23208
698.985	23266
698.996	23218
699.026	23215
699.067	23124
699.116	22954
699.235	22887
699.354	21878
699.474	22155
699.593	23077
699.713	23220
699.832	21707
699.951	22273
700.070	22161
700.190	21945
700.309	20943
700.428	21554
700.547	21281
700.667	21850
700.786	21354
700.905	20004
701.024	20520
701.143	20486
701.262	20199
701.381	19180
701.500	20652
701.619	21125
701.738	20537
701.857	20128
701.976	18900
702.095	19409
702.214	21065
702.333	20078
702.452	19971
702.571	20370
702.690	20442
702.809	19790
702.928	19517
703.047	20373
703.165	19523
703.284	19071
703.403	18861
703.522	19797
703.640	20319
703.759	21418
703.878	22844
703.997	20274
704.115	19575
704.234	19224
704.353	18676
704.471	18108
704.590	17502
704.708	18618
704.827	18030
704.946	17994
705.064	18469
705.183	18887
705.301	20093
705.420	24647
705.538	24090
705.656	25007
705.775	27950
705.893	63562
706.012	89257
706.130	25734
706.249	23081
706.367	21147
706.485	21538
706.604	21285
706.722	21638
706.840	25250
706.958	30801
707.077	27863
707.195	21111
707.313	19874
707.431	19753
707.549	19848
707.668	19198
707.786	20045
707.904	19236
708.022	19232
708.140	18950
708.258	19224
708.376	19358
708.494	18920
708.612	20711
708.730	24574
708.848	24806
708.966	22950
709.084	21929
709.202	21842
709.320	22178
709.438	21976
709.556	22381
709.674	21301
709.791	22096
709.909	20863
710.027	21303
710.145	22007
710.263	21191
710.380	21188
710.498	20965
710.616	20868
710.733	20292
710.851	20284
710.969	21407
711.086	20146
711.204	20438
711.322	19288
711.439	19963
711.557	19875
711.674	20010
711.792	21034
711.909	24955
712.027	29875
712.144	20690
712.262	19449
712.379	19197
712.497	24242
712.614	27131
712.732	24399
712.849	22669
712.966	21845
713.084	23935
713.201	23105
713.318	22339
713.436	22993
713.553	22888
713.670	22978
713.787	25185
713.905	24121
714.022	22980
714.139	22121
714.256	26537
714.373	30669
714.490	43887
714.608	89983
714.725	357695
714.842	445990
714.959	49157
715.076	26348
715.193	22507
715.310	23466
715.427	20548
715.544	20078
715.661	20343
715.778	20236
715.895	21643
716.011	21212
716.128	20810
716.245	20959
716.362	20941
716.479	21317
716.596	19903
716.713	20692
716.829	19013
716.946	19453
717.063	17703
717.180	18220
717.296	18527
717.413	18455
717.530	18151
717.646	17379
717.763	18516
717.880	16839
717.996	18321
718.113	18303
718.229	17388
718.346	17652
718.462	17566
718.579	18529
718.695	23063
718.812	21854
718.928	20620
719.045	17833
719.161	17199
719.277	17801
719.394	18405
719.510	19822
719.626	18724
719.743	21439
719.859	24623
719.975	36006
720.092	106490
720.208	264368
720.324	48636
720.440	20996
720.557	19625
720.673	21975
720.789	26264
720.905	41715
721.021	23444
721.137	17341
721.253	17722
721.369	16690
721.486	17542
721.602	19908
721.718	16408
721.834	15567
721.950	15395
722.066	16393
722.181	15682
722.297	15874
722.413	15420
722.529	16066
722.645	16024
722.761	15981
722.877	16001
722.993	16050
723.108	17224
723.224	16483
723.340	15981
723.456	14928
723.571	15334
723.687	14675
723.803	14026
723.918	15180
724.034	14446
724.150	15006
724.265	14713
724.381	20811
724.497	24286
724.612	14891
724.728	14406
724.843	13457
724.959	14908
725.074	20790
725.190	22129
725.305	15091
725.421	14562
725.536	14488
725.651	13366
725.767	13056
725.882	14108
725.997	13080
726.113	13670
726.228	12872
726.343	12803
726.459	13124
726.574	13680
726.689	12798
726.804	13080
726.920	13873
727.035	13303
727.150	13666
727.265	13558
727.380	13287
727.495	13434
727.610	13410
727.725	14975
727.841	19573
727.956	42527
728.071	34795
728.186	13450
728.301	12002
728.416	13603
728.531	12712
728.645	12377
728.760	12518
728.875	12790
728.990	12890
729.105	13337
729.220	12405
729.335	13405
729.449	11677
729.564	11998
729.679	12044
729.794	12126
729.908	12580
730.023	12815
730.138	11642
730.253	12439
730.367	12183
730.482	11590
730.596	12794
730.711	12360
730.826	13929
730.940	15967
731.055	13084
731.169	12506
731.284	11767
731.398	11977
731.513	13953
731.627	12756
731.742	14455
731.856	15396
731.970	13050
732.085	15844
732.199	18495
732.313	26562
732.428	53514
732.542	126998
732.656	85928
732.771	25276
732.885	16874
732.999	15329
733.113	15347
733.227	14648
733.342	13419
733.456	13302
733.570	13050
733.684	13026
733.798	12838
733.912	12310
734.026	12403
734.140	12162
734.254	12914
734.368	17196
734.482	18186
734.596	12788
734.710	12135
734.824	12873
734.938	11802
735.052	12428
735.166	12950
735.280	12893
735.393	13364
735.507	13072
735.621	13721
735.735	16891
735.849	12320
735.962	12366
736.076	12340
736.190	12764
736.303	13464
736.417	15227
736.531	12297
736.644	12271
736.758	11526
736.872	11784
736.985	11036
737.099	11743
737.212	11813
737.326	12022
737.439	12090
737.553	11284
737.666	11827
737.780	10530
737.893	12430
738.007	11761
738.120	11466
738.233	11690
738.347	11706
738.460	11378
738.573	12789
738.687	12089
738.800	12502
738.913	12636
739.026	11773
739.140	12830
739.253	14307
739.366	12062
739.479	11079
739.592	11464
739.705	11177
739.818	11311
739.932	11261
740.045	11626
740.158	11403
740.271	11627
740.384	10660
740.497	11685
740.610	12798
740.723	11745
740.836	12381
740.949	12201
741.062	12609
741.174	11684
741.287	11604
741.400	11610
741.513	11640
741.626	12663
741.739	12071
741.851	10876
741.964	11173
742.077	11140
742.189	10683
742.302	11973
742.415	11311
742.527	10768
742.640	11720
742.753	11101
742.865	10880
742.978	11629
743.090	10703
743.203	10592
743.316	11904
743.428	11456
743.541	11432
743.653	11326
743.766	11321
743.878	11858
743.990	11956
744.103	13260
744.215	11205
744.327	10377
744.440	12296
744.552	12424
744.664	11339
744.777	11489
744.889	11573
745.001	11762
745.113	10647
745.226	10937
745.338	11244
745.450	11494
745.562	11926
745.674	11161
745.786	11233
745.898	11794
746.010	11568
746.122	11785
746.234	12159
746.347	11739
746.459	11394
746.570	11330
746.682	11663
746.794	12664
746.906	11862
747.018	11324
747.130	11102
747.242	11266
747.354	11297
747.466	12262
747.577	11306
747.689	11649
747.801	10876
747.913	11006
748.024	11323
748.136	10970
748.248	12787
748.359	11671
748.471	11917
748.583	12111
748.694	13217
748.806	16454
748.918	12525
749.029	13038
749.141	12342
749.252	13281
749.364	12902
749.475	15368
749.587	13798
749.698	12141
749.809	12737
749.921	12125
750.032	11834
750.144	11773
750.255	11628
750.366	10647
750.478	12056
750.589	12601
750.700	11719
750.811	13069
750.923	12959
751.034	15951
751.145	16262
751.256	12470
751.367	12636
751.479	12376
751.590	12048
751.701	11999
751.812	11866
751.923	13239
752.034	12597
752.145	12514
752.256	12769
752.367	12806
752.478	12561
752.589	12931
752.700	12741
752.811	12196
752.922	13275
753.032	13412
753.143	13726
753.254	12234
753.365	14366
753.476	13115
753.586	13551
753.697	12908
753.808	13503
753.919	13871
754.029	13672
754.140	13256
754.251	13402
754.361	13736
754.472	14328
754.582	14069
754.693	14572
754.804	15526
754.914	14225
755.025	14245
755.135	14939
755.246	15208
755.356	14988
755.466	15372
755.577	14966
755.687	16324
755.798	14744
755.908	16196
756.018	16273
756.129	15873
756.239	16714
756.349	16451
756.460	16704
756.570	16504
756.680	16269
756.790	16343
756.900	17226
757.011	16548
757.121	17414
757.231	17289
757.341	18030
757.451	17656
757.561	17745
757.671	18070
757.781	18267
757.891	18820
758.001	18346
758.111	20097
758.221	19394
758.331	20471
758.441	20807
758.551	21244
758.661	21518
758.771	22027
758.880	22141
758.990	22883
759.100	21916
759.210	23606
759.320	23562
759.429	24074
759.539	24243
759.649	24970
759.758	24910
759.868	25905
759.978	25554
760.087	27375
760.197	27947
760.307	28418
760.416	28428
760.526	29021
760.635	31018
760.745	30618
760.854	31546
760.964	32915
761.073	34079
761.182	33597
761.292	35143
761.401	34928
761.511	35269
761.620	37820
761.729	38989
761.839	39375
761.948	41183
762.057	42001
762.166	43004
762.276	42963
762.385	46032
762.494	47996
762.603	49610
762.712	50691
762.822	54977
762.931	56193
763.040	57556
763.149	60687
763.258	63435
763.367	67036
763.476	70725
763.585	73780
763.694	79584
763.803	82592
763.912	89820
764.021	92860
764.130	99553
764.238	108019
764.347	115617
764.456	124167
764.565	133215
764.674	145555
764.783	159297
764.891	175591
765.000	195275
765.109	219536
765.217	247859
765.326	283462
765.435	329973
765.543	384607
765.652	456032
765.761	551295
765.869	669578
765.978	826866
766.086	1007022
766.195	1201552
766.303	1251416
766.412	837389
766.520	856245
766.629	1163298
766.737	1145875
766.846	995669
766.954	825202
767.062	679273
767.171	557654
767.279	451325
767.387	373920
767.496	316882
767.604	275424
767.712	242220
767.820	215917
767.928	197811
768.037	181066
768.145	172061
768.253	165109
768.361	161847
768.469	159545
768.577	162983
768.685	169432
768.793	180954
768.901	198961
769.009	224559
769.117	268204
769.225	326855
769.333	418572
769.441	564285
769.549	769645
769.657	1039440
769.765	1140533
769.873	811551
769.981	1008933
770.088	998759
770.196	798521
770.304	614240
770.412	477136
770.519	383411
770.627	314552
770.735	263206
770.842	222792
770.950	194027
771.058	169535
771.165	150456
771.273	136708
771.380	123712
771.488	111744
771.595	103775
771.703	94267
771.810	87998
771.918	81866
772.025	78087
772.133	73144
772.240	68271
772.348	64817
772.455	62201
772.562	58266
772.670	55754
772.777	54933
772.884	50897
772.991	49942
773.099	47119
773.206	44483
773.313	44504
773.420	43155
773.528	40369
773.635	39001
773.742	38808
773.849	37320
773.956	35608
774.063	34539
774.170	33097
774.277	33921
774.384	31901
774.491	31304
774.598	31626
774.705	30380
774.812	29718
774.919	28307
775.026	28262
775.133	27322
775.239	26220
775.346	26336
775.453	25247
775.560	25584
775.667	24793
775.773	26024
775.880	24081
775.987	23331
776.093	22736
776.200	22695
776.307	20674
776.413	20819
776.520	20300
776.627	20601
776.733	19449
776.840	18225
776.946	20906
777.053	20483
777.159	19907
777.266	18267
777.372	19807
777.478	19212
777.585	17966
777.691	16984
777.798	17674
777.904	18040
778.010	21286
778.117	18529
778.223	17404
778.329	15448
778.435	16271
778.542	16080
778.648	15622
778.754	15647
778.860	14866
778.966	15053
779.072	15329
779.178	14727
779.284	15862
779.391	17012
779.497	18883
779.603	25891
779.708	38571
779.815	81303
779.920	243956
780.026	440965
780.132	140273
780.238	38448
780.344	25055
780.450	19603
780.556	17865
780.661	14948
780.767	14261
780.873	13230
780.979	13299
781.085	11584
781.190	11649
781.296	11737
781.402	12347
781.507	11307
781.613	11114
781.719	10345
781.824	10165
781.930	11083
782.035	10814
782.141	11202
782.246	9356
782.352	10252
782.457	10361
782.563	10062
782.668	9791
782.773	9920
782.879	9884
782.984	10091
783.090	10941
783.195	10779
783.300	10362
783.405	9875
783.511	9236
783.616	10280
783.721	9292
783.826	8570
783.932	9520
784.037	9398
784.142	8917
784.247	8417
784.352	8508
784.457	8383
784.562	8094
784.667	8306
784.772	8076
784.877	7564
784.982	7400
785.087	8453
785.192	8503
785.297	7836
785.402	7534
785.507	7933
785.611	8210
785.716	7270
785.821	7918
785.926	7660
786.031	7588
786.135	7500
786.240	6849
786.345	6156
786.450	6838
786.554	6723
786.659	7321
786.763	5808
786.868	7746
786.973	7836
787.077	6966
787.182	6556
787.286	7989
787.391	6985
787.495	7376
787.600	6802
787.704	6168
787.809	7010
787.913	5687
788.017	6426
788.122	7092
788.226	7074
788.330	5295
788.435	5994
788.539	6866
788.643	5978
788.747	4913
788.852	6392
788.956	5656
789.060	6788
789.164	6474
789.268	5081
789.372	6281
789.476	5662
789.580	5752
789.684	5827
789.788	6053
789.892	5763
789.996	6428
790.100	5386
790.204	5700
790.308	6220
790.412	5909
790.516	7151
790.620	6810
790.724	6468
790.828	6311
790.931	4989
791.035	7114
791.139	6936
791.242	5713
791.346	6901
791.450	5059
791.554	5775
791.657	3624
791.761	6090
791.864	6146
791.968	5826
792.072	5886
792.175	5893
792.279	4442
792.382	5661
792.486	5234
792.589	4934
792.693	5634
792.796	4935
792.899	5179
793.003	6375
793.106	4275
793.209	5245
793.313	6013
793.416	4243
793.519	6267
793.623	6325
793.726	7100
793.829	5676
793.932	5658
794.035	6239
794.138	7786
794.242	8626
794.345	10905
794.448	19369
794.551	42737
794.654	133111
794.757	276132
794.860	83480
794.963	18572
795.066	10171
795.169	8372
795.272	7047
795.375	7445
795.477	5374
795.580	5517
795.683	4380
795.786	5029
795.889	3636
795.991	5342
796.094	5449
796.197	4340
796.300	5263
796.402	5181
796.505	4056
796.608	3351
796.710	5079
796.813	4834
796.915	3990
797.018	4546
797.120	4565
797.223	3580
797.326	5197
797.428	4565
797.530	3989
797.633	4279
797.735	4768
797.838	5701
797.940	4831
798.042	3728
798.145	4341
798.247	4741
798.349	3816
798.452	4437
798.554	4563
798.656	4091
798.758	3810
798.860	4595
798.962	3804
799.065	3413
799.167	2601
799.269	4280
799.371	4377
799.473	4061
799.575	4813
799.677	3979
799.779	5633
799.881	3903
799.983	4281
800.085	3513
800.187	4470
800.289	3409
800.390	3984
800.492	4359
800.594	4716
800.696	3859
800.798	3520
800.899	2330
801.001	3601
801.103	2681
801.205	3249
801.306	4152
801.408	3402
801.509	3211
801.611	3728
801.713	3703
801.814	2853
801.916	3971
802.017	2868
802.119	2459
802.220	3182
802.322	2301
802.423	4209
802.525	2655
802.626	3107
802.727	3002
802.829	3871
802.930	1476
803.031	4471
803.133	3633
803.234	2670
803.335	3524
803.436	2733
803.538	3170
803.639	1641
803.740	3403
803.841	2782
803.942	3288
804.043	3624
804.144	2270
804.245	3041
804.346	2947
804.447	1977
804.548	3274
804.649	3518
804.750	3030
804.851	2766
804.952	2888
805.053	3274
805.154	2420
805.255	3277
805.355	2485
805.456	3246
805.557	2488
805.658	2608
805.758	3789
805.859	3005
805.960	2743
806.061	2566
806.161	3058
806.262	2829
806.362	2605
806.463	1753
806.564	3574
806.664	2361
806.765	2666
806.865	2825
806.966	3248
807.066	2242
807.166	4003
807.267	3374
807.367	2661
807.468	2945
807.568	1812
807.668	3192
807.769	3262
807.869	1997
807.969	3078
808.069	2555
808.170	3322
808.270	2077
808.370	2672
808.470	2438
808.570	1864
808.670	2511
808.770	3160
808.870	1890
808.970	3058
809.070	1937
809.170	1698
809.271	2698
809.370	2163
809.470	2580
809.570	2234
809.670	2550
809.770	3031
809.870	3077
809.970	2348
810.070	2529
810.169	3283
810.269	659
810.369	2668
810.469	2499
810.568	2632
810.668	1882
810.768	1902
810.867	2181
810.967	2029
811.066	2450
811.166	2632
811.265	3063
811.365	1985
811.464	2080
811.564	3317
811.663	2562
811.763	2553
811.862	3275
811.962	2914
812.061	2729
812.160	2433
812.260	2914
812.359	3199
812.458	4969
812.557	9962
812.657	13596
812.756	7630
812.855	3740
812.954	2628
813.053	3589
813.153	2520
813.252	1774
813.351	3108
813.450	2404
813.549	2518
813.648	3378
813.747	2417
813.846	2841
813.945	2344
814.044	2374
814.143	3509
814.242	2940
814.341	2601
814.439	2914
814.538	3201
814.637	2246
814.736	2119
814.835	3495
814.933	2472
815.032	2730
815.131	3283
815.229	3385
815.328	4325
815.427	3978
815.525	4624
815.624	3784
815.722	3779
815.821	3814
815.919	4078
816.018	4585
816.116	4921
816.215	4215
816.313	5105
816.412	4880
816.510	5214
816.609	5999
816.707	6524
816.805	6423
816.904	5792
817.002	6714
817.100	7475
817.198	8605
817.296	7853
817.395	9851
817.493	12158
817.591	12369
817.689	16864
817.787	22063
817.885	33514
817.983	56232
818.081	104919
818.179	222368
818.277	469376
818.375	472859
818.473	215543
818.571	97003
818.669	59442
818.767	49300
818.865	45539
818.963	51587
819.061	67422
819.158	106292
819.256	196119
819.354	385833
819.452	673212
819.549	540416
819.647	272482
819.745	134636
819.842	78544
819.940	52557
820.038	37708
820.135	29928
820.233	24087
820.330	19958
820.428	16099
820.525	14902
820.623	12138
820.720	10805
820.818	10778
820.915	10311
821.012	9423
821.110	7515
821.207	8115
821.304	5723
821.402	6395
821.499	6767
821.596	6407
821.693	6453
821.791	6292
821.888	5536
821.985	6223
822.082	6023
822.179	5359
822.276	3864
822.373	4263
822.470	4216
822.567	4078
822.664	3559
822.761	3699
822.858	3412
822.955	2969
823.052	3187
823.149	3075
823.246	4041
823.343	3247
823.440	3536
823.536	3087
823.633	2822
823.730	3515
823.827	3092
823.923	3350
824.020	4755
824.117	2847
824.213	2679
824.310	2920
824.407	2429
824.503	3467
824.600	3085
824.696	2115
824.793	3592
824.889	2436
824.986	3020
825.082	2917
825.179	2512
825.275	2704
825.371	2628
825.468	3077
825.564	2267
825.660	3561
825.757	2819
825.853	3022
825.949	2379
826.045	2489
826.142	2276
826.238	2606
826.334	2743
826.430	2056
826.526	2478
826.622	1919
826.718	1725
826.814	1639
826.910	2823
827.006	2154
827.102	2381
827.198	2582
827.294	1276
827.390	1979
827.486	2065
827.582	1470
827.678	583
827.774	2178
827.869	1334
827.965	2288
828.061	568
828.157	1787
828.252	1856
828.348	632
828.444	2298
828.539	1219
828.635	1554
828.731	1871
828.826	1071
828.922	1340
829.017	1982
829.113	2104
829.208	1404
829.304	1228
829.399	2654
829.495	1747
829.590	1677
829.685	457
829.781	2112
829.876	1334
829.971	2034
830.066	1974
830.162	1826
830.257	1050
830.352	1794
830.447	2411
830.543	1503
830.638	-42
830.733	2686
830.828	1654
830.923	2480
831.018	1971
831.113	1741
831.208	1014
831.303	1228
831.398	1681
831.493	874
831.588	2260
831.683	1237
831.778	1284
831.873	301
831.967	2012
832.062	1335
832.157	1077
832.252	2724
832.346	1723
832.441	2026
832.536	2402
832.631	4507
832.725	4209
832.820	717
832.914	1224
833.009	380
833.104	1606
833.198	2057
833.293	1493
833.387	1957
833.482	1305
833.576	786
833.670	2095
833.765	2014
833.859	1143
833.954	1533
834.048	2504
834.142	1867
834.237	781
834.331	816
834.425	1393
834.519	1251
834.613	1897
834.708	908
834.802	1948
834.896	1653
834.990	1386
835.084	1547
835.178	1322
835.272	1385
835.366	752
835.460	1443
835.554	1011
835.648	1649
835.742	1049
835.836	1157
835.930	150
836.024	1150
836.117	1963
836.211	844
836.305	2575
836.399	2798
836.493	717
836.586	2504
836.680	682
836.774	421
836.867	1680
836.961	470
837.055	319
837.148	1893
837.242	1088
837.335	1595
837.429	1904
837.522	1733
837.616	1169
837.709	2949
837.803	1427
837.896	812
837.989	1892
838.083	2315
838.176	2717
838.269	1928
838.363	1782
838.456	1201
838.549	1972
838.642	1695
838.735	4019
838.829	2466
838.922	565
839.015	694
839.108	545
839.201	1243
839.294	1607
839.387	1364
839.480	904
839.573	1733
839.666	2233
839.759	709
839.852	393
839.945	741
840.038	1054
840.131	1136
840.223	1300
840.316	1884
840.409	1150
840.502	186
840.594	1475
840.687	355
840.780	1419
840.873	1254
840.965	1269
841.058	2069
841.150	2132
841.243	1686
841.336	1398
841.428	1135
841.521	442
841.613	382
841.706	1244
841.798	921
841.890	1163
841.983	246
842.075	1920
842.167	1555
842.260	1128
842.352	1808
842.444	1265
842.537	3240
842.629	4880
842.721	1001
842.813	712
842.905	615
842.997	1239
843.090	1106
843.182	2299
843.274	2837
843.366	6186
843.458	11409
843.550	8285
843.642	1620
843.734	1390
843.826	695
843.918	1492
844.009	1554
844.101	-52
844.193	1470
844.285	445
844.377	1648
844.469	1215
844.560	906
844.652	1787
844.744	1324
844.835	1081
844.927	1621
845.019	1629
845.110	1470
845.202	1037
845.293	488
845.385	105
845.476	562
845.568	1987
845.659	674
845.751	1782
845.842	1336
845.934	1307
846.025	976
846.116	1518
846.208	872
846.299	662
846.390	1104
846.482	838
846.573	1455
846.664	1952
846.755	1219
846.846	2140
846.937	82
847.029	758
847.120	569
847.211	1043
847.302	1967
847.393	-10
847.484	1573
847.575	1254
847.666	1423
847.757	1013
847.847	1241
847.938	1834
848.029	1602
848.120	751
848.211	447
848.302	97
848.392	446
848.483	1313
848.574	615
848.664	563
848.755	1189
848.846	1212
848.936	1164
849.027	1478
849.118	617
849.208	1132
849.299	1643
849.389	2292
849.480	2632
849.570	4462
849.661	9279
849.751	15341
849.841	6353
849.932	1916
850.022	967
850.112	1393
850.203	813
850.293	620
850.383	1441
850.474	467
850.564	1400
850.654	1158
850.744	1498
850.834	952
850.924	353
851.014	1400
851.104	935
851.194	1537
851.284	1279
851.374	1940
851.464	1752
851.554	1686
851.644	2313
851.734	4124
851.824	6717
851.914	11772
852.004	21968
852.094	27927
852.183	7565
852.273	2208
852.363	1450
852.452	1341
852.542	918
852.632	1072
852.721	1175
852.811	901
852.901	1413
852.990	617
853.080	1259
853.169	891
853.259	833
853.348	716
853.438	1627
853.527	2312
853.617	2755
853.706	4663
853.795	7585
853.885	16946
853.974	32376
854.063	57953
854.152	93727
854.242	40715
854.331	7509
854.420	2861
854.509	1578
854.598	1491
854.687	1876
854.777	1638
854.866	1251
854.955	1681
855.044	348
855.133	1295
855.222	464
855.311	842
855.400	1038
855.488	880
855.577	481
855.666	1291
855.755	2265
855.844	2512
855.933	4103
856.021	1751
856.110	1165
856.199	200
856.288	202
856.376	365
856.465	139
856.554	967
856.642	793
856.731	647
856.819	1096
856.908	400
856.996	824
857.085	241
857.173	527
857.262	859
857.350	253
857.438	-65
857.527	1095
857.615	410
857.703	901
857.792	330
857.880	806
857.968	75
858.056	-213
858.145	922
858.233	375
858.321	15
858.409	973
858.497	-128
858.585	366
858.673	1053
858.761	443
858.849	288
858.937	457
859.025	544
859.113	803
859.201	286
859.289	1018
859.377	785
859.465	442
859.552	450
859.640	62
859.728	930
859.816	-10
859.903	523
859.991	177
860.079	837
860.166	574
860.254	355
860.342	871
860.429	448
860.517	-265
860.604	555
860.692	1071
860.779	361
860.867	-284
860.954	138
861.042	1031
861.129	590
861.216	142
861.304	595
861.391	1154
861.478	183
861.565	817
861.653	273
861.740	588
861.827	404
861.914	349
862.001	364
862.089	-305
862.176	905
862.263	278
862.350	693
862.437	326
862.524	315
862.611	495
862.698	133
862.785	95
862.871	660
862.958	252
863.045	-801
863.132	264
863.219	999
863.306	-164
863.392	682
863.479	1460
863.566	752
863.652	739
863.739	458
863.826	622
863.912	461
863.999	-175
864.086	577
864.172	882
864.259	501
864.345	579
864.432	1332
864.518	530
864.604	484
864.691	822
864.777	788
864.863	1023
864.950	829
865.036	1068
865.122	1686
865.209	1953
865.295	1503
865.381	2343
865.467	2143
865.553	2287
865.639	2417
865.726	3794
865.812	8495
865.898	15975
865.984	23986
866.070	41667
866.156	49773
866.242	15156
866.328	4201
866.414	1717
866.499	1636
866.585	926
866.671	1665
866.757	1771
866.843	1208
866.928	1294
867.014	666
867.100	1090
867.186	1008
867.271	1607
867.357	2345
867.442	2136
867.528	1497
867.614	1641
867.699	791
867.785	914
867.870	877
867.956	1368
868.041	1913
868.127	1478
868.212	831
868.297	1162
868.383	1325
868.468	1249
868.553	2579
868.639	2889
868.724	4683
868.809	4821
868.894	1870
868.979	926
869.065	1779
869.150	343
869.235	724
869.320	1588
869.405	1023
869.490	730
869.575	1182
869.660	639
869.745	1661
869.830	543
869.915	1108
870.000	-49
870.085	1212
870.169	711
870.254	894
870.339	1154
870.424	96
870.509	636
870.593	757
870.678	912
870.763	124
870.847	539
870.932	495
871.016	1053
871.101	533
871.186	771
871.270	1595
871.355	322
871.439	765
871.523	428
871.608	446
871.692	215
871.777	1302
871.861	1470
871.945	366
872.030	1235
872.114	220
872.198	346
872.282	826
872.367	864
872.451	378
872.535	654
872.619	647
872.703	118
872.787	688
872.871	885
872.955	879
873.039	438
873.123	397
873.207	1007
873.291	555
873.375	453
873.459	905
873.543	48
873.627	451
873.711	608
873.794	678
873.878	651
873.962	-535
874.045	-238
874.129	1478
874.137	1374
874.213	330
874.245	352
874.296	388
874.352	-50
874.380	-268
874.460	-286
874.464	-288
874.547	119
874.568	216
874.631	510
874.676	393
874.714	310
874.784	539
874.798	573
874.881	1465
874.892	1302
874.965	254
874.999	534
875.048	860
875.107	1027
875.131	1115
875.215	188
875.215	189
875.298	671
875.323	381
875.381	-301
875.430	378
875.465	884
875.538	547
875.548	493
875.631	-23
875.646	-34
875.714	-134
875.753	95
875.798	386
875.861	53
875.881	-40
875.964	955
875.968	962
876.047	1078
876.076	914
876.130	573
876.183	471
876.213	416
876.291	890
876.296	924
876.379	185
876.398	507
876.462	1623
876.506	867
876.545	98
876.613	584
876.628	720
876.711	247
876.721	312
876.794	882
876.828	865
876.877	651
876.935	734
876.960	867
877.043	920
877.043	921
877.125	993
877.150	1111
877.208	1335
877.258	1328
877.291	1342
877.365	1281
877.374	1287
877.456	1239
877.472	1225
877.539	1193
877.579	1181
877.622	944
877.687	1086
877.704	1228
877.787	732
877.794	766
877.869	848
877.901	865
877.952	1052
878.008	1243
878.034	1259
878.115	1033
878.117	1031
878.199	440
878.222	502
878.282	789
878.329	1101
878.364	1154
878.437	891
878.447	910
878.529	720
878.544	831
878.611	1050
878.651	483
878.694	-46
878.758	804
878.776	1051
878.858	453
878.865	458
878.941	511
878.972	383
879.023	130
879.078	325
879.105	477
879.185	820
879.187	825
879.269	255
879.292	225
879.351	132
879.399	85
879.433	120
879.506	422
879.516	455
879.598	293
879.613	354
879.680	663
879.720	682
879.762	632
879.827	795
879.844	808
879.926	636
879.933	605
880.007	436
880.040	344
880.089	583
880.147	1185
880.171	1234
880.253	1190
880.254	1192
880.335	2265
880.360	2270
880.417	2700
880.467	4013
880.499	5049
880.574	7119
880.580	7041
880.662	2754
880.680	2070
880.744	658
880.787	509
880.825	689
880.893	278
880.907	221
880.989	632
881.000	641
881.070	385
881.106	158
881.152	81
881.213	148
881.233	202
881.315	436
881.319	462
881.396	803
881.426	693
881.478	374
881.532	386
881.559	452
881.639	605
881.641	604
881.722	765
881.745	620
881.803	691
881.852	919
881.885	885
881.958	669
881.966	660
882.047	626
882.064	718
882.129	995
882.171	994
882.210	1236
882.277	1795
882.291	1793
882.372	989
882.383	957
882.454	949
882.489	688
882.535	352
882.596	687
882.616	826
882.697	447
882.702	436
882.778	225
882.808	329
882.859	644
882.914	647
882.940	652
883.020	817
883.021	817
883.102	670
883.127	493
883.183	563
883.233	653
883.264	552
883.339	573
883.345	578
883.426	152
883.445	180
883.507	640
883.551	768
883.587	670
883.657	917
883.668	1003
883.749	937
883.763	973
883.830	456
883.869	50
883.910	137
883.975	623
883.991	654
884.072	437
884.081	406
884.152	701
884.187	1043
884.233	1169
884.292	1023
884.314	982
884.394	847
884.398	829
884.475	293
884.504	228
884.555	517
884.610	701
884.636	733
884.716	761
884.716	761
884.797	474
884.821	321
884.877	472
884.927	500
884.958	425
885.033	529
885.038	539
885.118	335
885.139	353
885.199	302
885.244	252
885.279	541
885.350	890
885.359	853
885.439	963
885.456	896
885.520	512
885.561	365
885.600	581
885.667	876
885.680	816
885.760	471
885.773	419
885.840	890
885.878	1148
885.920	1051
885.984	783
886.000	652
886.080	87
886.089	25
886.160	851
886.195	1239
886.240	869
886.300	422
886.320	470
886.400	690
886.406	701
886.480	1254
886.511	1431
886.560	1440
886.616	1633
886.640	1610
886.720	1231
886.722	1220
886.800	1049
886.827	1024
886.879	763
886.932	396
886.959	406
887.038	551
887.039	553
887.119	735
887.143	795
887.198	983
887.248	1136
887.278	1023
887.354	542
887.358	559
887.437	1177
887.459	1299
887.517	1158
887.564	997
887.596	805
887.669	498
887.676	520
887.755	807
887.774	847
887.835	1078
887.880	1297
887.914	1135
887.985	640
887.994	642
888.073	719
888.090	772
888.153	1056
888.195	1167
888.232	975
888.300	582
888.311	612
888.391	829
888.405	891
888.470	1386
888.510	1608
888.549	1433
888.615	1204
888.628	1232
888.708	1358
888.720	1379
888.787	1286
888.825	1198
888.866	1124
888.930	1046
888.945	1022
889.024	891
889.035	868
889.103	1173
889.140	1344
889.182	1372
889.245	1405
889.261	1389
889.340	1282
889.349	1273
889.419	1041
889.454	904
889.498	694
889.559	420
889.577	588
889.656	1343
889.664	1420
889.735	1688
889.768	1812
889.814	1625
889.873	1374
889.978	792
890.083	1757
890.187	570
890.292	491
890.397	1139
890.501	1028
890.606	997
890.710	1395
890.815	1558
890.919	883
891.024	1335
891.128	1233
891.233	654
891.337	1382
891.442	492
891.546	877
891.650	1339
891.755	1166
891.859	1663
891.963	1430
892.068	643
892.172	757
892.276	1206
892.380	1446
892.484	1163
892.589	1932
892.693	985
892.797	1445
892.901	441
893.005	133
893.109	177
893.213	1311
893.317	1521
893.421	954
893.525	886
893.629	1296
893.733	668
893.837	238
893.941	1080
894.045	2067
894.148	2657
894.252	7068
894.356	4358
894.460	747
894.564	661
894.667	216
894.771	923
894.875	1079
894.978	800
895.082	985
895.186	948
895.289	1577
895.393	501
895.496	813
895.600	483
895.703	824
895.807	562
895.910	1276
896.014	183
896.117	975
896.221	1259
896.324	-190
896.427	820
896.531	405
896.634	512
896.737	1051
896.840	686
896.944	2085
897.047	-249
897.150	985
897.253	579
897.356	287
897.460	284
897.563	340
897.666	755
897.769	476
897.872	271
897.975	380
898.078	294
898.181	718
898.284	-628
898.387	450
898.490	1090
898.593	736
898.695	132
898.798	1167
898.901	585
899.004	772
899.107	-156
899.209	578
899.312	-161
899.415	350
899.518	317
899.620	115
899.723	528
899.826	1196
899.928	2079
900.031	519
900.133	134
900.236	380
900.338	735
900.441	718
900.543	331
900.646	167
900.748	1269
900.851	1539
900.953	641
901.055	500
901.158	-24
901.260	505
901.362	496
901.465	342
901.567	12
901.669	1337
901.771	-80
901.873	109
901.976	245
902.078	128
902.180	43
902.282	-126
902.384	43
902.486	152
902.588	155
902.690	1189
902.792	648
902.894	595
902.996	-32
903.098	213
903.200	-13
903.302	854
903.404	494
903.505	-141
903.607	39
903.709	819
903.811	-20
903.913	1028
904.014	-3
904.116	8
904.218	859
904.319	1233
904.421	791
904.523	382
904.624	34
904.726	634
904.827	138
904.929	243
905.030	371
905.132	735
905.233	272
905.335	588
905.436	-279
905.537	45
905.639	136
905.740	611
905.841	646
905.943	748
906.044	-228
906.145	-76
906.247	393
906.348	-83
906.449	502
906.550	693
906.651	440
906.752	714
906.854	540
906.955	190
907.056	663
907.157	116
907.258	64
907.359	52
907.460	-90
907.561	-30
907.662	-139
907.762	228
907.863	5
907.964	325
908.065	724
908.166	651
908.267	-16
908.367	-333
908.468	664
908.569	-100
908.670	115
908.770	1307
908.871	1450
908.971	637
909.072	206
909.173	923
909.273	164
909.374	149
909.474	291
909.575	1322
909.675	129
909.776	319
909.876	-566
909.977	239
910.077	1128
910.177	231
910.278	315
910.378	143
910.478	1000
910.579	546
910.679	106
910.779	889
910.879	851
910.980	128
911.080	457
911.180	773
911.280	614
911.380	578
911.480	-160
911.580	-364
911.680	517
911.780	1167
911.880	1081
911.980	339
912.080	237
912.180	347
912.280	826
912.380	480
912.480	-161
912.580	1008
912.679	-520
912.779	880
912.879	762
912.979	198
913.078	-342
913.178	667
913.278	-217
913.377	1425
913.477	397
913.577	-544
913.676	1450
913.776	481
913.875	232
913.975	1064
914.074	-488
914.174	193
914.273	-161
914.373	337
914.472	578
914.572	-188
914.671	523
914.770	491
914.870	-239
914.969	470
915.068	-133
915.167	501
915.267	305
915.366	318
915.465	590
915.564	458
915.663	533
915.763	346
915.862	354
915.961	253
916.060	113
916.159	1275
916.258	-644
916.357	774
916.456	786
916.555	840
916.654	276
916.752	770
916.851	611
916.950	1086
917.049	548
917.148	102
917.247	855
917.345	1027
917.444	-352
917.543	680
917.642	652
917.740	522
917.839	408
917.937	363
918.036	53
918.135	769
918.233	286
918.332	442
918.430	-76
918.529	328
918.627	434
918.726	1331
918.824	1059
918.923	605
919.021	792
919.119	483
919.218	1031
919.316	892
919.414	-206
919.512	260
919.611	-121
919.709	464
919.807	174
919.905	195
920.003	-61
920.102	318
920.200	458
920.298	600
920.396	-18
920.494	1050
920.592	322
920.690	1193
920.788	251
920.886	760
920.984	530
921.082	528
921.180	426
921.277	211
921.375	871
921.473	1287
921.571	996
921.669	1722
921.766	1524
921.864	1013
921.962	787
922.060	911
922.157	250
922.255	941
922.352	970
922.450	1742
922.548	745
922.645	795
922.743	1025
922.840	1570
922.938	1526
923.035	1157
923.133	610
923.230	1590
923.327	1051
923.425	1472
923.522	1180
923.619	1372
923.717	1184
923.814	1522
923.911	1860
924.008	2176
924.106	822
924.203	1150
924.300	1200
924.397	897
924.494	982
924.591	1367
924.688	1257
924.786	1174
924.883	1624
924.979	1146
925.077	1466
925.173	805
925.270	909
925.367	1131
925.464	1315
925.561	1847
925.658	1537
925.755	1454
925.852	1237
925.948	997
926.045	1733
926.142	1309
926.239	1349
926.335	1103
926.432	1125
926.529	998
926.625	1249
926.722	1726
926.818	1061
926.915	1139
927.011	1274
927.108	1208
927.204	899
927.301	1022
927.397	1000
927.494	920
927.590	953
927.687	1193
927.783	833
927.879	1402
927.976	1121
928.072	1279
928.168	302
928.264	1403
928.361	1143
928.457	1641
928.553	449
928.649	1006
928.745	1085
928.841	1216
928.937	824
929.033	1797
929.129	1127
929.225	452
929.321	1287
929.417	481
929.513	975
929.609	858
929.705	1590
929.801	1432
929.897	800
929.993	516
930.089	1475
930.184	1479
930.280	1031
930.376	1405
930.471	1055
930.567	612
930.663	1053
930.758	1230
930.854	509
930.950	986
931.045	357
931.141	1161
931.236	1442
931.332	541
931.427	-333
931.523	807
931.618	1398
931.714	728
931.809	608
931.905	702
932.000	431
932.095	685
932.191	1176
932.286	720
932.381	776
932.476	573
932.572	-67
932.667	1070
932.762	447
932.857	1102
932.952	1226
933.047	1328
933.142	1182
933.237	1139
933.332	-87
933.427	559
933.522	429
933.617	684
933.712	828
933.807	1846
933.902	176
933.997	861
934.092	760
934.187	378
934.282	595
934.376	1290
934.471	788
934.566	840
934.661	570
934.755	1385
934.850	1263
934.945	622
935.039	735
935.134	980
935.228	1823
935.323	1256
935.417	530
935.512	862
935.606	401
935.701	1334
935.795	1130
935.890	606
935.984	817
936.079	912
936.173	1209
936.267	1135
936.362	819
936.456	209
936.550	593
936.644	582
936.738	211
936.833	1368
936.927	1732
937.021	1711
937.115	441
937.209	552
937.303	638
937.397	854
937.491	445
937.585	482
937.679	396
937.773	833
937.867	229
937.961	334
938.055	244
938.149	1417
938.243	492
938.337	671
938.430	916
938.524	1381
938.618	387
938.712	782
938.805	335
938.899	1286
938.993	965
939.086	231
939.180	1048
939.274	1869
939.367	676
939.461	514
939.554	-106
939.648	-117
939.741	345
939.835	611
939.928	686
940.022	1493
940.115	-38
940.208	695
940.302	1207
940.395	654
940.488	324
940.582	700
940.675	623
940.768	675
940.861	299
940.954	410
941.048	238
941.141	763
941.234	-41
941.327	2103
941.420	2498
941.513	1233
941.606	720
941.699	804
941.792	198
941.885	610
941.978	1148
942.071	457
942.164	-696
942.257	64
942.349	207
942.442	673
942.535	-136
942.628	88
942.721	534
942.813	446
942.906	436
942.999	518
943.091	-250
943.184	671
943.277	450
943.369	422
943.462	-290
943.554	1077
943.647	638
943.739	295
943.832	372
943.924	-325
944.017	-29
944.109	-562
944.201	341
944.294	959
944.386	435
944.478	572
944.571	-143
944.663	44
944.755	224
944.847	655
944.940	-37
945.032	-323
945.124	23
945.216	592
945.308	-47
945.400	233
945.492	58
945.584	500
945.676	717
945.768	346
945.860	540
945.952	602
946.044	-259
946.136	-613
946.228	375
946.320	-133
946.412	-104
946.503	494
946.595	-257
946.687	432
946.779	-173
946.870	645
946.962	-38
947.054	358
947.145	-121
947.237	-2
947.329	-267
947.420	287
947.512	1
947.603	176
947.695	517
947.786	-563
947.878	-405
947.969	-50
948.061	28
948.152	-170
948.243	-238
948.335	-381
948.426	-316
948.517	-78
948.609	407
948.700	-411
948.791	120
948.882	-133
948.973	647
949.065	748
949.156	487
949.247	133
949.338	814
949.429	-237
949.520	436
949.611	-414
949.702	873
949.793	157
949.884	-122
949.975	-118
950.066	-212
950.157	-568
950.247	-315
950.338	-210
950.429	323
950.520	83
950.611	-89
950.701	266
950.792	469
950.883	215
950.973	-339
951.064	279
951.155	459
951.245	-505
951.336	-183
951.427	519
951.517	18
951.608	-127
951.698	-259
951.788	-396
951.879	-107
951.969	120
952.060	-466
952.150	-127
952.240	546
952.331	-1113
952.421	486
952.511	271
952.602	-722
952.692	-830
952.782	805
952.872	41
952.962	562
953.052	111
953.143	-585
953.233	155
953.323	-163
953.413	233
953.503	-394
953.593	1157
953.683	-223
953.773	211
953.863	-801
953.953	-74
954.042	-57
954.132	225
954.222	159
954.312	442
954.402	-102
954.492	870
954.581	712
954.671	-23
954.761	-739
954.850	968
954.940	-247
955.030	333
955.119	-909
955.209	70
955.298	191
955.388	-61
955.477	1034
955.567	275
955.656	-551
955.746	664
955.835	29
955.925	352
956.014	83
956.103	587
956.193	38
956.282	384
956.371	516
956.461	80
956.550	-595
956.639	532
956.728	-390
956.817	-97
956.906	385
956.995	885
957.085	28
957.174	976
957.263	287
957.352	241
957.441	-391
957.530	1485
957.619	-125
957.708	1115
957.796	-177
957.885	1058
957.974	556
958.063	841
958.152	109
958.241	1012
958.329	1036
958.418	607
958.507	-22
958.596	1215
958.684	553
958.773	1279
958.861	1140
958.950	1654
959.039	246
959.127	1544
959.216	1503
959.304	1172
959.393	1040
959.481	1645
959.570	1413
959.658	1877
959.746	1665
959.835	1392
959.923	1224
960.011	1373
960.100	1158
960.188	965
960.276	338
960.365	1187
960.453	739
960.541	668
960.629	811
960.717	620
960.805	586
960.893	212
960.981	-116
961.069	707
961.158	462
961.245	259
961.333	151
961.421	-257
961.509	282
961.597	876
961.685	325
961.773	294
961.861	-208
961.949	937
962.036	-1103
962.124	590
962.212	370
962.299	106
962.387	533
962.475	849
962.562	-601
962.650	1232
962.738	-323
962.825	464
962.913	181
963.000	706
963.088	193
963.175	-380
963.263	189
963.350	212
963.438	310
963.525	334
963.612	703
963.700	1885
963.787	5157
963.874	2071
963.962	502
964.049	317
964.136	-132
964.223	-438
964.310	98
964.398	274
964.485	-8
964.572	796
964.659	83
964.746	1116
964.833	32
964.920	164
965.007	-750
965.094	478
965.181	-134
965.268	-748
965.355	-753
965.441	736
965.528	-904
965.615	726
965.702	720
965.789	-345
965.875	24
965.962	-315
966.049	-780
966.136	63
966.222	234
966.309	371
966.395	337
966.482	-219
966.569	-376
966.655	-27
966.742	3
966.828	56
966.915	-403
967.001	759
967.087	-567
967.174	347
967.260	-14
967.347	1149
967.433	1899
967.519	3250
967.605	579
967.692	-56
967.778	213
967.864	-98
967.950	96
968.036	-236
968.123	-64
968.209	292
968.295	-189
968.381	1244
968.467	-612
968.553	-865
968.639	151
968.725	-153
968.811	1381
968.897	771
968.983	-248
969.069	-313
969.154	260
969.240	809
969.326	-645
969.412	-267
969.497	-927
969.583	-554
969.669	-276
969.755	34
969.840	-109
969.926	552
970.012	413
970.097	1439
970.183	156
970.268	-259
970.354	751
970.439	381
970.525	2206
970.610	430
970.696	505
970.781	-125
970.866	-824
970.952	69
971.037	-486
971.122	566
971.208	-59
971.293	10
971.378	-307
971.463	-586
971.549	-844
971.634	-32
971.719	-480
971.804	435
971.889	646
971.974	-333
972.059	-91
972.144	233
972.229	587
972.314	-238
972.399	-996
972.484	-186
972.569	683
972.654	-22
972.739	961
972.824	183
972.908	356
972.993	-95
973.078	309
973.163	197
973.247	-34
973.332	-1050
973.417	391
973.501	-544
973.586	663
973.671	-274
973.755	379
973.840	-52
973.924	289
974.009	824
974.093	155
974.178	446
974.262	618
974.346	214
974.431	482
974.515	265
974.600	354
974.684	475
974.768	267
974.852	881
974.937	-605
975.021	190
975.105	-212
975.189	174
975.273	41
975.358	-15
975.442	-252
975.526	330
975.610	-724
975.694	-658
975.778	658
975.862	242
975.946	-1820
976.030	602
976.114	-333
976.198	704
976.281	231
976.365	-220
976.449	-19
976.533	-544
976.617	-639
976.700	-392
976.784	-199
976.868	440
976.951	-526
977.035	1008
977.119	494
977.202	-636
977.286	-61
977.369	-192
977.453	-246
977.536	-803
977.620	-121
977.703	67
977.787	-1567
977.870	555
977.953	166
978.037	-199
978.120	490
978.203	258
978.287	386
978.370	126
978.453	-390
978.536	-412
978.620	310
978.703	346
978.786	-237
978.869	-298
978.952	-1331
979.035	1235
979.118	438
979.201	-883
979.284	-261
979.367	97
979.450	32
979.533	-326
979.616	-71
979.699	-617
979.782	144
979.865	31
979.948	-98
980.030	-941
980.113	-182
980.196	-939
980.279	395
980.361	137
980.444	-483
980.526	303
980.609	-298
980.692	169
980.774	-48
980.857	-1327
980.939	49
981.022	-175
981.104	17
981.187	286
981.269	106
981.352	-502
981.434	-1403
981.516	-338
981.599	209
981.681	-193
981.763	334
981.846	402
981.928	-46
982.010	8
982.092	-201
982.174	1204
982.256	-323
982.339	-749
982.421	50
982.503	-349
982.585	-600
982.667	96
982.749	-527
982.831	-196
982.913	-1705
982.995	-408
983.077	-1406
983.158	782
983.240	-758
983.322	-305
983.404	96
983.486	-767
983.568	-135
983.649	110
983.731	-220
983.813	-1081
983.894	666
983.976	-183
984.058	-358
984.139	367
984.221	-1131
984.302	-151
984.384	-506
984.465	-383
984.547	169
984.628	-463
984.710	188
984.791	-412
984.872	-475
984.954	36
985.035	-225
985.116	-696
985.198	-217
985.279	482
985.360	169
985.441	79
985.522	316
985.604	-783
985.685	-1865
985.766	222
985.847	-218
985.928	-474
986.009	-1017
986.090	-784
986.171	152
986.252	339
986.333	259
986.414	-438
986.495	8
986.576	-10
986.656	-393
986.737	-929
986.818	-344
986.899	422
986.980	-580
987.060	-80
987.141	-802
987.222	-91
987.302	-677
987.383	249
987.464	-285
987.544	9
987.625	-336
987.705	466
987.786	-20
987.866	-603
987.947	349
988.027	399
988.108	-1244
988.188	39
988.268	-448
988.349	-540
988.429	-756
988.509	-8
988.589	-903
988.670	-1158
988.750	1136
988.830	-465
988.910	125
988.990	406
989.070	-186
989.151	-522
989.231	23
989.311	-941
989.391	-742
989.471	296
989.551	-808
989.631	-130
989.711	658
989.791	-690
989.870	-1140
989.950	-59
990.030	142
990.110	313
990.190	-796
990.269	-735
990.349	-336
990.429	-473
990.509	-459
990.588	-1187
990.668	-608
990.747	-113
990.827	-574
990.907	38
990.986	-946
991.066	350
991.145	-845
991.225	220
991.304	-410
991.383	259
991.463	-141
991.542	551
991.622	-667
991.701	-1072
991.780	-723
991.859	116
991.939	-672
992.018	20
992.097	-316
992.176	436
992.256	-841
992.335	-1570
992.414	272
992.493	-599
992.572	-1458
992.651	149
992.730	-1114
992.809	7
992.888	-768
992.967	-1033
993.046	-869
993.125	-1381
993.203	-238
993.282	-80
993.361	-893
993.440	-794
993.519	-1959
993.597	92
993.676	-1255
993.755	362
993.834	-755
993.912	-1013
993.991	138
994.069	-915
994.148	-1031
994.226	-769
994.305	-157
994.384	-894
994.462	-354
994.540	-734
994.619	-678
994.697	-162
994.776	-1055
994.854	-670
994.932	-384
995.011	-246
995.089	-831
995.167	-1109
995.245	-660
995.324	-926
995.402	-84
995.480	-518
995.558	-1260
995.636	-1541
995.714	-1419
995.792	453
995.870	-937
995.948	-470
996.026	-1515
996.104	-1164
996.182	-548
996.260	-1700
996.338	-1313
996.416	-1795
996.494	-1092
996.572	-171
996.649	-1157
996.727	-1896
996.805	-1212
996.883	-834
996.960	-1097
997.038	-600
997.116	-1362
997.193	-1543
997.271	-317
997.348	-220
997.426	-900
997.504	-1046
997.581	-561
997.658	-346
997.736	-1375
997.813	-1372
997.891	-549
997.968	-1064
998.046	-690
998.123	-778
998.200	-751
998.277	-1209
998.355	-831
998.432	-1543
998.509	-568
998.586	-166
998.663	-658
998.741	-1135
998.818	-293
998.895	-1213
998.972	-442
999.049	139
999.126	-1174
999.203	-1244
999.280	-1244
999.357	-1005
999.434	-2138
999.511	-1592
999.587	-358
999.664	-802
999.741	-635
999.818	-662
999.895	-1912
999.971	-1578
1000.048	-1284
1000.125	-219
1000.202	-918
1000.278	-336
1000.355	-1622
1000.431	-618
1000.508	-1838
1000.584	-374
1000.661	-74
1000.738	-1159
1000.814	-1806
1000.890	-191
1000.967	-1356
1001.043	-1142
1001.120	-1657
1001.196	-1167
1001.272	-764
1001.349	-713
1001.425	-910
1001.501	-1279
1001.577	-1047
1001.654	-694
1001.730	-1283
1001.806	-1074
1001.882	-2279
1001.958	-605
1002.034	-640
1002.110	-789
1002.186	-2021
1002.262	-949
1002.338	-1107
1002.414	-256
1002.490	-755
1002.566	-1314
1002.642	-1490
1002.718	-573
1002.794	-731
1002.870	-770
1002.945	-805
1003.021	-1373
1003.097	-382
1003.173	-642
1003.248	-1095
1003.324	-1363
1003.400	-975
1003.475	-1394
1003.551	-878
1003.626	-1591
1003.702	-1187
1003.777	-1109
1003.853	-1981
1003.928	-1192
1004.004	-1657
1004.079	-892
1004.155	-1557
1004.230	-1786
1004.305	-1337
1004.381	-1239
1004.456	-952
1004.531	-1065
1004.607	-1177
1004.682	-1313
1004.757	-647
1004.832	-2194
1004.907	-1011
1004.982	-1054
1005.057	-1472
1005.133	-554
1005.208	-922
1005.283	-1507
1005.358	-768
1005.433	-558
1005.508	-1183
1005.583	-1216
1005.657	-1755
1005.732	-694
1005.807	-1156
1005.882	-564
1005.957	-1470
1006.032	-517
1006.106	-1215
1006.181	-1931
1006.256	-459
1006.331	-1128
1006.405	-1961
1006.480	-838
1006.554	-1243
1006.629	-222
1006.704	-1513
1006.778	-576
1006.853	-1135
1006.927	-1656
1007.002	-2107
1007.076	-919
1007.150	-1273
1007.225	-1611
1007.299	-62
1007.373	-1362
1007.448	-1871
1007.522	-358
1007.596	-785
1007.671	-1702
1007.745	-794
1007.819	-1716
1007.893	-1235
1007.967	-1474
1008.041	-1943
1008.115	-798
1008.190	-1264
1008.264	-682
1008.338	-1986
1008.412	-922
1008.486	-1124
1008.560	-110
1008.633	-1172
1008.707	-645
1008.781	-334
1008.855	-1767
1008.929	-674
1009.003	-1968
1009.076	-1481
1009.150	-101
1009.224	-1488
1009.298	-520
1009.371	-1875
1009.445	-832
1009.519	-902
1009.592	-1821
1009.666	-1066
1009.739	-996
1009.813	-1617
1009.886	-404
1009.960	-1441
1010.033	-1207
1010.107	-423
1010.180	-1853
1010.253	-1401
1010.327	-1526
1010.400	-587
1010.473	-1092
1010.547	-1072
1010.620	-467
1010.693	-1405
1010.766	-838
1010.840	-1077
1010.913	-912
1010.986	-2089
1011.059	-1379
1011.132	-1695
1011.205	-505
1011.278	-821
1011.351	-895
1011.424	-1365
1011.497	-1193
1011.570	-1024
1011.643	-1703
1011.716	-2108
1011.789	-1561
1011.862	-1087
1011.934	-982
1012.007	-1845
1012.080	-1422
1012.153	-1011
1012.225	-679
1012.298	-1674
1012.371	-1761
1012.443	-949
1012.516	-1438
1012.588	-946
1012.661	-985
1012.733	-1722
1012.806	423
1012.879	-1217
1012.951	-1565
1013.023	-1809
1013.096	-493
1013.168	-2094
1013.241	-723
1013.313	-1072
1013.385	-1092
1013.458	-1763
1013.530	-175
1013.602	-2155
1013.674	-1312
1013.746	-1876
1013.819	-891
1013.891	-177
1013.963	-2055
1014.035	-1525
1014.107	-801
1014.179	-1302
1014.251	-1213
1014.323	-1131
1014.395	-908
1014.467	-869
1014.539	-586
1014.611	-1309
1014.683	-1427
1014.754	-752
1014.826	-2011
1014.898	-1462
1014.970	-1019
1015.042	-695
1015.113	-816
1015.185	-1286
1015.257	-1946
1015.328	-1002
1015.400	-781
1015.471	-1206
1015.543	-2328
1015.615	-1765
1015.686	-1539
1015.757	-1212
1015.829	-919
1015.901	-1477
1015.972	-1227
1016.043	-1615
1016.115	-964
1016.186	-1256
1016.257	-1021
1016.328	-853
1016.400	-271
1016.471	-1568
1016.542	-874
1016.613	-1239
1016.685	-1829
1016.756	-1082
1016.827	-584
1016.898	-1699
1016.969	-624
1017.040	-1619
1017.111	-1149
1017.182	-1225
1017.253	-1056
1017.324	-923
1017.395	-1321
1017.466	-761
1017.537	-1898
1017.608	-1347
1017.678	-1336
1017.749	-1484
1017.820	-679
1017.891	-1442
1017.961	-2010
1018.032	-1552
1018.103	-856
1018.173	-1751
1018.244	-856
1018.315	-1307
1018.385	-668
1018.456	-1015
1018.526	-1617
1018.597	-2272
1018.667	-1477
1018.738	-1602
1018.808	-1330
1018.878	-1755
1018.949	-1093
1019.019	-1552
1019.089	-1450
1019.160	-579
1019.230	-1138
1019.300	-801
1019.371	-1437
1019.441	-939
1019.511	-975
1019.581	-1300
1019.651	-349
1019.721	-1236
1019.791	-1429
1019.861	-1650
1019.931	-1012
1020.001	-584
1020.071	-871
1020.141	-1865
1020.211	-737
1020.281	-1564
1020.351	-1579
1020.421	-831
1020.491	-722
1020.560	-2025
1020.630	-946
1020.700	-1153
1020.770	-1181
1020.839	-1896
1020.909	-409
1020.979	-2278
1021.048	-821
1021.118	-1334
1021.187	-1163
1021.257	-1670
1021.326	-1168
1021.396	-2310
1021.465	-1249
1021.535	-1356
1021.604	-1290
1021.674	-1602
1021.743	-1198
1021.812	-1228
1021.882	-1105
1021.951	-1723
1022.020	-1885
1022.089	-1485
1022.159	-1970
1022.228	-1024
1022.297	-1753
1022.366	-1347
1022.435	-1813
1022.504	-1156
1022.573	-1710
1022.642	-1600
1022.711	-2002
1022.781	-996
1022.849	-1205
1022.918	-1028
1022.987	-1448
1023.056	-1265
1023.125	-1247
1023.194	-1778
1023.263	-1239
1023.331	-1507
1023.400	-1722
1023.469	-1178
1023.538	-938
1023.606	-1683
1023.675	-1374
1023.744	-1636
1023.812	-1455
1023.881	-824
1023.949	-1394
1024.018	-1580
1024.086	-1002
1024.155	-1520
1024.223	-1361
1024.292	-1195
1024.360	-1252
1024.429	-2093
1024.497	-2043
1024.565	-2053
1024.634	-1082
1024.702	-1507
1024.770	-1375
1024.838	-1337
1024.907	-651
1024.975	-1756
1025.043	-980
1025.111	-1166
1025.179	-1241
1025.247	-1641
1025.315	-721
1025.383	-1643
1025.451	-1415
1025.519	-1562
1025.587	-1107
1025.655	-1575
1025.723	-1974
1025.791	-808
1025.859	-1099
1025.927	-1547
1025.995	-1817
1026.062	-1410
1026.130	-1000
1026.198	-1749
1026.266	-2067
1026.333	-1832
1026.401	-1487
1026.469	-1846
1026.536	-986
1026.604	-1488
1026.671	-1374
1026.739	-1388
1026.806	-1710
1026.874	-1325
1026.941	-1629
1027.009	-1794
1027.076	-1819
1027.144	-595
1027.211	-1641
1027.278	-1666
1027.345	-679
1027.413	-1536
1027.480	-1360
1027.547	-1064
1027.614	-1784
1027.682	-1125
1027.749	-2310
1027.816	-1859
1027.883	-1875
1027.950	-1162
1028.017	-1503
1028.084	-1992
1028.151	-1483
1028.218	-2009
1028.285	-1553
1028.352	-2354
1028.419	-2260
1028.486	-1729
1028.553	-1581
1028.619	-1799
1028.686	-1778
1028.753	-1222
1028.820	-1221
1028.886	-1444
1028.953	-1887
1029.020	-2020
1029.086	-1979
1029.153	-1956
1029.220	-1691
1029.286	-1966
1029.353	-1019
1029.419	-1817
1029.486	-1241
1029.552	-1846
1029.619	-1622
1029.685	-1943
1029.751	-1792
1029.818	-270
1029.884	-1588
1029.951	-1833
1030.017	-1834
1030.083	-2460
1030.149	-2130
1030.216	-1904
1030.282	-1699
1030.348	-1225
1030.414	-1608
1030.480	-1876
1030.546	-1774
1030.612	-624
1030.678	-1620
1030.744	-1404
1030.810	-2006
1030.876	-2039
1030.942	-1100
1031.008	-1818
1031.074	-1634
1031.140	-2077
1031.206	-1819
1031.272	-1769
1031.337	-1326
1031.403	-1394
1031.469	-2123
1031.534	-1721
1031.600	-1606
1031.666	-1935
1031.731	-1682
1031.797	-2382
1031.863	-1435
1031.928	-1392
1031.994	-1768
1032.059	-1453
1032.125	-1415
1032.190	-1347
1032.256	-1811
1032.321	-1658
1032.386	-2221
1032.452	-1079
1032.517	-1944
1032.582	-2130
1032.647	-898
1032.713	-2216
1032.778	-606
1032.843	-1928
1032.908	-1887
1032.974	-2140
1033.039	-1469
1033.104	-1421
1033.169	-1448
1033.234	-1553
1033.299	-1183
1033.364	-1209
1033.429	-1915
1033.494	-1371
1033.559	-1450
1033.624	-1884
1033.688	-1453
1033.753	-2690
1033.818	-967
1033.883	-1641
1033.948	-1529
1034.013	-1052
1034.077	-1384
1034.142	-1165
1034.207	-1487
1034.271	-1347
1034.336	-952
1034.400	-1551
1034.465	-1490
1034.530	-1263
1034.594	-1145
1034.658	-1477
1034.723	-1737
1034.787	-2078
1034.852	-1907
1034.916	-2171
1034.981	-1688
1035.045	-1276
1035.109	-1529
1035.173	-889
1035.238	-1708
1035.302	-1167
1035.366	-1666
1035.430	-784
1035.495	-2112
1035.559	-803
1035.623	-2184
1035.687	-838
1035.751	-2016
1035.815	-1715
1035.879	-1820
1035.943	-2268
1036.007	-1155
1036.071	-2082
1036.135	-1543
1036.198	-2204
1036.262	-2411
1036.326	-1695
1036.390	-1315
1036.454	-1280
1036.517	-1141
1036.581	-1132
1036.645	-1043
1036.709	-1557
1036.772	-2076
1036.836	-1319
1036.900	-1740
1036.963	-1954
1037.026	-1789
1037.090	-2237
1037.154	-2424
1037.217	-2256
1037.280	-1499
1037.344	-1295
1037.407	-1513
1037.471	-2073
1037.534	-1746
1037.597	-1122
1037.661	-2296
1037.724	-2561
1037.787	-1140
1037.850	-2154
1037.913	-1513
1037.977	-938
1038.040	-2384
1038.103	-1713
1038.166	-1189
1038.229	-1925
1038.292	-2030
1038.355	-2301
1038.418	-1957
1038.481	-1736
1038.544	-1771
1038.607	-2432
1038.670	-2207
1038.732	-1468
1038.795	-1682
1038.858	-1741
1038.921	-1428
1038.984	-2276
1039.046	-2358
1039.109	-2092
1039.172	-1771
1039.234	-3069
1039.297	-1799
1039.360	-1641
1039.422	-1775
1039.485	-1275
1039.547	-2146
1039.610	-1716
1039.672	-2152
1039.734	-1553
1039.797	-1867
1039.859	-1743
1039.922	-1411
1039.984	-2040
1040.046	-2018
1040.109	-2286
1040.171	-2215
1040.233	-1431
1040.295	-2003
1040.358	-1833
1040.420	-1508
1040.482	-1765
1040.544	-2142
1040.606	-2260
1040.668	-1358
1040.730	-2663
1040.792	-1929
1040.854	-1979
1040.916	-1850
1040.978	-2882
1041.040	-966
1041.102	-2000
1041.164	-1864
1041.225	-1770
1041.287	-2267
1041.349	-1716
1041.411	-1874
1041.472	-1964
1041.534	-2166
1041.596	-1744
1041.657	-1246
1041.719	-2905
1041.781	-1628
1041.842	-2083
1041.904	-1704
1041.965	-2395
1042.027	-2446
1042.088	-2014
1042.150	-2032
1042.211	-1048
1042.272	-1502
1042.334	-2164
1042.395	-1836
1042.456	-1763
1042.518	-1943
1042.579	-1597
1042.640	-1592
1042.701	-1621
1042.763	-2137
1042.824	-1714
1042.885	-2769
1042.946	-1755
1043.007	-2253
1043.068	-2246
1043.129	-2489
1043.190	-2468
1043.251	-1794
1043.312	-2492
1043.373	-1706
1043.434	-2411
1043.495	-2214
1043.556	-2089
1043.616	-1829
1043.677	-2485
1043.738	-1503
1043.799	-2616
1043.859	-1134
1043.920	-2084
1043.981	-1936
1044.041	-1843
1044.102	-2955
1044.162	-3015
1044.223	-1421
1044.284	-2341
1044.344	-2040
1044.405	-2620
1044.465	-1381
1044.525	-2762
1044.586	-1731
1044.646	-1300
1044.707	-2123
1044.767	-2238
1044.827	-2045
1044.887	-2472
1044.948	-1381
1045.008	-2126
1045.068	-1599
1045.128	-1830
1045.188	-1760
1045.249	-1262
1045.309	-2107
1045.369	-1236
1045.429	-2282
1045.489	-1386
1045.549	-1559
1045.609	-1549
1045.669	-1400
1045.729	-2872
1045.789	-1307
1045.848	-1341
1045.908	-1902
1045.968	-1358
1046.028	-1594
1046.088	-1072
1046.147	-1090
1046.207	-1506
1046.267	-1542
1046.326	-1360
1046.386	-1562
1046.446	-820
1046.505	-1081
1046.565	-1122
1046.624	-1288
1046.684	-461
1046.743	-1247
1046.803	-476
1046.862	-658
1046.922	0
