'Start Wavelength	183.907
'End Wavelength	1046.922
'Gate Delay	5.000
'Gate Width (ms)	1.050
'Laser Output Level	0.000
'X Position	0.000
'Y Position	0.000
'Z Position	0.000
'Grid Point Number	1.000
'Shot Number	100.000
183.907	689.000
183.977	364.000
184.047	931
184.116	45
184.186	706
184.256	-283
184.325	-111
184.395	335
184.465	1421
184.534	696
184.604	185
184.674	702
184.743	88
184.813	878
184.883	939
184.952	487
185.022	577
185.092	416
185.161	704
185.231	814
185.301	226
185.370	1279
185.440	689
185.509	-292
185.579	760
185.649	1
185.718	797
185.788	1093
185.857	453
185.927	534
185.996	417
186.066	600
186.136	433
186.205	408
186.275	1173
186.344	1152
186.414	486
186.483	-26
186.553	1370
186.622	998
186.692	450
186.761	664
186.831	-125
186.900	448
186.970	1416
187.039	41
187.109	1568
187.178	1021
187.248	396
187.317	1074
187.387	127
187.456	670
187.526	1617
187.595	1074
187.664	1080
187.734	1148
187.803	1778
187.873	1172
187.942	1329
188.012	1182
188.081	1217
188.150	47
188.220	1719
188.289	1653
188.358	940
188.428	963
188.497	1443
188.567	907
188.636	567
188.705	468
188.775	926
188.844	193
188.913	1929
188.983	675
189.052	874
189.121	736
189.191	817
189.260	460
189.329	1327
189.399	759
189.468	1068
189.537	1115
189.606	1222
189.676	1373
189.745	1624
189.814	2179
189.883	998
189.953	1187
190.022	1217
190.091	3004
190.161	5199
190.230	2468
190.299	750
190.368	823
190.437	484
190.507	1776
190.576	1344
190.645	1118
190.714	1345
190.783	735
190.853	1512
190.922	1115
190.991	1855
191.060	1893
191.129	986
191.198	1544
191.268	582
191.337	948
191.406	1694
191.475	1124
191.544	299
191.613	651
191.682	127
191.752	192
191.821	1099
191.890	1455
191.959	1659
192.028	1165
192.097	1084
192.166	421
192.235	1108
192.304	890
192.373	383
192.442	721
192.511	1113
192.580	1238
192.650	1166
192.719	474
192.788	1952
192.857	797
192.926	1737
192.995	1815
193.064	2226
193.133	3168
193.202	2992
193.271	2478
193.340	2179
193.409	2717
193.478	3614
193.547	2475
193.615	3898
193.684	4289
193.753	3138
193.822	2817
193.891	1621
193.960	1610
194.029	1638
194.098	2102
194.167	436
194.236	1074
194.305	781
194.374	1368
194.443	1524
194.512	1976
194.580	2016
194.649	3042
194.718	3658
194.787	1443
194.856	1256
194.925	2312
194.994	2113
195.062	2931
195.131	3668
195.200	4518
195.269	5820
195.338	3402
195.407	2139
195.475	1669
195.544	3590
195.613	4364
195.682	1727
195.751	4809
195.819	5546
195.888	3457
195.957	3887
196.026	4744
196.094	5229
196.163	5085
196.232	5437
196.301	4200
196.369	3751
196.438	2821
196.507	2297
196.576	1788
196.644	1091
196.713	1386
196.782	834
196.850	1907
196.919	1604
196.988	2094
197.056	1011
197.125	1856
197.194	2447
197.262	1146
197.331	1491
197.400	1433
197.468	1759
197.537	1009
197.606	1541
197.674	3039
197.743	5254
197.812	3016
197.880	5035
197.949	3855
198.017	4522
198.086	4682
198.155	2059
198.223	2842
198.292	6367
198.360	3511
198.429	1189
198.497	1397
198.566	4411
198.635	6401
198.703	2610
198.772	3032
198.840	5922
198.909	8209
198.977	2240
199.046	2861
199.114	2487
199.183	1945
199.251	2004
199.320	2770
199.388	2331
199.457	2198
199.525	2773
199.594	1762
199.662	2665
199.731	2107
199.799	2142
199.867	2267
199.936	1912
200.004	2227
200.073	4223
200.141	2637
200.210	1686
200.278	2082
200.346	1958
200.415	2348
200.483	3463
200.552	2178
200.620	1645
200.688	2972
200.757	2416
200.825	2018
200.893	2115
200.962	2369
201.030	1818
201.098	2376
201.167	3320
201.235	2335
201.303	1955
201.372	2795
201.440	2204
201.508	2506
201.577	2577
201.645	2444
201.713	2368
201.781	1740
201.850	3552
201.918	2869
201.986	3162
202.055	2449
202.123	3246
202.191	1798
202.259	2179
202.327	1810
202.396	1834
202.464	2864
202.532	3211
202.600	8868
202.669	5626
202.737	2550
202.805	1872
202.873	2216
202.941	2104
203.009	1974
203.078	1189
203.146	1131
203.214	2443
203.282	2164
203.350	2377
203.418	2136
203.487	2541
203.555	1536
203.623	2340
203.691	2811
203.759	1923
203.827	1771
203.895	2189
203.963	2646
204.031	1814
204.099	4303
204.168	2195
204.236	2036
204.304	2435
204.372	2741
204.440	1809
204.508	1891
204.576	1024
204.644	2002
204.712	1850
204.780	2244
204.848	2279
204.916	1702
204.984	1890
205.052	2306
205.120	3515
205.188	2153
205.256	1802
205.324	1684
205.392	1269
205.460	2540
205.528	3258
205.596	2977
205.664	1630
205.732	2695
205.799	5687
205.867	10409
205.935	2108
206.003	2889
206.071	2454
206.139	2114
206.207	2938
206.275	1611
206.343	2890
206.411	2399
206.478	2393
206.546	2160
206.614	2812
206.682	2256
206.750	1181
206.818	2680
206.885	3195
206.953	985
207.021	3003
207.089	1723
207.157	1541
207.225	2778
207.292	1113
207.360	2052
207.428	2056
207.496	1641
207.563	2158
207.631	2187
207.699	2672
207.767	2692
207.834	2483
207.902	2800
207.970	2211
208.038	1983
208.105	1820
208.173	2454
208.241	3720
208.309	3655
208.376	3800
208.444	8227
208.512	4732
208.579	1241
208.647	2961
208.715	4970
208.782	3725
208.850	3666
208.918	2323
208.985	2301
209.053	3901
209.120	4202
209.188	1670
209.256	2077
209.323	2135
209.391	5589
209.459	3874
209.526	2147
209.594	1881
209.661	2618
209.729	2902
209.796	2942
209.864	3519
209.932	2560
209.999	4612
210.067	5282
210.134	4919
210.202	4245
210.269	7497
210.337	5612
210.404	3172
210.472	2489
210.539	3022
210.607	4292
210.674	5908
210.742	3111
210.809	3384
210.877	6020
210.944	7112
211.012	4463
211.079	6661
211.146	3715
211.214	3062
211.281	5248
211.349	5650
211.416	4433
211.484	4881
211.551	2988
211.618	3240
211.686	2868
211.753	2464
211.821	3102
211.888	2484
211.955	2935
212.023	3021
212.090	2891
212.157	2542
212.225	4122
212.292	6275
212.359	12505
212.427	39756
212.494	17448
212.561	5982
212.629	5236
212.696	4158
212.763	4844
212.831	4358
212.898	3596
212.965	3196
213.032	4517
213.100	6490
213.167	4918
213.234	6049
213.301	3649
213.369	3381
213.436	2646
213.503	3216
213.570	4326
213.638	4768
213.705	3898
213.772	3153
213.839	5808
213.906	7283
213.973	6974
214.041	4068
214.108	4155
214.175	5761
214.242	3617
214.309	4261
214.376	4155
214.444	4833
214.511	6064
214.578	4359
214.645	4835
214.712	5953
214.779	4598
214.846	4346
214.913	4588
214.980	4958
215.048	5638
215.115	7989
215.182	8657
215.249	6986
215.316	5671
215.383	4368
215.450	5008
215.517	5361
215.584	5083
215.651	4720
215.718	4910
215.785	7973
215.852	7933
215.919	9593
215.986	9994
216.053	6393
216.120	4447
216.187	8516
216.254	9378
216.321	6552
216.388	7716
216.455	9093
216.522	7433
216.589	12086
216.656	20660
216.722	21449
216.789	9007
216.856	8204
216.923	6251
216.990	6343
217.057	6782
217.124	11057
217.191	8592
217.258	9159
217.324	9856
217.391	9390
217.458	6686
217.525	6639
217.592	6119
217.659	5369
217.725	7584
217.792	14442
217.859	14055
217.926	5232
217.993	4266
218.059	4521
218.126	3956
218.193	3647
218.260	2674
218.327	2705
218.393	4873
218.460	4547
218.527	3293
218.594	5423
218.660	17368
218.727	17580
218.794	6186
218.860	3641
218.927	3644
218.994	3870
219.061	5644
219.127	8892
219.194	15986
219.261	7154
219.327	3443
219.394	4197
219.461	2195
219.527	3973
219.594	11119
219.661	7404
219.727	2998
219.794	3482
219.860	2621
219.927	3256
219.994	7047
220.060	18609
220.127	9786
220.193	5060
220.260	4922
220.326	5110
220.393	9265
220.460	11849
220.526	7746
220.593	6155
220.659	7141
220.726	7101
220.792	17620
220.859	15260
220.925	15308
220.992	19661
221.058	23109
221.125	27826
221.191	19714
221.258	7834
221.324	6532
221.391	6709
221.457	4374
221.524	4787
221.590	6307
221.657	24642
221.723	17854
221.789	14053
221.856	13126
221.922	6016
221.989	6931
222.055	7389
222.121	4419
222.188	5228
222.254	4060
222.321	4720
222.387	3128
222.453	2916
222.520	2800
222.586	2657
222.652	3420
222.719	4242
222.785	4261
222.851	3414
222.918	3707
222.984	3134
223.050	3345
223.116	3345
223.183	5032
223.249	2303
223.315	1593
223.382	4361
223.448	3899
223.514	2814
223.580	2210
223.647	2966
223.713	1912
223.779	2452
223.845	3189
223.911	4011
223.978	1049
224.044	3618
224.110	3337
224.176	3021
224.242	3311
224.309	2679
224.375	3392
224.441	2780
224.507	2714
224.573	4263
224.639	4221
224.705	2691
224.772	4461
224.838	3358
224.904	10227
224.970	6212
225.036	5782
225.102	8616
225.168	7607
225.234	5871
225.300	8090
225.366	6332
225.432	3338
225.499	4512
225.565	7627
225.631	7165
225.697	3852
225.763	4411
225.829	4164
225.895	5762
225.961	14314
226.027	15524
226.093	11126
226.159	9336
226.225	9797
226.291	21690
226.357	35267
226.423	24450
226.489	17249
226.554	10702
226.620	9660
226.686	14308
226.752	27707
226.818	24766
226.884	47584
226.950	42475
227.016	17152
227.082	12640
227.148	11963
227.214	15049
227.279	12154
227.345	8193
227.411	8362
227.477	6547
227.543	11065
227.609	17519
227.674	10916
227.740	8887
227.806	7704
227.872	5982
227.938	7148
228.003	19338
228.069	8335
228.135	4542
228.201	4104
228.267	5027
228.332	9059
228.398	14589
228.464	9261
228.530	3669
228.595	4985
228.661	4814
228.727	15193
228.792	12335
228.858	6118
228.924	7022
228.990	9977
229.055	11366
229.121	12710
229.187	7211
229.252	9762
229.318	6031
229.384	7158
229.449	12289
229.515	4456
229.581	3171
229.646	7225
229.712	8913
229.777	25456
229.843	29898
229.909	17019
229.974	14545
230.040	12545
230.105	8792
230.171	9999
230.236	9169
230.302	13207
230.368	16720
230.433	11107
230.499	8737
230.564	7281
230.630	7289
230.695	5301
230.761	5082
230.826	3744
230.892	12888
230.957	7512
231.023	4806
231.088	7851
231.154	7796
231.219	8342
231.284	12926
231.350	15207
231.415	8026
231.481	5390
231.546	3920
231.612	5005
231.677	3915
231.742	4918
231.808	7314
231.873	5917
231.939	4793
232.004	18186
232.069	17119
232.135	8807
232.200	7154
232.265	5538
232.331	4574
232.396	3677
232.461	3863
232.527	5438
232.592	8155
232.657	8923
232.723	34158
232.788	27422
232.853	8617
232.918	6941
232.984	6852
233.049	8380
233.114	34906
233.179	31247
233.245	40194
233.310	59515
233.375	15300
233.440	9909
233.506	12141
233.571	11893
233.636	7645
233.701	10146
233.766	35226
233.832	51086
233.897	19668
233.962	18833
234.027	21177
234.092	17897
234.157	15533
234.222	16358
234.288	28397
234.353	112182
234.418	113051
234.483	54134
234.548	34106
234.613	22410
234.678	19753
234.743	25708
234.808	115962
234.873	77824
234.938	22439
235.004	15578
235.069	15363
235.134	17924
235.199	12034
235.264	10166
235.329	8693
235.394	11056
235.459	27444
235.524	29838
235.589	13033
235.654	9378
235.719	9181
235.784	9494
235.849	17916
235.913	67698
235.978	76149
236.043	95926
236.108	28934
236.173	28321
236.238	30185
236.303	14160
236.368	16026
236.433	30401
236.498	70534
236.563	25454
236.627	29791
236.692	75426
236.757	59398
236.822	41929
236.887	54441
236.952	26302
237.017	25096
237.081	28455
237.146	23366
237.211	32470
237.276	66497
237.341	139932
237.405	101464
237.470	43445
237.535	53289
237.600	24663
237.664	19944
237.729	13513
237.794	16100
237.859	26743
237.923	54807
237.988	30929
238.053	48869
238.118	59291
238.182	139019
238.247	139537
238.312	87018
238.376	51467
238.441	45948
238.506	32965
238.570	16011
238.635	14399
238.700	13679
238.764	15309
238.829	58471
238.893	86773
238.958	25820
239.023	22862
239.087	15440
239.152	22447
239.216	13622
239.281	11280
239.346	10703
239.410	12884
239.475	25055
239.539	141327
239.604	124715
239.668	30747
239.733	17620
239.797	16315
239.862	31384
239.926	104332
239.991	44737
240.055	21716
240.120	17281
240.184	16413
240.249	18915
240.313	15781
240.378	20520
240.442	86724
240.507	144794
240.571	43206
240.635	65331
240.700	91891
240.764	30665
240.829	18737
240.893	13054
240.957	18255
241.022	73998
241.086	149983
241.151	76024
241.215	24551
241.279	33658
241.344	84939
241.408	30875
241.472	16699
241.537	16924
241.601	13703
241.665	12042
241.730	11793
241.794	19750
241.858	13904
241.922	12986
241.987	12551
242.051	9466
242.115	8522
242.179	9560
242.244	10421
242.308	14762
242.372	21099
242.436	38914
242.501	19924
242.565	13100
242.629	10914
242.693	10984
242.757	9692
242.822	16841
242.886	20168
242.950	21682
243.014	30983
243.078	23292
243.142	22726
243.206	22904
243.271	29773
243.335	21346
243.399	18858
243.463	49815
243.527	115145
243.591	43806
243.655	28724
243.719	19019
243.783	19506
243.847	24346
243.911	40419
243.975	73912
244.040	54373
244.104	21491
244.168	16439
244.232	33690
244.296	42561
244.360	27961
244.424	38319
244.488	40951
244.552	36641
244.615	27454
244.679	21318
244.743	26605
244.807	27919
244.871	14833
244.935	13328
244.999	15549
245.063	18418
245.127	19857
245.191	21873
245.255	22179
245.319	25023
245.383	29525
245.446	24630
245.510	18517
245.574	21128
245.638	21252
245.702	20515
245.766	47365
245.829	31174
245.893	43309
245.957	22637
246.021	24160
246.085	29310
246.149	46227
246.212	78126
246.276	102582
246.340	54206
246.404	43753
246.467	36832
246.531	62040
246.595	39585
246.659	42634
246.722	40229
246.786	41339
246.850	38622
246.913	48675
246.977	28736
247.041	31431
247.104	36413
247.168	25830
247.232	64637
247.295	136315
247.359	71563
247.423	33491
247.486	62040
247.550	40329
247.614	33257
247.677	44647
247.741	29646
247.804	25254
247.868	35189
247.932	59429
247.995	133111
248.059	62487
248.122	29274
248.186	40209
248.249	74547
248.313	199463
248.376	204820
248.440	145722
248.503	57445
248.567	43649
248.630	69333
248.694	85521
248.757	96288
248.821	208279
248.884	129464
248.948	130057
249.011	180791
249.075	252778
249.138	223048
249.202	95584
249.265	70257
249.328	146900
249.392	77760
249.455	41813
249.519	30060
249.582	41203
249.645	63295
249.709	45938
249.772	35050
249.835	36062
249.899	67181
249.962	35120
250.025	28302
250.089	76159
250.152	114512
250.215	61437
250.279	47722
250.342	49904
250.405	47335
250.468	30281
250.532	39624
250.595	55420
250.658	118606
250.721	187907
250.785	82439
250.848	49397
250.911	33205
250.974	29252
251.038	48195
251.101	115831
251.164	81668
251.227	75000
251.290	47808
251.354	51259
251.417	158019
251.480	161533
251.543	94995
251.606	277772
251.669	208704
251.732	95283
251.795	130721
251.859	119752
251.922	195077
251.985	120506
252.048	52112
252.111	55726
252.174	61866
252.237	111038
252.300	238263
252.363	192718
252.426	290085
252.489	155993
252.552	133551
252.615	101646
252.678	89470
252.741	173826
252.804	156362
252.867	265680
252.930	250075
252.993	175974
253.056	95138
253.119	73069
253.182	53390
253.245	65075
253.308	66913
253.371	121592
253.434	108987
253.497	87720
253.559	135459
253.622	105885
253.685	177382
253.748	166287
253.811	81440
253.874	142433
253.937	138812
254.000	68476
254.062	103012
254.125	151528
254.188	125303
254.251	116897
254.314	71312
254.376	120475
254.439	123459
254.502	120739
254.565	111543
254.628	176902
254.690	137303
254.753	79383
254.816	67453
254.878	86350
254.941	130464
255.004	131325
255.067	73383
255.129	68145
255.192	35718
255.255	31282
255.317	39462
255.380	27823
255.443	21024
255.505	25015
255.568	26728
255.631	23276
255.693	25309
255.756	22869
255.819	20005
255.881	18222
255.944	18583
256.006	25550
256.069	27065
256.132	21151
256.194	40638
256.257	154734
256.319	113144
256.382	107033
256.444	35816
256.507	23038
256.569	19130
256.632	24276
256.694	65964
256.757	56286
256.819	102761
256.882	52484
256.944	30742
257.007	31061
257.069	49629
257.132	29898
257.194	17400
257.257	17388
257.319	19325
257.381	21428
257.444	55072
257.506	120361
257.569	145915
257.631	87404
257.693	70440
257.756	46394
257.818	73535
257.880	29625
257.943	23678
258.005	22605
258.067	21029
258.130	20097
258.192	33900
258.254	112891
258.317	62093
258.379	26239
258.441	58830
258.503	64521
258.566	127850
258.628	180158
258.690	43018
258.753	35051
258.815	76925
258.877	42371
258.939	21264
259.001	16973
259.064	19550
259.126	45608
259.188	80568
259.250	37122
259.312	42411
259.375	53231
259.437	45693
259.499	21068
259.561	17260
259.623	19485
259.685	21147
259.747	28806
259.809	121668
259.872	251529
259.934	338154
259.996	279571
260.058	70628
260.120	37402
260.182	25886
260.244	22306
260.306	20100
260.368	20685
260.430	20164
260.492	36043
260.554	51968
260.616	46317
260.678	142892
260.740	244120
260.802	62486
260.864	42974
260.926	39918
260.988	34533
261.050	31324
261.112	61549
261.174	200378
261.236	197169
261.298	57873
261.359	112490
261.421	174728
261.483	47745
261.545	34354
261.607	23931
261.669	24719
261.731	73540
261.793	181945
261.854	66872
261.916	40422
261.978	29464
262.040	42944
262.102	41229
262.164	88086
262.225	68889
262.287	27171
262.349	61320
262.411	50795
262.472	28318
262.534	83396
262.596	195330
262.658	55017
262.719	32721
262.781	47230
262.843	178967
262.904	73919
262.966	50452
263.028	59707
263.090	199403
263.151	436345
263.213	146232
263.275	74917
263.336	39486
263.398	26907
263.459	22150
263.521	22923
263.583	55120
263.644	41391
263.706	21373
263.767	18261
263.829	15464
263.891	12647
263.952	13382
264.014	12992
264.075	16756
264.137	37175
264.198	30787
264.260	14129
264.321	13015
264.383	33723
264.444	63303
264.506	21864
264.567	18172
264.629	21147
264.690	37562
264.752	23738
264.813	18788
264.875	14864
264.936	13444
264.998	10842
265.059	10761
265.120	12418
265.182	18448
265.243	44433
265.305	48366
265.366	17767
265.427	13882
265.489	14228
265.550	10346
265.611	18298
265.673	20147
265.734	13351
265.795	10757
265.857	11900
265.918	11558
265.979	18467
266.040	71957
266.102	69001
266.163	30396
266.224	33313
266.286	21019
266.347	15913
266.408	20702
266.469	41491
266.530	28375
266.592	17339
266.653	48285
266.714	80786
266.775	24660
266.836	15911
266.898	13406
266.959	22655
267.020	16242
267.081	11384
267.142	9256
267.203	10730
267.264	10532
267.326	14277
267.387	10632
267.448	9946
267.509	11034
267.570	11587
267.631	10777
267.692	9592
267.753	13862
267.814	12211
267.875	29259
267.936	68586
267.997	28837
268.058	27074
268.119	19736
268.180	21333
268.241	17627
268.302	14110
268.363	14138
268.424	20817
268.485	29788
268.546	18635
268.607	11377
268.668	10400
268.729	11773
268.790	14943
268.851	16202
268.912	43424
268.972	63886
269.033	37581
269.094	16400
269.155	13751
269.216	15248
269.277	32993
269.338	20253
269.398	13842
269.459	22515
269.520	30361
269.581	45820
269.642	55009
269.702	36080
269.763	23583
269.824	18607
269.885	23926
269.945	39139
270.006	16411
270.067	11753
270.128	11507
270.188	11229
270.249	14366
270.310	12694
270.370	16330
270.431	28351
270.492	14670
270.553	16512
270.613	43188
270.674	78371
270.734	38713
270.795	20961
270.856	33593
270.916	35349
270.977	19877
271.038	23400
271.098	26900
271.159	42837
271.219	52925
271.280	22573
271.340	17611
271.401	35852
271.462	128793
271.522	56885
271.583	26550
271.643	33634
271.704	24360
271.764	27146
271.825	57647
271.885	171901
271.946	234478
272.006	86632
272.066	105426
272.127	177142
272.187	57613
272.248	35647
272.308	37167
272.369	116456
272.429	72676
272.489	71431
272.550	71422
272.610	64442
272.671	58999
272.731	75162
272.791	149285
272.852	58635
272.912	46237
272.972	25374
273.033	28058
273.093	68833
273.153	45344
273.214	26268
273.274	28245
273.334	79916
273.394	170946
273.455	85557
273.515	70294
273.575	151820
273.635	72338
273.696	127056
273.756	205496
273.816	81999
273.876	54815
273.936	156141
273.997	286905
274.057	73591
274.117	47800
274.177	63397
274.237	208200
274.297	226406
274.358	239266
274.418	158767
274.478	119669
274.538	59253
274.598	68303
274.658	265433
274.718	349373
274.778	130661
274.838	68627
274.898	164587
274.958	501842
275.018	270809
275.078	147613
275.138	77102
275.198	45384
275.258	36450
275.318	61777
275.378	100945
275.438	80980
275.498	63049
275.558	180322
275.618	339425
275.678	150794
275.738	91218
275.798	68538
275.858	37872
275.918	25353
275.978	30931
276.038	30085
276.098	23953
276.157	51211
276.217	143013
276.277	69430
276.337	52511
276.397	31353
276.457	38443
276.517	27114
276.576	19944
276.636	21668
276.696	43684
276.756	106479
276.815	83261
276.875	39544
276.935	54218
276.995	40918
277.055	22031
277.114	22556
277.174	30943
277.234	92364
277.293	50906
277.353	32104
277.413	20199
277.472	25121
277.532	26981
277.592	22748
277.651	43301
277.711	77645
277.771	38366
277.830	111442
277.890	99470
277.950	74148
278.009	140591
278.069	63628
278.128	53544
278.188	81277
278.248	42440
278.307	75430
278.367	70202
278.426	41689
278.486	21918
278.545	19282
278.605	16767
278.664	16362
278.724	23030
278.783	60210
278.843	158756
278.902	50570
278.962	33883
279.021	38331
279.081	57029
279.140	60822
279.199	38798
279.259	28873
279.318	26748
279.378	33461
279.437	56613
279.496	156545
279.556	540671
279.615	498177
279.675	140774
279.734	82760
279.793	135463
279.853	158271
279.912	57071
279.971	38327
280.031	30213
280.090	37108
280.149	57149
280.208	81001
280.268	362162
280.327	426158
280.386	115910
280.445	86898
280.505	89156
280.564	41371
280.623	33937
280.682	49010
280.742	80149
280.801	28282
280.860	20801
280.919	17371
280.978	16038
281.037	17840
281.097	16583
281.156	15468
281.215	16810
281.274	23787
281.333	93757
281.392	78862
281.451	21209
281.510	15349
281.569	16161
281.628	14104
281.688	12890
281.747	16137
281.806	18023
281.865	13642
281.924	14646
281.983	17369
282.042	10635
282.101	11534
282.160	11082
282.219	11383
282.278	15775
282.337	56974
282.396	42519
282.454	15979
282.513	22749
282.572	86433
282.631	57182
282.690	19369
282.749	16599
282.808	24773
282.867	26196
282.926	25728
282.985	12888
283.043	10819
283.102	14526
283.161	26073
283.220	48834
283.279	94477
283.338	32312
283.396	20741
283.455	19954
283.514	21229
283.573	43166
283.631	34077
283.690	18355
283.749	16847
283.808	40376
283.866	52499
283.925	18374
283.984	18183
284.043	30041
284.101	37806
284.160	19448
284.219	22094
284.277	20340
284.336	38422
284.395	119843
284.453	97478
284.512	32658
284.570	48650
284.629	39122
284.688	26376
284.746	27468
284.805	30728
284.863	37754
284.922	45034
284.981	47883
285.039	62706
285.098	99146
285.156	213867
285.215	423988
285.273	392566
285.332	239749
285.390	139607
285.449	89112
285.507	61632
285.566	49119
285.624	42197
285.683	32464
285.741	28353
285.799	28053
285.858	32732
285.916	28149
285.975	18051
286.033	15195
286.091	13181
286.150	12697
286.208	13777
286.267	20646
286.325	22873
286.383	38875
286.442	31083
286.500	14219
286.558	13013
286.616	11531
286.675	23858
286.733	23331
286.791	21520
286.850	23385
286.908	31696
286.966	52567
287.024	23161
287.083	14691
287.141	13743
287.199	15227
287.257	31353
287.315	21762
287.374	26521
287.432	49437
287.490	34927
287.548	24604
287.606	18013
287.664	14709
287.723	25048
287.781	34791
287.839	16591
287.897	18857
287.955	19520
288.013	25373
288.071	56316
288.129	175956
288.187	496272
288.245	224184
288.303	70061
288.361	44654
288.419	41673
288.477	28437
288.535	19195
288.593	16212
288.651	15295
288.709	12751
288.767	14548
288.825	16796
288.883	11847
288.941	11767
288.999	12615
289.057	12143
289.115	11657
289.173	13628
289.231	14792
289.289	17831
289.346	16304
289.404	19221
289.462	38686
289.520	43063
289.578	20426
289.636	10581
289.694	8524
289.751	9121
289.809	9282
289.867	12480
289.925	16071
289.983	25101
290.040	11173
290.098	8158
290.156	16665
290.214	24104
290.271	14894
290.329	8509
290.387	7745
290.444	9224
290.502	7286
290.560	7907
290.617	10273
290.675	13284
290.733	12686
290.790	17728
290.848	11686
290.906	17364
290.963	17664
291.021	14350
291.078	14132
291.136	16235
291.194	36795
291.251	85906
291.309	29372
291.366	12710
291.424	12211
291.481	13350
291.539	11573
291.596	10737
291.654	8234
291.711	10173
291.769	16636
291.826	47223
291.884	30856
291.941	15389
291.999	16002
292.056	19758
292.114	23001
292.171	14991
292.228	15873
292.286	23359
292.343	51131
292.401	61780
292.458	38966
292.515	24533
292.573	27500
292.630	31286
292.687	42176
292.745	24969
292.802	24828
292.859	54977
292.917	111143
292.974	77015
293.031	26854
293.089	18322
293.146	15980
293.203	13684
293.260	10918
293.318	11823
293.375	16585
293.432	13580
293.489	11242
293.546	13089
293.604	25775
293.661	71594
293.718	166778
293.775	91763
293.832	46823
293.889	31617
293.947	26234
294.004	20094
294.061	24169
294.118	44600
294.175	81237
294.232	74616
294.289	37870
294.346	22882
294.403	23540
294.460	36307
294.517	28187
294.574	19964
294.631	16776
294.688	24479
294.745	59404
294.802	176863
294.859	163306
294.916	70833
294.973	42064
295.030	45693
295.087	41008
295.144	25880
295.201	21546
295.258	19564
295.315	28327
295.372	80613
295.429	143746
295.486	66368
295.542	35549
295.599	47064
295.656	84417
295.713	78344
295.770	117068
295.827	51555
295.883	27542
295.940	29403
295.997	54995
296.054	57120
296.111	28010
296.167	17780
296.224	14682
296.281	13254
296.338	13518
296.394	15861
296.451	24674
296.508	60165
296.564	107524
296.621	79456
296.678	143273
296.734	210374
296.791	84625
296.848	45377
296.904	49822
296.961	103446
297.018	145481
297.074	110707
297.131	47065
297.187	36244
297.244	51879
297.301	132005
297.357	238502
297.414	94212
297.470	39249
297.527	27701
297.583	24941
297.640	28630
297.696	21697
297.753	15648
297.809	14004
297.866	12063
297.922	14155
297.979	15387
298.035	19338
298.092	33663
298.148	77373
298.204	86812
298.261	47781
298.317	67020
298.374	173124
298.430	119042
298.486	86489
298.543	75631
298.599	56359
298.656	48282
298.712	60593
298.768	96336
298.824	58026
298.881	28556
298.937	20493
298.993	19850
299.050	32675
299.106	28743
299.162	22588
299.218	24576
299.275	19086
299.331	24111
299.387	44781
299.443	142925
299.500	152993
299.556	57130
299.612	32887
299.668	30522
299.724	25158
299.780	22160
299.837	23636
299.893	38866
299.949	118905
300.005	149884
300.061	125489
300.117	197320
300.173	110186
300.229	60209
300.285	82320
300.341	88315
300.397	47425
300.453	29510
300.510	24840
300.566	26102
300.622	24910
300.678	43488
300.734	101271
300.790	118122
300.845	148469
300.901	92014
300.957	117195
301.013	106434
301.069	45245
301.125	34195
301.181	43014
301.237	33225
301.293	22566
301.349	18920
301.405	19317
301.461	21405
301.516	30013
301.572	32124
301.628	52769
301.684	50099
301.740	60740
301.796	99426
301.851	71339
301.907	110787
301.963	120582
302.019	164883
302.074	395170
302.130	413220
302.186	206348
302.242	87326
302.297	55340
302.353	52933
302.409	90873
302.464	89943
302.520	75976
302.576	164039
302.631	191401
302.687	117128
302.743	50906
302.798	29686
302.854	24021
302.910	25127
302.965	34517
303.021	66194
303.076	68519
303.132	81206
303.187	96023
303.243	50415
303.299	26434
303.354	20743
303.410	18686
303.465	18407
303.521	17603
303.576	18724
303.632	26662
303.687	46724
303.743	128510
303.798	121819
303.853	51611
303.909	29213
303.964	27450
304.020	41466
304.075	70018
304.130	63228
304.186	109950
304.241	115198
304.297	89941
304.352	47958
304.358	45933
304.407	29505
304.449	25183
304.463	23755
304.518	26054
304.539	25324
304.573	24141
304.629	25693
304.630	26018
304.684	42330
304.720	79540
304.739	97979
304.794	155954
304.811	134566
304.850	83038
304.902	41002
304.905	38340
304.960	26261
304.992	24398
305.015	23266
305.071	24743
305.083	24632
305.126	23639
305.173	16655
305.181	15602
305.236	14544
305.264	16488
305.292	18494
305.347	25067
305.354	25434
305.402	27346
305.445	25800
305.457	25602
305.512	32413
305.535	35215
305.567	38204
305.622	36707
305.626	37580
305.678	61376
305.716	112358
305.733	130112
305.788	164719
305.807	145403
305.843	112498
305.897	133452
305.898	133570
305.953	136778
305.988	92981
306.008	69717
306.063	44966
306.078	40814
306.118	31511
306.168	23381
306.173	22686
306.228	18014
306.259	16578
306.283	15691
306.338	14404
306.349	14699
306.393	15828
306.440	16979
306.448	17222
306.503	19234
306.530	21330
306.558	27915
306.613	59459
306.620	65070
306.668	105827
306.711	142914
306.723	146150
306.778	119050
306.801	92837
306.833	62755
306.888	32509
306.892	31259
306.943	21774
306.982	17933
306.997	16866
307.052	15833
307.072	15963
307.107	17971
307.162	24428
307.163	24568
307.217	38673
307.253	45434
307.272	46576
307.327	50486
307.343	46812
307.381	39404
307.434	37151
307.436	38178
307.491	73210
307.524	109051
307.546	119037
307.600	124235
307.614	111816
307.655	69016
307.704	34346
307.710	32842
307.765	36617
307.795	44208
307.819	51683
307.874	81397
307.885	81375
307.929	62497
307.975	37940
307.984	36240
308.038	39914
308.065	46504
308.093	72829
308.148	144054
308.156	161536
308.202	251804
308.246	319142
308.257	318593
308.312	195783
308.336	155500
308.366	128151
308.421	96305
308.426	92211
308.475	53868
308.517	33216
308.530	30138
308.585	25319
308.607	24293
308.639	25241
308.694	29746
308.697	30276
308.748	59143
308.787	91571
308.803	91862
308.857	72516
308.877	59396
308.912	45099
308.967	35962
308.967	35942
309.021	44362
309.058	53278
309.076	68028
309.130	126562
309.148	149949
309.185	246834
309.238	402702
309.239	403380
309.293	440329
309.328	398123
309.348	345254
309.402	166393
309.418	123533
309.457	85824
309.508	55045
309.511	53896
309.566	48321
309.598	47493
309.620	52866
309.674	72995
309.688	79168
309.729	80326
309.778	71181
309.783	70362
309.837	60993
309.868	57799
309.892	83429
309.946	152489
309.959	172966
310.001	226872
310.049	274835
310.055	265834
310.109	157025
310.139	94908
310.163	74431
310.218	42876
310.229	37701
310.272	29774
310.319	22806
310.326	22155
310.381	19367
310.409	17993
310.435	16882
310.489	14834
310.499	14680
310.543	15808
310.589	16933
310.598	16692
310.652	15907
310.679	15125
310.706	13417
310.760	9596
310.769	9150
310.814	8928
310.859	8700
310.868	8804
310.923	9659
310.948	10331
310.977	13297
311.031	19228
311.038	20065
311.085	18515
311.128	16113
311.139	15834
311.193	14820
311.218	14329
311.247	12801
311.301	9877
311.308	9572
311.356	10446
311.398	11377
311.410	11046
311.464	9292
311.488	8561
311.518	10213
311.572	13331
311.578	13725
311.626	24490
311.668	34144
311.680	32270
311.734	22794
311.758	18652
311.788	17827
311.842	16500
311.847	16400
311.896	22733
311.937	28385
311.950	28449
312.004	28723
312.027	28752
312.058	24541
312.112	17128
312.117	16413
312.165	13309
312.207	10735
312.297	13146
312.386	11234
312.476	21096
312.566	62720
312.656	25010
312.745	8980
312.835	10509
312.925	14173
313.015	10331
313.104	13021
313.194	12121
313.284	14287
313.374	27702
313.463	22167
313.553	13214
313.643	10661
313.732	7684
313.822	6465
313.912	10818
314.001	17865
314.091	14105
314.180	16900
314.270	28119
314.360	33106
314.449	30759
314.539	12175
314.628	8802
314.718	12583
314.808	17945
314.897	10226
314.987	13117
315.076	26701
315.166	36596
315.255	25163
315.345	32071
315.434	28743
315.524	23253
315.613	32330
315.703	48449
315.792	49860
315.881	84485
315.971	42142
316.060	63058
316.150	70165
316.239	68418
316.328	23716
316.418	13421
316.507	17747
316.597	31342
316.686	24089
316.775	34964
316.865	64799
316.954	15680
317.043	10225
317.133	17656
317.222	13813
317.311	13426
317.400	16410
317.490	31736
317.579	38764
317.668	21664
317.757	39804
317.847	66181
317.936	167088
318.025	123752
318.114	53489
318.203	36620
318.293	35163
318.382	46814
318.471	50146
318.560	45696
318.649	73993
318.738	26521
318.828	36648
318.917	40349
319.006	33340
319.095	82487
319.184	122200
319.273	138325
319.362	102309
319.451	38419
319.540	34633
319.629	96512
319.718	148359
319.807	41009
319.896	64691
319.985	171212
320.074	101933
320.163	24664
320.252	44758
320.341	26427
320.430	25161
320.519	71621
320.608	34788
320.697	20343
320.786	25279
320.875	48594
320.964	71502
321.053	122031
321.142	176078
321.230	169273
321.319	110911
321.408	250009
321.497	85113
321.586	100575
321.675	84409
321.764	88166
321.852	58988
321.941	154755
322.030	99171
322.119	90729
322.207	259797
322.296	109922
322.385	54148
322.474	88673
322.562	312700
322.651	135086
322.740	124761
322.829	143060
322.917	112232
323.006	89542
323.095	75139
323.183	42665
323.272	72155
323.361	116109
323.449	260941
323.538	88710
323.626	177671
323.715	102717
323.804	49284
323.892	186722
323.981	131486
324.069	31445
324.158	82029
324.246	80173
324.335	49072
324.424	99172
324.512	29121
324.601	43818
324.689	84239
324.778	147358
324.866	84761
324.954	24861
325.043	29290
325.131	54779
325.220	70920
325.308	84210
325.397	72607
325.485	45989
325.574	13653
325.662	15270
325.750	25103
325.839	14497
325.927	14950
326.015	23307
326.104	34484
326.192	52895
326.280	16860
326.369	17033
326.457	35491
326.545	77194
326.634	28364
326.722	10429
326.810	15698
326.898	13574
326.987	18635
327.075	69174
327.163	57096
327.251	23678
327.340	39897
327.428	66311
327.516	13294
327.604	16841
327.692	18639
327.781	20548
327.869	36043
327.957	27890
328.045	35998
328.133	13679
328.221	20300
328.309	19197
328.397	15919
328.485	28738
328.574	45254
328.662	163118
328.750	77315
328.838	24022
328.926	14383
329.014	13148
329.102	28059
329.190	58385
329.278	46980
329.366	9575
329.454	7653
329.542	8314
329.630	7855
329.718	10600
329.806	20827
329.893	11785
329.981	6669
330.069	5992
330.157	11861
330.245	24607
330.333	16981
330.421	17654
330.509	49226
330.597	212859
330.684	119010
330.772	27942
330.860	21014
330.948	22349
331.036	16212
331.123	7710
331.211	7195
331.299	10458
331.387	22385
331.475	51156
331.562	19095
331.650	9485
331.738	13654
331.825	16570
331.913	9972
332.001	10351
332.089	15411
332.176	32764
332.264	84630
332.352	68449
332.439	24614
332.527	15346
332.614	12137
332.702	16870
332.790	14684
332.877	46807
332.965	73389
333.052	16688
333.140	18657
333.228	35938
333.315	10786
333.403	15065
333.490	44236
333.578	40414
333.665	29515
333.753	22057
333.840	13610
333.928	19227
334.015	50592
334.103	62440
334.190	168046
334.278	43592
334.365	17999
334.452	12130
334.540	9395
334.627	14960
334.715	25603
334.802	55794
334.889	273134
334.977	248506
335.064	26033
335.151	16031
335.239	11641
335.326	16258
335.413	57155
335.501	79640
335.588	19957
335.675	12501
335.762	10545
335.850	17870
335.937	18724
336.024	52980
336.111	237056
336.199	83292
336.286	13712
336.373	8782
336.460	7120
336.547	9093
336.635	18024
336.722	19283
336.809	12407
336.896	30611
336.983	69484
337.070	118479
337.157	133278
337.245	163137
337.332	118161
337.419	17067
337.506	8810
337.593	10664
337.680	25546
337.767	69659
337.854	41818
337.941	49627
338.028	82863
338.115	29392
338.202	22561
338.289	50728
338.376	194127
338.463	56607
338.550	45183
338.637	45271
338.724	35197
338.811	56855
338.898	14338
338.984	10292
339.071	13182
339.158	28569
339.245	93865
339.332	52897
339.419	46968
339.506	41795
339.593	11512
339.679	14895
339.766	14343
339.853	26233
339.940	72195
340.027	19394
340.113	22059
340.200	36787
340.287	23258
340.374	37020
340.460	68802
340.547	30714
340.634	55283
340.720	182870
340.807	93972
340.894	17165
340.980	19026
341.067	18701
341.154	23030
341.240	47217
341.327	98252
341.414	35084
341.500	44584
341.587	20851
341.674	18831
341.760	68699
341.847	83837
341.933	23575
342.020	8195
342.106	9782
342.193	26795
342.279	56201
342.366	42468
342.452	72688
342.539	40868
342.625	93036
342.712	201315
342.798	84776
342.885	34047
342.971	10715
343.058	8472
343.144	14433
343.230	15012
343.317	20252
343.403	16028
343.490	8207
343.576	8374
343.662	17183
343.749	21943
343.835	26104
343.921	49601
344.008	263029
344.094	485625
344.180	108658
344.267	59345
344.353	153927
344.439	147266
344.525	97886
344.612	42344
344.698	35440
344.784	23330
344.870	15774
344.957	21749
345.043	38314
345.129	30082
345.215	64774
345.301	39196
345.387	24761
345.474	8593
345.560	10609
345.646	15849
345.732	15142
345.818	28673
345.904	24554
345.990	27030
346.076	20631
346.162	43591
346.249	21032
346.335	13727
346.421	17223
346.507	67552
346.593	195178
346.679	46453
346.765	13254
346.851	17262
346.937	20458
347.023	12955
347.108	24135
347.194	20565
347.280	17815
347.366	24384
347.452	72087
347.538	245235
347.624	181171
347.710	140027
347.796	23917
347.882	13113
347.967	9390
348.053	11154
348.139	11596
348.225	13007
348.311	14830
348.397	14137
348.482	23955
348.568	26655
348.654	10816
348.740	8493
348.825	12519
348.911	37196
348.997	130495
349.083	202480
349.168	35852
349.254	25774
349.340	25154
349.425	13347
349.511	29611
349.597	26715
349.682	68258
349.768	164311
349.854	65547
349.939	11738
350.025	13147
350.110	13102
350.196	13338
350.282	10934
350.367	8678
350.453	26458
350.538	29073
350.624	29271
350.709	21820
350.795	13765
350.880	17896
350.966	20020
351.051	33708
351.137	20006
351.222	21310
351.308	65526
351.393	157009
351.479	48600
351.564	22057
351.649	17795
351.735	11652
351.820	10979
351.906	14776
351.991	24198
352.076	105822
352.162	145740
352.247	35788
352.332	30017
352.418	70699
352.503	78088
352.588	256464
352.673	226649
352.759	59627
352.844	28279
352.929	35039
353.014	48879
353.100	20592
353.185	22783
353.270	82815
353.355	83947
353.441	20883
353.526	25061
353.611	82448
353.696	95155
353.781	50097
353.866	22285
353.952	26177
354.037	83989
354.122	188246
354.207	166836
354.292	53577
354.377	21143
354.462	17573
354.547	33687
354.632	22703
354.717	16236
354.802	14502
354.887	9473
354.972	10369
355.057	9143
355.142	10746
355.227	23922
355.312	51260
355.397	124891
355.482	286291
355.567	126439
355.652	92232
355.737	92806
355.822	191688
355.907	138343
355.991	27555
356.076	17786
356.161	13700
356.246	11768
356.331	16887
356.416	53037
356.501	292396
356.585	277412
356.670	55535
356.755	32707
356.840	55221
356.924	233930
357.009	754079
357.094	286236
357.179	86929
357.263	52738
357.348	54657
357.433	53184
357.517	53001
357.602	36588
357.687	24461
357.771	25798
357.856	67673
357.941	56585
358.025	184797
358.110	658542
358.195	298481
358.279	63028
358.364	54336
358.448	195486
358.533	420498
358.617	304716
358.702	271109
358.787	111410
358.871	82178
358.956	62272
359.040	17961
359.125	13100
359.209	16017
359.294	35626
359.378	58055
359.462	60908
359.547	31203
359.631	17870
359.716	15215
359.800	14129
359.885	23911
359.969	24346
360.053	12792
360.138	13700
360.222	40434
360.306	83918
360.391	54044
360.475	82019
360.559	181309
360.644	183843
360.728	120946
360.812	175660
360.896	406795
360.981	205171
361.065	122049
361.149	32838
361.233	38091
361.318	26302
361.402	28079
361.486	27774
361.570	22265
361.654	37191
361.739	104151
361.823	333554
361.907	404661
361.991	84470
362.075	68470
362.159	160907
362.243	94076
362.327	57804
362.411	39763
362.495	36434
362.580	21763
362.664	11722
362.748	11254
362.832	12088
362.916	16861
363.000	58192
363.084	277296
363.168	460270
363.252	126161
363.336	49334
363.420	67295
363.503	107693
363.587	100953
363.671	41418
363.755	42808
363.839	65134
363.923	27388
364.007	72971
364.091	68434
364.175	37747
364.258	117116
364.342	76733
364.426	52757
364.510	42052
364.594	51200
364.677	85940
364.761	367265
364.845	231981
364.929	127258
365.013	112114
365.096	88125
365.180	96463
365.264	43469
365.347	120307
365.431	52907
365.515	30242
365.598	29581
365.682	18788
365.766	19262
365.849	19904
365.933	29138
366.017	24954
366.100	11467
366.184	8890
366.267	15250
366.351	14909
366.435	15045
366.518	10066
366.602	11051
366.685	18494
366.769	24656
366.852	29536
366.936	70790
367.019	49834
367.103	18327
367.186	18931
367.270	12086
367.353	10702
367.436	15162
367.520	12206
367.603	26698
367.687	53750
367.770	97444
367.853	45449
367.937	110555
368.020	163403
368.104	58118
368.187	73095
368.270	92785
368.353	71593
368.437	88668
368.520	143644
368.603	121576
368.687	154112
368.770	243044
368.853	66677
368.936	78715
369.020	50402
369.103	26906
369.186	12440
369.269	17449
369.352	65201
369.436	90726
369.519	48997
369.602	17446
369.685	22770
369.768	32243
369.851	19060
369.934	13277
370.018	28083
370.101	89856
370.184	50076
370.267	25065
370.350	50892
370.433	82711
370.516	179361
370.599	189650
370.682	88968
370.765	180505
370.848	189211
370.931	282707
371.014	85530
371.097	24969
371.180	19826
371.263	8598
371.346	5885
371.429	8933
371.511	12793
371.594	43328
371.677	55495
371.760	31571
371.843	49769
371.926	239672
372.009	471036
372.091	145094
372.174	125145
372.257	235505
372.340	81745
372.423	66778
372.505	50792
372.588	31806
372.671	118638
372.754	312305
372.836	129008
372.919	46998
373.002	80332
373.085	51676
373.167	59847
373.250	156391
373.332	259686
373.415	371945
373.498	707501
373.580	261084
373.663	326572
373.746	394685
373.828	114494
373.911	51357
373.993	46470
374.076	83129
374.159	77848
374.241	89439
374.324	277920
374.406	174141
374.489	222115
374.571	533205
374.654	208007
374.736	126122
374.819	345544
374.901	513286
374.983	481564
375.066	82639
375.148	26803
375.231	63656
375.313	118269
375.395	64872
375.478	20388
375.560	16936
375.643	32491
375.725	129811
375.807	447224
375.890	303095
375.972	140246
376.054	87933
376.136	108802
376.219	53669
376.301	140633
376.383	370537
376.465	142291
376.548	147611
376.630	141482
376.712	324467
376.794	131683
376.877	19557
376.959	15158
377.041	18946
377.123	17815
377.205	16781
377.287	7433
377.369	11453
377.452	14658
377.534	15191
377.616	16229
377.698	17442
377.780	13588
377.862	19401
377.944	18146
378.026	8607
378.108	10351
378.190	11141
378.272	10929
378.354	7880
378.436	7640
378.518	21824
378.600	73729
378.682	80991
378.764	191212
378.846	130293
378.928	42421
379.010	69883
379.091	32838
379.173	16482
379.255	16452
379.337	32782
379.419	103513
379.501	249080
379.583	84244
379.664	32630
379.746	98905
379.828	202395
379.910	247579
379.991	190461
380.073	32087
380.155	28259
380.237	22598
380.318	11949
380.400	17646
380.482	60889
380.564	94519
380.645	73758
380.727	67671
380.809	37205
380.890	25746
380.972	15437
381.053	16212
381.135	22154
381.217	71056
381.298	199416
381.380	92695
381.461	88403
381.543	350294
381.624	380705
381.706	71088
381.787	33304
381.869	37825
381.951	161446
382.032	545144
382.113	332624
382.195	78706
382.276	36231
382.358	96153
382.439	282738
382.521	313879
382.602	465128
382.684	206745
382.765	398846
382.846	274056
382.928	201036
383.009	102400
383.090	74212
383.172	267244
383.253	414591
383.334	217753
383.416	377808
383.497	161422
383.578	52166
383.659	79573
383.741	232852
383.822	622855
383.903	337565
383.984	258611
384.066	525169
384.147	310486
384.228	56600
384.309	59131
384.390	37907
384.471	21076
384.553	32771
384.634	58017
384.715	58357
384.796	18461
384.877	30960
384.958	159133
385.039	196049
385.120	72140
385.201	28674
385.282	32794
385.363	21191
385.444	20622
385.525	53638
385.606	198438
385.687	153280
385.768	31626
385.849	60606
385.930	266188
386.011	377749
386.092	94057
386.173	24887
386.254	12875
386.335	17036
386.416	24945
386.496	109279
386.577	169157
386.658	52001
386.739	39089
386.820	22196
386.901	15255
386.981	19647
387.062	13778
387.143	47921
387.224	180163
387.304	147082
387.385	54986
387.466	21914
387.547	18415
387.627	19526
387.708	64619
387.789	301639
387.869	328962
387.950	76845
388.031	12253
388.111	8931
388.192	21865
388.273	34610
388.353	29204
388.434	27606
388.514	68771
388.595	259955
388.676	324549
388.756	172952
388.837	199529
388.917	112740
388.998	19401
389.078	18044
389.159	21542
389.239	22941
389.320	41220
389.400	39166
389.480	59986
389.561	159392
389.641	68883
389.722	37178
389.802	70495
389.883	75801
389.963	182087
390.043	102251
390.124	30726
390.204	65613
390.284	222102
390.365	124639
390.445	59814
390.525	124035
390.605	138379
390.686	84095
390.766	27738
390.846	16237
390.927	11271
391.007	15124
391.087	14123
391.167	8618
391.247	7612
391.328	24644
391.408	26562
391.488	13130
391.568	8738
391.648	29744
391.728	44382
391.808	43362
391.888	50834
391.969	94222
392.049	138140
392.129	46113
392.209	63504
392.289	169581
392.369	71563
392.449	32065
392.529	32856
392.609	41152
392.689	49911
392.769	171930
392.849	126891
392.929	71945
393.009	193197
393.089	128219
393.169	65215
393.248	242208
393.328	1049205
393.408	1011932
393.488	192041
393.568	58924
393.648	31187
393.728	20310
393.807	13953
393.887	11999
393.967	11511
394.047	20815
394.127	26059
394.206	33765
394.286	101752
394.366	445627
394.446	423605
394.525	80280
394.605	22436
394.685	27114
394.764	55888
394.844	90644
394.924	63959
395.003	36981
395.083	30793
395.163	26043
395.242	24300
395.322	23905
395.402	10238
395.481	16455
395.561	45890
395.640	134676
395.720	96950
395.799	81568
395.879	58851
395.958	32308
396.038	133720
396.117	587718
396.197	568831
396.276	129810
396.356	45730
396.435	33877
396.515	31091
396.594	59580
396.673	97098
396.753	304351
396.832	982100
396.912	735458
396.991	194274
397.070	48170
397.150	31042
397.229	15245
397.308	13758
397.388	17964
397.467	11900
397.546	9320
397.625	13848
397.705	27652
397.784	34501
397.863	13295
397.942	5676
398.022	7782
398.101	24085
398.180	71768
398.259	34122
398.338	18452
398.417	22316
398.497	11260
398.576	13039
398.655	9448
398.734	4456
398.813	6166
398.892	23061
398.971	76507
399.050	36193
399.129	6760
399.208	4276
399.287	5074
399.366	5769
399.445	7590
399.524	8802
399.603	11719
399.682	34847
399.761	74833
399.840	103193
399.919	61438
399.998	11119
400.077	7461
400.156	7877
400.235	9946
400.313	6362
400.392	18734
400.471	114123
400.550	172671
400.629	45502
400.708	20735
400.786	10880
400.865	19371
400.944	31418
401.023	22265
401.102	5562
401.180	5190
401.259	5011
401.338	9570
401.416	23902
401.495	20261
401.574	8449
401.652	10083
401.731	16389
401.810	9128
401.888	4800
401.967	2533
402.046	4624
402.124	15707
402.203	27592
402.281	9849
402.360	6867
402.438	24684
402.517	19248
402.596	6911
402.674	4832
402.753	3395
402.831	3436
402.910	7956
402.988	19685
403.066	39488
403.145	20967
403.223	18048
403.302	21370
403.380	12891
403.459	10919
403.537	6893
403.615	4920
403.694	2052
403.772	2673
403.850	3687
403.929	3526
404.007	6093
404.085	10693
404.164	6402
404.242	5386
404.320	13082
404.398	38055
404.477	109227
404.555	424632
404.633	320426
404.711	49693
404.789	13938
404.868	5786
404.946	4713
405.024	4045
405.102	4322
405.180	6016
405.258	6661
405.336	6514
405.415	7103
405.493	14691
405.571	8423
405.649	3537
405.727	5636
405.805	11087
405.883	8878
405.961	8738
406.039	9125
406.117	7764
406.195	26539
406.273	121293
406.351	364823
406.429	178481
406.507	24072
406.585	11015
406.663	20628
406.740	31682
406.818	26666
406.896	9944
406.974	11394
407.052	42337
407.130	232211
407.208	284155
407.285	50437
407.363	14037
407.441	15093
407.519	11503
407.596	16201
407.674	32087
407.752	34472
407.830	31673
407.907	15581
407.985	10807
408.063	7685
408.141	3585
408.218	7491
408.296	5047
408.373	9189
408.451	21459
408.529	21553
408.606	8135
408.684	3928
408.762	2768
408.839	2747
408.917	2538
408.994	2602
409.072	2241
409.149	3556
409.227	4851
409.304	5490
409.382	3009
409.459	3015
409.537	7393
409.614	9876
409.692	5676
409.769	7218
409.846	10371
409.924	9012
410.001	6467
410.079	7856
410.156	6009
410.233	2602
410.311	2041
410.388	4551
410.465	5896
410.543	4138
410.620	6029
410.697	13942
410.775	20301
410.852	5946
410.929	12464
411.006	17113
411.083	5894
411.161	11076
411.238	12938
411.315	9391
411.392	6344
411.469	12173
411.547	7932
411.624	3140
411.701	3932
411.778	16913
411.855	52192
411.932	23103
412.009	8018
412.086	7328
412.163	10631
412.240	9733
412.317	8789
412.394	6854
412.471	2580
412.548	7079
412.625	9819
412.702	11808
412.779	20559
412.856	9282
412.933	2950
413.010	6569
413.087	20685
413.164	109779
413.241	144060
413.318	37542
413.395	22264
413.471	38697
413.548	13949
413.625	7905
413.702	14888
413.779	7588
413.855	1843
413.932	2523
414.009	2528
414.086	3613
414.162	4822
414.239	17682
414.316	113348
414.393	225880
414.469	68815
414.546	7783
414.623	5305
414.699	7568
414.776	13166
414.853	6655
414.929	8258
415.006	7001
415.082	5826
415.159	5553
415.236	6566
415.312	11759
415.389	37300
415.465	51341
415.542	20699
415.618	14529
415.695	29547
415.771	20724
415.848	16020
415.924	11280
416.000	5120
416.077	4920
416.153	1568
416.230	1355
416.306	2034
416.383	3855
416.459	2226
416.535	2418
416.612	2225
416.688	2537
416.764	2168
416.841	2881
416.917	4100
416.993	4923
417.069	10596
417.146	15269
417.222	18531
417.298	13885
417.374	6657
417.451	9157
417.527	19752
417.603	25063
417.679	15575
417.755	8788
417.831	4261
417.908	4087
417.984	2797
418.060	7391
418.136	39766
418.212	53672
418.288	15481
418.364	6481
418.440	11429
418.516	19392
418.592	16054
418.668	55499
418.744	100180
418.820	66269
418.896	14113
418.972	5663
419.048	9907
419.124	42980
419.200	32730
419.276	5770
419.352	2229
419.428	4372
419.504	13547
419.579	19786
419.655	13166
419.731	14116
419.807	67968
419.883	121689
419.959	71207
420.034	16211
420.110	36538
420.186	142749
420.262	94164
420.337	16506
420.413	16863
420.489	6883
420.565	4271
420.640	4815
420.716	7435
420.792	3665
420.867	6348
420.943	7297
421.019	25524
421.094	17770
421.170	3204
421.245	1117
421.321	4085
421.397	6539
421.472	5881
421.548	16915
421.623	18236
421.699	11437
421.774	13446
421.850	10564
421.925	30552
422.001	21666
422.076	6511
422.152	10463
422.227	27568
422.302	14794
422.378	17227
422.453	29130
422.529	52440
422.604	190012
422.679	365742
422.755	209080
422.830	55284
422.905	14983
422.981	8118
423.056	5579
423.131	4275
423.207	5134
423.282	15236
423.357	52062
423.432	28156
423.508	24458
423.583	88498
423.658	58176
423.733	11436
423.808	16589
423.883	28069
423.959	18407
424.034	8701
424.109	2940
424.184	955
424.259	3013
424.334	2665
424.409	2408
424.484	5593
424.559	9239
424.634	6927
424.709	18013
424.784	24361
424.859	12022
424.934	27616
425.009	124577
425.084	173005
425.159	51320
425.234	6429
425.309	3614
425.384	13653
425.459	23931
425.534	7018
425.609	4231
425.683	2017
425.758	2815
425.833	5443
425.908	13738
425.983	79526
426.058	205937
426.132	73289
426.207	9710
426.282	7228
426.357	6796
426.431	4611
426.506	3427
426.581	3278
426.655	3696
426.730	5822
426.805	6920
426.879	6083
426.954	7765
427.029	30550
427.103	171176
427.178	325993
427.253	116894
427.327	13597
427.402	11725
427.476	26309
427.551	13357
427.625	5006
427.700	3976
427.774	2348
427.849	3700
427.923	1060
427.998	2113
428.072	2754
428.147	12549
428.221	54141
428.296	72217
428.370	21360
428.444	4334
428.519	8886
428.593	17653
428.667	13323
428.742	16631
428.816	15245
428.890	37276
428.965	55046
429.039	28174
429.113	21232
429.188	9726
429.262	3996
429.336	24065
429.410	84124
429.485	41672
429.559	14963
429.633	11213
429.707	4205
429.781	13047
429.855	63825
429.930	122661
430.004	71246
430.078	75417
430.152	60460
430.226	74181
430.300	64880
430.374	10941
430.448	7025
430.522	26915
430.596	74486
430.670	58835
430.744	188673
430.818	283722
430.892	64085
430.966	14247
431.040	4395
431.114	2002
431.188	645
431.262	2921
431.336	2886
431.410	11206
431.484	44725
431.557	36100
431.631	4738
431.705	2228
431.779	7606
431.853	35693
431.927	23372
432.000	3771
432.074	2903
432.148	3677
432.222	3482
432.295	3390
432.369	3867
432.443	16844
432.516	126813
432.590	293184
432.664	94792
432.737	14317
432.811	2991
432.885	2018
432.958	901
433.032	1245
433.106	419
433.179	408
433.253	1019
433.326	827
433.400	-287
433.473	1257
433.547	221
433.620	4459
433.694	21435
433.767	17547
433.841	3852
433.914	1873
433.988	799
434.061	1784
434.134	806
434.208	237
434.281	469
434.355	2382
434.428	2694
434.501	1718
434.575	153
434.648	1744
434.721	658
434.795	541
434.868	735
434.941	272
435.014	128
435.088	1502
435.161	5079
435.234	14782
435.307	18055
435.381	4192
435.454	490
435.527	1496
435.600	351
435.673	1006
435.746	46
435.819	1306
435.892	1102
435.966	1138
436.039	-180
436.112	1665
436.185	-132
436.258	-584
436.331	-1023
436.404	0
436.477	-462
436.550	576
436.623	366
436.696	1293
436.769	5260
436.842	3908
436.915	3758
436.987	11063
437.060	3343
437.133	591
437.206	120
437.279	1858
437.352	929
437.425	1413
437.498	3577
437.570	17460
437.643	17991
437.716	3379
437.789	361
437.861	6484
437.934	20555
438.007	11344
438.080	2905
438.152	6171
438.225	23427
438.298	166715
438.370	390835
438.443	142432
438.516	30236
438.588	8473
438.661	1396
438.734	4061
438.806	8192
438.879	9333
438.951	5845
439.024	12029
439.096	6610
439.169	2491
439.241	911
439.314	1838
439.386	3330
439.459	9281
439.531	16795
439.604	7651
439.676	1118
439.749	-494
439.821	444
439.893	1070
439.966	1727
440.038	3901
440.110	7230
440.183	4876
440.255	3115
440.327	10321
440.400	68572
440.472	268791
440.544	155167
440.617	19993
440.689	10368
440.761	15204
440.833	25501
440.905	18426
440.978	2758
441.050	440
441.122	366
441.194	999
441.266	1746
441.338	2823
441.411	14662
441.483	107580
441.555	143892
441.627	25673
441.699	7737
441.771	8155
441.843	3253
441.915	1623
441.987	-125
442.059	868
442.131	2049
442.203	7985
442.275	12066
442.347	7635
442.419	4013
442.491	13360
442.563	32441
442.635	22313
442.706	35293
442.778	37787
442.850	6513
442.922	2249
442.994	4072
443.066	12032
443.137	7786
443.209	3081
443.281	5976
443.353	11041
443.425	23449
443.496	66578
443.568	62603
443.640	22263
443.711	5999
443.783	3292
443.855	1707
443.926	1264
443.998	1909
444.070	5206
444.141	6533
444.213	19622
444.285	27134
444.356	18608
444.428	10037
444.499	3978
444.571	50
444.642	1809
444.714	6534
444.785	18233
444.857	11405
444.928	19629
445.000	14281
445.071	12950
445.143	16607
445.214	7934
445.285	9378
445.357	31555
445.428	69129
445.500	130099
445.571	86920
445.642	39277
445.714	23078
445.785	34749
445.856	18379
445.928	25745
445.999	15610
446.070	9904
446.141	12983
446.213	16464
446.284	6359
446.355	4811
446.426	3659
446.497	3111
446.569	7871
446.640	28455
446.711	26675
446.782	6319
446.853	8805
446.924	15302
446.995	10036
447.066	5267
447.138	7232
447.209	6036
447.280	416
447.351	687
447.422	503
447.493	4595
447.564	14836
447.635	28853
447.706	8769
447.777	1326
447.847	458
447.918	1130
447.989	5438
448.060	7990
448.131	16417
448.202	28874
448.273	22331
448.344	7832
448.414	5819
448.485	5437
448.556	1940
448.627	1948
448.698	701
448.768	420
448.839	1542
448.910	7885
448.981	11488
449.051	5809
449.122	1370
449.193	1606
449.263	1001
449.334	1450
449.405	8442
449.475	31575
449.546	15685
449.616	8338
449.687	9250
449.758	2292
449.828	774
449.899	245
449.969	-908
450.040	872
450.110	3907
450.181	7457
450.251	2641
450.322	794
450.392	835
450.463	1684
450.533	439
450.604	1419
450.674	756
450.744	1784
450.815	579
450.885	900
450.955	281
451.026	824
451.096	874
451.166	2722
451.237	7566
451.307	24299
451.377	14367
451.447	3039
451.518	1101
451.588	1266
451.658	803
451.728	4271
451.799	22424
451.869	35609
451.939	10367
452.009	3157
452.079	738
452.149	2192
452.219	5489
452.289	27247
452.360	30949
452.430	7572
452.500	8068
452.570	11181
452.640	7571
452.710	16321
452.780	34067
452.850	55237
452.920	56606
452.990	15693
453.060	6413
453.129	14471
453.199	13463
453.269	27976
453.339	78354
453.409	128782
453.479	105151
453.549	160437
453.619	174674
453.688	97523
453.758	15587
453.828	4993
453.898	3438
453.968	3305
454.037	2318
454.087	2340
454.107	2274
454.168	2142
454.177	2047
454.247	2057
454.249	2140
454.316	2680
454.330	3467
454.386	5933
454.411	10413
454.456	14914
454.492	22047
454.525	27972
454.574	17502
454.595	13258
454.655	6091
454.665	5128
454.734	9169
454.736	9738
454.804	20578
454.817	25280
454.873	35206
454.898	41584
454.943	50313
454.979	37964
455.013	28638
455.060	18485
455.082	16193
455.141	20294
455.152	21031
455.221	47080
455.222	48580
455.291	107465
455.303	121705
455.360	163046
455.384	214678
455.430	264576
455.465	211794
455.499	170720
455.546	95656
455.569	61340
455.627	41928
455.638	39516
455.707	12735
455.708	12802
455.777	8128
455.789	7955
455.846	6590
455.869	6308
455.916	6166
455.950	6483
455.985	6243
456.031	7191
456.054	7305
456.112	6736
456.124	6753
456.193	7124
456.193	7046
456.262	8102
456.274	9038
456.332	11674
456.355	13027
456.401	13287
456.436	11955
456.470	10951
456.516	7210
456.540	5681
456.597	5806
456.609	5764
456.678	5090
456.678	5031
456.747	5323
456.759	5081
456.817	3856
456.840	4211
456.886	4810
456.920	4859
456.955	5251
457.001	6471
457.024	8010
457.082	12581
457.093	13231
457.162	19150
457.163	19311
457.232	22938
457.243	22056
457.301	15454
457.324	11888
457.370	8188
457.405	8820
457.439	8796
457.485	7974
457.508	7953
457.566	9198
457.577	9619
457.646	10555
457.647	10665
457.715	14560
457.727	15184
457.784	15920
457.808	16574
457.853	19753
457.889	22789
457.922	23894
457.969	24852
457.991	25459
458.050	27549
458.060	27141
458.129	27847
458.130	27933
458.198	23327
458.211	21976
458.267	15924
458.292	13145
458.336	11866
458.372	12370
458.405	14456
458.453	18090
458.474	21550
458.533	32658
458.543	33874
458.611	46734
458.614	47277
458.680	32250
458.694	27710
458.749	17850
458.775	14089
458.818	11754
458.855	10405
458.887	10071
458.936	11038
458.955	11415
459.016	12147
459.024	12379
459.093	15962
459.097	16117
459.162	18019
459.177	18884
459.230	22811
459.257	25550
459.299	27712
459.338	27359
459.368	27943
459.418	30344
459.437	27388
459.499	18938
459.505	18852
459.574	15075
459.579	14957
459.643	14115
459.659	13855
459.711	14670
459.740	15689
459.780	17609
459.820	19394
459.849	19811
459.900	20691
459.917	20556
459.981	19980
459.986	19858
460.054	18145
460.061	18064
460.123	19326
460.141	19748
460.191	25458
460.222	29460
460.260	32713
460.302	38537
460.328	34449
460.382	20543
460.397	19612
460.462	15458
460.465	15370
460.534	16772
460.543	16925
460.602	24883
460.623	28042
460.671	36397
460.703	43216
460.739	40837
460.783	36732
460.808	32266
460.864	18045
460.876	17567
460.944	17520
460.945	17520
461.013	20797
461.024	21187
461.081	23126
461.104	24781
461.150	24495
461.184	23001
461.218	22053
461.264	20393
461.286	20792
461.345	22972
461.355	22780
461.423	20925
461.425	20875
461.491	23335
461.505	24185
461.559	48627
461.585	59829
461.628	98865
461.665	135234
461.696	145344
461.745	165983
461.764	139493
461.825	44840
461.832	44437
461.901	30750
461.905	30586
461.969	28572
461.985	27957
462.037	23698
462.065	21157
462.105	25703
462.145	30619
462.173	45879
462.225	75037
462.241	83269
462.305	118061
462.310	114228
462.378	55917
462.385	48400
462.446	32969
462.465	28522
462.514	27436
462.545	28040
462.582	26953
462.625	25570
462.650	24203
462.705	20621
462.718	21613
462.785	27712
462.786	28018
462.854	45320
462.865	48256
462.922	59748
462.945	64694
462.990	46075
463.025	30026
463.058	26689
463.104	21313
463.126	21300
463.184	22664
463.194	23073
463.262	26016
463.264	26122
463.330	27064
463.344	27123
463.398	28871
463.424	29538
463.466	31716
463.504	34144
463.533	33973
463.583	33427
463.601	35453
463.663	41994
463.669	43349
463.737	59299
463.743	60773
463.805	88435
463.823	96282
463.873	145480
463.903	175086
463.940	182763
463.982	193970
464.008	152227
464.062	59148
464.076	54783
464.142	28330
464.144	28218
464.211	27857
464.221	27976
464.279	30395
464.301	31312
464.347	35133
464.381	38127
464.414	44085
464.461	51743
464.482	55444
464.540	66043
464.550	64974
464.617	56167
464.620	55777
464.685	49834
464.699	48504
464.753	48550
464.779	48428
464.820	47562
464.859	46219
464.888	47593
464.938	50269
464.956	51155
465.018	54351
465.023	53625
465.091	43080
465.098	41854
465.158	44429
465.177	45331
465.226	43498
465.257	42134
465.293	44548
465.336	47214
465.361	52936
465.416	65642
465.428	70033
465.495	94055
465.496	94606
465.563	156280
465.575	166793
465.631	199869
465.654	214093
465.698	126327
465.734	52348
465.765	44870
465.813	32209
465.833	31549
465.893	31362
465.900	31346
465.968	30841
465.972	30750
466.035	31569
466.052	31717
466.102	33199
466.131	33923
466.170	34430
466.210	34839
466.237	35162
466.290	35606
466.304	36026
466.369	37472
466.372	37676
466.439	41550
466.449	42016
466.506	48466
466.528	50827
466.573	75802
466.607	94353
466.641	152920
466.687	234027
466.708	259236
466.766	327938
466.775	301847
466.842	100807
466.845	91044
466.909	57706
466.925	49760
466.977	45544
467.004	43386
467.044	44586
467.083	45655
467.111	48599
467.163	53868
467.178	55838
467.242	63417
467.245	63506
467.312	62429
467.321	62150
467.379	61158
467.400	60593
467.446	66773
467.480	71000
467.559	62886
467.638	50936
467.717	55612
467.796	70922
467.875	87296
467.955	73275
468.034	102490
468.113	257542
468.192	379457
468.271	89117
468.350	46810
468.429	48202
468.508	46198
468.588	45005
468.667	48937
468.746	50335
468.825	50735
468.904	50323
468.983	65637
469.062	118599
469.141	150476
469.220	57782
469.299	49181
469.378	53355
469.456	54438
469.535	50082
469.614	51762
469.693	59519
469.772	82716
469.851	123128
469.930	81912
470.009	54533
470.088	52152
470.166	56489
470.245	75061
470.324	89963
470.403	74107
470.482	59337
470.560	54398
470.639	66846
470.718	82378
470.797	61926
470.875	64301
470.954	95085
471.033	107824
471.111	44347
471.190	38664
471.269	38401
471.347	40891
471.426	45537
471.505	51968
471.583	49922
471.662	46589
471.740	44077
471.819	45002
471.898	40845
471.976	41436
472.055	43325
472.133	52082
472.212	72590
472.290	80211
472.369	47995
472.447	40645
472.526	41966
472.604	48869
472.683	52435
472.761	54490
472.839	51246
472.918	46921
472.996	47463
473.075	58884
473.153	55191
473.231	45185
473.310	60471
473.388	59124
473.466	49459
473.545	59886
473.623	96676
473.701	98901
473.780	45809
473.858	38893
473.936	41946
474.014	43884
474.093	53009
474.171	86619
474.249	127631
474.327	78024
474.405	39308
474.484	42228
474.562	46261
474.640	45258
474.718	46773
474.796	43242
474.874	38406
474.952	33742
475.030	36311
475.108	37661
475.187	37520
475.265	37665
475.343	44110
475.421	49296
475.499	43369
475.577	51265
475.655	70165
475.733	152041
475.811	271354
475.889	243165
475.966	151283
476.044	43175
476.122	45619
476.200	50789
476.278	47315
476.356	44098
476.434	48319
476.512	49037
476.590	57324
476.667	55355
476.745	46235
476.823	50149
476.901	48770
476.979	50556
477.056	46131
477.134	46202
477.212	48788
477.290	48665
477.367	41277
477.445	40960
477.523	42095
477.601	44850
477.678	45022
477.756	56385
477.834	64962
477.911	42210
477.989	40802
478.066	41335
478.144	49046
478.222	45118
478.299	47476
478.377	46026
478.454	36606
478.532	40209
478.609	49273
478.687	56087
478.764	40726
478.842	49998
478.919	62904
478.997	57092
479.074	41121
479.152	53160
479.229	70546
479.307	46771
479.384	34566
479.461	36254
479.539	43310
479.616	56174
479.694	49627
479.771	50949
479.848	53728
479.926	81130
480.003	83771
480.080	42956
480.157	39136
480.235	41863
480.312	43503
480.389	50255
480.467	88481
480.544	111005
480.621	53623
480.698	51670
480.775	63269
480.853	59720
480.930	45774
481.007	48208
481.084	56162
481.161	54672
481.238	52921
481.315	42736
481.392	39049
481.470	40093
481.547	41198
481.624	41053
481.701	42486
481.778	45288
481.855	50748
481.932	80122
482.009	143401
482.086	92683
482.163	40368
482.240	42492
482.317	51382
482.393	47565
482.470	43390
482.547	46305
482.624	42040
482.701	51219
482.778	47204
482.855	36876
482.932	38681
483.009	37816
483.085	46353
483.162	59354
483.239	54798
483.316	40290
483.393	38359
483.469	40180
483.546	50465
483.623	55804
483.699	43309
483.776	47503
483.853	56016
483.930	79279
484.006	209861
484.083	354155
484.160	123482
484.236	125739
484.313	105267
484.389	85417
484.466	74723
484.543	70506
484.619	72916
484.696	76828
484.772	90977
484.849	103105
484.925	75778
485.002	72283
485.078	86851
485.155	94868
485.231	72745
485.308	70663
485.384	76777
485.461	101098
485.537	204078
485.614	244134
485.690	83480
485.766	73539
485.843	87365
485.919	159434
485.995	183220
486.072	75055
486.148	66496
486.224	67301
486.301	76469
486.377	101575
486.453	112107
486.530	83933
486.606	91116
486.682	105314
486.758	161176
486.835	201706
486.911	154756
486.987	279816
487.063	354625
487.139	517209
487.215	337379
487.292	115673
487.368	74772
487.444	92801
487.520	128731
487.596	97724
487.672	88641
487.748	173664
487.824	253480
487.900	113631
487.976	77948
488.052	102167
488.128	153786
488.204	114992
488.280	76805
488.356	94197
488.432	236189
488.508	381592
488.584	124222
488.660	85632
488.736	84161
488.812	96165
488.888	122587
488.964	178930
489.039	482779
489.115	811432
489.191	472240
489.267	93248
489.343	74852
489.418	59379
489.494	55812
489.570	56388
489.646	61122
489.722	62895
489.797	66791
489.873	114464
489.949	292038
490.024	234983
490.100	64869
490.176	60597
490.251	97829
490.327	150657
490.403	80351
490.478	54753
490.554	46477
490.629	48245
490.705	48998
490.781	59665
490.856	61546
490.932	76835
491.007	85332
491.083	76413
491.158	65460
491.234	87490
491.309	214601
491.385	215741
491.460	69317
491.536	73292
491.611	70071
491.686	86032
491.762	126953
491.837	321431
491.913	548538
491.988	742848
492.063	995818
492.139	256580
492.214	114296
492.289	57612
492.365	61423
492.440	75868
492.515	78853
492.590	69997
492.666	56723
492.741	87529
492.816	138907
492.891	78596
492.967	67164
493.042	77407
493.117	95201
493.192	119737
493.267	258280
493.342	1077985
493.418	1485877
493.493	194374
493.568	62416
493.643	56545
493.718	74613
493.793	129490
493.868	155904
493.943	102270
494.018	60273
494.093	50290
494.168	50555
494.243	45438
494.318	40839
494.393	40138
494.468	39104
494.543	44307
494.618	62627
494.693	53020
494.768	45983
494.842	47205
494.917	40359
494.992	47070
495.067	44204
495.142	42820
495.217	49805
495.292	55718
495.366	69017
495.441	94728
495.516	121989
495.591	170349
495.665	646713
495.740	1664276
495.815	738279
495.890	103771
495.964	68253
496.039	64013
496.114	58926
496.188	59038
496.263	61201
496.338	58836
496.412	68822
496.487	81576
496.561	99517
496.636	108433
496.710	68039
496.785	77703
496.860	87903
496.934	64646
497.009	67595
497.083	59633
497.158	56585
497.232	73810
497.307	99161
497.381	68349
497.455	82610
497.530	118090
497.604	70945
497.679	75236
497.753	125155
497.827	163793
497.902	125504
497.976	141008
498.050	323290
498.125	1328963
498.199	1307169
498.273	250343
498.348	173959
498.422	131382
498.496	130790
498.570	126745
498.645	77118
498.719	79574
498.793	105687
498.867	181971
498.941	225266
499.016	543036
499.090	1507920
499.164	492243
499.238	75662
499.312	68208
499.386	99217
499.460	86076
499.534	72678
499.609	92263
499.683	150707
499.757	134967
499.831	254705
499.905	1039027
499.979	932600
500.053	190659
500.127	212091
500.201	191198
500.275	102272
500.349	87452
500.422	101718
500.496	160913
500.570	374080
500.644	708923
500.718	1139401
500.792	249275
500.866	84566
500.940	111290
501.013	92562
501.087	97324
501.161	189644
501.235	244416
501.309	399447
501.382	1086203
501.456	892778
501.530	250404
501.603	395715
501.677	142664
501.751	75462
501.825	91390
501.898	160157
501.972	471143
502.046	273196
502.119	93983
502.193	217920
502.266	527403
502.340	225384
502.413	220075
502.487	441581
502.561	258615
502.634	86545
502.708	81958
502.781	75180
502.855	56766
502.928	44761
503.002	44451
503.075	44824
503.149	52511
503.222	54484
503.295	62520
503.369	78020
503.442	105479
503.516	330635
503.589	882305
503.662	541704
503.736	170838
503.809	407657
503.882	308453
503.956	448901
504.029	375927
504.102	178788
504.175	179595
504.249	71632
504.322	67415
504.395	66491
504.468	49157
504.542	50235
504.615	38301
504.688	36728
504.761	42814
504.834	57477
504.907	83634
504.980	159169
505.053	73843
505.127	93197
505.200	97215
505.273	84071
505.346	50333
505.419	40148
505.492	36863
505.565	30603
505.638	31310
505.711	34513
505.784	33798
505.857	33037
505.930	36805
506.003	38136
506.076	42417
506.149	61022
506.221	79818
506.294	64771
506.367	169645
506.440	599258
506.513	299864
506.586	89645
506.659	51780
506.731	46491
506.804	62596
506.877	108694
506.950	63058
507.022	36565
507.095	58218
507.168	73090
507.241	49520
507.313	41328
507.386	55005
507.459	88713
507.531	57484
507.604	39932
507.677	38238
507.749	32211
507.822	51484
507.894	105502
507.967	102477
508.040	48522
508.112	39031
508.185	38276
508.257	46458
508.330	81251
508.402	47769
508.475	41670
508.547	43353
508.620	44561
508.692	79054
508.765	43660
508.837	33867
508.909	32184
508.982	36669
509.054	49875
509.127	43000
509.199	32831
509.271	31267
509.344	29293
509.416	30214
509.488	34498
509.560	35380
509.633	44782
509.705	62259
509.777	55141
509.849	89038
509.922	61254
509.994	36383
510.066	34882
510.138	34932
510.210	52458
510.283	51810
510.355	44929
510.427	42456
510.499	39892
510.571	41253
510.643	44752
510.715	94630
510.787	93398
510.859	46844
510.931	61743
511.003	93739
511.076	84751
511.148	38753
511.219	40722
511.291	76627
511.363	87567
511.435	38206
511.507	32981
511.579	34580
511.651	33370
511.723	33780
511.795	33109
511.867	36058
511.939	47975
512.010	120578
512.082	85560
512.154	46530
512.226	42444
512.298	54158
512.369	88355
512.441	68116
512.513	85097
512.585	62023
512.656	55485
512.728	68480
512.800	43969
512.871	41252
512.943	41150
513.015	36936
513.086	44722
513.158	54525
513.230	60372
513.301	107721
513.373	141145
513.444	66826
513.516	43393
513.588	44455
513.659	57686
513.731	85261
513.802	74070
513.874	163974
513.945	367325
514.016	116166
514.088	45205
514.159	56166
514.231	81969
514.302	93861
514.374	51800
514.445	54283
514.516	124238
514.588	85085
514.659	55084
514.730	118153
514.802	85016
514.873	55357
514.944	42608
515.016	46904
515.087	66870
515.158	84504
515.229	110324
515.301	38290
515.372	38139
515.443	34718
515.514	33688
515.585	32776
515.656	35513
515.728	35351
515.799	35649
515.870	42398
515.941	47228
516.012	45966
516.083	55595
516.154	72419
516.225	119383
516.296	110801
516.367	83093
516.438	91505
516.509	120035
516.580	161286
516.651	408793
516.722	1566368
516.793	779830
516.864	179486
516.935	166307
517.006	158340
517.077	218682
517.148	503443
517.219	1311251
517.289	1942886
517.360	733095
517.431	219381
517.502	77967
517.573	70853
517.643	66809
517.714	71655
517.785	72829
517.856	78776
517.926	94472
517.997	109666
518.068	137012
518.138	176129
518.209	241238
518.280	775687
518.350	2562655
518.421	1070557
518.492	166769
518.562	96426
518.633	89116
518.703	72216
518.774	85379
518.845	127591
518.915	127624
518.986	93476
519.056	111448
519.127	247444
519.197	380036
519.268	723764
519.338	359890
519.408	110173
519.479	167113
519.549	131821
519.620	70112
519.690	47769
519.760	49346
519.831	58483
519.901	63897
519.971	44169
520.042	51852
520.112	66260
520.182	82361
520.253	109825
520.323	68519
520.393	122869
520.463	205068
520.534	137869
520.604	310101
520.674	103128
520.744	112218
520.814	352318
520.885	270814
520.955	185971
521.025	681289
521.095	225739
521.165	56523
521.235	53148
521.305	47021
521.375	42541
521.445	53286
521.515	93183
521.585	105417
521.655	108139
521.725	77386
521.795	64999
521.865	43143
521.935	69314
522.005	60461
522.075	41450
522.145	47600
522.215	59470
522.285	82683
522.355	114365
522.424	222806
522.494	188525
522.564	101519
522.634	221619
522.704	751618
522.774	309567
522.843	66866
522.913	62822
522.983	93838
523.053	71326
523.122	61818
523.192	97553
523.262	416297
523.331	473226
523.401	77578
523.471	41660
523.540	48408
523.610	35095
523.680	31674
523.749	33345
523.819	47309
523.888	47835
523.958	32116
524.027	38682
524.097	43494
524.166	39045
524.236	55891
524.305	49910
524.375	38997
524.444	33812
524.514	37207
524.583	39050
524.653	52524
524.722	60553
524.791	40509
524.861	36822
524.930	34925
524.999	44329
525.069	71606
525.138	50241
525.207	60580
525.277	37657
525.346	43364
525.415	36913
525.484	39885
525.554	48415
525.623	42837
525.692	34513
525.761	38031
525.830	35266
525.900	37318
525.969	51955
526.038	57041
526.107	72153
526.176	163478
526.245	150700
526.314	124975
526.383	156394
526.452	148226
526.522	229702
526.591	333742
526.660	375506
526.729	177189
526.797	131377
526.867	281545
526.935	1354663
527.004	1257474
527.073	523099
527.142	80044
527.211	49848
527.280	63586
527.349	83749
527.418	37327
527.487	38420
527.555	36045
527.624	31323
527.693	29281
527.762	31785
527.831	30262
527.899	32396
527.968	34454
528.037	39063
528.106	52866
528.174	124834
528.243	92293
528.312	123903
528.380	203425
528.449	60284
528.518	32947
528.586	25264
528.655	26255
528.723	26434
528.792	26265
528.861	34757
528.929	29121
528.998	26292
529.066	25452
529.135	26330
529.203	24553
529.272	26088
529.340	28459
529.409	32089
529.477	29753
529.545	43335
529.614	47062
529.682	58144
529.751	61824
529.819	66283
529.887	44523
529.956	32199
530.024	33598
530.092	30471
530.161	42573
530.229	96485
530.297	51667
530.365	28754
530.434	25877
530.502	25449
530.570	25981
530.638	24823
530.707	32585
530.775	36006
530.843	26619
530.911	27064
530.979	25407
531.047	26326
531.115	26851
531.183	26939
531.252	26333
531.320	29149
531.388	25863
531.456	28381
531.524	26181
531.592	29640
531.660	35238
531.728	31105
531.796	27042
531.864	28729
531.932	31772
532.000	32834
532.067	37719
532.135	42270
532.203	49922
532.271	57245
532.339	104984
532.407	355091
532.475	229869
532.542	80677
532.610	79981
532.678	104516
532.746	414691
532.814	1209572
532.881	351772
532.949	63754
533.017	43598
533.084	34879
533.152	31509
533.220	33622
533.287	47552
533.355	33025
533.423	28985
533.490	28774
533.558	29670
533.625	32144
533.693	35592
533.761	35548
533.828	38736
533.896	43659
533.963	104872
534.031	140501
534.098	179046
534.166	80101
534.233	35194
534.300	36791
534.368	38678
534.435	34545
534.503	34618
534.570	49749
534.637	35347
534.705	31764
534.772	35303
534.840	45426
534.907	82701
534.974	100600
535.041	37237
535.109	44333
535.176	28628
535.243	27640
535.310	34962
535.378	35941
535.445	26034
535.512	23913
535.579	26365
535.646	27181
535.714	27121
535.781	31959
535.848	32225
535.915	36499
535.982	38737
536.049	40201
536.116	39102
536.183	38634
536.250	41398
536.317	44971
536.384	55243
536.451	100597
536.518	114853
536.585	71882
536.652	80832
536.719	139547
536.786	123245
536.853	77543
536.920	110754
536.987	205741
537.053	182960
537.120	599799
537.187	563464
537.254	63618
537.321	41272
537.388	40018
537.454	30212
537.521	27254
537.588	27601
537.654	33357
537.721	33981
537.788	34207
537.855	31739
537.921	36339
537.988	39430
538.055	37493
538.121	38685
538.188	48076
538.254	89373
538.321	229923
538.388	145107
538.454	45558
538.521	34533
538.587	30339
538.654	29865
538.720	31282
538.787	31163
538.853	35874
538.920	52918
538.986	55862
539.053	41329
539.119	45783
539.185	46089
539.252	52844
539.318	114056
539.385	71636
539.451	48647
539.517	48756
539.583	60442
539.650	160688
539.716	496110
539.782	143390
539.849	51049
539.915	42593
539.981	47010
540.047	72852
540.114	60751
540.180	56283
540.246	58746
540.312	88541
540.378	208516
540.444	224839
540.510	181843
540.576	558879
540.643	185971
540.709	45849
540.775	40621
540.841	41287
540.907	62083
540.973	110052
541.039	97742
541.105	125491
541.171	57214
541.237	42386
541.303	44979
541.369	54009
541.435	85994
541.500	190443
541.566	128918
541.632	46171
541.698	34738
541.764	34124
541.830	31767
541.896	33143
541.961	34860
542.027	36345
542.093	38940
542.159	44440
542.224	54620
542.290	83458
542.356	176620
542.421	244975
542.487	98685
542.553	53712
542.618	52688
542.684	46934
542.750	47714
542.815	56339
542.881	105414
542.947	452516
543.012	359749
543.078	51343
543.143	40655
543.209	43096
543.274	45868
543.340	55801
543.405	158442
543.471	303888
543.536	61461
543.602	36344
543.667	35137
543.732	31248
543.798	28576
543.863	30957
543.928	28365
543.994	27720
544.059	29831
544.124	31755
544.190	31114
544.255	35429
544.320	38144
544.386	47748
544.451	74038
544.516	100961
544.581	84951
544.646	266053
544.712	474761
544.777	83198
544.842	49886
544.907	49250
544.972	40086
545.037	40252
545.102	43153
545.168	46379
545.233	50666
545.298	55604
545.363	66721
545.428	76230
545.493	155184
545.558	418302
545.623	162510
545.688	52408
545.753	42565
545.818	40672
545.883	40063
545.947	40491
546.012	46451
546.077	48589
546.142	45608
546.207	50423
546.272	79381
546.337	96981
546.401	55686
546.466	43570
546.531	39923
546.596	46659
546.661	50036
546.725	42629
546.790	37160
546.855	37474
546.919	36756
546.984	40359
547.049	43374
547.113	51632
547.178	43315
547.243	48676
547.307	54855
547.372	69650
547.436	76557
547.501	47360
547.565	54147
547.630	85190
547.695	87864
547.759	74375
547.823	59003
547.888	45587
547.952	43716
548.017	46189
548.081	59890
548.146	83356
548.210	63975
548.274	45384
548.339	44993
548.403	42457
548.468	40272
548.532	41976
548.596	42312
548.660	44862
548.725	51809
548.789	71201
548.853	66841
548.917	52113
548.982	73571
549.046	71249
549.110	43738
549.174	43142
549.238	40085
549.303	41177
549.367	44375
549.431	44532
549.495	42623
549.559	43270
549.623	45820
549.687	61810
549.751	106199
549.815	65858
549.879	52068
549.943	47715
550.007	52029
550.071	57018
550.135	86979
550.199	67203
550.263	50899
550.327	58498
550.391	79096
550.455	55294
550.519	51817
550.582	57947
550.646	98210
550.710	107539
550.774	56349
550.838	54865
550.901	55896
550.965	58711
551.029	61098
551.093	70179
551.156	88501
551.220	175538
551.284	172446
551.347	90474
551.411	210557
551.475	206950
551.538	60058
551.602	52688
551.666	50643
551.729	47845
551.793	49655
551.856	57521
551.920	66373
551.983	56761
552.047	48756
552.110	45824
552.174	45432
552.237	47659
552.301	45701
552.364	43536
552.428	45741
552.491	47085
552.554	50606
552.618	51136
552.681	51493
552.745	56729
552.808	83503
552.871	111094
552.934	73938
552.998	59769
553.061	63505
553.124	61881
553.187	67075
553.251	79160
553.314	86486
553.377	94746
553.440	155743
553.503	563265
553.567	827571
553.630	128277
553.693	65041
553.756	54724
553.819	48732
553.882	47254
553.945	45572
554.008	42811
554.071	41972
554.134	43721
554.197	42535
554.260	43033
554.323	53131
554.386	51310
554.449	46121
554.512	42039
554.575	42798
554.638	46011
554.701	44467
554.764	39951
554.827	40645
554.889	38259
554.952	37341
555.015	37186
555.078	37776
555.141	37113
555.203	36285
555.266	38805
555.329	42488
555.391	40705
555.454	48586
555.517	51913
555.580	37988
555.642	35729
555.705	35892
555.768	37897
555.830	38996
555.893	36618
555.955	36490
556.018	39078
556.080	38826
556.143	38047
556.206	40532
556.268	45614
556.330	49318
556.393	49551
556.455	45101
556.518	74046
556.580	78809
556.643	43623
556.705	40941
556.767	40680
556.830	43039
556.892	58423
556.955	127593
557.017	89575
557.079	45143
557.142	45129
557.204	63067
557.266	173328
557.328	155349
557.391	45220
557.453	37036
557.515	39107
557.577	60972
557.639	72480
557.701	37821
557.764	32295
557.826	34745
557.888	36760
557.950	34684
558.012	35990
558.074	38961
558.136	60613
558.198	113064
558.260	62982
558.322	45681
558.384	47960
558.446	56726
558.508	62622
558.570	83784
558.632	179897
558.694	324074
558.756	139753
558.818	232430
558.880	547014
558.942	174406
559.003	121996
559.065	71736
559.127	47251
559.189	47063
559.251	49667
559.312	56783
559.374	108851
559.436	325323
559.498	170173
559.559	50694
559.621	47313
559.683	52772
559.744	79758
559.806	185882
559.868	241921
559.929	71316
559.991	55997
560.052	63286
560.114	115673
560.176	86845
560.237	90716
560.299	149873
560.360	61340
560.422	41032
560.483	40015
560.545	38913
560.606	38235
560.667	35916
560.729	36864
560.790	35778
560.852	36370
560.913	36825
560.974	37250
561.036	38297
561.097	39118
561.158	41499
561.220	45101
561.281	46548
561.342	50029
561.403	61237
561.465	89139
561.526	254932
561.587	396292
561.648	94864
561.709	48959
561.771	43046
561.832	42220
561.893	41327
561.954	39499
562.015	37973
562.076	39425
562.137	39867
562.198	38652
562.259	38729
562.320	42184
562.381	51945
562.442	94711
562.503	72765
562.564	40714
562.625	39366
562.686	38696
562.747	48104
562.808	40747
562.869	38593
562.930	46943
562.991	44399
563.051	40341
563.112	38858
563.173	39100
563.234	37020
563.294	37395
563.355	40347
563.416	45024
563.477	40236
563.537	40881
563.598	43890
563.659	42275
563.720	43989
563.780	45762
563.841	52117
563.901	41009
563.962	38711
564.023	39833
564.083	41622
564.144	44343
564.204	41065
564.265	41477
564.325	48220
564.386	93742
564.446	77435
564.507	37897
564.567	38029
564.628	38107
564.688	36485
564.749	37624
564.809	44597
564.869	52540
564.930	39352
564.990	37835
565.050	37784
565.111	37858
565.171	36690
565.231	36448
565.292	36357
565.352	35968
565.412	39383
565.472	41780
565.532	48318
565.593	44769
565.653	38083
565.713	41747
565.773	45072
565.833	64557
565.893	90685
565.953	49106
566.013	39034
566.074	42419
566.134	54330
566.194	88229
566.254	97812
566.314	59598
566.374	39186
566.434	37866
566.494	37009
566.554	35286
566.614	35221
566.673	35946
566.733	39371
566.793	41467
566.853	39914
566.913	36994
566.973	37935
567.033	42519
567.092	45855
567.152	38430
567.212	36254
567.272	38030
567.331	40243
567.391	37854
567.451	42182
567.511	56913
567.570	55983
567.630	35840
567.690	34535
567.749	34236
567.809	35777
567.868	39588
567.928	42587
567.988	42677
568.047	38215
568.107	36236
568.166	37636
568.226	41265
568.285	47684
568.345	44477
568.404	40951
568.464	39607
568.523	39537
568.582	42457
568.642	47267
568.701	45358
568.761	48270
568.820	57578
568.879	61387
568.939	66430
568.998	47822
569.057	39617
569.116	38899
569.176	34975
569.235	33439
569.294	34140
569.353	36855
569.413	35199
569.472	35507
569.531	33896
569.590	32140
569.649	32827
569.708	32268
569.767	38643
569.827	55732
569.886	43568
569.945	32340
570.004	32129
570.063	34323
570.122	40583
570.181	44599
570.240	45616
570.299	48714
570.358	52888
570.417	35965
570.475	34127
570.534	39494
570.593	44731
570.652	44752
570.711	45252
570.770	37349
570.829	43099
570.887	44279
570.946	57438
571.005	37652
571.064	33479
571.122	37181
571.181	44164
571.240	35363
571.299	32709
571.357	35441
571.416	36561
571.475	43864
571.533	44991
571.592	32627
571.650	35195
571.709	31029
571.768	33675
571.826	32926
571.885	28272
571.943	28935
572.002	30652
572.060	31818
572.119	27699
572.177	27047
572.236	26845
572.294	26767
572.352	27518
572.411	28571
572.469	28206
572.528	28230
572.586	30494
572.644	39811
572.703	56230
572.761	36459
572.819	29704
572.877	27242
572.936	27233
572.994	25918
573.052	28694
573.110	32111
573.169	32847
573.227	28424
573.285	27248
573.343	26562
573.401	27010
573.459	26065
573.517	26049
573.576	25826
573.634	27435
573.692	31558
573.750	28793
573.808	27418
573.866	29375
573.924	39959
573.982	36318
574.040	27633
574.098	26865
574.155	25760
574.213	25112
574.271	25264
574.329	27062
574.387	24334
574.445	23437
574.503	22992
574.560	24105
574.618	22495
574.676	23104
574.734	24179
574.792	24447
574.849	23608
574.907	23478
574.965	23683
575.022	22925
575.080	23073
575.138	25835
575.195	28970
575.253	29908
575.311	37676
575.368	28760
575.426	23782
575.483	23175
575.541	23889
575.598	22638
575.656	25544
575.713	26009
575.771	22506
575.828	24001
575.886	23956
575.943	25610
576.001	28056
576.058	27748
576.115	29262
576.173	35893
576.230	43108
576.287	58825
576.345	43261
576.402	28338
576.459	26787
576.517	28515
576.574	30965
576.631	30698
576.688	28132
576.746	27383
576.803	26459
576.860	24704
576.917	25579
576.974	26342
577.031	25664
577.089	25589
577.146	27479
577.203	28440
577.260	29585
577.317	31198
577.374	34340
577.431	33537
577.488	32254
577.545	30035
577.602	29566
577.659	34282
577.716	41890
577.773	51210
577.830	37561
577.886	28965
577.943	27135
578.000	27574
578.057	31091
578.114	30646
578.171	31864
578.227	37061
578.284	37184
578.341	33626
578.398	32257
578.454	32972
578.511	34358
578.568	37645
578.625	31796
578.681	26442
578.738	24890
578.794	25371
578.851	25535
578.908	25178
578.964	28457
579.021	27812
579.077	28253
579.134	26853
579.190	25167
579.247	23119
579.303	23968
579.360	23821
579.416	23844
579.473	23118
579.529	22204
579.586	23652
579.642	25034
579.698	25200
579.755	27042
579.811	27162
579.867	27338
579.924	26982
579.980	29443
580.036	34255
580.093	35253
580.149	44634
580.205	48550
580.261	39723
580.317	35613
580.374	34882
580.430	37065
580.486	34334
580.542	31021
580.598	30916
580.619	30156
580.654	28877
580.692	28557
580.710	28465
580.765	25522
580.767	25468
580.823	27093
580.838	26615
580.879	25469
580.911	25940
580.935	26353
580.984	24475
580.991	24257
581.047	25823
581.057	25873
581.103	26288
581.130	27384
581.159	28565
581.203	30603
581.215	31201
581.270	29414
581.276	29234
581.326	27865
581.349	27588
581.382	27255
581.422	26804
581.438	26648
581.494	28677
581.494	28628
581.550	26616
581.567	27696
581.606	29993
581.640	29050
581.661	28564
581.713	25531
581.717	25320
581.773	25523
581.786	25497
581.829	25465
581.859	25348
581.885	25315
581.932	24691
581.940	24593
581.996	25932
582.004	25862
582.052	25636
582.077	24817
582.107	23883
582.150	24325
582.163	24473
582.219	25020
582.223	24970
582.274	24737
582.296	25412
582.330	26444
582.368	26323
582.386	26338
582.441	25063
582.441	25074
582.497	26785
582.514	28040
582.552	30967
582.587	35872
582.608	38782
582.659	31233
582.663	30661
582.719	24295
582.732	24001
582.774	23135
582.805	24032
582.830	24800
582.877	24186
582.885	24079
582.941	23530
582.950	23510
582.996	23426
583.023	24777
583.052	26495
583.095	26669
583.107	26694
583.162	30684
583.168	30737
583.218	31033
583.240	30178
583.273	28818
583.313	26478
583.328	25686
583.384	24680
583.385	24662
583.439	24009
583.458	23578
583.494	22604
583.531	21390
583.549	20911
583.603	21712
583.605	21723
583.660	21259
583.676	21321
583.715	21695
583.748	22314
583.770	22749
583.820	22930
583.825	22912
583.881	22010
583.893	21760
583.936	20851
583.965	20508
583.991	20312
584.038	21078
584.046	21188
584.101	20198
584.110	20171
584.156	20013
584.183	20464
584.211	20817
584.255	19435
584.266	19162
584.321	19520
584.328	19533
584.376	19148
584.400	19321
584.431	19588
584.472	19159
584.486	19079
584.541	20129
584.545	20134
584.596	19776
584.617	19964
584.651	20323
584.689	20927
584.706	21105
584.761	21501
584.762	21518
584.816	21560
584.834	21413
584.871	21149
584.906	21450
584.926	21523
584.978	21063
584.980	21034
585.035	22234
585.051	22761
585.090	24292
585.123	25003
585.145	25336
585.195	28160
585.200	28580
585.254	34943
585.267	38454
585.309	50867
585.340	62151
585.364	67717
585.412	43142
585.419	39532
585.473	28874
585.484	28572
585.528	30499
585.556	32902
585.583	36676
585.628	46039
585.637	48960
585.692	81810
585.700	88432
585.747	115657
585.772	95563
585.801	64836
585.845	35111
585.856	30378
585.910	28303
585.917	28162
585.965	27614
585.989	26656
586.019	24944
586.061	24302
586.074	24449
586.128	26330
586.133	26650
586.183	30544
586.205	31757
586.237	31531
586.277	27937
586.292	26599
586.346	23951
586.349	23909
586.401	23846
586.421	24360
586.455	25136
586.493	27377
586.509	29342
586.564	38802
586.565	39467
586.618	66586
586.637	63462
586.672	49352
586.709	32587
586.727	26045
586.781	23663
586.781	23614
586.835	21579
586.853	21593
586.889	21425
586.925	20890
586.944	20603
586.996	20626
586.998	20596
587.052	21572
587.068	21719
587.106	21738
587.140	21357
587.161	20999
587.212	21634
587.215	21656
587.269	22792
587.284	23092
587.323	22704
587.356	22228
587.377	22048
587.427	22374
587.431	22389
587.485	22695
587.499	22788
587.539	22418
587.571	22608
587.593	22668
587.643	23698
587.648	23783
587.702	23893
587.715	24374
587.755	25444
587.786	25578
587.810	25447
587.858	24970
587.864	24944
587.917	27362
587.930	27905
587.971	29680
588.001	30785
588.025	30964
588.073	30188
588.079	30137
588.133	31606
588.145	32218
588.187	34533
588.217	36038
588.241	37563
588.288	42455
588.295	43123
588.348	49630
588.360	51339
588.402	56522
588.431	60287
588.456	63552
588.503	71737
588.510	72829
588.564	85302
588.575	88358
588.617	100678
588.646	110162
588.671	119133
588.718	142259
588.725	147813
588.778	206739
588.789	224961
588.832	357425
588.861	480135
588.886	675434
588.932	1157727
588.939	1200846
588.993	1458754
589.004	1415503
589.047	786362
589.075	435211
589.100	290942
589.147	156389
589.154	148955
589.207	120348
589.218	116670
589.261	113902
589.290	115930
589.314	121191
589.361	139616
589.368	146272
589.421	218938
589.433	241764
589.475	433746
589.504	610926
589.528	798450
589.576	1201883
589.582	1177938
589.635	603296
589.647	491251
589.689	222610
589.718	103214
589.742	83243
589.790	58906
589.795	57426
589.849	50116
589.861	50080
589.902	51221
589.932	48096
589.955	42069
590.004	30303
590.009	29640
590.062	27204
590.075	26763
590.115	25265
590.146	24589
590.168	24450
590.218	24785
590.222	24645
590.275	23914
590.289	23826
590.328	23911
590.360	23687
590.381	22985
590.431	22328
590.435	22236
590.488	22151
590.503	22349
590.541	22777
590.574	23099
590.594	22424
590.645	20653
590.647	20528
590.700	20116
590.716	20064
590.753	19467
590.787	19124
590.806	19039
590.859	19118
590.859	19022
590.912	18955
590.930	19035
590.965	18961
591.001	19316
591.018	19311
591.071	19294
591.072	19390
591.124	19419
591.143	19590
591.177	19610
591.214	19853
591.230	20537
591.283	23555
591.285	23767
591.336	26763
591.356	28290
591.389	29090
591.427	29373
591.442	27224
591.495	19473
591.498	19045
591.547	18827
591.569	18941
591.600	18455
591.640	17965
591.653	17750
591.706	17448
591.711	17529
591.759	18139
591.782	18752
591.811	19808
591.853	21326
591.864	20674
591.917	17701
591.924	17412
591.969	16898
591.995	16914
592.022	17193
592.066	17908
592.075	18082
592.127	19954
592.137	20475
592.180	22459
592.208	23707
592.233	21403
592.279	17275
592.285	17014
592.338	16152
592.350	16067
592.390	15451
592.421	15262
592.443	15480
592.491	16274
592.495	16136
592.548	15845
592.562	15887
592.600	16101
592.633	16507
592.653	16288
592.704	15938
592.705	16051
592.775	17380
592.846	17921
592.916	21782
592.987	27463
593.058	20205
593.128	14810
593.199	14503
593.270	15107
593.341	15422
593.411	17739
593.482	17604
593.553	14978
593.623	13852
593.694	15180
593.764	16795
593.835	14138
593.906	14456
593.976	14315
594.047	15708
594.117	18652
594.188	18185
594.258	14587
594.329	13887
594.399	13568
594.470	13782
594.540	13819
594.611	13541
594.681	13772
594.751	13819
594.822	16470
594.892	16255
594.963	16262
595.033	15270
595.103	15350
595.174	17686
595.244	28344
595.314	32182
595.384	15608
595.455	14879
595.525	14586
595.595	14849
595.665	16192
595.736	15427
595.806	14643
595.876	15052
595.946	15103
596.016	15192
596.087	15512
596.157	15430
596.227	14946
596.297	15965
596.367	16527
596.437	18208
596.507	24933
596.577	31031
596.647	17897
596.717	16653
596.787	16218
596.857	15747
596.927	16278
596.997	16534
597.067	17526
597.137	22380
597.207	19017
597.277	17210
597.347	15740
597.417	16755
597.487	19766
597.557	18382
597.626	19128
597.696	20964
597.766	23724
597.836	29194
597.906	19365
597.975	17015
598.045	16368
598.115	16229
598.185	17297
598.254	19643
598.324	23577
598.394	25497
598.464	26905
598.533	19671
598.603	19905
598.672	21499
598.742	18763
598.812	16287
598.881	16616
598.951	16255
599.020	16124
599.090	15969
599.159	16393
599.229	15741
599.299	15334
599.368	15957
599.437	15761
599.507	15676
599.576	18292
599.646	20383
599.715	21570
599.785	17620
599.854	17766
599.924	18857
599.993	16606
600.062	15061
600.132	15612
600.201	18997
600.270	23610
600.340	19413
600.409	16515
600.478	16609
600.547	17021
600.617	17578
600.686	16466
600.755	19176
600.824	22831
600.894	17515
600.963	13842
601.032	14225
601.101	14073
601.170	13585
601.239	13752
601.308	14201
601.378	13203
601.447	12588
601.516	13438
601.585	14514
601.654	13555
601.723	14516
601.792	15261
601.861	19926
601.930	28764
601.999	28838
602.068	17272
602.137	15588
602.206	16675
602.275	21524
602.343	35983
602.412	34902
602.481	17398
602.550	15101
602.619	15998
602.688	18896
602.756	14617
602.825	13929
602.894	13564
602.963	13485
603.032	13953
603.100	13488
603.169	13783
603.238	14019
603.307	13809
603.375	14032
603.444	13686
603.513	13616
603.581	13962
603.650	14015
603.719	14151
603.787	13735
603.856	14071
603.924	14980
603.993	14796
604.061	14991
604.130	16964
604.198	18479
604.267	15206
604.335	15306
604.404	14830
604.472	15947
604.541	15670
604.609	15781
604.678	15070
604.746	15349
604.815	15901
604.883	16108
604.951	16281
605.020	15948
605.088	16514
605.156	16092
605.225	16201
605.293	16866
605.361	16512
605.429	17086
605.498	19967
605.566	23191
605.634	19970
605.702	18136
605.771	18037
605.839	18045
605.907	17211
605.975	17496
606.043	17234
606.111	18542
606.180	19705
606.248	25678
606.316	28040
606.384	20443
606.452	29982
606.520	45174
606.588	24162
606.656	16950
606.724	15927
606.792	15849
606.860	13840
606.928	13906
606.996	12945
607.064	13016
607.132	12364
607.200	13916
607.267	14128
607.335	13846
607.403	14713
607.471	12946
607.539	14027
607.607	15248
607.674	14275
607.742	16837
607.810	21702
607.878	18697
607.946	14348
608.013	13995
608.081	15123
608.149	15471
608.216	14059
608.284	14304
608.352	15036
608.419	15432
608.487	21772
608.555	16477
608.622	14408
608.690	15992
608.757	15414
608.825	15977
608.893	17745
608.960	20653
609.028	22795
609.095	23712
609.163	17203
609.230	14905
609.298	14712
609.365	13803
609.432	15039
609.500	14938
609.567	17740
609.635	19996
609.702	20166
609.769	19718
609.837	18797
609.904	15796
609.971	14474
610.039	18640
610.106	25730
610.173	49437
610.241	100131
610.308	54614
610.375	21015
610.442	14852
610.509	14228
610.577	15040
610.644	14592
610.711	14021
610.778	15018
610.845	15399
610.912	18574
610.980	22631
611.047	36983
611.114	24392
611.181	16908
611.248	13995
611.315	16425
611.382	15345
611.449	15968
611.516	16694
611.583	17874
611.650	17384
611.717	17199
611.784	16915
611.851	20116
611.918	23994
611.984	27488
612.051	41980
612.118	89170
612.185	225050
612.252	115506
612.319	26568
612.386	21185
612.452	20108
612.519	21390
612.586	26589
612.653	20855
612.719	19841
612.786	19233
612.853	16556
612.919	15139
612.986	17648
613.053	16197
613.120	15275
613.186	14041
613.253	16870
613.319	15600
613.386	15926
613.453	19309
613.519	26095
613.586	46554
613.652	74857
613.719	55360
613.785	39839
613.852	20895
613.918	22745
613.985	37422
614.051	84501
614.118	234605
614.184	195472
614.250	30726
614.317	18544
614.383	16332
614.449	16440
614.516	17455
614.582	17181
614.648	15557
614.715	17086
614.781	16065
614.847	15916
614.914	15785
614.980	16152
615.046	14772
615.112	14949
615.179	14909
615.245	15370
615.311	16114
615.377	16636
615.443	16715
615.509	16179
615.575	17874
615.642	18443
615.708	21695
615.774	22956
615.840	22844
615.906	26381
615.972	34899
616.038	56928
616.104	123367
616.170	309946
616.236	218208
616.302	44586
616.368	30327
616.434	22030
616.500	23606
616.565	24367
616.631	27639
616.697	21489
616.763	24811
616.829	36738
616.895	63269
616.961	56632
617.026	29578
617.092	18289
617.158	17350
617.224	16049
617.289	17451
617.355	15873
617.421	14329
617.487	15789
617.552	14734
617.618	13922
617.684	13052
617.749	16108
617.815	13503
617.880	13669
617.946	14298
618.012	15257
618.077	14301
618.143	13840
618.208	14166
618.274	15534
618.339	15176
618.405	12528
618.470	14796
618.536	15501
618.601	15666
618.667	14558
618.732	14868
618.798	14082
618.863	15378
618.928	14095
618.994	18513
619.059	27140
619.124	52281
619.190	25277
619.255	13689
619.320	13584
619.386	13386
619.451	12245
619.516	12992
619.581	12977
619.647	12307
619.712	11940
619.777	11872
619.842	14461
619.907	14728
619.972	15008
620.038	14934
620.103	12757
620.168	11473
620.233	13119
620.298	11894
620.363	12662
620.428	12037
620.493	12411
620.558	12134
620.623	11535
620.688	12329
620.753	12546
620.818	11625
620.883	12487
620.948	13026
621.013	12600
621.078	12282
621.143	12159
621.207	15593
621.272	17141
621.337	18782
621.402	17917
621.467	22497
621.532	22260
621.596	17707
621.661	15130
621.726	13863
621.791	14870
621.855	19002
621.920	21722
621.985	17600
622.049	19553
622.114	17800
622.179	15391
622.243	15426
622.308	14425
622.373	18076
622.437	15762
622.502	15415
622.566	15904
622.631	14061
622.695	16912
622.760	16191
622.824	17439
622.889	20202
622.953	27891
623.018	61648
623.082	52094
623.147	19415
623.211	20408
623.276	19418
623.340	14792
623.404	15214
623.469	14380
623.533	14342
623.597	14278
623.662	13433
623.726	13266
623.790	13077
623.854	13355
623.919	13986
623.983	13869
624.047	15001
624.111	13380
624.176	14555
624.240	17051
624.304	19316
624.368	14261
624.432	14739
624.496	17207
624.560	26142
624.625	30477
624.689	17276
624.753	13528
624.817	14120
624.881	12783
624.945	13728
625.009	14083
625.073	15719
625.137	20437
625.201	36765
625.265	31969
625.329	16916
625.393	20861
625.456	15658
625.520	15475
625.584	20362
625.648	22435
625.712	33432
625.776	77405
625.839	82446
625.903	28978
625.967	17565
626.031	32397
626.095	44721
626.158	16921
626.222	10477
626.286	12264
626.349	11270
626.413	11828
626.477	17266
626.540	12382
626.604	10414
626.668	12325
626.731	9385
626.795	11603
626.858	11543
626.922	10690
626.986	11613
627.049	9560
627.113	10945
627.176	10326
627.240	10075
627.303	9199
627.366	10062
627.430	11324
627.493	10083
627.557	9381
627.620	11048
627.684	10332
627.747	10795
627.810	7782
627.874	9806
627.937	8945
628.000	12170
628.064	11186
628.127	7833
628.190	10610
628.253	9280
628.317	8946
628.380	9322
628.443	9238
628.506	9903
628.569	9430
628.632	7829
628.696	8223
628.759	8422
628.822	7762
628.885	8156
628.948	8642
629.011	10854
629.074	10714
629.137	8100
629.200	7919
629.263	10356
629.326	6499
629.389	7224
629.452	7767
629.515	7854
629.578	8857
629.641	10126
629.704	9458
629.767	10850
629.830	8157
629.892	7995
629.955	8481
630.018	13207
630.081	19471
630.144	27942
630.207	15348
630.269	13857
630.332	10121
630.395	8246
630.458	7857
630.520	6366
630.583	8846
630.646	7904
630.708	6158
630.771	6171
630.834	7230
630.896	6473
630.959	6728
631.021	6645
631.084	7043
631.146	8185
631.209	9904
631.272	6755
631.334	6854
631.397	7454
631.459	8607
631.522	11451
631.584	9350
631.646	8966
631.709	11710
631.771	20080
631.834	11443
631.896	7723
631.958	6285
632.021	7339
632.083	5907
632.145	7997
632.208	8605
632.270	9289
632.332	5280
632.395	5605
632.457	7343
632.519	5809
632.581	7110
632.643	5970
632.706	5846
632.768	5740
632.830	6681
632.892	6781
632.954	6333
633.016	7073
633.078	6140
633.141	5636
633.203	5806
633.265	6915
633.327	7796
633.389	6958
633.451	11851
633.513	17836
633.575	13993
633.637	18328
633.698	14084
633.760	7734
633.822	7791
633.884	7233
633.946	7096
634.008	6163
634.070	8330
634.132	12124
634.193	8726
634.255	7769
634.317	7058
634.379	9560
634.441	6864
634.502	5779
634.564	7224
634.626	7097
634.687	9897
634.749	7242
634.811	6033
634.873	4972
634.934	5318
634.996	6177
635.057	4867
635.119	4631
635.181	5090
635.242	5663
635.304	4157
635.365	7700
635.427	5760
635.488	7288
635.550	4586
635.611	6331
635.673	4489
635.734	7344
635.796	6330
635.857	9277
635.918	6081
635.980	7527
636.041	5657
636.102	7262
636.164	7139
636.225	8475
636.286	5497
636.348	7188
636.409	6128
636.470	5257
636.531	5572
636.593	6610
636.654	6371
636.715	5168
636.776	4270
636.838	4279
636.899	5217
636.960	4297
637.021	4684
637.082	5654
637.143	5704
637.204	3362
637.265	3402
637.326	5401
637.387	5219
637.448	2913
637.509	5005
637.570	3038
637.631	4594
637.692	2559
637.753	3106
637.814	4742
637.875	4369
637.936	5006
637.997	3887
638.058	5142
638.119	5087
638.179	4678
638.240	2948
638.301	4721
638.362	3130
638.423	4295
638.483	4418
638.544	2410
638.605	4397
638.666	3341
638.726	4626
638.787	4337
638.848	3675
638.908	3771
638.969	4256
639.030	4298
639.090	4191
639.151	4898
639.211	8577
639.272	15832
639.332	35882
639.393	12329
639.453	3846
639.514	4659
639.574	4365
639.635	4218
639.695	6317
639.756	5453
639.816	9606
639.877	16086
639.937	38725
639.997	50371
640.058	9425
640.118	4006
640.178	4355
640.239	4177
640.299	3632
640.359	3473
640.420	4129
640.480	4560
640.540	4064
640.600	4597
640.661	6195
640.721	6942
640.781	14079
640.841	4545
640.901	5365
640.961	4690
641.021	8817
641.082	12926
641.142	27063
641.202	10725
641.262	2837
641.322	4309
641.382	2742
641.442	3715
641.502	3263
641.562	4124
641.622	3675
641.682	4494
641.742	4305
641.802	4816
641.861	6604
641.921	8578
641.981	13626
642.041	11936
642.101	17021
642.161	7192
642.221	2502
642.280	3751
642.340	3775
642.400	2213
642.460	3734
642.519	3190
642.579	3854
642.639	4374
642.698	942
642.758	5174
642.818	4343
642.877	3610
642.937	6003
642.997	10001
643.056	21258
643.116	6707
643.175	5261
643.235	3445
643.294	3735
643.354	3464
643.414	4294
643.473	5328
643.532	5307
643.592	8192
643.651	13224
643.711	23503
643.770	42912
643.830	103679
643.889	212886
643.948	42386
644.008	8127
644.067	4934
644.126	3064
644.186	3402
644.245	4130
644.304	1948
644.363	4873
644.423	2420
644.482	2831
644.541	3331
644.600	1713
644.659	4095
644.719	4366
644.778	6369
644.837	9080
644.896	17776
644.955	37513
645.014	14308
645.073	8227
645.132	3477
645.191	4282
645.250	2822
645.309	4917
645.368	3424
645.427	4193
645.486	4771
645.545	8071
645.604	3596
645.663	3618
645.722	2730
645.781	3328
645.840	3874
645.898	5382
645.957	7550
646.016	9392
646.075	19334
646.134	34728
646.192	98080
646.251	134155
646.310	16990
646.369	5056
646.427	4568
646.486	2615
646.545	2953
646.603	2913
646.662	2662
646.721	2976
646.779	2352
646.838	2122
646.896	5137
646.955	4170
647.014	5755
647.072	8565
647.131	23140
647.189	10575
647.248	1234
647.306	3049
647.365	3218
647.423	769
647.481	3620
647.540	1952
647.598	2078
647.657	2027
647.715	2451
647.773	1246
647.832	3701
647.890	1720
647.948	2521
648.007	3448
648.065	1627
648.123	3729
648.181	6541
648.240	8201
648.298	5945
648.356	2485
648.414	3214
648.472	3223
648.531	3763
648.589	3086
648.647	3083
648.705	2566
648.763	2681
648.821	2565
648.879	3069
648.937	3802
648.995	3997
649.053	4569
649.111	6802
649.169	9710
649.227	16211
649.285	31084
649.343	81135
649.401	51111
649.459	62969
649.516	45405
649.574	37412
649.632	102219
649.690	104351
649.748	21153
649.806	18806
649.863	28497
649.921	20114
649.979	10866
650.037	3719
650.094	2157
650.152	3301
650.210	1596
650.268	2748
650.325	2219
650.383	2514
650.440	1412
650.498	2504
650.556	2047
650.613	1307
650.671	2247
650.728	1585
650.786	1739
650.843	2105
650.901	-257
650.958	1760
651.016	2040
651.073	1705
651.131	1023
651.188	605
651.246	1849
651.303	430
651.360	1850
651.418	857
651.475	1720
651.532	1723
651.590	1589
651.647	732
651.704	1985
651.762	1441
651.819	3050
651.876	1359
651.933	1142
651.990	1976
652.048	1115
652.105	1512
652.162	1637
652.219	455
652.276	1850
652.333	2066
652.390	1504
652.448	2313
652.505	2037
652.562	2515
652.619	3260
652.676	9834
652.733	9243
652.790	1981
652.847	1091
652.904	1704
652.961	213
653.017	398
653.074	2009
653.131	2236
653.188	728
653.245	1910
653.302	1203
653.359	1006
653.415	2514
653.472	1040
653.529	1787
653.586	805
653.642	1044
653.699	1523
653.756	872
653.813	783
653.869	1278
653.926	643
653.983	489
654.039	2053
654.096	1526
654.152	3271
654.209	703
654.266	1863
654.322	646
654.379	2435
654.435	3229
654.492	3399
654.548	7806
654.605	14320
654.661	5243
654.717	1301
654.774	2062
654.830	1696
654.887	1345
654.943	2054
655.000	1482
655.056	1867
655.112	2044
655.168	443
655.225	1615
655.281	2889
655.337	4404
655.394	7220
655.450	4133
655.506	4375
655.562	7346
655.618	6088
655.675	1755
655.731	3213
655.787	3418
655.843	4221
655.899	3349
655.955	4169
656.011	4963
656.067	5148
656.123	6933
656.179	7460
656.235	9018
656.291	6630
656.347	8143
656.403	6013
656.459	5085
656.515	4787
656.571	4908
656.627	3865
656.683	3051
656.739	3657
656.795	3815
656.850	5081
656.906	7583
656.962	4295
657.018	1685
657.074	2280
657.129	1667
657.185	2491
657.241	2707
657.297	1525
657.352	2259
657.408	1003
657.464	3021
657.519	2043
657.575	1262
657.630	1101
657.686	1448
657.742	734
657.797	854
657.853	702
657.908	1871
657.964	513
658.019	1613
658.075	876
658.130	1889
658.186	-152
658.241	1483
658.297	191
658.352	937
658.407	1032
658.463	630
658.518	1126
658.573	1451
658.629	210
658.684	1005
658.739	2368
658.795	674
658.850	1372
658.905	960
658.960	798
659.016	1340
659.071	1946
659.126	2684
659.181	4261
659.236	13242
659.291	13161
659.346	5441
659.401	4795
659.457	5886
659.512	8388
659.567	3340
659.622	1503
659.677	868
659.732	1287
659.787	1710
659.842	1884
659.897	2646
659.952	1843
660.007	673
660.061	1035
660.116	1035
660.171	696
660.226	247
660.281	1962
660.336	-95
660.391	1687
660.445	541
660.500	513
660.555	1617
660.610	941
660.664	882
660.719	1087
660.774	2180
660.828	1951
660.883	3081
660.938	1891
660.992	56
661.047	1872
661.101	1302
661.156	769
661.211	696
661.265	523
661.320	465
661.374	755
661.429	771
661.483	1157
661.538	214
661.592	878
661.647	710
661.701	292
661.755	1293
661.810	1206
661.864	1112
661.919	348
661.973	1610
662.027	393
662.081	1097
662.136	751
662.190	926
662.244	1293
662.299	1148
662.353	1293
662.407	575
662.461	1609
662.515	1945
662.569	719
662.624	1513
662.678	198
662.732	1352
662.786	1365
662.840	1564
662.894	1446
662.948	994
663.002	718
663.056	1333
663.110	805
663.164	1097
663.218	1765
663.272	3130
663.326	3427
663.380	3094
663.434	1662
663.488	720
663.542	1421
663.595	529
663.649	611
663.703	1077
663.757	570
663.811	-85
663.864	549
663.918	1038
663.972	798
664.026	795
664.079	446
664.133	1248
664.187	810
664.240	1458
664.294	1139
664.348	1062
664.401	1238
664.455	1584
664.508	1432
664.562	2254
664.615	1664
664.669	1486
664.722	1701
664.776	1748
664.829	1253
664.883	1411
664.936	289
664.990	2033
665.043	2516
665.097	865
665.150	2377
665.203	1663
665.257	1418
665.310	1665
665.363	833
665.417	1879
665.470	1347
665.523	1215
665.576	698
665.630	1454
665.683	1108
665.736	1043
665.789	1088
665.842	1103
665.895	1701
665.949	1287
666.002	1683
666.055	765
666.108	1691
666.161	1825
666.214	2151
666.267	2911
666.320	4582
666.373	2020
666.426	1943
666.479	257
666.532	1114
666.585	2814
666.638	2824
666.691	3081
666.744	2875
666.796	2488
666.849	2251
666.902	1862
666.955	1600
667.008	988
667.060	1076
667.113	240
667.166	1176
667.219	1101
667.271	1114
667.324	1695
667.377	1966
667.430	2607
667.482	4069
667.535	3904
667.587	2824
667.640	3946
667.693	6120
667.745	14752
667.798	15587
667.850	4284
667.903	2221
667.955	1627
668.008	1506
668.060	1374
668.113	2122
668.165	1934
668.218	1922
668.270	1633
668.322	1648
668.375	1810
668.427	2286
668.479	1776
668.532	1561
668.584	1428
668.636	2154
668.689	1639
668.741	1485
668.793	1638
668.845	2146
668.898	2241
668.950	1521
669.002	1051
669.054	2075
669.106	1791
669.158	2166
669.211	2108
669.263	2771
669.315	4139
669.367	4414
669.419	2142
669.471	2304
669.523	2707
669.575	3227
669.627	3377
669.679	1655
669.731	1897
669.783	2196
669.835	3215
669.886	1763
669.938	1767
669.990	2145
670.042	1159
670.094	2599
670.146	1852
670.197	1130
670.249	2501
670.301	1933
670.353	3830
670.404	3574
670.456	5180
670.508	6702
670.560	10842
670.611	17025
670.663	31746
670.715	83519
670.766	135252
670.818	38586
670.869	6339
670.921	4107
670.972	3125
671.024	2568
671.075	2616
671.127	2324
671.178	2121
671.230	1860
671.281	2138
671.333	1837
671.384	2317
671.436	3531
671.487	2451
671.538	3033
671.590	4396
671.641	5524
671.692	7735
671.744	12271
671.795	8545
671.846	3961
671.897	2976
671.949	2682
672.000	1923
672.051	2143
672.102	2396
672.153	1379
672.204	2226
672.256	2159
672.307	2150
672.358	2338
672.409	1651
672.460	2274
672.511	2358
672.562	1795
672.613	2657
672.664	2124
672.715	2264
672.766	1737
672.817	1833
672.868	1417
672.919	1848
672.970	1290
673.021	2538
673.071	1261
673.122	1547
673.173	2327
673.224	2403
673.275	2416
673.326	1592
673.376	1609
673.427	1572
673.478	1442
673.528	2397
673.579	1700
673.630	1447
673.680	2712
673.731	2162
673.782	748
673.832	1346
673.883	2556
673.934	1460
673.984	1697
674.035	1514
674.085	1803
674.136	1544
674.186	1697
674.237	3770
674.287	4627
674.338	2765
674.388	2315
674.438	1998
674.489	1986
674.539	1937
674.589	2028
674.640	2069
674.690	2548
674.740	1560
674.791	1839
674.841	2031
674.891	3241
674.942	2857
674.992	3676
675.042	1875
675.092	1251
675.142	1101
675.193	1953
675.243	2468
675.293	2929
675.343	1856
675.393	1731
675.443	2351
675.493	1707
675.543	1906
675.593	2385
675.643	1425
675.693	2290
675.743	2662
675.793	1719
675.843	1265
675.893	2054
675.943	1528
675.993	2229
676.043	1195
676.093	2101
676.142	1323
676.192	1990
676.242	1716
676.292	1362
676.341	1154
676.391	1778
676.441	1678
676.491	2063
676.540	919
676.590	565
676.640	1072
676.689	1368
676.739	1275
676.789	718
676.838	1380
676.888	1426
676.937	1546
676.987	1238
677.037	1220
677.086	370
677.136	852
677.185	1355
677.235	1065
677.284	1619
677.333	612
677.383	1071
677.432	577
677.482	700
677.531	1469
677.580	675
677.630	2104
677.679	1097
677.728	1244
677.778	1847
677.827	623
677.876	1408
677.925	1457
677.975	631
678.024	1383
678.073	722
678.122	1031
678.171	1390
678.220	919
678.269	1807
678.319	1068
678.368	505
678.417	1634
678.466	836
678.515	2353
678.564	2704
678.613	965
678.662	1398
678.711	1437
678.760	1578
678.809	1390
678.857	1697
678.906	1543
678.955	978
679.004	1417
679.053	1494
679.102	1282
679.151	1361
679.199	1161
679.248	1201
679.297	1348
679.346	1950
679.394	1759
679.443	814
679.492	978
679.540	1650
679.589	2317
679.638	1394
679.686	838
679.735	1369
679.784	324
679.832	1557
679.881	1531
679.929	1394
679.978	618
680.026	1346
680.075	1449
680.123	321
680.172	1013
680.220	418
680.268	1014
680.317	1583
680.365	358
680.414	1093
680.462	679
680.510	2254
680.559	273
680.607	1383
680.655	1206
680.703	1322
680.752	1215
680.800	436
680.848	791
680.896	1155
680.945	1203
680.993	2252
681.041	2096
681.089	873
681.137	1006
681.185	885
681.233	986
681.258	976
681.281	937
681.329	469
681.377	934
681.380	1000
681.425	1637
681.473	1879
681.502	1341
681.521	910
681.569	2003
681.617	1073
681.624	1111
681.665	1113
681.713	1914
681.745	1394
681.761	1103
681.809	1419
681.857	2287
681.867	2230
681.904	1902
681.952	2736
681.989	2762
682.000	2727
682.048	2539
682.096	2318
682.111	2135
682.143	1601
682.191	2212
682.233	2341
682.239	2346
682.286	2204
682.334	2348
682.354	2343
682.382	2252
682.430	2667
682.476	2282
682.477	2248
682.525	1965
682.572	1897
682.598	1923
682.620	1889
682.667	2706
682.715	3144
682.720	3190
682.763	3383
682.810	3981
682.841	3862
682.857	3704
682.905	2739
682.952	3637
682.963	3577
683.000	3316
683.047	3031
683.085	4004
683.095	4235
683.142	3630
683.190	2975
683.206	3053
683.237	3167
683.284	4000
683.328	3701
683.332	3650
683.379	3193
683.426	3992
683.449	3847
683.473	3697
683.521	3460
683.568	4338
683.571	4313
683.615	3564
683.662	4693
683.693	4621
683.709	4572
683.757	3453
683.804	4859
683.814	4678
683.851	4000
683.898	5304
683.936	5219
683.945	5189
683.992	5327
684.039	5872
684.057	6117
684.086	6399
684.133	6832
684.179	6092
684.180	6039
684.227	6410
684.274	6435
684.300	6833
684.321	7073
684.368	6685
684.415	5648
684.422	5556
684.462	4801
684.509	4848
684.543	4643
684.556	4619
684.603	5036
684.649	4979
684.665	5019
684.696	5139
684.743	5109
684.786	5538
684.790	5565
684.837	5968
684.883	6429
684.908	6709
684.930	6837
684.977	6367
685.023	5982
685.029	6012
685.070	6009
685.117	5009
685.150	5915
685.164	6375
685.210	6679
685.257	7944
685.272	7815
685.303	7335
685.350	7463
685.393	7823
685.396	7884
685.443	8954
685.490	11306
685.514	10784
685.536	9629
685.583	8961
685.629	8103
685.636	8039
685.675	8155
685.722	8254
685.757	8303
685.768	8286
685.815	8311
685.861	7714
685.878	7730
685.908	7927
685.954	8427
686.000	8797
686.000	8804
686.047	9708
686.093	10858
686.121	11364
686.139	11027
686.185	9484
686.232	8677
686.242	8562
686.278	8588
686.324	7811
686.363	7849
686.370	7922
686.416	7966
686.463	8787
686.484	8733
686.509	8507
686.555	8155
686.601	7866
686.606	7897
686.647	8110
686.693	7572
686.727	7719
686.739	7828
686.785	7923
686.831	7964
686.848	7955
686.877	7757
686.923	7969
686.969	7228
686.969	7225
687.015	8269
687.061	7844
687.090	8391
687.107	8643
687.153	8325
687.199	8245
687.211	8093
687.245	7892
687.291	8524
687.332	9416
687.336	9486
687.382	9158
687.428	9250
687.453	9287
687.474	9081
687.520	9043
687.565	8318
687.574	8114
687.611	7655
687.657	8104
687.695	8007
687.702	8019
687.748	8524
687.794	8932
687.816	8884
687.839	8681
687.885	7803
687.931	8020
687.937	8063
687.976	8800
688.022	8886
688.058	9215
688.067	9234
688.113	9534
688.158	9295
688.179	9477
688.204	9667
688.249	9830
688.295	9321
688.300	9362
688.340	9795
688.386	9592
688.421	9466
688.431	9435
688.477	10045
688.522	9996
688.542	9972
688.567	9822
688.613	9609
688.658	9319
688.663	9323
688.703	9519
688.749	9380
688.784	9503
688.794	9550
688.839	9449
688.884	9389
688.905	9316
688.930	9254
688.975	9099
689.020	9143
689.026	9130
689.065	9159
689.110	8836
689.146	8657
689.155	8611
689.201	9070
689.246	8997
689.267	8877
689.291	8941
689.336	9604
689.381	9412
689.388	9419
689.426	9132
689.471	9444
689.509	8765
689.516	8697
689.561	9655
689.606	9546
689.630	9382
689.651	9279
689.696	9421
689.741	9743
689.750	9786
689.785	9849
689.830	9895
689.871	9611
689.875	9579
689.920	9119
689.965	9002
689.992	8590
690.010	8581
690.054	9449
690.099	9884
690.112	9887
690.144	9820
690.189	10199
690.233	10252
690.233	10267
690.278	10414
690.323	10362
690.354	10507
690.367	10633
690.412	10773
690.457	10998
690.474	11163
690.501	11328
690.546	10766
690.590	11182
690.595	11103
690.635	10928
690.680	11282
690.716	11509
690.724	11655
690.769	12486
690.813	13523
690.836	13632
690.857	14622
690.902	17222
690.946	20135
690.957	20838
690.991	26985
691.035	35320
691.077	43154
691.080	43107
691.124	39010
691.168	35459
691.198	32945
691.213	31079
691.257	25849
691.301	20606
691.318	18517
691.346	17159
691.390	15147
691.434	12874
691.439	12655
691.478	13191
691.522	13293
691.559	13607
691.567	13662
691.611	13673
691.655	13633
691.680	13489
691.699	13107
691.743	12331
691.787	11307
691.800	11157
691.831	11737
691.875	12058
691.919	12870
691.921	12850
691.964	12674
692.008	13214
692.041	13162
692.052	13132
692.096	13268
692.139	13271
692.162	13197
692.183	13096
692.227	12626
692.271	12819
692.282	12722
692.315	12648
692.359	12838
692.402	12579
692.403	12605
692.447	12930
692.490	13005
692.523	13678
692.534	13864
692.578	13524
692.622	13394
692.643	13380
692.666	13217
692.709	12850
692.753	12481
692.763	12388
692.797	12573
692.840	12323
692.884	12182
692.884	12210
692.928	12681
692.971	12885
693.004	13120
693.015	13145
693.059	12950
693.102	12913
693.124	12733
693.146	13067
693.189	13834
693.233	15099
693.245	15278
693.276	15477
693.320	15790
693.363	16077
693.365	16049
693.407	16694
693.450	17427
693.485	17970
693.493	18387
693.537	20453
693.580	22363
693.605	23559
693.624	26092
693.667	31956
693.710	37818
693.725	39964
693.753	51485
693.797	69366
693.840	88292
693.845	90099
693.883	81610
693.926	71834
693.966	63557
693.970	62377
694.013	48637
694.056	35373
694.086	25952
694.099	25173
694.142	22613
694.185	20032
694.206	18948
694.229	19045
694.272	18733
694.315	18742
694.326	18546
694.358	18736
694.401	19436
694.444	20320
694.446	20300
694.487	19410
694.530	18214
694.566	17521
694.573	17361
694.616	15749
694.659	14443
694.686	13517
694.702	13491
694.745	13374
694.787	13052
694.806	12998
694.830	13163
694.873	13391
694.916	13431
694.926	13428
694.959	13660
695.002	13931
695.044	14041
695.046	14021
695.087	14240
695.130	14328
695.166	14308
695.172	14323
695.215	14114
695.258	14135
695.286	14043
695.301	13976
695.343	13607
695.386	13422
695.406	13195
695.428	12981
695.471	12435
695.514	12196
695.526	12058
695.556	12219
695.599	12494
695.641	12487
695.646	12479
695.684	12545
695.726	12548
695.766	12497
695.769	12537
695.811	12670
695.854	12838
695.886	12778
695.896	12776
695.938	12757
695.981	12849
696.005	12778
696.023	12941
696.065	13158
696.108	13661
696.125	13767
696.150	13594
696.192	13415
696.235	12972
696.245	12842
696.277	12783
696.319	12790
696.361	12714
696.365	12667
696.404	12730
696.446	12792
696.485	13131
696.488	13207
696.530	13288
696.572	13591
696.604	13740
696.614	13621
696.656	12959
696.698	12302
696.724	11877
696.740	11967
696.783	12090
696.825	12410
696.844	12357
696.867	12340
696.909	12565
696.951	12503
696.964	12534
696.992	12559
697.034	12394
697.076	12219
697.083	12149
697.118	12336
697.160	12653
697.202	12887
697.203	12858
697.244	12768
697.286	12670
697.323	12485
697.327	12562
697.369	13028
697.411	13443
697.442	13729
697.453	13939
697.494	14572
697.536	15278
697.562	15714
697.578	15782
697.620	15725
697.661	15744
697.682	15720
697.703	16368
697.744	17486
697.786	18797
697.801	19167
697.828	18910
697.869	18309
697.911	17875
697.921	17713
697.952	16628
697.994	15128
698.035	13648
698.040	13423
698.077	13286
698.118	13139
698.160	12992
698.160	12954
698.201	13149
698.243	13307
698.279	13432
698.284	13472
698.325	13509
698.367	13467
698.399	13430
698.408	13370
698.449	12919
698.491	12469
698.518	12121
698.532	12319
698.573	12846
698.614	13360
698.638	13610
698.656	13776
698.697	14097
698.738	14385
698.757	14495
698.779	14405
698.820	14125
698.862	13881
698.877	13742
698.903	14033
698.944	14449
698.985	14866
698.996	14941
699.026	14448
699.067	13711
699.116	12796
699.235	13256
699.354	12570
699.474	14294
699.593	16682
699.713	16666
699.832	14472
699.951	17005
700.070	14318
700.190	13320
700.309	14231
700.428	16268
700.547	12924
700.667	14082
700.786	16990
700.905	13823
701.024	15352
701.143	14336
701.262	12096
701.381	12627
701.500	15186
701.619	18915
701.738	12959
701.857	12931
701.976	11154
702.095	12264
702.214	17051
702.333	17360
702.452	14607
702.571	12051
702.690	12251
702.809	12362
702.928	11845
703.047	13602
703.165	11793
703.284	11917
703.403	11911
703.522	14897
703.640	14481
703.759	20766
703.878	27006
703.997	13483
704.115	11459
704.234	11421
704.353	11079
704.471	11229
704.590	10530
704.708	10475
704.827	11117
704.946	11594
705.064	13168
705.183	11432
705.301	13964
705.420	21015
705.538	18475
705.656	18025
705.775	28296
705.893	85788
706.012	95512
706.130	18684
706.249	15833
706.367	16641
706.485	17756
706.604	15704
706.722	18226
706.840	22405
706.958	17397
707.077	15588
707.195	14100
707.313	13406
707.431	13955
707.549	13822
707.668	14236
707.786	14115
707.904	13473
708.022	12927
708.140	12774
708.258	13631
708.376	13650
708.494	13265
708.612	14924
708.730	21412
708.848	20702
708.966	21679
709.084	18685
709.202	16501
709.320	18246
709.438	17845
709.556	16984
709.674	16796
709.791	16914
709.909	16977
710.027	16700
710.145	16546
710.263	15809
710.380	16894
710.498	17348
710.616	17387
710.733	15918
710.851	17954
710.969	18370
711.086	16857
711.204	15778
711.322	16530
711.439	17584
711.557	17451
711.674	17416
711.792	18635
711.909	24506
712.027	30244
712.144	15582
712.262	15764
712.379	18072
712.497	25547
712.614	23965
712.732	20294
712.849	20145
712.966	25574
713.084	32691
713.201	22338
713.318	20973
713.436	18958
713.553	19494
713.670	20751
713.787	22471
713.905	22364
714.022	18910
714.139	19291
714.256	21145
714.373	22989
714.490	28624
714.608	52764
714.725	185818
714.842	144270
714.959	22697
715.076	18513
715.193	17990
715.310	16910
715.427	16841
715.544	16477
715.661	17358
715.778	17393
715.895	18496
716.011	18691
716.128	16791
716.245	18874
716.362	26822
716.479	24704
716.596	16632
716.713	16544
716.829	15332
716.946	15233
717.063	14628
717.180	14535
717.296	14388
717.413	14884
717.530	15780
717.646	15517
717.763	13929
717.880	13865
717.996	16011
718.113	17571
718.229	14545
718.346	14452
718.462	16194
718.579	29301
718.695	58561
718.812	29784
718.928	24970
719.045	15769
719.161	12937
719.277	13542
719.394	14189
719.510	16783
719.626	13691
719.743	16481
719.859	16560
719.975	19952
720.092	53334
720.208	89577
720.324	19538
720.440	15471
720.557	22665
720.673	43918
720.789	45427
720.905	85709
721.021	21904
721.137	13488
721.253	14818
721.369	14400
721.486	17438
721.602	23956
721.718	13116
721.834	11766
721.950	13421
722.066	11592
722.181	11744
722.297	14550
722.413	11548
722.529	10527
722.645	12046
722.761	11685
722.877	11509
722.993	10059
723.108	10019
723.224	9790
723.340	10695
723.456	9776
723.571	11555
723.687	9977
723.803	10958
723.918	10888
724.034	11061
724.150	10616
724.265	13913
724.381	31998
724.497	36476
724.612	10242
724.728	8913
724.843	10025
724.959	12777
725.074	30965
725.190	31137
725.305	12857
725.421	11467
725.536	9049
725.651	9059
725.767	8909
725.882	8187
725.997	9891
726.113	10654
726.228	9112
726.343	9009
726.459	8369
726.574	9537
726.689	8392
726.804	8944
726.920	9315
727.035	9471
727.150	9985
727.265	8752
727.380	10221
727.495	9472
727.610	9470
727.725	11337
727.841	18282
727.956	54197
728.071	31356
728.186	10027
728.301	8722
728.416	9609
728.531	9230
728.645	8030
728.760	9605
728.875	10173
728.990	8899
729.105	9736
729.220	12135
729.335	9476
729.449	8602
729.564	7034
729.679	6579
729.794	6734
729.908	8976
730.023	7732
730.138	6186
730.253	6973
730.367	6630
730.482	6896
730.596	9049
730.711	9354
730.826	7349
730.940	7412
731.055	10319
731.169	7491
731.284	7038
731.398	6384
731.513	9577
731.627	7846
731.742	10168
731.856	9700
731.970	7640
732.085	8006
732.199	8263
732.313	9723
732.428	20230
732.542	48960
732.656	23972
732.771	8272
732.885	6954
732.999	7035
733.113	8076
733.227	7081
733.342	6671
733.456	6436
733.570	5799
733.684	6143
733.798	6456
733.912	6122
734.026	5776
734.140	5367
734.254	8348
734.368	16508
734.482	18728
734.596	6013
734.710	6147
734.824	5706
734.938	6540
735.052	6870
735.166	8821
735.280	7497
735.393	6498
735.507	7348
735.621	10982
735.735	20508
735.849	7516
735.962	6307
736.076	7432
736.190	7087
736.303	11882
736.417	13568
736.531	6701
736.644	6798
736.758	5452
736.872	5337
736.985	5343
737.099	4932
737.212	5005
737.326	5225
737.439	5359
737.553	6022
737.666	6615
737.780	5158
737.893	4282
738.007	4538
738.120	5253
738.233	5757
738.347	6136
738.460	6244
738.573	8698
738.687	7226
738.800	9687
738.913	13295
739.026	7462
739.140	8515
739.253	8760
739.366	5185
739.479	4453
739.592	3913
739.705	5482
739.818	5679
739.932	5513
740.045	6114
740.158	6436
740.271	4418
740.384	4758
740.497	5034
740.610	5951
740.723	5542
740.836	5996
740.949	7574
741.062	14725
741.174	8839
741.287	5755
741.400	5632
741.513	5570
741.626	6085
741.739	6845
741.851	5264
741.964	5202
742.077	4508
742.189	6173
742.302	9133
742.415	6370
742.527	4959
742.640	4681
742.753	4540
742.865	4204
742.978	4403
743.090	5407
743.203	4303
743.316	4152
743.428	3994
743.541	3557
743.653	4382
743.766	4373
743.878	5330
743.990	9935
744.103	11589
744.215	13877
744.327	7261
744.440	12873
744.552	20656
744.664	7549
744.777	4642
744.889	4292
745.001	3693
745.113	4374
745.226	3917
745.338	4701
745.450	3413
745.562	3693
745.674	3560
745.786	4865
745.898	4188
746.010	5734
746.122	4703
746.234	5495
746.347	4428
746.459	4631
746.570	5115
746.682	9283
746.794	17139
746.906	6810
747.018	2970
747.130	4118
747.242	4738
747.354	3996
747.466	5055
747.577	4582
747.689	3922
747.801	3780
747.913	4126
748.024	3678
748.136	3666
748.248	4242
748.359	4038
748.471	4378
748.583	4661
748.694	7587
748.806	10115
748.918	7018
749.029	5415
749.141	6571
749.252	6691
749.364	13017
749.475	26964
749.587	10501
749.698	4943
749.809	5026
749.921	3628
750.032	4196
750.144	3121
750.255	3811
750.366	3021
750.478	4376
750.589	4941
750.700	6264
750.811	6595
750.923	12334
751.034	36906
751.145	22409
751.256	4624
751.367	4547
751.479	3921
751.590	2926
751.701	2628
751.812	3286
751.923	3384
752.034	3112
752.145	3519
752.256	3912
752.367	3048
752.478	2983
752.589	3962
752.700	3227
752.811	3284
752.922	4771
753.032	6521
753.143	6199
753.254	3130
753.365	3883
753.476	2983
753.586	2894
753.697	3251
753.808	3639
753.919	3287
754.029	2916
754.140	3296
754.251	3097
754.361	3175
754.472	3992
754.582	4122
754.693	3436
754.804	3425
754.914	3850
755.025	2339
755.135	3273
755.246	3080
755.356	2011
755.466	3829
755.577	3903
755.687	3870
755.798	3772
755.908	3713
756.018	3564
756.129	3115
756.239	3500
756.349	3284
756.460	3903
756.570	3216
756.680	4056
756.790	5530
756.900	6858
757.011	3096
757.121	4125
757.231	3482
757.341	4184
757.451	3652
757.561	3098
757.671	3503
757.781	2254
757.891	3951
758.001	4883
758.111	4700
758.221	5115
758.331	6577
758.441	6882
758.551	13932
758.661	7651
758.771	4571
758.880	3968
758.990	4427
759.100	4252
759.210	3762
759.320	4470
759.429	4007
759.539	4909
759.649	3681
759.758	4886
759.868	4126
759.978	4708
760.087	4448
760.197	4666
760.307	4792
760.416	4342
760.526	4199
760.635	5206
760.745	4347
760.854	4082
760.964	5730
761.073	6198
761.182	4260
761.292	4930
761.401	6429
761.511	5333
761.620	4607
761.729	5163
761.839	5008
761.948	6825
762.057	7768
762.166	6495
762.276	4478
762.385	6747
762.494	4767
762.603	5960
762.712	5801
762.822	6280
762.931	6176
763.040	5214
763.149	6164
763.258	6407
763.367	7707
763.476	7003
763.585	7751
763.694	7536
763.803	7572
763.912	8211
764.021	9122
764.130	8396
764.238	10026
764.347	9646
764.456	10172
764.565	11485
764.674	11448
764.783	11629
764.891	12817
765.000	15822
765.109	16753
765.217	19371
765.326	22773
765.435	28385
765.543	31977
765.652	38215
765.761	50360
765.869	70159
765.978	104723
766.086	165815
766.195	285402
766.303	508534
766.412	634921
766.520	518234
766.629	402000
766.737	224532
766.846	133201
766.954	90741
767.062	67787
767.171	60953
767.279	41331
767.387	30732
767.496	25785
767.604	22604
767.712	20040
767.820	18544
767.928	17663
768.037	16276
768.145	16302
768.253	15784
768.361	13491
768.469	14331
768.577	14912
768.685	15455
768.793	17029
768.901	17420
769.009	20157
769.117	22721
769.225	30596
769.333	41643
769.441	66036
769.549	112622
769.657	229405
769.765	477657
769.873	505955
769.981	362863
770.088	169657
770.196	89123
770.304	57634
770.412	41318
770.519	31149
770.627	25767
770.735	20132
770.842	18687
770.950	15799
771.058	14602
771.165	13253
771.273	12028
771.380	11973
771.488	11416
771.595	9703
771.703	9108
771.810	8594
771.918	8864
772.025	8343
772.133	6629
772.240	7448
772.348	7226
772.455	7071
772.562	6266
772.670	6182
772.777	6069
772.884	5799
772.991	5733
773.099	5649
773.206	5618
773.313	6019
773.420	5992
773.528	4551
773.635	5019
773.742	5448
773.849	5465
773.956	4306
774.063	5333
774.170	4671
774.277	5647
774.384	4900
774.491	4569
774.598	4797
774.705	6783
774.812	8607
774.919	5706
775.026	5449
775.133	4834
775.239	4368
775.346	4625
775.453	4351
775.560	4651
775.667	3277
775.773	3727
775.880	4134
775.987	3832
776.093	4317
776.200	4106
776.307	4618
776.413	4135
776.520	3737
776.627	5085
776.733	4836
776.840	4318
776.946	7713
777.053	14351
777.159	29453
777.266	15109
777.372	25085
777.478	19121
777.585	9043
777.691	4830
777.798	4796
777.904	8141
778.010	17745
778.117	9604
778.223	4334
778.329	3731
778.435	3057
778.542	4390
778.648	3165
778.754	2658
778.860	1860
778.966	4149
779.072	2932
779.178	3293
779.284	3087
779.391	2891
779.497	2656
779.603	4908
779.708	2575
779.815	8440
779.920	22557
780.026	42361
780.132	6126
780.238	3982
780.344	3208
780.450	3666
780.556	3052
780.661	3064
780.767	3734
780.873	2984
780.979	3691
781.085	2237
781.190	3247
781.296	2252
781.402	2147
781.507	2413
781.613	2789
781.719	3113
781.824	2274
781.930	3107
782.035	2155
782.141	3010
782.246	2006
782.352	2412
782.457	2553
782.563	2813
782.668	3158
782.773	3374
782.879	2467
782.984	4696
783.090	6765
783.195	11788
783.300	5678
783.405	3679
783.511	2490
783.616	3919
783.721	2723
783.826	2214
783.932	3052
784.037	2840
784.142	2566
784.247	2462
784.352	2719
784.457	3448
784.562	2376
784.667	3259
784.772	2172
784.877	2093
784.982	2313
785.087	2101
785.192	3223
785.297	2636
785.402	2492
785.507	3363
785.611	2685
785.716	2784
785.821	1599
785.926	2915
786.031	1759
786.135	2410
786.240	2868
786.345	2073
786.450	1955
786.554	2818
786.659	1570
786.763	1806
786.868	2431
786.973	3014
787.077	1707
787.182	1679
787.286	1823
787.391	2585
787.495	1995
787.600	2055
787.704	1128
787.809	1706
787.913	1466
788.017	1820
788.122	2365
788.226	1848
788.330	1398
788.435	2617
788.539	2010
788.643	1292
788.747	2340
788.852	1860
788.956	876
789.060	3007
789.164	1314
789.268	1712
789.372	2226
789.476	1494
789.580	1450
789.684	2332
789.788	2191
789.892	1602
789.996	2870
790.100	2617
790.204	2476
790.308	2076
790.412	2902
790.516	5402
790.620	4025
790.724	2462
790.828	2087
790.931	2070
791.035	4324
791.139	2768
791.242	923
791.346	2549
791.450	1305
791.554	2014
791.657	536
791.761	2308
791.864	2333
791.968	1808
792.072	2390
792.175	2286
792.279	1733
792.382	2202
792.486	2413
792.589	2604
792.693	1642
792.796	964
792.899	2126
793.003	2616
793.106	604
793.209	1919
793.313	3493
793.416	1541
793.519	4618
793.623	9903
793.726	12206
793.829	3789
793.932	1950
794.035	1683
794.138	3746
794.242	3554
794.345	4117
794.448	7345
794.551	13580
794.654	16864
794.757	22608
794.860	6219
794.963	2869
795.066	2179
795.169	2245
795.272	1502
795.375	1977
795.477	2209
795.580	1950
795.683	113
795.786	1466
795.889	1128
795.991	2510
796.094	3955
796.197	846
796.300	2375
796.402	758
796.505	772
796.608	1069
796.710	1757
796.813	1325
796.915	1319
797.018	1654
797.120	2015
797.223	-224
797.326	2327
797.428	609
797.530	1383
797.633	1165
797.735	3388
797.838	5029
797.940	4510
798.042	436
798.145	730
798.247	1816
798.349	-177
798.452	1483
798.554	1427
798.656	46
798.758	2062
798.860	1411
798.962	981
799.065	382
799.167	1444
799.269	2860
799.371	2494
799.473	1932
799.575	2493
799.677	4781
799.779	7485
799.881	10025
799.983	3909
800.085	605
800.187	1903
800.289	587
800.390	1157
800.492	1101
800.594	1167
800.696	236
800.798	925
800.899	1228
801.001	1029
801.103	107
801.205	807
801.306	1173
801.408	265
801.509	1230
801.611	1030
801.713	1241
801.814	745
801.916	1166
802.017	1017
802.119	107
802.220	1454
802.322	-441
802.423	4594
802.525	775
802.626	2164
802.727	1527
802.829	2382
802.930	-422
803.031	2532
803.133	740
803.234	785
803.335	1013
803.436	197
803.538	201
803.639	270
803.740	1488
803.841	119
803.942	1429
804.043	2065
804.144	125
804.245	1250
804.346	349
804.447	2020
804.548	6285
804.649	5899
804.750	1530
804.851	393
804.952	510
805.053	1199
805.154	-13
805.255	1157
805.355	941
805.456	375
805.557	726
805.658	173
805.758	1193
805.859	1049
805.960	208
806.061	554
806.161	506
806.262	899
806.362	897
806.463	1491
806.564	1355
806.664	1691
806.765	1432
806.865	1702
806.966	283
807.066	738
807.166	416
807.267	1611
807.367	633
807.468	2167
807.568	-61
807.668	1834
807.769	732
807.869	510
807.969	935
808.069	347
808.170	906
808.270	907
808.370	1906
808.470	4933
808.570	1592
808.670	637
808.770	739
808.870	40
808.970	568
809.070	777
809.170	185
809.271	1438
809.370	825
809.470	696
809.570	426
809.670	17
809.770	639
809.870	789
809.970	484
810.070	-441
810.169	528
810.269	-371
810.369	1483
810.469	426
810.568	256
810.668	115
810.768	-116
810.867	421
810.967	-275
811.066	110
811.166	-286
811.265	1866
811.365	-330
811.464	-130
811.564	1343
811.663	1411
811.763	-943
811.862	682
811.962	596
812.061	59
812.160	-18
812.260	714
812.359	216
812.458	871
812.557	667
812.657	1204
812.756	1672
812.855	1080
812.954	-205
813.053	625
813.153	403
813.252	-212
813.351	1086
813.450	897
813.549	-19
813.648	918
813.747	34
813.846	903
813.945	-68
814.044	-43
814.143	-86
814.242	1116
814.341	-327
814.439	798
814.538	958
814.637	247
814.736	-756
814.835	962
814.933	-284
815.032	1091
815.131	-216
815.229	75
815.328	850
815.427	-249
815.525	1172
815.624	1292
815.722	386
815.821	48
815.919	146
816.018	1004
816.116	1635
816.215	37
816.313	792
816.412	578
816.510	773
816.609	1780
816.707	29
816.805	358
816.904	313
817.002	1424
817.100	888
817.198	933
817.296	437
817.395	499
817.493	1636
817.591	243
817.689	940
817.787	1400
817.885	2156
817.983	3404
818.081	9537
818.179	22548
818.277	53430
818.375	34205
818.473	9555
818.571	4649
818.669	4287
818.767	5832
818.865	3012
818.963	2825
819.061	3660
819.158	7995
819.256	20295
819.354	50874
819.452	102808
819.549	44895
819.647	10068
819.745	5026
819.842	4590
819.940	3044
820.038	1032
820.135	1112
820.233	2018
820.330	966
820.428	555
820.525	1406
820.623	958
820.720	1201
820.818	1945
820.915	2517
821.012	4142
821.110	996
821.207	2365
821.304	267
821.402	1977
821.499	6124
821.596	9580
821.693	4802
821.791	3679
821.888	6862
821.985	15796
822.082	9928
822.179	4093
822.276	3558
822.373	2197
822.470	1352
822.567	746
822.664	888
822.761	1099
822.858	-14
822.955	322
823.052	477
823.149	1128
823.246	1011
823.343	629
823.440	857
823.536	704
823.633	1097
823.730	246
823.827	965
823.923	570
824.020	2070
824.117	1829
824.213	2459
824.310	738
824.407	228
824.503	-70
824.600	489
824.696	395
824.793	1177
824.889	1072
824.986	252
825.082	383
825.179	324
825.275	525
825.371	287
825.468	289
825.564	-575
825.660	-152
825.757	630
825.853	586
825.949	-545
826.045	-204
826.142	-50
826.238	137
826.334	607
826.430	-855
826.526	857
826.622	-244
826.718	91
826.814	8
826.910	969
827.006	-364
827.102	-193
827.198	1089
827.294	54
827.390	114
827.486	606
827.582	-400
827.678	-152
827.774	982
827.869	-557
827.965	1262
828.061	-1017
828.157	185
828.252	-20
828.348	-1131
828.444	1461
828.539	-650
828.635	662
828.731	328
828.826	-330
828.922	238
829.017	-47
829.113	1044
829.208	-59
829.304	261
829.399	1454
829.495	-528
829.590	1287
829.685	-39
829.781	186
829.876	-733
829.971	731
830.066	251
830.162	-235
830.257	-333
830.352	190
830.447	609
830.543	808
830.638	-265
830.733	1447
830.828	64
830.923	450
831.018	309
831.113	903
831.208	-601
831.303	389
831.398	69
831.493	-444
831.588	-66
831.683	-906
831.778	712
831.873	468
831.967	1207
832.062	-458
832.157	-696
832.252	1606
832.346	793
832.441	2735
832.536	4327
832.631	13295
832.725	7834
832.820	924
832.914	3
833.009	1303
833.104	2759
833.198	3509
833.293	316
833.387	238
833.482	295
833.576	-287
833.670	792
833.765	147
833.859	95
833.954	1428
834.048	420
834.142	376
834.237	-757
834.331	443
834.425	-60
834.519	-187
834.613	274
834.708	474
834.802	706
834.896	273
834.990	285
835.084	709
835.178	66
835.272	858
835.366	-320
835.460	253
835.554	837
835.648	-37
835.742	-97
835.836	460
835.930	-265
836.024	1156
836.117	1118
836.211	1007
836.305	1596
836.399	3737
836.493	-591
836.586	944
836.680	-860
836.774	-648
836.867	896
836.961	-729
837.055	-1378
837.148	-523
837.242	262
837.335	-27
837.429	46
837.522	227
837.616	1030
837.709	4375
837.803	2117
837.896	693
837.989	101
838.083	2361
838.176	5855
838.269	4710
838.363	1747
838.456	985
838.549	4049
838.642	8562
838.735	15048
838.829	4093
838.922	41
839.015	-225
839.108	-1049
839.201	875
839.294	362
839.387	373
839.480	62
839.573	1935
839.666	2238
839.759	-221
839.852	-411
839.945	375
840.038	-369
840.131	68
840.223	-519
840.316	305
840.409	-331
840.502	-1638
840.594	274
840.687	-1257
840.780	452
840.873	-40
840.965	306
841.058	2065
841.150	4001
841.243	2582
841.336	1118
841.428	144
841.521	-548
841.613	741
841.706	454
841.798	111
841.890	-215
841.983	-529
842.075	693
842.167	333
842.260	173
842.352	2478
842.444	2272
842.537	6433
842.629	8094
842.721	1242
842.813	299
842.905	-600
842.997	-98
843.090	545
843.182	1712
843.274	6018
843.366	13848
843.458	26517
843.550	15803
843.642	1829
843.734	463
843.826	1829
843.918	2123
844.009	1347
844.101	-597
844.193	560
844.285	731
844.377	1633
844.469	3776
844.560	6452
844.652	3779
844.744	1258
844.835	501
844.927	2
845.019	1031
845.110	882
845.202	-183
845.293	-632
845.385	-350
845.476	79
845.568	384
845.659	805
845.751	357
845.842	-46
845.934	-361
846.025	-82
846.116	211
846.208	177
846.299	-127
846.390	274
846.482	663
846.573	1899
846.664	2783
846.755	5300
846.846	3598
846.937	31
847.029	-306
847.120	-303
847.211	-300
847.302	881
847.393	-1141
847.484	430
847.575	-1009
847.666	-299
847.757	-639
847.847	142
847.938	993
848.029	169
848.120	-168
848.211	484
848.302	-832
848.392	-295
848.483	819
848.574	-534
848.664	-554
848.755	593
848.846	500
848.936	-1016
849.027	-1023
849.118	-381
849.208	-44
849.299	595
849.389	1691
849.480	4308
849.570	7621
849.661	12880
849.751	18498
849.841	5343
849.932	-229
850.022	-122
850.112	537
850.203	-127
850.293	-386
850.383	-367
850.474	-1410
850.564	-786
850.654	-164
850.744	-310
850.834	-971
850.924	-242
851.014	-657
851.104	413
851.194	963
851.284	2588
851.374	2213
851.464	800
851.554	851
851.644	1143
851.734	1785
851.824	402
851.914	-910
852.004	502
852.094	-737
852.183	-424
852.273	-265
852.363	-190
852.452	-150
852.542	302
852.632	142
852.721	-290
852.811	-1246
852.901	-328
852.990	402
853.080	-136
853.169	-876
853.259	-125
853.348	509
853.438	313
853.527	1136
853.617	2048
853.706	5148
853.795	9875
853.885	24930
853.974	47041
854.063	90442
854.152	127586
854.242	37048
854.331	4975
854.420	1343
854.509	2475
854.598	1443
854.687	1066
854.777	1239
854.866	94
854.955	531
855.044	-102
855.133	-313
855.222	-21
855.311	-444
855.400	941
855.488	254
855.577	1331
855.666	920
855.755	2935
855.844	3519
855.933	5127
856.021	1126
856.110	556
856.199	-540
856.288	-595
856.376	-280
856.465	-217
856.554	709
856.642	165
856.731	777
856.819	619
856.908	-68
856.996	909
857.085	-602
857.173	386
857.262	-67
857.350	592
857.438	-184
857.527	665
857.615	-488
857.703	497
857.792	-373
857.880	-125
857.968	72
858.056	-83
858.145	828
858.233	-61
858.321	-509
858.409	1015
858.497	-339
858.585	-503
858.673	309
858.761	-526
858.849	-718
858.937	104
859.025	12
859.113	586
859.201	133
859.289	276
859.377	259
859.465	504
859.552	585
859.640	-299
859.728	227
859.816	-201
859.903	-220
859.991	-432
860.079	-862
860.166	-351
860.254	-183
860.342	-179
860.429	-347
860.517	-588
860.604	-81
860.692	241
860.779	-218
860.867	17
860.954	-177
861.042	1068
861.129	866
861.216	428
861.304	-868
861.391	-211
861.478	-264
861.565	414
861.653	230
861.740	-976
861.827	-492
861.914	409
862.001	-696
862.089	291
862.176	-480
862.263	-847
862.350	-517
862.437	-249
862.524	-389
862.611	136
862.698	993
862.785	1836
862.871	1177
862.958	28
863.045	-1232
863.132	-1205
863.219	-285
863.306	-987
863.392	209
863.479	-802
863.566	120
863.652	276
863.739	-415
863.826	-277
863.912	-327
863.999	-681
864.086	72
864.172	-57
864.259	-1093
864.345	-323
864.432	-891
864.518	-621
864.604	-185
864.691	-209
864.777	-118
864.863	-187
864.950	-731
865.036	-498
865.122	-178
865.209	527
865.295	325
865.381	685
865.467	790
865.553	2243
865.639	1982
865.726	5231
865.812	11426
865.898	22890
865.984	33580
866.070	69876
866.156	60347
866.242	11433
866.328	2581
866.414	676
866.499	345
866.585	552
866.671	-28
866.757	602
866.843	9
866.928	-152
867.014	-504
867.100	740
867.186	810
867.271	1071
867.357	3482
867.442	2810
867.528	1408
867.614	1265
867.699	2610
867.785	4032
867.870	6172
867.956	6120
868.041	4054
868.127	3889
868.212	5374
868.297	3987
868.383	2383
868.468	5585
868.553	7167
868.639	8377
868.724	18664
868.809	14224
868.894	1509
868.979	383
869.065	507
869.150	435
869.235	-405
869.320	-284
869.405	-256
869.490	-369
869.575	-241
869.660	284
869.745	198
869.830	34
869.915	-213
870.000	-109
870.085	315
870.169	2067
870.254	831
870.339	191
870.424	-225
870.509	-36
870.593	-398
870.678	569
870.763	549
870.847	141
870.932	438
871.016	1660
871.101	483
871.186	-445
871.270	678
871.355	-456
871.439	178
871.523	-210
871.608	-118
871.692	217
871.777	1406
871.861	-79
871.945	-580
872.030	2
872.114	219
872.198	-578
872.282	-465
872.367	-1121
872.451	-940
872.535	-900
872.619	-1624
872.703	-525
872.787	-530
872.871	221
872.955	-577
873.039	-605
873.123	-181
873.207	-305
873.291	-316
873.375	-692
873.459	-1983
873.543	-145
873.627	-121
873.711	-485
873.794	-330
873.878	-818
873.962	-567
874.045	-606
874.129	-888
874.137	-790
874.213	189
874.245	-96
874.296	-564
874.352	-792
874.380	-901
874.460	-955
874.464	-959
874.547	-1093
874.568	-939
874.631	-453
874.676	74
874.714	498
874.784	586
874.798	618
874.881	365
874.892	251
874.965	-646
874.999	-468
875.048	-185
875.107	-181
875.131	-186
875.215	-270
875.215	-269
875.298	-323
875.323	-401
875.381	-603
875.430	-492
875.465	-373
875.538	494
875.548	592
875.631	-338
875.646	-380
875.714	-506
875.753	-466
875.798	-424
875.861	-799
875.881	-903
875.964	-70
875.968	-45
876.047	310
876.076	327
876.130	393
876.183	719
876.213	934
876.291	1252
876.296	1263
876.379	178
876.398	245
876.462	432
876.506	301
876.545	268
876.613	275
876.628	249
876.711	-75
876.721	-77
876.794	42
876.828	-5
876.877	-167
876.935	-350
876.960	-358
877.043	290
877.043	291
877.125	592
877.150	660
877.208	917
877.258	716
877.291	550
877.365	906
877.374	945
877.456	527
877.472	478
877.539	368
877.579	296
877.622	165
877.687	525
877.704	636
877.787	195
877.794	225
877.869	577
877.901	540
877.952	410
878.008	419
878.034	483
878.115	-40
878.117	-53
878.199	471
878.222	366
878.282	273
878.329	536
878.364	647
878.437	111
878.447	69
878.529	43
878.544	158
878.611	295
878.651	30
878.694	-48
878.758	106
878.776	99
878.858	218
878.865	192
878.941	109
878.972	331
879.023	666
879.078	574
879.105	618
879.185	2280
879.187	2307
879.269	1056
879.292	883
879.351	280
879.399	-41
879.433	-106
879.506	843
879.516	949
879.598	-342
879.613	-220
879.680	313
879.720	310
879.762	259
879.827	-278
879.844	-312
879.926	359
879.933	413
880.007	477
880.040	479
880.089	734
880.147	1178
880.171	1305
880.253	2773
880.254	2783
880.335	5026
880.360	5476
880.417	7658
880.467	11963
880.499	15231
880.574	18907
880.580	18487
880.662	6381
880.680	4651
880.744	1700
880.787	655
880.825	312
880.893	6
880.907	14
880.989	-126
881.000	-50
881.070	534
881.106	531
881.152	325
881.213	35
881.233	52
881.315	301
881.319	318
881.396	379
881.426	141
881.478	-40
881.532	384
881.559	372
881.639	-49
881.641	-43
881.722	611
881.745	547
881.803	605
881.852	833
881.885	596
881.958	1065
881.966	1189
882.047	1207
882.064	1293
882.129	2217
882.171	3448
882.210	5439
882.277	8445
882.291	8315
882.372	4116
882.383	3727
882.454	1080
882.489	139
882.535	28
882.596	230
882.616	290
882.697	-51
882.702	-31
882.778	819
882.808	816
882.859	483
882.914	672
882.940	884
883.020	645
883.021	645
883.102	1026
883.127	864
883.183	758
883.233	405
883.264	6
883.339	543
883.345	633
883.426	514
883.445	639
883.507	950
883.551	1004
883.587	1051
883.657	1266
883.668	1321
883.749	1435
883.763	1478
883.830	1257
883.869	1025
883.910	590
883.975	144
883.991	255
884.072	362
884.081	390
884.152	582
884.187	771
884.233	664
884.292	185
884.314	111
884.394	236
884.398	227
884.475	95
884.504	112
884.555	389
884.610	552
884.636	498
884.716	441
884.716	442
884.797	-335
884.821	-410
884.877	260
884.927	528
884.958	655
885.033	1153
885.038	1143
885.118	824
885.139	694
885.199	524
885.244	444
885.279	497
885.350	681
885.359	704
885.439	952
885.456	920
885.520	933
885.561	1141
885.600	875
885.667	340
885.680	486
885.760	984
885.773	1145
885.840	1189
885.878	1020
885.920	1082
885.984	1330
886.000	1306
886.080	937
886.089	905
886.160	1112
886.195	1183
886.240	1083
886.300	1134
886.320	1397
886.400	2149
886.406	2210
886.480	2631
886.511	2736
886.560	3430
886.616	3978
886.640	3492
886.720	2024
886.722	1979
886.800	861
886.827	542
886.879	1091
886.932	1378
886.959	1360
887.038	1594
887.039	1601
887.119	1437
887.143	1387
887.198	1464
887.248	1502
887.278	1526
887.354	1429
887.358	1441
887.437	1646
887.459	1697
887.517	1679
887.564	1566
887.596	1408
887.669	1128
887.676	1093
887.755	711
887.774	545
887.835	1275
887.880	1970
887.914	1685
887.985	824
887.994	805
888.073	782
888.090	768
888.153	686
888.195	588
888.232	1008
888.300	1789
888.311	1741
888.391	1378
888.405	1305
888.470	2012
888.510	2402
888.549	1744
888.615	709
888.628	877
888.708	1761
888.720	1900
888.787	1500
888.825	1271
888.866	1403
888.930	1576
888.945	1535
889.024	1310
889.035	1275
889.103	1620
889.140	1763
889.182	1725
889.245	1720
889.261	1784
889.340	2050
889.349	2073
889.419	1729
889.454	1550
889.498	1486
889.559	1377
889.577	1315
889.656	1041
889.664	1011
889.735	1412
889.768	1597
889.814	1324
889.873	954
889.978	1702
890.083	1717
890.187	1007
890.292	1393
890.397	1577
890.501	2090
890.606	1328
890.710	1855
890.815	1207
890.919	1573
891.024	1346
891.128	1581
891.233	1501
891.337	1201
891.442	1120
891.546	1755
891.650	1168
891.755	832
891.859	3423
891.963	2237
892.068	1685
892.172	1570
892.276	821
892.380	831
892.484	1625
892.589	1410
892.693	1470
892.797	1622
892.901	1781
893.005	1067
893.109	939
893.213	2008
893.317	1759
893.421	1103
893.525	1342
893.629	1512
893.733	1861
893.837	893
893.941	1815
894.045	2011
894.148	1384
894.252	2080
894.356	1893
894.460	2470
894.564	1828
894.667	883
894.771	1121
894.875	1192
894.978	1197
895.082	1050
895.186	2045
895.289	1402
895.393	1493
895.496	1606
895.600	738
895.703	1097
895.807	1632
895.910	678
896.014	1346
896.117	404
896.221	1521
896.324	903
896.427	1089
896.531	700
896.634	898
896.737	1023
896.840	1384
896.944	707
897.047	1715
897.150	641
897.253	1526
897.356	1010
897.460	1795
897.563	1004
897.666	1841
897.769	1118
897.872	1418
897.975	891
898.078	864
898.181	313
898.284	453
898.387	1629
898.490	1443
898.593	1696
898.695	1053
898.798	742
898.901	2363
899.004	2121
899.107	1130
899.209	1376
899.312	1634
899.415	1550
899.518	2019
899.620	812
899.723	2720
899.826	6249
899.928	9411
900.031	2206
900.133	994
900.236	595
900.338	1472
900.441	-100
900.543	1206
900.646	1418
900.748	1776
900.851	1738
900.953	2112
901.055	2576
901.158	2719
901.260	1677
901.362	1774
901.465	846
901.567	961
901.669	1401
901.771	1351
901.873	1057
901.976	2276
902.078	1343
902.180	1733
902.282	1189
902.384	2033
902.486	1785
902.588	2406
902.690	2029
902.792	1857
902.894	2549
902.996	1928
903.098	621
903.200	1878
903.302	1363
903.404	657
903.505	1416
903.607	1252
903.709	1706
903.811	1588
903.913	546
904.014	611
904.116	1179
904.218	1539
904.319	1261
904.421	2852
904.523	2374
904.624	2130
904.726	1089
904.827	2081
904.929	2407
905.030	1744
905.132	900
905.233	1589
905.335	587
905.436	1383
905.537	778
905.639	1402
905.740	737
905.841	1393
905.943	1744
906.044	1732
906.145	2073
906.247	1735
906.348	716
906.449	1043
906.550	517
906.651	1165
906.752	1468
906.854	1037
906.955	196
907.056	1685
907.157	1472
907.258	1509
907.359	806
907.460	1520
907.561	1270
907.662	1453
907.762	986
907.863	1027
907.964	1541
908.065	2455
908.166	611
908.267	1621
908.367	1149
908.468	1219
908.569	1919
908.670	3052
908.770	3141
908.871	3791
908.971	3252
909.072	3284
909.173	910
909.273	1225
909.374	676
909.474	581
909.575	1522
909.675	1280
909.776	756
909.876	1203
909.977	1211
910.077	1583
910.177	1319
910.278	967
910.378	1019
910.478	992
910.579	667
910.679	958
910.779	793
910.879	1643
910.980	775
911.080	1202
911.180	207
911.280	705
911.380	1060
911.480	1295
911.580	793
911.680	1557
911.780	1634
911.880	1720
911.980	1146
912.080	1097
912.180	952
912.280	1933
912.380	1109
912.480	1504
912.580	589
912.679	1381
912.779	1217
912.879	1443
912.979	120
913.078	1516
913.178	786
913.278	1367
913.377	1355
913.477	1464
913.577	457
913.676	2460
913.776	1221
913.875	1595
913.975	740
914.074	1337
914.174	1652
914.273	867
914.373	343
914.472	333
914.572	785
914.671	936
914.770	1151
914.870	1036
914.969	870
915.068	1020
915.167	820
915.267	-43
915.366	1144
915.465	1631
915.564	1518
915.663	670
915.763	389
915.862	1519
915.961	876
916.060	412
916.159	1229
916.258	1506
916.357	930
916.456	2167
916.555	637
916.654	1193
916.752	1619
916.851	985
916.950	221
917.049	1269
917.148	545
917.247	1067
917.345	557
917.444	215
917.543	969
917.642	1029
917.740	1354
917.839	1014
917.937	491
918.036	1447
918.135	889
918.233	595
918.332	673
918.430	282
918.529	911
918.627	888
918.726	1062
918.824	2381
918.923	979
919.021	662
919.119	471
919.218	890
919.316	77
919.414	1382
919.512	309
919.611	202
919.709	591
919.807	732
919.905	-34
920.003	677
920.102	661
920.200	591
920.298	536
920.396	1230
920.494	1311
920.592	1101
920.690	1373
920.788	621
920.886	1049
920.984	1990
921.082	2274
921.180	4454
921.277	4995
921.375	3563
921.473	1346
921.571	1365
921.669	1060
921.766	1445
921.864	718
921.962	1315
922.060	949
922.157	1360
922.255	1574
922.352	619
922.450	1452
922.548	1565
922.645	1987
922.743	3681
922.840	3536
922.938	2110
923.035	1461
923.133	1225
923.230	738
923.327	1743
923.425	2386
923.522	1805
923.619	1459
923.717	3172
923.814	1990
923.911	1035
924.008	2130
924.106	1805
924.203	1039
924.300	738
924.397	704
924.494	1566
924.591	2087
924.688	1053
924.786	1073
924.883	1437
924.979	294
925.077	1623
925.173	1713
925.270	1099
925.367	427
925.464	1578
925.561	2300
925.658	1911
925.755	1955
925.852	2996
925.948	2838
926.045	3660
926.142	2427
926.239	4219
926.335	3895
926.432	3058
926.529	3216
926.625	5145
926.722	2602
926.818	1669
926.915	1326
927.011	1618
927.108	1218
927.204	1314
927.301	171
927.397	21
927.494	991
927.590	1587
927.687	746
927.783	888
927.879	722
927.976	674
928.072	516
928.168	1097
928.264	1776
928.361	755
928.457	942
928.553	2107
928.649	50
928.745	834
928.841	1337
928.937	397
929.033	1300
929.129	1052
929.225	226
929.321	676
929.417	150
929.513	933
929.609	-180
929.705	678
929.801	918
929.897	1089
929.993	412
930.089	1234
930.184	299
930.280	779
930.376	1091
930.471	677
930.567	1038
930.663	1255
930.758	86
930.854	728
930.950	643
931.045	937
931.141	287
931.236	839
931.332	694
931.427	350
931.523	781
931.618	893
931.714	449
931.809	144
931.905	822
932.000	41
932.095	739
932.191	630
932.286	1071
932.381	465
932.476	362
932.572	648
932.667	1074
932.762	420
932.857	0
932.952	696
933.047	1073
933.142	573
933.237	708
933.332	518
933.427	1394
933.522	1103
933.617	169
933.712	-573
933.807	786
933.902	63
933.997	154
934.092	1196
934.187	630
934.282	1204
934.376	1019
934.471	1434
934.566	815
934.661	461
934.755	-46
934.850	504
934.945	595
935.039	280
935.134	1196
935.228	791
935.323	-11
935.417	1545
935.512	206
935.606	269
935.701	280
935.795	-221
935.890	426
935.984	1320
936.079	670
936.173	1170
936.267	638
936.362	1168
936.456	456
936.550	980
936.644	764
936.738	104
936.833	881
936.927	2051
937.021	5323
937.115	1206
937.209	-123
937.303	2152
937.397	680
937.491	1297
937.585	754
937.679	518
937.773	370
937.867	533
937.961	372
938.055	318
938.149	438
938.243	860
938.337	1381
938.430	518
938.524	2523
938.618	4682
938.712	3101
938.805	1254
938.899	1084
938.993	1465
939.086	1188
939.180	5455
939.274	6033
939.367	2703
939.461	1363
939.554	556
939.648	407
939.741	1654
939.835	516
939.928	871
940.022	743
940.115	718
940.208	1182
940.302	628
940.395	856
940.488	352
940.582	1518
940.675	3
940.768	126
940.861	607
940.954	771
941.048	-148
941.141	1171
941.234	1173
941.327	2295
941.420	2759
941.513	1057
941.606	1023
941.699	1399
941.792	479
941.885	291
941.978	1186
942.071	318
942.164	234
942.257	1030
942.349	519
942.442	995
942.535	540
942.628	269
942.721	1001
942.813	-723
942.906	611
942.999	171
943.091	482
943.184	285
943.277	398
943.369	1102
943.462	384
943.554	89
943.647	336
943.739	971
943.832	856
943.924	-931
944.017	831
944.109	-478
944.201	351
944.294	1643
944.386	269
944.478	110
944.571	376
944.663	805
944.755	330
944.847	94
944.940	266
945.032	-39
945.124	329
945.216	739
945.308	587
945.400	315
945.492	983
945.584	764
945.676	450
945.768	142
945.860	149
945.952	310
946.044	946
946.136	31
946.228	42
946.320	-1077
946.412	677
946.503	496
946.595	1401
946.687	353
946.779	462
946.870	275
946.962	-143
947.054	610
947.145	359
947.237	-168
947.329	224
947.420	71
947.512	-24
947.603	122
947.695	-75
947.786	-170
947.878	23
947.969	541
948.061	228
948.152	-135
948.243	130
948.335	836
948.426	512
948.517	-155
948.609	292
948.700	119
948.791	-438
948.882	709
948.973	318
949.065	-267
949.156	848
949.247	-8
949.338	62
949.429	71
949.520	-312
949.611	-665
949.702	870
949.793	19
949.884	115
949.975	-25
950.066	780
950.157	-139
950.247	703
950.338	423
950.429	109
950.520	742
950.611	1296
950.701	450
950.792	1497
950.883	1144
950.973	1377
951.064	834
951.155	937
951.245	1145
951.336	-31
951.427	-138
951.517	1088
951.608	854
951.698	467
951.788	786
951.879	-296
951.969	242
952.060	889
952.150	493
952.240	790
952.331	-1512
952.421	1200
952.511	-80
952.602	865
952.692	1308
952.782	51
952.872	97
952.962	187
953.052	488
953.143	615
953.233	-69
953.323	1433
953.413	-156
953.503	195
953.593	674
953.683	227
953.773	397
953.863	742
953.953	-518
954.042	-45
954.132	-662
954.222	-56
954.312	508
954.402	701
954.492	1667
954.581	4755
954.671	567
954.761	23
954.850	1251
954.940	845
955.030	274
955.119	-494
955.209	523
955.298	-253
955.388	278
955.477	1476
955.567	-150
955.656	547
955.746	345
955.835	264
955.925	-260
956.014	590
956.103	-461
956.193	652
956.282	96
956.371	617
956.461	790
956.550	655
956.639	-273
956.728	128
956.817	495
956.906	1328
956.995	1554
957.085	1453
957.174	-163
957.263	953
957.352	795
957.441	203
957.530	184
957.619	339
957.708	548
957.796	1032
957.885	438
957.974	255
958.063	1004
958.152	34
958.241	685
958.329	1760
958.418	193
958.507	743
958.596	1697
958.684	508
958.773	1691
958.861	611
958.950	1867
959.039	1392
959.127	760
959.216	701
959.304	993
959.393	1276
959.481	824
959.570	1274
959.658	1024
959.746	1884
959.835	2674
959.923	6623
960.011	2215
960.100	1078
960.188	849
960.276	622
960.365	998
960.453	588
960.541	-82
960.629	411
960.717	145
960.805	1116
960.893	1396
960.981	643
961.069	1748
961.158	1048
961.245	436
961.333	860
961.421	38
961.509	847
961.597	-403
961.685	438
961.773	387
961.861	909
961.949	896
962.036	-350
962.124	565
962.212	-305
962.299	581
962.387	5
962.475	419
962.562	433
962.650	372
962.738	456
962.825	-480
962.913	1490
963.000	-167
963.088	144
963.175	122
963.263	220
963.350	289
963.438	1691
963.525	1772
963.612	4668
963.700	9191
963.787	29866
963.874	13523
963.962	1019
964.049	99
964.136	-633
964.223	-234
964.310	1212
964.398	-343
964.485	454
964.572	1762
964.659	4035
964.746	3866
964.833	1026
964.920	-1132
965.007	158
965.094	-119
965.181	385
965.268	548
965.355	173
965.441	-27
965.528	-513
965.615	-387
965.702	-792
965.789	104
965.875	146
965.962	-354
966.049	-330
966.136	196
966.222	-1019
966.309	269
966.395	-294
966.482	-155
966.569	-602
966.655	-7
966.742	292
966.828	-108
966.915	334
967.001	948
967.087	215
967.174	717
967.260	1350
967.347	3345
967.433	6785
967.519	20709
967.605	6745
967.692	134
967.778	87
967.864	-841
967.950	80
968.036	-881
968.123	199
968.209	-552
968.295	-698
968.381	989
968.467	-517
968.553	-772
968.639	507
968.725	-627
968.811	3255
968.897	2093
968.983	-325
969.069	-1234
969.154	940
969.240	-27
969.326	-928
969.412	-854
969.497	-458
969.583	-664
969.669	552
969.755	-597
969.840	8
969.926	1329
970.012	-608
970.097	575
970.183	-13
970.268	-431
970.354	1861
970.439	3253
970.525	12520
970.610	3739
970.696	931
970.781	-1
970.866	-1196
970.952	48
971.037	-625
971.122	-581
971.208	334
971.293	-85
971.378	-939
971.463	-521
971.549	734
971.634	-216
971.719	352
971.804	988
971.889	1889
971.974	-818
972.059	-948
972.144	-30
972.229	-70
972.314	-843
972.399	613
972.484	451
972.569	844
972.654	232
972.739	5057
972.824	6938
972.908	930
972.993	-128
973.078	-246
973.163	-595
973.247	-216
973.332	-1328
973.417	1271
973.501	-942
973.586	93
973.671	829
973.755	345
973.840	1519
973.924	1230
974.009	426
974.093	-666
974.178	1466
974.262	4389
974.346	5552
974.431	923
974.515	-916
974.600	-210
974.684	33
974.768	-530
974.852	-110
974.937	-662
975.021	-940
975.105	370
975.189	-99
975.273	-352
975.358	-891
975.442	-341
975.526	-639
975.610	-697
975.694	-1163
975.778	613
975.862	-482
975.946	-1875
976.030	1133
976.114	-1303
976.198	243
976.281	137
976.365	458
976.449	-102
976.533	-449
976.617	-706
976.700	-549
976.784	89
976.868	-149
976.951	2512
977.035	1678
977.119	-592
977.202	-1270
977.286	200
977.369	-686
977.453	80
977.536	-819
977.620	-204
977.703	-154
977.787	-934
977.870	347
977.953	1285
978.037	-547
978.120	1764
978.203	2020
978.287	6269
978.370	2827
978.453	298
978.536	-508
978.620	1458
978.703	3364
978.786	1111
978.869	-818
978.952	-913
979.035	-243
979.118	734
979.201	-617
979.284	700
979.367	-666
979.450	400
979.533	-1485
979.616	-185
979.699	-858
979.782	-497
979.865	-420
979.948	-191
980.030	-762
980.113	-1142
980.196	-1016
980.279	-80
980.361	-1260
980.444	-865
980.526	-383
980.609	-121
980.692	-633
980.774	379
980.857	-1359
980.939	670
981.022	-1563
981.104	-1017
981.187	-1083
981.269	185
981.352	-584
981.434	-839
981.516	-1381
981.599	528
981.681	-322
981.763	-417
981.846	-562
981.928	-534
982.010	-844
982.092	-1162
982.174	-203
982.256	-365
982.339	-512
982.421	-161
982.503	-745
982.585	-866
982.667	-1237
982.749	-161
982.831	-749
982.913	-1114
982.995	264
983.077	-150
983.158	1300
983.240	-1210
983.322	-1157
983.404	290
983.486	-970
983.568	182
983.649	-667
983.731	-346
983.813	-704
983.894	-654
983.976	-902
984.058	-819
984.139	-217
984.221	-1450
984.302	-211
984.384	-1178
984.465	-1259
984.547	-1060
984.628	-1050
984.710	373
984.791	-1512
984.872	-357
984.954	-1581
985.035	-208
985.116	-1142
985.198	-1084
985.279	131
985.360	-897
985.441	-1366
985.522	536
985.604	-761
985.685	-2453
985.766	245
985.847	795
985.928	-1676
986.009	-428
986.090	-17
986.171	1245
986.252	-1252
986.333	473
986.414	-609
986.495	-570
986.576	-1369
986.656	-621
986.737	-219
986.818	-1578
986.899	-990
986.980	-183
987.060	-860
987.141	-1263
987.222	-657
987.302	-461
987.383	-131
987.464	-1393
987.544	-542
987.625	-494
987.705	-338
987.786	-87
987.866	-485
987.947	-201
988.027	-535
988.108	-1246
988.188	-733
988.268	72
988.349	-959
988.429	-624
988.509	-670
988.589	-1211
988.670	-2602
988.750	182
988.830	-879
988.910	149
988.990	-1083
989.070	-771
989.151	-843
989.231	-1518
989.311	-110
989.391	-105
989.471	-1496
989.551	-811
989.631	-1222
989.711	-581
989.791	-487
989.870	-965
989.950	643
990.030	-847
990.110	-918
990.190	-653
990.269	-1151
990.349	-1228
990.429	-1025
990.509	98
990.588	-1851
990.668	-761
990.747	-1304
990.827	-538
990.907	-701
990.986	-1039
991.066	-1088
991.145	-2000
991.225	-1109
991.304	-563
991.383	-926
991.463	-1059
991.542	-1029
991.622	-1697
991.701	-1823
991.780	-1864
991.859	-1180
991.939	-1566
992.018	-1649
992.097	-696
992.176	-1211
992.256	-993
992.335	-1564
992.414	-802
992.493	-1683
992.572	-1173
992.651	475
992.730	-1551
992.809	-427
992.888	-2075
992.967	-475
993.046	-667
993.125	-1871
993.203	-1056
993.282	-1911
993.361	-391
993.440	-1585
993.519	-1439
993.597	-832
993.676	-1879
993.755	-1348
993.834	-1830
993.912	-1682
993.991	-710
994.069	-2009
994.148	-987
994.226	-1991
994.305	-1449
994.384	-1568
994.462	-374
994.540	-1227
994.619	-1412
994.697	-979
994.776	-1734
994.854	-1067
994.932	-2851
995.011	-889
995.089	-1560
995.167	-664
995.245	-1302
995.324	-1784
995.402	-1166
995.480	-1502
995.558	-890
995.636	-1984
995.714	-1198
995.792	-768
995.870	-1739
995.948	-1926
996.026	-656
996.104	-2264
996.182	-875
996.260	-2019
996.338	-1360
996.416	-2308
996.494	-2357
996.572	-708
996.649	-664
996.727	-2450
996.805	-1295
996.883	-2602
996.960	-1811
997.038	-1973
997.116	-1682
997.193	-2153
997.271	-954
997.348	-2569
997.426	-1078
997.504	-1989
997.581	-1107
997.658	-1411
997.736	-1308
997.813	-2488
997.891	-295
997.968	-2226
998.046	-602
998.123	-1728
998.200	-1290
998.277	-2765
998.355	-1542
998.432	-2870
998.509	-1503
998.586	-523
998.663	-1719
998.741	-1859
998.818	-1820
998.895	-2779
998.972	-1451
999.049	-2010
999.126	-1987
999.203	-1358
999.280	-2252
999.357	-2282
999.434	-1675
999.511	-1034
999.587	-604
999.664	-2669
999.741	-916
999.818	-962
999.895	-1508
999.971	-1526
1000.048	-1416
1000.125	-611
1000.202	-1746
1000.278	-1796
1000.355	-1251
1000.431	-1861
1000.508	-2103
1000.584	-1657
1000.661	-986
1000.738	-2573
1000.814	-2270
1000.890	-1596
1000.967	-1662
1001.043	-1788
1001.120	-2859
1001.196	-1849
1001.272	-2528
1001.349	-1615
1001.425	-1360
1001.501	-1697
1001.577	-2143
1001.654	-1177
1001.730	-1800
1001.806	-1536
1001.882	-2822
1001.958	-1953
1002.034	-1120
1002.110	-1462
1002.186	-2115
1002.262	-2845
1002.338	-1849
1002.414	-1033
1002.490	-1737
1002.566	-2149
1002.642	-1769
1002.718	-655
1002.794	-1561
1002.870	-2604
1002.945	-2756
1003.021	-1355
1003.097	-1427
1003.173	-1668
1003.248	-1742
1003.324	-1850
1003.400	-1443
1003.475	-2172
1003.551	-2161
1003.626	-2540
1003.702	-1854
1003.777	-1601
1003.853	-1658
1003.928	-1746
1004.004	-1517
1004.079	-1575
1004.155	-1930
1004.230	-2325
1004.305	-736
1004.381	-2223
1004.456	-2028
1004.531	-2016
1004.607	-1611
1004.682	-2261
1004.757	-1717
1004.832	-1699
1004.907	-1961
1004.982	-1906
1005.057	-2349
1005.133	-2197
1005.208	-2477
1005.283	-2252
1005.358	-1338
1005.433	-2677
1005.508	-692
1005.583	-2467
1005.657	-1490
1005.732	-1706
1005.807	-2194
1005.882	-1887
1005.957	-2045
1006.032	-1354
1006.106	-1397
1006.181	-2235
1006.256	-1700
1006.331	-2282
1006.405	-1517
1006.480	-1997
1006.554	-1462
1006.629	-2078
1006.704	-1676
1006.778	-2159
1006.853	-1695
1006.927	-2390
1007.002	-1989
1007.076	-1799
1007.150	-1992
1007.225	-2484
1007.299	-1341
1007.373	-2341
1007.448	-1901
1007.522	-1806
1007.596	-1959
1007.671	-2685
1007.745	-1180
1007.819	-2873
1007.893	-2372
1007.967	-1372
1008.041	-2062
1008.115	-1650
1008.190	-2126
1008.264	-1184
1008.338	-2823
1008.412	-2370
1008.486	-1879
1008.560	-1743
1008.633	-2358
1008.707	-2231
1008.781	-1364
1008.855	-1628
1008.929	-2210
1009.003	-3248
1009.076	-2141
1009.150	-1430
1009.224	-2162
1009.298	-1335
1009.371	-2104
1009.445	-1693
1009.519	-1759
1009.592	-2865
1009.666	-1623
1009.739	-1507
1009.813	-2198
1009.886	-1307
1009.960	-2447
1010.033	-1887
1010.107	-1363
1010.180	-2007
1010.253	-1634
1010.327	-1421
1010.400	-1411
1010.473	-2211
1010.547	-773
1010.620	-2273
1010.693	-905
1010.766	-2313
1010.840	-1468
1010.913	-2019
1010.986	-1378
1011.059	-1562
1011.132	-810
1011.205	-258
1011.278	-814
1011.351	-1523
1011.424	-977
1011.497	-2147
1011.570	-1074
1011.643	-1794
1011.716	-2466
1011.789	-1563
1011.862	-415
1011.934	-1461
1012.007	-2144
1012.080	-2222
1012.153	-1760
1012.225	-1653
1012.298	-1980
1012.371	-2441
1012.443	-1675
1012.516	-2715
1012.588	-2095
1012.661	-1219
1012.733	-1839
1012.806	-709
1012.879	-2364
1012.951	-1302
1013.023	-2583
1013.096	-1214
1013.168	-2581
1013.241	-1428
1013.313	-2195
1013.385	-2720
1013.458	-1303
1013.530	-1350
1013.602	-2783
1013.674	-1616
1013.746	-1677
1013.819	-2316
1013.891	-1380
1013.963	-2822
1014.035	-1320
1014.107	-1550
1014.179	-922
1014.251	-2591
1014.323	-1712
1014.395	-1787
1014.467	-1213
1014.539	-1400
1014.611	-1138
1014.683	-1979
1014.754	-2379
1014.826	-2260
1014.898	-1213
1014.970	-2488
1015.042	-705
1015.113	-2116
1015.185	-1917
1015.257	-2380
1015.328	-1407
1015.400	-2092
1015.471	-2052
1015.543	-2012
1015.615	-1760
1015.686	-2095
1015.757	-1658
1015.829	-1916
1015.901	-1198
1015.972	-1840
1016.043	-1608
1016.115	-1753
1016.186	-1281
1016.257	-2127
1016.328	-1099
1016.400	-1219
1016.471	-1996
1016.542	-2382
1016.613	-1753
1016.685	-1644
1016.756	-1889
1016.827	-2220
1016.898	-2271
1016.969	-2172
1017.040	-1912
1017.111	-2050
1017.182	-1318
1017.253	-1666
1017.324	-2202
1017.395	-2289
1017.466	-1817
1017.537	-2081
1017.608	-1814
1017.678	-2140
1017.749	-2399
1017.820	-2622
1017.891	-2280
1017.961	-2271
1018.032	-1477
1018.103	-1992
1018.173	-1932
1018.244	-2875
1018.315	-2165
1018.385	-1492
1018.456	-1783
1018.526	-1972
1018.597	-1854
1018.667	-1564
1018.738	-2378
1018.808	-2601
1018.878	-954
1018.949	-1608
1019.019	-1393
1019.089	-2034
1019.160	-1657
1019.230	-2454
1019.300	-1644
1019.371	-2571
1019.441	-1364
1019.511	-1983
1019.581	-2029
1019.651	-2469
1019.721	-1645
1019.791	-1641
1019.861	-2047
1019.931	-2265
1020.001	-2072
1020.071	-1996
1020.141	-2094
1020.211	-1854
1020.281	-1260
1020.351	-1684
1020.421	-976
1020.491	-1447
1020.560	-2388
1020.630	-2273
1020.700	-1357
1020.770	-2020
1020.839	-1604
1020.909	-1693
1020.979	-1848
1021.048	-1772
1021.118	-2304
1021.187	-1402
1021.257	-2038
1021.326	-2153
1021.396	-1154
1021.465	-1087
1021.535	-1887
1021.604	-2350
1021.674	-1181
1021.743	-1661
1021.812	-2548
1021.882	-2091
1021.951	-1758
1022.020	-2538
1022.089	-1540
1022.159	-2450
1022.228	-1818
1022.297	-2115
1022.366	-2049
1022.435	-2049
1022.504	-2060
1022.573	-2217
1022.642	-1781
1022.711	-2341
1022.781	-1524
1022.849	-1972
1022.918	-2084
1022.987	-1652
1023.056	-2106
1023.125	-2459
1023.194	-1646
1023.263	-1861
1023.331	-1890
1023.400	-2347
1023.469	-2459
1023.538	-1413
1023.606	-1441
1023.675	-1915
1023.744	-1850
1023.812	-2128
1023.881	-1311
1023.949	-1982
1024.018	-1939
1024.086	-2745
1024.155	-2200
1024.223	-2132
1024.292	-1847
1024.360	-1750
1024.429	-2033
1024.497	-2703
1024.565	-1984
1024.634	-1504
1024.702	-1750
1024.770	-2040
1024.838	-1859
1024.907	-2256
1024.975	-2566
1025.043	-1782
1025.111	-2074
1025.179	-1897
1025.247	-2249
1025.315	-2420
1025.383	-2400
1025.451	-2651
1025.519	-1859
1025.587	-1745
1025.655	-1608
1025.723	-2340
1025.791	-1566
1025.859	-2373
1025.927	-1397
1025.995	-2237
1026.062	-2222
1026.130	-2092
1026.198	-2471
1026.266	-2951
1026.333	-1847
1026.401	-1121
1026.469	-2144
1026.536	-2324
1026.604	-1668
1026.671	-1710
1026.739	-1529
1026.806	-2569
1026.874	-2575
1026.941	-1973
1027.009	-2189
1027.076	-2618
1027.144	-1617
1027.211	-3492
1027.278	-2531
1027.345	-2512
1027.413	-2221
1027.480	-2514
1027.547	-2057
1027.614	-2414
1027.682	-2106
1027.749	-2950
1027.816	-2221
1027.883	-2161
1027.950	-1811
1028.017	-2496
1028.084	-1897
1028.151	-2665
1028.218	-2189
1028.285	-1904
1028.352	-1889
1028.419	-2097
1028.486	-2032
1028.553	-1966
1028.619	-2718
1028.686	-2022
1028.753	-2343
1028.820	-3354
1028.886	-2649
1028.953	-2644
1029.020	-2165
1029.086	-2732
1029.153	-2502
1029.220	-2600
1029.286	-2389
1029.353	-1910
1029.419	-2253
1029.486	-1920
1029.552	-2362
1029.619	-2963
1029.685	-1841
1029.751	-1460
1029.818	-1700
1029.884	-2379
1029.951	-1054
1030.017	-2458
1030.083	-1889
1030.149	-2079
1030.216	-2369
1030.282	-1655
1030.348	-1739
1030.414	-2498
1030.480	-2603
1030.546	-3068
1030.612	-1586
1030.678	-2846
1030.744	-2611
1030.810	-2481
1030.876	-1811
1030.942	-3048
1031.008	-2022
1031.074	-3257
1031.140	-2415
1031.206	-2249
1031.272	-2173
1031.337	-2299
1031.403	-2580
1031.469	-2745
1031.534	-2704
1031.600	-2198
1031.666	-2977
1031.731	-3109
1031.797	-2114
1031.863	-2938
1031.928	-2850
1031.994	-2632
1032.059	-2480
1032.125	-2046
1032.190	-2627
1032.256	-2576
1032.321	-3251
1032.386	-3656
1032.452	-1433
1032.517	-2299
1032.582	-2085
1032.647	-1930
1032.713	-3206
1032.778	-1943
1032.843	-2627
1032.908	-3049
1032.974	-1293
1033.039	-2455
1033.104	-2118
1033.169	-2206
1033.234	-1886
1033.299	-1928
1033.364	-1025
1033.429	-1301
1033.494	-1612
1033.559	-3173
1033.624	-1897
1033.688	-2691
1033.753	-2867
1033.818	-2084
1033.883	-2853
1033.948	-2903
1034.013	-1793
1034.077	-2400
1034.142	-1229
1034.207	-2413
1034.271	-857
1034.336	-1464
1034.400	-1726
1034.465	-1197
1034.530	-445
1034.594	-1838
1034.658	-1831
1034.723	-3323
1034.787	-3089
1034.852	-2406
1034.916	-2956
1034.981	-2499
1035.045	-2140
1035.109	-2768
1035.173	-2150
1035.238	-2722
1035.302	-2356
1035.366	-2713
1035.430	-1943
1035.495	-2964
1035.559	-1778
1035.623	-2565
1035.687	-2589
1035.751	-2830
1035.815	-1931
1035.879	-2191
1035.943	-1523
1036.007	-2655
1036.071	-1836
1036.135	-2803
1036.198	-2495
1036.262	-2918
1036.326	-1731
1036.390	-2125
1036.454	-1602
1036.517	-1723
1036.581	-721
1036.645	-1085
1036.709	-206
1036.772	-2844
1036.836	-1821
1036.900	-2829
1036.963	-2183
1037.026	-3311
1037.090	-2377
1037.154	-1911
1037.217	-2140
1037.280	-2945
1037.344	-1911
1037.407	-2825
1037.471	-1791
1037.534	-2735
1037.597	-1538
1037.661	-2085
1037.724	-2254
1037.787	-2929
1037.850	-2016
1037.913	-2773
1037.977	-1778
1038.040	-2324
1038.103	-2493
1038.166	-2296
1038.229	-1852
1038.292	-1744
1038.355	-2395
1038.418	-1815
1038.481	-1790
1038.544	-1967
1038.607	-1937
1038.670	-2199
1038.732	-2332
1038.795	-3172
1038.858	-2080
1038.921	-2159
1038.984	-1943
1039.046	-2787
1039.109	-2471
1039.172	-2436
1039.234	-2029
1039.297	-2294
1039.360	-2681
1039.422	-2679
1039.485	-2410
1039.547	-2863
1039.610	-1238
1039.672	-2278
1039.734	-2193
1039.797	-2784
1039.859	-2900
1039.922	-3005
1039.984	-1854
1040.046	-2330
1040.109	-2491
1040.171	-2724
1040.233	-1841
1040.295	-2592
1040.358	-3005
1040.420	-2886
1040.482	-1792
1040.544	-2476
1040.606	-2238
1040.668	-2426
1040.730	-2841
1040.792	-2489
1040.854	-2080
1040.916	-2115
1040.978	-3125
1041.040	-2167
1041.102	-1990
1041.164	-1945
1041.225	-2514
1041.287	-2247
1041.349	-2172
1041.411	-2457
1041.472	-1934
1041.534	-2565
1041.596	-2181
1041.657	-2136
1041.719	-1733
1041.781	-2212
1041.842	-1656
1041.904	-2256
1041.965	-1556
1042.027	-1915
1042.088	-1113
1042.150	-2478
1042.211	-2004
1042.272	-1509
1042.334	-1278
1042.395	-2194
1042.456	-2025
1042.518	-1935
1042.579	-2153
1042.640	-2320
1042.701	-1735
1042.763	-1986
1042.824	-2367
1042.885	-2586
1042.946	-1888
1043.007	-1913
1043.068	-2184
1043.129	-2802
1043.190	-1810
1043.251	-974
1043.312	-2060
1043.373	-2508
1043.434	-1861
1043.495	-1691
1043.556	-1471
1043.616	-1561
1043.677	-2298
1043.738	-2075
1043.799	-1722
1043.859	-2620
1043.920	-2027
1043.981	-2842
1044.041	-2162
1044.102	-2548
1044.162	-1379
1044.223	-1948
1044.284	-2446
1044.344	-2083
1044.405	-2282
1044.465	-1955
1044.525	-1837
1044.586	-2015
1044.646	-1626
1044.707	-2073
1044.767	-2415
1044.827	-2140
1044.887	-1343
1044.948	-889
1045.008	-1441
1045.068	-2631
1045.128	-1403
1045.188	-2383
1045.249	-688
1045.309	-2083
1045.369	-1748
1045.429	-1232
1045.489	-1065
1045.549	-1721
1045.609	-2086
1045.669	-2129
1045.729	-1868
1045.789	-2044
1045.848	-1722
1045.908	-2368
1045.968	-1193
1046.028	-1555
1046.088	-1584
1046.147	-1855
1046.207	-1548
1046.267	-1911
1046.326	-1759
1046.386	-1549
1046.446	-1524
1046.505	-537
1046.565	-673
1046.624	-979
1046.684	-325
1046.743	-823
1046.803	-260
1046.862	-968
1046.922	0
