'Start Wavelength	183.907
'End Wavelength	1046.922
'Gate Delay	5.000
'Gate Width (ms)	1.050
'Laser Output Level	0.000
'X Position	0.000
'Y Position	0.000
'Z Position	0.000
'Grid Point Number	1.000
'Shot Number	100.000
183.907	311.000
183.977	234.000
184.047	172
184.116	421
184.186	-617
184.256	369
184.325	96
184.395	-680
184.465	732
184.534	-649
184.604	-836
184.674	81
184.743	-69
184.813	-203
184.883	-61
184.952	-376
185.022	-126
185.092	32
185.161	-232
185.231	-662
185.301	-1111
185.370	125
185.440	250
185.509	-239
185.579	-542
185.649	48
185.718	658
185.788	487
185.857	-284
185.927	-183
185.996	42
186.066	-263
186.136	95
186.205	39
186.275	217
186.344	617
186.414	-557
186.483	-919
186.553	254
186.622	439
186.692	-195
186.761	6
186.831	-264
186.900	-153
186.970	-171
187.039	894
187.109	130
187.178	218
187.248	480
187.317	239
187.387	669
187.456	481
187.526	650
187.595	847
187.664	493
187.734	657
187.803	-67
187.873	296
187.942	-419
188.012	168
188.081	-234
188.150	-550
188.220	-35
188.289	1120
188.358	-320
188.428	474
188.497	-350
188.567	702
188.636	-438
188.705	225
188.775	-31
188.844	-305
188.913	286
188.983	189
189.052	528
189.121	-362
189.191	-449
189.260	327
189.329	3
189.399	685
189.468	105
189.537	-1145
189.606	277
189.676	-845
189.745	640
189.814	1010
189.883	-261
189.953	381
190.022	317
190.091	170
190.161	-109
190.230	-393
190.299	8
190.368	-5
190.437	30
190.507	-502
190.576	148
190.645	-604
190.714	-305
190.783	-183
190.853	156
190.922	-26
190.991	-639
191.060	294
191.129	-557
191.198	-84
191.268	-150
191.337	-327
191.406	-133
191.475	819
191.544	-534
191.613	949
191.682	553
191.752	274
191.821	-513
191.890	-488
191.959	-318
192.028	344
192.097	14
192.166	924
192.235	-682
192.304	833
192.373	-91
192.442	255
192.511	-105
192.580	102
192.650	-352
192.719	-419
192.788	193
192.857	134
192.926	64
192.995	-313
193.064	-578
193.133	-636
193.202	-759
193.271	-538
193.340	-29
193.409	421
193.478	-309
193.547	-41
193.615	-673
193.684	-378
193.753	857
193.822	319
193.891	-22
193.960	123
194.029	-177
194.098	-155
194.167	-472
194.236	52
194.305	-192
194.374	304
194.443	-332
194.512	-68
194.580	-335
194.649	296
194.718	-349
194.787	-2
194.856	-542
194.925	-596
194.994	-944
195.062	-86
195.131	509
195.200	17
195.269	-273
195.338	498
195.407	247
195.475	182
195.544	-287
195.613	171
195.682	-298
195.751	-441
195.819	-1566
195.888	552
195.957	-143
196.026	392
196.094	-2
196.163	-396
196.232	202
196.301	-97
196.369	-251
196.438	-11
196.507	-437
196.576	876
196.644	-1202
196.713	401
196.782	-294
196.850	257
196.919	-591
196.988	771
197.056	-618
197.125	-490
197.194	-67
197.262	-208
197.331	-270
197.400	154
197.468	67
197.537	-338
197.606	-111
197.674	-673
197.743	-413
197.812	-57
197.880	92
197.949	-97
198.017	-561
198.086	-481
198.155	-82
198.223	220
198.292	5
198.360	-459
198.429	-197
198.497	65
198.566	-48
198.635	-185
198.703	455
198.772	118
198.840	-109
198.909	-669
198.977	-366
199.046	334
199.114	238
199.183	-852
199.251	-652
199.320	-620
199.388	-488
199.457	-160
199.525	-641
199.594	-617
199.662	100
199.731	-123
199.799	-793
199.867	199
199.936	-372
200.004	-144
200.073	320
200.141	-104
200.210	-245
200.278	-666
200.346	37
200.415	160
200.483	-281
200.552	91
200.620	24
200.688	308
200.757	843
200.825	-26
200.893	-617
200.962	-182
201.030	-660
201.098	-169
201.167	-235
201.235	-502
201.303	-945
201.372	-43
201.440	-46
201.508	-579
201.577	276
201.645	-700
201.713	-542
201.781	-376
201.850	-534
201.918	317
201.986	-338
202.055	-144
202.123	-431
202.191	-183
202.259	-667
202.327	-112
202.396	-494
202.464	-599
202.532	-1197
202.600	92
202.669	-158
202.737	-1166
202.805	-109
202.873	-452
202.941	749
203.009	-734
203.078	-52
203.146	324
203.214	-94
203.282	-1014
203.350	9
203.418	-641
203.487	483
203.555	494
203.623	-355
203.691	-47
203.759	-68
203.827	203
203.895	-288
203.963	-488
204.031	-458
204.099	-698
204.168	-116
204.236	-243
204.304	-560
204.372	-110
204.440	-26
204.508	-349
204.576	-257
204.644	401
204.712	-929
204.780	-198
204.848	-254
204.916	-499
204.984	-1082
205.052	-131
205.120	-491
205.188	-272
205.256	451
205.324	-634
205.392	-908
205.460	100
205.528	-236
205.596	-580
205.664	-609
205.732	-515
205.799	-645
205.867	-112
205.935	-1272
206.003	-97
206.071	-186
206.139	-647
206.207	69
206.275	219
206.343	-864
206.411	-238
206.478	197
206.546	-331
206.614	-283
206.682	200
206.750	-99
206.818	33
206.885	155
206.953	-883
207.021	617
207.089	636
207.157	-1280
207.225	-9
207.292	-878
207.360	-1095
207.428	-904
207.496	-262
207.563	-313
207.631	-299
207.699	-959
207.767	-883
207.834	-688
207.902	-605
207.970	63
208.038	-1163
208.105	-396
208.173	-205
208.241	-833
208.309	-218
208.376	-900
208.444	98
208.512	-55
208.579	-661
208.647	-414
208.715	-350
208.782	-715
208.850	-861
208.918	-972
208.985	-310
209.053	639
209.120	-15
209.188	-840
209.256	-782
209.323	-1058
209.391	-572
209.459	599
209.526	-371
209.594	-640
209.661	-682
209.729	-95
209.796	270
209.864	274
209.932	-1363
209.999	436
210.067	289
210.134	-221
210.202	-881
210.269	159
210.337	183
210.404	-83
210.472	-797
210.539	-55
210.607	-351
210.674	-237
210.742	105
210.809	-770
210.877	404
210.944	-124
211.012	-517
211.079	625
211.146	-909
211.214	-483
211.281	368
211.349	703
211.416	-352
211.484	-285
211.551	-877
211.618	-131
211.686	65
211.753	-759
211.821	-110
211.888	-1229
211.955	-202
212.023	-327
212.090	-142
212.157	-297
212.225	-804
212.292	28
212.359	-607
212.427	-454
212.494	-589
212.561	-420
212.629	-1161
212.696	-427
212.763	-11
212.831	-1065
212.898	145
212.965	-762
213.032	-256
213.100	-418
213.167	-1448
213.234	109
213.301	203
213.369	-661
213.436	-5
213.503	-310
213.570	73
213.638	-1006
213.705	-885
213.772	-1443
213.839	-392
213.906	-59
213.973	-441
214.041	-1030
214.108	389
214.175	-1173
214.242	-315
214.309	-791
214.376	-836
214.444	-710
214.511	-67
214.578	-1036
214.645	-550
214.712	22
214.779	-749
214.846	-1112
214.913	-134
214.980	-208
215.048	1008
215.115	988
215.182	-363
215.249	101
215.316	82
215.383	531
215.450	-606
215.517	-973
215.584	-440
215.651	-749
215.718	-983
215.785	-369
215.852	-863
215.919	-942
215.986	100
216.053	-285
216.120	-1046
216.187	-72
216.254	187
216.321	-907
216.388	-870
216.455	-1114
216.522	-230
216.589	-1351
216.656	-653
216.722	-624
216.789	-642
216.856	-807
216.923	-831
216.990	-796
217.057	-777
217.124	-918
217.191	-724
217.258	-1340
217.324	-904
217.391	-1004
217.458	-663
217.525	-809
217.592	-320
217.659	-873
217.725	82
217.792	-518
217.859	140
217.926	-880
217.993	-237
218.059	-1038
218.126	-203
218.193	-747
218.260	-377
218.327	-429
218.393	-123
218.460	-1025
218.527	-974
218.594	-700
218.660	-638
218.727	-346
218.794	-1350
218.860	-103
218.927	-573
218.994	-1530
219.061	-594
219.127	-469
219.194	-533
219.261	-337
219.327	-201
219.394	-165
219.461	-795
219.527	-631
219.594	-383
219.661	-415
219.727	-669
219.794	-247
219.860	-416
219.927	183
219.994	1057
220.060	1326
220.127	2305
220.193	1541
220.260	-268
220.326	-228
220.393	-71
220.460	-659
220.526	-997
220.593	-813
220.659	609
220.726	-1244
220.792	-1356
220.859	-1095
220.925	-694
220.992	-1457
221.058	-378
221.125	-277
221.191	-984
221.258	-1067
221.324	1291
221.391	-693
221.457	-1138
221.524	-241
221.590	-12
221.657	-431
221.723	-1436
221.789	-1154
221.856	-308
221.922	-1188
221.989	295
222.055	-667
222.121	-1082
222.188	800
222.254	-427
222.321	-605
222.387	-652
222.453	-538
222.520	-697
222.586	-1554
222.652	-389
222.719	-1274
222.785	-266
222.851	-500
222.918	-413
222.984	-719
223.050	-465
223.116	-2110
223.183	-17
223.249	-945
223.315	-329
223.382	-1163
223.448	-491
223.514	-1066
223.580	-758
223.647	-608
223.713	-880
223.779	-616
223.845	-726
223.911	-152
223.978	-1332
224.044	-461
224.110	-785
224.176	-546
224.242	138
224.309	-1732
224.375	-773
224.441	-466
224.507	-1477
224.573	-1664
224.639	330
224.705	-729
224.772	-743
224.838	-703
224.904	-604
224.970	-1110
225.036	-919
225.102	-1010
225.168	256
225.234	-265
225.300	-416
225.366	-853
225.432	8
225.499	-1226
225.565	-449
225.631	-1587
225.697	-629
225.763	-374
225.829	-1031
225.895	-337
225.961	-531
226.027	-498
226.093	-852
226.159	-309
226.225	369
226.291	-452
226.357	-899
226.423	-930
226.489	-40
226.554	-7
226.620	-578
226.686	-389
226.752	-1252
226.818	-1094
226.884	-1123
226.950	93
227.016	-564
227.082	-160
227.148	-1337
227.214	254
227.279	-174
227.345	-771
227.411	699
227.477	1032
227.543	2843
227.609	3479
227.674	3289
227.740	1181
227.806	62
227.872	-62
227.938	538
228.003	-129
228.069	-1132
228.135	-656
228.201	503
228.267	-627
228.332	-940
228.398	-1942
228.464	-730
228.530	-548
228.595	-386
228.661	-1287
228.727	-1338
228.792	-39
228.858	-1539
228.924	-2359
228.990	858
229.055	-2175
229.121	-531
229.187	-287
229.252	-1239
229.318	-932
229.384	-481
229.449	-1064
229.515	-2306
229.581	-1793
229.646	606
229.712	-1012
229.777	-1254
229.843	-1228
229.909	-409
229.974	-341
230.040	-576
230.105	-648
230.171	-646
230.236	-628
230.302	-520
230.368	-1192
230.433	-807
230.499	-915
230.564	-352
230.630	-992
230.695	-492
230.761	-306
230.826	-2188
230.892	-1010
230.957	-1636
231.023	-1339
231.088	-926
231.154	-731
231.219	-85
231.284	-1105
231.350	-693
231.415	-1782
231.481	-1012
231.546	-1362
231.612	211
231.677	-1135
231.742	-1862
231.808	101
231.873	-2293
231.939	-2684
232.004	-694
232.069	-1054
232.135	-1085
232.200	-875
232.265	-290
232.331	-727
232.396	-914
232.461	-1424
232.527	-1946
232.592	-1054
232.657	-970
232.723	-746
232.788	-950
232.853	-292
232.918	-1169
232.984	-1128
233.049	-857
233.114	-1740
233.179	-360
233.245	-347
233.310	-566
233.375	-2043
233.440	-201
233.506	-584
233.571	-1145
233.636	-616
233.701	-732
233.766	-1569
233.832	-243
233.897	-1337
233.962	-2401
234.027	-53
234.092	-942
234.157	-723
234.222	-938
234.288	-1575
234.353	-1879
234.418	-203
234.483	-215
234.548	-666
234.613	-432
234.678	-769
234.743	-1364
234.808	338
234.873	-1666
234.938	155
235.004	-492
235.069	-744
235.134	-628
235.199	-975
235.264	-659
235.329	-2372
235.394	-548
235.459	-577
235.524	-1755
235.589	-697
235.654	-853
235.719	-2262
235.784	36
235.849	-1522
235.913	-714
235.978	-766
236.043	-1295
236.108	-1783
236.173	-864
236.238	-737
236.303	-947
236.368	-1392
236.433	-748
236.498	-2113
236.563	-201
236.627	-1008
236.692	-847
236.757	-959
236.822	-1693
236.887	-2387
236.952	-715
237.017	-2184
237.081	-518
237.146	-1400
237.211	-1705
237.276	-1444
237.341	-234
237.405	-1605
237.470	-1487
237.535	-664
237.600	-1158
237.664	-379
237.729	-1796
237.794	-1149
237.859	-145
237.923	-425
237.988	-523
238.053	-623
238.118	-890
238.182	-457
238.247	-79
238.312	-1039
238.376	112
238.441	-3098
238.506	-109
238.570	-1308
238.635	-69
238.700	-759
238.764	-1028
238.829	-1827
238.893	-1553
238.958	-993
239.023	-1563
239.087	-683
239.152	188
239.216	-802
239.281	-472
239.346	-684
239.410	-1304
239.475	-807
239.539	-543
239.604	-1167
239.668	852
239.733	1316
239.797	4465
239.862	6798
239.926	5746
239.991	3409
240.055	777
240.120	-751
240.184	40
240.249	-401
240.313	-478
240.378	-1006
240.442	-968
240.507	-849
240.571	-1149
240.635	-1330
240.700	-1035
240.764	-1085
240.829	-804
240.893	-1834
240.957	-965
241.022	-426
241.086	-375
241.151	-1952
241.215	-1796
241.279	-167
241.344	-1288
241.408	-727
241.472	-1007
241.537	-410
241.601	-673
241.665	-1979
241.730	-1695
241.794	-13
241.858	-1513
241.922	-1500
241.987	119
242.051	-1299
242.115	-1794
242.179	-743
242.244	-1292
242.308	-796
242.372	-1032
242.436	-1433
242.501	-663
242.565	-2160
242.629	-1374
242.693	-393
242.757	-968
242.822	-738
242.886	-512
242.950	-471
243.014	-1888
243.078	-1137
243.142	-641
243.206	-1953
243.271	-232
243.335	-1446
243.399	90
243.463	-1149
243.527	-1134
243.591	-1071
243.655	-757
243.719	-1753
243.783	-631
243.847	-1214
243.911	-1197
243.975	-1595
244.040	-2357
244.104	545
244.168	-1022
244.232	-1737
244.296	-1233
244.360	-462
244.424	-1462
244.488	-264
244.552	-896
244.615	-2338
244.679	-449
244.743	-1126
244.807	-2011
244.871	-1414
244.935	2
244.999	-2174
245.063	-802
245.127	28
245.191	-1014
245.255	-1862
245.319	-938
245.383	-2873
245.446	-225
245.510	-2355
245.574	-825
245.638	-505
245.702	-2192
245.766	-811
245.829	-457
245.893	-1176
245.957	-1648
246.021	-293
246.085	-1245
246.149	-1651
246.212	-297
246.276	-1396
246.340	-1912
246.404	-892
246.467	-1102
246.531	-3095
246.595	858
246.659	-21
246.722	-1746
246.786	-264
246.850	-1137
246.913	-1276
246.977	-2536
247.041	-897
247.104	-1215
247.168	-1325
247.232	-904
247.295	-771
247.359	-1187
247.423	-1395
247.486	-679
247.550	-360
247.614	-1152
247.677	-508
247.741	-499
247.804	-274
247.868	-388
247.932	-1386
247.995	614
248.059	-1096
248.122	-1925
248.186	241
248.249	-1286
248.313	289
248.376	478
248.440	-1275
248.503	-2359
248.567	24
248.630	-1699
248.694	-305
248.757	-556
248.821	204
248.884	592
248.948	-1490
249.011	-109
249.075	-42
249.138	803
249.202	-633
249.265	-1830
249.328	-1314
249.392	-1076
249.455	69
249.519	-709
249.582	-1186
249.645	-776
249.709	-1057
249.772	-1973
249.835	-968
249.899	-1434
249.962	-337
250.025	-1076
250.089	-1435
250.152	136
250.215	-1336
250.279	-1365
250.342	-315
250.405	-989
250.468	-1933
250.532	-1245
250.595	-699
250.658	-1454
250.721	-318
250.785	-1503
250.848	90
250.911	-1951
250.974	-671
251.038	-2067
251.101	-649
251.164	-1355
251.227	-813
251.290	-755
251.354	-567
251.417	-1386
251.480	-784
251.543	-737
251.606	-839
251.669	-636
251.732	-776
251.795	-917
251.859	-593
251.922	-1360
251.985	-999
252.048	133
252.111	-1624
252.174	-1488
252.237	-347
252.300	573
252.363	-1205
252.426	739
252.489	-1469
252.552	-686
252.615	-2377
252.678	-204
252.741	-265
252.804	-743
252.867	-538
252.930	-138
252.993	-878
253.056	-538
253.119	-1384
253.182	-1126
253.245	-1560
253.308	-822
253.371	-1927
253.434	-1572
253.497	-313
253.559	-245
253.622	-943
253.685	-713
253.748	-1324
253.811	-1592
253.874	-681
253.937	-1963
254.000	-1405
254.062	-377
254.125	24
254.188	-488
254.251	-1161
254.314	-695
254.376	-1654
254.439	-720
254.502	-219
254.565	-1700
254.628	-7
254.690	-1242
254.753	-1604
254.816	-1716
254.878	-1432
254.941	-88
255.004	-56
255.067	-466
255.129	-1544
255.192	-949
255.255	-2049
255.317	-1067
255.380	-630
255.443	-1266
255.505	-1386
255.568	-1599
255.631	-1089
255.693	-1027
255.756	-1485
255.819	-677
255.881	-1113
255.944	-588
256.006	-1304
256.069	-1809
256.132	-1427
256.194	-857
256.257	-1719
256.319	-614
256.382	-619
256.444	1368
256.507	21
256.569	-287
256.632	-1520
256.694	-2093
256.757	-326
256.819	-421
256.882	-2122
256.944	-1929
257.007	-972
257.069	-1593
257.132	-1401
257.194	-654
257.257	-1367
257.319	-1443
257.381	-2046
257.444	376
257.506	-1544
257.569	-755
257.631	-95
257.693	-731
257.756	-1713
257.818	-1461
257.880	-1172
257.943	32
258.005	-1641
258.067	-962
258.130	-556
258.192	-1471
258.254	-738
258.317	-1015
258.379	-964
258.441	-475
258.503	-439
258.566	-1646
258.628	-375
258.690	-1938
258.753	-17
258.815	-1791
258.877	-1050
258.939	-315
259.001	-518
259.064	-879
259.126	-1187
259.188	-710
259.250	-330
259.312	-1393
259.375	-889
259.437	-952
259.499	-605
259.561	-964
259.623	-59
259.685	-1233
259.747	-1190
259.809	-707
259.872	-603
259.934	-386
259.996	-579
260.058	-1043
260.120	-2178
260.182	216
260.244	-1335
260.306	-824
260.368	-644
260.430	-1523
260.492	-423
260.554	-344
260.616	-1186
260.678	-442
260.740	-616
260.802	-1168
260.864	-171
260.926	-1323
260.988	-204
261.050	-546
261.112	-1535
261.174	134
261.236	-743
261.298	-530
261.359	-13
261.421	-162
261.483	-1369
261.545	271
261.607	-2587
261.669	-676
261.731	-773
261.793	-60
261.854	-2030
261.916	-464
261.978	-1484
262.040	-853
262.102	-313
262.164	-800
262.225	-1402
262.287	15
262.349	-641
262.411	-687
262.472	27
262.534	-840
262.596	-1078
262.658	-271
262.719	-1852
262.781	-563
262.843	-800
262.904	-88
262.966	-522
263.028	-655
263.090	-733
263.151	-745
263.213	-463
263.275	-301
263.336	-1133
263.398	423
263.459	-1202
263.521	-448
263.583	-376
263.644	62
263.706	-586
263.767	-447
263.829	-285
263.891	-859
263.952	-946
264.014	-778
264.075	-921
264.137	-1385
264.198	-1014
264.260	-1010
264.321	-956
264.383	-759
264.444	-82
264.506	-1233
264.567	-431
264.629	-374
264.690	-2359
264.752	-630
264.813	-978
264.875	-1837
264.936	-702
264.998	-828
265.059	-1569
265.120	-45
265.182	-1214
265.243	-1273
265.305	-1110
265.366	-163
265.427	-1037
265.489	-47
265.550	-1865
265.611	-401
265.673	-890
265.734	-281
265.795	-577
265.857	-913
265.918	-1977
265.979	-230
266.040	-963
266.102	-909
266.163	-671
266.224	-730
266.286	-1129
266.347	-1930
266.408	-733
266.469	-1149
266.530	-1105
266.592	-846
266.653	-894
266.714	-691
266.775	-493
266.836	-581
266.898	-1747
266.959	-604
267.020	-1402
267.081	-652
267.142	-1163
267.203	-1189
267.264	-1099
267.326	-609
267.387	-947
267.448	-1654
267.509	-870
267.570	-505
267.631	-747
267.692	-1799
267.753	-412
267.814	-518
267.875	-1578
267.936	-809
267.997	-1932
268.058	-906
268.119	-942
268.180	-585
268.241	-1797
268.302	-911
268.363	-1884
268.424	-1109
268.485	-998
268.546	-751
268.607	-1898
268.668	-1160
268.729	-643
268.790	-1009
268.851	-392
268.912	-854
268.972	-246
269.033	-809
269.094	-1222
269.155	-299
269.216	-658
269.277	-875
269.338	-1073
269.398	-402
269.459	-736
269.520	-415
269.581	-1284
269.642	-1027
269.702	-1638
269.763	-1124
269.824	-734
269.885	-859
269.945	-502
270.006	-678
270.067	-1489
270.128	-615
270.188	-1309
270.249	-1041
270.310	-726
270.370	-901
270.431	-1401
270.492	-1235
270.553	-1092
270.613	-1491
270.674	-1089
270.734	-1310
270.795	-1048
270.856	-770
270.916	-1493
270.977	-895
271.038	-314
271.098	-308
271.159	-1324
271.219	-399
271.280	-1245
271.340	-468
271.401	-1223
271.462	-847
271.522	-538
271.583	-1124
271.643	-684
271.704	-706
271.764	-847
271.825	-453
271.885	292
271.946	2350
272.006	-43
272.066	366
272.127	2060
272.187	5213
272.248	1918
272.308	247
272.369	471
272.429	421
272.489	-166
272.550	-293
272.610	-96
272.671	-802
272.731	-501
272.791	-1552
272.852	-1259
272.912	-345
272.972	-1078
273.033	-650
273.093	-1358
273.153	-427
273.214	-973
273.274	-333
273.334	-1477
273.394	108
273.455	-727
273.515	-688
273.575	-945
273.635	-81
273.696	-293
273.756	323
273.816	78
273.876	-452
273.936	-366
273.997	96
274.057	-803
274.117	-948
274.177	-734
274.237	98
274.297	871
274.358	-511
274.418	234
274.478	-155
274.538	-786
274.598	-575
274.658	-525
274.718	429
274.778	109
274.838	-293
274.898	-1260
274.958	-24
275.018	1104
275.078	702
275.138	-362
275.198	-935
275.258	-560
275.318	496
275.378	-784
275.438	-754
275.498	651
275.558	-351
275.618	-860
275.678	211
275.738	591
275.798	-82
275.858	-952
275.918	-419
275.978	-995
276.038	-503
276.098	-315
276.157	-822
276.217	42
276.277	57
276.337	-1120
276.397	-438
276.457	-307
276.517	-197
276.576	-739
276.636	-1022
276.696	-814
276.756	-96
276.815	-212
276.875	-583
276.935	-591
276.995	-386
277.055	-261
277.114	112
277.174	-298
277.234	-118
277.293	-1064
277.353	-771
277.413	-737
277.472	-427
277.532	-1022
277.592	-856
277.651	197
277.711	1212
277.771	-13
277.830	2085
277.890	1742
277.950	215
278.009	5140
278.069	2143
278.128	1363
278.188	2905
278.248	626
278.307	2328
278.367	1655
278.426	-483
278.486	-843
278.545	-593
278.605	-507
278.664	-777
278.724	-274
278.783	429
278.843	682
278.902	-789
278.962	-863
279.021	-774
279.081	-362
279.140	-80
279.199	-381
279.259	-530
279.318	-142
279.378	-45
279.437	729
279.496	5405
279.556	15456
279.615	11179
279.675	2091
279.734	1123
279.793	412
279.853	5372
279.912	1967
279.971	498
280.031	106
280.090	2034
280.149	3974
280.208	1787
280.268	7581
280.327	9442
280.386	76
280.445	87
280.505	-730
280.564	-530
280.623	-1
280.682	-344
280.742	-154
280.801	401
280.860	-658
280.919	212
280.978	-15
281.037	-721
281.097	-340
281.156	173
281.215	-421
281.274	-572
281.333	-145
281.392	-563
281.451	-143
281.510	-227
281.569	-1038
281.628	-938
281.688	-574
281.747	484
281.806	-1205
281.865	-864
281.924	-715
281.983	290
282.042	251
282.101	132
282.160	-371
282.219	-1260
282.278	-175
282.337	-447
282.396	-117
282.454	-462
282.513	-545
282.572	1150
282.631	33
282.690	-884
282.749	-448
282.808	-282
282.867	-790
282.926	-829
282.985	432
283.043	-1204
283.102	-16
283.161	-382
283.220	-240
283.279	795
283.338	-958
283.396	-45
283.455	218
283.514	661
283.573	412
283.631	-30
283.690	-6
283.749	133
283.808	-531
283.866	-39
283.925	-622
283.984	293
284.043	-891
284.101	-39
284.160	-383
284.219	563
284.277	721
284.336	-204
284.395	520
284.453	1062
284.512	341
284.570	543
284.629	21
284.688	-147
284.746	706
284.805	611
284.863	398
284.922	350
284.981	1276
285.039	2479
285.098	4200
285.156	11529
285.215	31970
285.273	34116
285.332	16411
285.390	7239
285.449	3787
285.507	3018
285.566	1345
285.624	1163
285.683	768
285.741	1011
285.799	272
285.858	471
285.916	-324
285.975	146
286.033	-142
286.091	46
286.150	-696
286.208	-206
286.267	196
286.325	237
286.383	-505
286.442	33
286.500	-1186
286.558	354
286.616	215
286.675	-29
286.733	-366
286.791	129
286.850	-495
286.908	-44
286.966	107
287.024	-628
287.083	116
287.141	63
287.199	500
287.257	-70
287.315	140
287.374	-16
287.432	-223
287.490	336
287.548	-351
287.606	-227
287.664	-204
287.723	77
287.781	434
287.839	-209
287.897	-67
287.955	-21
288.013	357
288.071	734
288.129	627
288.187	1240
288.245	97
288.303	-809
288.361	-339
288.419	500
288.477	361
288.535	296
288.593	172
288.651	-76
288.709	-326
288.767	686
288.825	-870
288.883	84
288.941	-261
288.999	-546
289.057	-326
289.115	-147
289.173	-273
289.231	-47
289.289	-219
289.346	-59
289.404	395
289.462	693
289.520	-650
289.578	-130
289.636	398
289.694	191
289.751	173
289.809	745
289.867	5
289.925	641
289.983	581
290.040	398
290.098	-913
290.156	450
290.214	-878
290.271	-258
290.329	235
290.387	326
290.444	140
290.502	-677
290.560	-65
290.617	-332
290.675	-135
290.733	-420
290.790	1062
290.848	763
290.906	430
290.963	641
291.021	374
291.078	833
291.136	-219
291.194	446
291.251	7
291.309	177
291.366	-185
291.424	-689
291.481	51
291.539	-357
291.596	354
291.654	708
291.711	27
291.769	794
291.826	190
291.884	394
291.941	705
291.999	113
292.056	173
292.114	264
292.171	-143
292.228	1403
292.286	598
292.343	-271
292.401	131
292.458	598
292.515	21
292.573	710
292.630	382
292.687	474
292.745	-311
292.802	-268
292.859	706
292.917	447
292.974	-357
293.031	1734
293.089	-99
293.146	265
293.203	176
293.260	587
293.318	106
293.375	-369
293.432	201
293.489	180
293.546	439
293.604	102
293.661	81
293.718	1546
293.775	713
293.832	985
293.889	151
293.947	1323
294.004	-570
294.061	352
294.118	1051
294.175	324
294.232	778
294.289	214
294.346	-411
294.403	1088
294.460	561
294.517	-168
294.574	600
294.631	227
294.688	-103
294.745	582
294.802	1515
294.859	769
294.916	540
294.973	-213
295.030	-136
295.087	-622
295.144	-180
295.201	-136
295.258	346
295.315	251
295.372	373
295.429	558
295.486	771
295.542	-537
295.599	68
295.656	162
295.713	556
295.770	439
295.827	435
295.883	224
295.940	-746
295.997	-26
296.054	-141
296.111	266
296.167	319
296.224	-742
296.281	190
296.338	646
296.394	284
296.451	-360
296.508	957
296.564	21
296.621	1134
296.678	2306
296.734	3069
296.791	764
296.848	705
296.904	215
296.961	-10
297.018	993
297.074	116
297.131	-356
297.187	-422
297.244	273
297.301	978
297.357	3388
297.414	494
297.470	975
297.527	373
297.583	739
297.640	47
297.696	138
297.753	-110
297.809	41
297.866	-129
297.922	925
297.979	-183
298.035	-798
298.092	574
298.148	78
298.204	209
298.261	260
298.317	682
298.374	2060
298.430	1230
298.486	-411
298.543	-621
298.599	562
298.656	406
298.712	261
298.768	404
298.824	109
298.881	-119
298.937	-33
298.993	864
299.050	-478
299.106	192
299.162	-465
299.218	151
299.275	361
299.331	756
299.387	905
299.443	3466
299.500	11296
299.556	10979
299.612	3993
299.668	3183
299.724	9533
299.780	15030
299.837	5746
299.893	3872
299.949	7818
300.005	13233
300.061	9637
300.117	15591
300.173	7645
300.229	2770
300.285	1835
300.341	1638
300.397	687
300.453	514
300.510	1859
300.566	1582
300.622	5546
300.678	15936
300.734	22820
300.790	10219
300.845	6553
300.901	8538
300.957	14924
301.013	6280
301.069	3203
301.125	1776
301.181	1290
301.237	1302
301.293	161
301.349	1116
301.405	326
301.461	1370
301.516	266
301.572	944
301.628	69
301.684	-354
301.740	359
301.796	648
301.851	470
301.907	784
301.963	1038
302.019	2116
302.074	6255
302.130	7017
302.186	3069
302.242	1184
302.297	707
302.353	-235
302.409	110
302.464	-48
302.520	111
302.576	481
302.631	2248
302.687	-442
302.743	-486
302.798	707
302.854	21
302.910	285
302.965	-299
303.021	214
303.076	-150
303.132	748
303.187	218
303.243	-851
303.299	-31
303.354	-824
303.410	133
303.465	-252
303.521	-78
303.576	427
303.632	-150
303.687	104
303.743	1590
303.798	1542
303.853	212
303.909	362
303.964	657
304.020	-220
304.075	379
304.130	-308
304.186	-192
304.241	432
304.297	1187
304.352	-148
304.358	-122
304.407	88
304.449	406
304.463	516
304.518	-352
304.539	-249
304.573	-94
304.629	313
304.630	319
304.684	592
304.720	781
304.739	857
304.794	1615
304.811	1383
304.850	848
304.902	358
304.905	325
304.960	258
304.992	96
305.015	-23
305.071	-71
305.083	79
305.126	667
305.173	399
305.181	348
305.236	-850
305.264	-96
305.292	640
305.347	550
305.354	461
305.402	13
305.445	216
305.457	246
305.512	33
305.535	40
305.567	64
305.622	199
305.626	191
305.678	168
305.716	1084
305.733	1460
305.788	660
305.807	883
305.843	1302
305.897	1453
305.898	1455
305.953	2235
305.988	1456
306.008	942
306.063	518
306.078	404
306.118	322
306.168	114
306.173	90
306.228	50
306.259	117
306.283	150
306.338	-546
306.349	-412
306.393	101
306.440	-21
306.448	-18
306.503	1415
306.530	937
306.558	456
306.613	764
306.620	737
306.668	472
306.711	805
306.723	869
306.778	549
306.801	273
306.833	-69
306.888	226
306.892	199
306.943	105
306.982	334
306.997	409
307.052	362
307.072	453
307.107	500
307.162	588
307.163	583
307.217	552
307.253	655
307.272	601
307.327	338
307.343	305
307.381	375
307.434	385
307.436	393
307.491	236
307.524	649
307.546	776
307.600	217
307.614	164
307.655	269
307.704	354
307.710	348
307.765	-49
307.795	58
307.819	280
307.874	423
307.885	457
307.929	460
307.975	517
307.984	547
308.038	629
308.065	699
308.093	768
308.148	819
308.156	817
308.202	647
308.246	482
308.257	463
308.312	457
308.336	375
308.366	409
308.421	915
308.426	895
308.475	485
308.517	279
308.530	239
308.585	286
308.607	303
308.639	476
308.694	643
308.697	652
308.748	990
308.787	1053
308.803	914
308.857	378
308.877	285
308.912	417
308.967	684
308.967	682
309.021	1235
309.058	1306
309.076	1110
309.130	1234
309.148	995
309.185	949
309.238	1313
309.239	1333
309.293	2117
309.328	2309
309.348	2012
309.402	1575
309.418	1323
309.457	1310
309.508	1408
309.511	1422
309.566	1633
309.598	1750
309.620	1804
309.674	2326
309.688	2375
309.729	2511
309.778	2588
309.783	2579
309.837	2210
309.868	2117
309.892	1994
309.946	1241
309.959	1242
310.001	1517
310.049	1401
310.055	1406
310.109	1501
310.139	1534
310.163	1499
310.218	1502
310.229	1479
310.272	1456
310.319	1431
310.326	1398
310.381	1138
310.409	1026
310.435	1127
310.489	1129
310.499	1164
310.543	1379
310.589	1473
310.598	1479
310.652	1583
310.679	1603
310.706	1603
310.760	1473
310.769	1455
310.814	1422
310.859	1464
310.868	1478
310.923	1424
310.948	1443
310.977	1521
311.031	1527
311.038	1510
311.085	1332
311.128	1270
311.139	1294
311.193	1488
311.218	1486
311.247	1560
311.301	1727
311.308	1749
311.356	2074
311.398	2287
311.410	2283
311.464	2177
311.488	2180
311.518	1866
311.572	1174
311.578	1099
311.626	1234
311.668	1275
311.680	1310
311.734	1507
311.758	1547
311.788	1503
311.842	1501
311.847	1493
311.896	1765
311.937	2005
311.950	2020
312.004	2072
312.027	2086
312.058	2040
312.112	1948
312.117	1934
312.165	1767
312.207	1615
312.297	1370
312.386	2114
312.476	2459
312.566	2143
312.656	1587
312.745	2029
312.835	2105
312.925	2085
313.015	1796
313.104	2181
313.194	2622
313.284	3120
313.374	2815
313.463	2918
313.553	3132
313.643	2604
313.732	2410
313.822	3625
313.912	3799
314.001	3975
314.091	4388
314.180	3473
314.270	4418
314.360	3446
314.449	3518
314.539	4030
314.628	3533
314.718	4307
314.808	3966
314.897	4015
314.987	4391
315.076	4553
315.166	4535
315.255	4725
315.345	4750
315.434	4487
315.524	4160
315.613	4936
315.703	4688
315.792	10932
315.881	31925
315.971	11802
316.060	5835
316.150	5025
316.239	4447
316.328	4715
316.418	3979
316.507	4757
316.597	6007
316.686	5744
316.775	5482
316.865	4715
316.954	4250
317.043	4244
317.133	3068
317.222	2383
317.311	3379
317.400	2001
317.490	3391
317.579	3245
317.668	4217
317.757	6495
317.847	15599
317.936	48959
318.025	15799
318.114	12359
318.203	7421
318.293	5203
318.382	6960
318.471	7333
318.560	5800
318.649	5180
318.738	3993
318.828	3287
318.917	2632
319.006	2617
319.095	2887
319.184	2778
319.273	2517
319.362	2838
319.451	2846
319.540	2427
319.629	2964
319.718	3447
319.807	2462
319.896	2743
319.985	3660
320.074	3141
320.163	3886
320.252	2969
320.341	3947
320.430	3809
320.519	3899
320.608	4243
320.697	5300
320.786	5192
320.875	6928
320.964	6781
321.053	7212
321.142	7273
321.230	8590
321.319	9420
321.408	10288
321.497	10195
321.586	9610
321.675	7308
321.764	6637
321.852	7376
321.941	7727
322.030	7218
322.119	7941
322.207	10394
322.296	10838
322.385	12186
322.474	14438
322.562	14523
322.651	10513
322.740	9332
322.829	7769
322.917	6228
323.006	6464
323.095	5728
323.183	5155
323.272	4847
323.361	4683
323.449	4416
323.538	4454
323.626	4161
323.715	3724
323.804	3641
323.892	3667
323.981	4258
324.069	4415
324.158	3442
324.246	3518
324.335	3322
324.424	2980
324.512	3362
324.601	3937
324.689	2827
324.778	3374
324.866	3088
324.954	3188
325.043	3220
325.131	2779
325.220	3138
325.308	2469
325.397	2500
325.485	2433
325.574	2727
325.662	1970
325.750	2894
325.839	3094
325.927	2987
326.015	2772
326.104	2236
326.192	3114
326.280	2016
326.369	2484
326.457	2649
326.545	3481
326.634	2720
326.722	2842
326.810	3438
326.898	3873
326.987	3439
327.075	2127
327.163	3433
327.251	3059
327.340	2770
327.428	4789
327.516	5769
327.604	4402
327.692	4010
327.781	2755
327.869	2974
327.957	2306
328.045	2167
328.133	3097
328.221	2461
328.309	2446
328.397	2784
328.485	3161
328.574	4345
328.662	7107
328.750	4976
328.838	3287
328.926	3364
329.014	2687
329.102	3051
329.190	2722
329.278	2942
329.366	2752
329.454	2901
329.542	2258
329.630	1580
329.718	2728
329.806	2443
329.893	2792
329.981	2359
330.069	2779
330.157	2868
330.245	3451
330.333	3130
330.421	2360
330.509	2868
330.597	2679
330.684	2004
330.772	2676
330.860	2254
330.948	2561
331.036	2333
331.123	2874
331.211	2878
331.299	2831
331.387	2652
331.475	2024
331.562	2231
331.650	2381
331.738	1882
331.825	2674
331.913	2764
332.001	2584
332.089	2729
332.176	2504
332.264	2668
332.352	2984
332.439	2572
332.527	2249
332.614	1981
332.702	2820
332.790	2834
332.877	2229
332.965	2650
333.052	3668
333.140	2742
333.228	3898
333.315	3305
333.403	3196
333.490	3451
333.578	3173
333.665	4783
333.753	4501
333.840	4350
333.928	4806
334.015	5218
334.103	6892
334.190	7887
334.278	11909
334.365	15727
334.452	17439
334.540	12708
334.627	11870
334.715	15320
334.802	20090
334.889	29627
334.977	37884
335.064	26420
335.151	15032
335.239	10890
335.326	9460
335.413	8990
335.501	8826
335.588	9776
335.675	10950
335.762	13492
335.850	17511
335.937	24868
336.024	35922
336.111	51044
336.199	49427
336.286	25158
336.373	14584
336.460	9944
336.547	7737
336.635	7016
336.722	6166
336.809	5412
336.896	4750
336.983	3935
337.070	4971
337.157	3431
337.245	4696
337.332	5011
337.419	4090
337.506	4069
337.593	4068
337.680	4551
337.767	4999
337.854	2759
337.941	3318
338.028	3686
338.115	3315
338.202	4063
338.289	3786
338.376	2650
338.463	3575
338.550	3073
338.637	3072
338.724	2974
338.811	3546
338.898	3710
338.984	1929
339.071	2728
339.158	3093
339.245	2651
339.332	3833
339.419	2464
339.506	3149
339.593	2450
339.679	3302
339.766	2608
339.853	2255
339.940	2538
340.027	3036
340.113	2176
340.200	3250
340.287	2626
340.374	2412
340.460	2700
340.547	2446
340.634	3452
340.720	3165
340.807	2203
340.894	3063
340.980	2401
341.067	2503
341.154	3429
341.240	2959
341.327	3172
341.414	3136
341.500	2162
341.587	3060
341.674	3032
341.760	2649
341.847	3093
341.933	2924
342.020	1878
342.106	3116
342.193	2385
342.279	2820
342.366	2349
342.452	2770
342.539	2229
342.625	1743
342.712	3048
342.798	2645
342.885	2971
342.971	1860
343.058	2881
343.144	2338
343.230	3158
343.317	2993
343.403	2090
343.490	2540
343.576	2369
343.662	3133
343.749	2810
343.835	2660
343.921	3618
344.008	6519
344.094	9294
344.180	4102
344.267	2330
344.353	2873
344.439	3038
344.525	1896
344.612	2417
344.698	2678
344.784	3095
344.870	2518
344.957	2703
345.043	2655
345.129	2193
345.215	3860
345.301	2279
345.387	2836
345.474	1673
345.560	2219
345.646	2271
345.732	2559
345.818	2142
345.904	2997
345.990	2287
346.076	2824
346.162	1734
346.249	3493
346.335	1487
346.421	2848
346.507	2705
346.593	3558
346.679	1798
346.765	3989
346.851	6230
346.937	4640
347.023	4466
347.108	3333
347.194	2845
347.280	3017
347.366	3856
347.452	11508
347.538	13670
347.624	8496
347.710	4708
347.796	3304
347.882	3255
347.967	3346
348.053	3048
348.139	2978
348.225	2466
348.311	2558
348.397	2363
348.482	3693
348.568	3285
348.654	5222
348.740	16055
348.825	17704
348.911	8238
348.997	4855
349.083	5482
349.168	3245
349.254	2490
349.340	2859
349.425	2332
349.511	3444
349.597	2047
349.682	2936
349.768	3860
349.854	2790
349.939	2985
350.025	2699
350.110	3119
350.196	2654
350.282	2732
350.367	3569
350.453	3076
350.538	2095
350.624	2467
350.709	2915
350.795	3369
350.880	3150
350.966	3153
351.051	3287
351.137	2776
351.222	2083
351.308	2894
351.393	3228
351.479	2951
351.564	2570
351.649	3173
351.735	2955
351.820	2624
351.906	2935
351.991	2456
352.076	2989
352.162	3596
352.247	2706
352.332	2011
352.418	2355
352.503	1819
352.588	3895
352.673	2305
352.759	2409
352.844	1771
352.929	2604
353.014	1983
353.100	3428
353.185	2998
353.270	2306
353.355	2915
353.441	2910
353.526	1600
353.611	2570
353.696	2197
353.781	3650
353.866	1810
353.952	3631
354.037	2590
354.122	3440
354.207	2215
354.292	2705
354.377	3238
354.462	2510
354.547	2405
354.632	3230
354.717	2969
354.802	2431
354.887	2301
354.972	2809
355.057	2765
355.142	2471
355.227	3616
355.312	2322
355.397	2485
355.482	2929
355.567	1994
355.652	2976
355.737	3099
355.822	3220
355.907	2635
355.991	3934
356.076	1765
356.161	2711
356.246	2463
356.331	2983
356.416	2533
356.501	5806
356.585	4632
356.670	2236
356.755	3976
356.840	3710
356.924	4773
357.009	10018
357.094	4570
357.179	2755
357.263	2941
357.348	3323
357.433	3883
357.517	2889
357.602	2463
357.687	2818
357.771	2432
357.856	2889
357.941	3300
358.025	5576
358.110	12028
358.195	6580
358.279	3359
358.364	2971
358.448	3666
358.533	4157
358.617	3529
358.702	4094
358.787	3526
358.871	2678
358.956	2949
359.040	3208
359.125	2480
359.209	3783
359.294	2921
359.378	6500
359.462	5657
359.547	3273
359.631	2978
359.716	2142
359.800	2591
359.885	3852
359.969	1966
360.053	3808
360.138	2450
360.222	3241
360.306	2051
360.391	2860
360.475	3191
360.559	2974
360.644	3172
360.728	3527
360.812	5470
360.896	6638
360.981	3751
361.065	2748
361.149	4746
361.233	3966
361.318	3001
361.402	3660
361.486	4301
361.570	4047
361.654	3781
361.739	4096
361.823	6651
361.907	10251
361.991	7473
362.075	7691
362.159	11082
362.243	20594
362.327	43583
362.411	62567
362.495	27225
362.580	14074
362.664	13517
362.748	15112
362.832	24615
362.916	45874
363.000	101833
363.084	133245
363.168	56302
363.252	22152
363.336	13952
363.420	10964
363.503	7574
363.587	7465
363.671	9051
363.755	7860
363.839	10492
363.923	9864
364.007	14152
364.091	18713
364.175	28581
364.258	56371
364.342	116292
364.426	181621
364.510	105673
364.594	39059
364.677	21074
364.761	13997
364.845	11324
364.929	8134
365.013	6167
365.096	5939
365.180	4832
365.264	5062
365.347	5371
365.431	4317
365.515	3646
365.598	3404
365.682	5088
365.766	4069
365.849	4375
365.933	4087
366.017	5054
366.100	2997
366.184	3640
366.267	5504
366.351	4627
366.435	4533
366.518	3034
366.602	4684
366.685	3790
366.769	4046
366.852	4225
366.936	4269
367.019	4013
367.103	2559
367.186	4667
367.270	3531
367.353	3027
367.436	5449
367.520	4402
367.603	4643
367.687	3752
367.770	4185
367.853	5244
367.937	5906
368.020	5126
368.104	2850
368.187	4113
368.270	4259
368.353	2553
368.437	3039
368.520	3350
368.603	2964
368.687	3292
368.770	4165
368.853	3854
368.936	3922
369.020	4887
369.103	2864
369.186	2483
369.269	2512
369.352	3056
369.436	2850
369.519	3560
369.602	1901
369.685	4328
369.768	2314
369.851	2806
369.934	2744
370.018	2868
370.101	2143
370.184	5090
370.267	2778
370.350	3634
370.433	3105
370.516	6608
370.599	18235
370.682	7849
370.765	4818
370.848	4775
370.931	3646
371.014	3956
371.097	1853
371.180	3331
371.263	2765
371.346	1649
371.429	3111
371.511	2365
371.594	2158
371.677	2944
371.760	4258
371.843	2451
371.926	6275
372.009	11327
372.091	6588
372.174	2528
372.257	5227
372.340	3505
372.423	3053
372.505	4137
372.588	3374
372.671	4287
372.754	3883
372.836	2993
372.919	3914
373.002	3244
373.085	2361
373.167	3603
373.250	3554
373.332	4817
373.415	7729
373.498	13200
373.580	9273
373.663	26970
373.746	28177
373.828	6890
373.911	5287
373.993	3684
374.076	4292
374.159	4482
374.241	4063
374.324	5203
374.406	6167
374.489	5621
374.571	10892
374.654	6300
374.736	5071
374.819	7906
374.901	11432
374.983	10834
375.066	6284
375.148	4993
375.231	4378
375.313	5771
375.395	6146
375.478	5202
375.560	5263
375.643	5246
375.725	4727
375.807	8212
375.890	7970
375.972	4222
376.054	4569
376.136	4114
376.219	3345
376.301	4869
376.383	5583
376.465	4540
376.548	3410
376.630	3405
376.712	6052
376.794	4474
376.877	2812
376.959	1518
377.041	3438
377.123	3072
377.205	2945
377.287	2701
377.369	3358
377.452	3173
377.534	3479
377.616	4480
377.698	3944
377.780	3502
377.862	2611
377.944	4691
378.026	2717
378.108	3637
378.190	3433
378.272	3558
378.354	4087
378.436	2709
378.518	2430
378.600	2535
378.682	3925
378.764	3711
378.846	3602
378.928	2905
379.010	2831
379.091	4086
379.173	3360
379.255	1733
379.337	2072
379.419	2441
379.501	4659
379.583	3410
379.664	3357
379.746	2322
379.828	4163
379.910	2527
379.991	3792
380.073	2426
380.155	2700
380.237	2135
380.318	2638
380.400	2403
380.482	3128
380.564	2676
380.645	2997
380.727	3089
380.809	3834
380.890	2329
380.972	1785
381.053	2123
381.135	3250
381.217	2008
381.298	4952
381.380	2117
381.461	2784
381.543	3460
381.624	5355
381.706	2811
381.787	3008
381.869	3302
381.951	3865
382.032	7748
382.113	8874
382.195	1356
382.276	4247
382.358	2843
382.439	4146
382.521	5458
382.602	8722
382.684	5047
382.765	5012
382.846	6804
382.928	12813
383.009	7484
383.090	7475
383.172	17944
383.253	25116
383.334	9891
383.416	7736
383.497	6226
383.578	5416
383.659	6886
383.741	17782
383.822	40889
383.903	19384
383.984	6460
384.066	8691
384.147	6678
384.228	6714
384.309	6324
384.390	6413
384.471	5316
384.553	4934
384.634	4979
384.715	4656
384.796	4281
384.877	3883
384.958	4890
385.039	3688
385.120	3599
385.201	5018
385.282	4571
385.363	5059
385.444	5217
385.525	6024
385.606	6940
385.687	7488
385.768	5753
385.849	5014
385.930	9181
386.011	12454
386.092	6448
386.173	5751
386.254	5653
386.335	6280
386.416	5195
386.496	5996
386.577	5978
386.658	5360
386.739	5061
386.820	7229
386.901	5527
386.981	7176
387.062	8318
387.143	8860
387.224	9628
387.304	11871
387.385	11094
387.466	9545
387.547	11772
387.627	11090
387.708	11902
387.789	12151
387.869	10633
387.950	9814
388.031	7542
388.111	5556
388.192	8183
388.273	7661
388.353	6119
388.434	6375
388.514	5434
388.595	7539
388.676	7550
388.756	5987
388.837	5802
388.917	5111
388.998	3413
389.078	6123
389.159	5059
389.239	3947
389.320	6434
389.400	4182
389.480	5510
389.561	4931
389.641	6096
389.722	4572
389.802	3956
389.883	5325
389.963	6954
390.043	5851
390.124	3622
390.204	4992
390.284	5144
390.365	4442
390.445	5780
390.525	4025
390.605	4958
390.686	4517
390.766	5351
390.846	6665
390.927	4947
391.007	4048
391.087	5682
391.167	4185
391.247	4288
391.328	6153
391.408	6115
391.488	6280
391.568	4284
391.648	5901
391.728	6997
391.808	6955
391.888	6688
391.969	7286
392.049	6524
392.129	9112
392.209	8433
392.289	11443
392.369	9663
392.449	10693
392.529	11609
392.609	13939
392.689	15299
392.769	18707
392.849	22508
392.929	27948
393.009	38021
393.089	54641
393.169	95455
393.248	188300
393.328	331182
393.408	329156
393.488	194508
393.568	94207
393.648	52026
393.728	34385
393.807	23634
393.887	20028
393.967	16204
394.047	14095
394.127	10470
394.206	10456
394.286	9549
394.366	8246
394.446	8587
394.525	7530
394.605	7292
394.685	7203
394.764	8325
394.844	15459
394.924	22102
395.003	11661
395.083	7338
395.163	6255
395.242	6537
395.322	6701
395.402	4599
395.481	8209
395.561	7808
395.640	25330
395.720	53450
395.799	26669
395.879	10145
395.958	8970
396.038	9197
396.117	9648
396.197	10718
396.276	12845
396.356	13315
396.435	17334
396.515	24726
396.594	36951
396.673	71196
396.753	167772
396.832	301524
396.912	243463
396.991	101597
397.070	47093
397.150	27917
397.229	25568
397.308	42782
397.388	80919
397.467	41958
397.546	16319
397.625	8906
397.705	10568
397.784	7115
397.863	7167
397.942	6489
398.022	6668
398.101	5830
398.180	6042
398.259	4736
398.338	6000
398.417	4209
398.497	4090
398.576	5366
398.655	3991
398.734	5234
398.813	4233
398.892	3777
398.971	3241
399.050	3264
399.129	3536
399.208	4241
399.287	4871
399.366	2306
399.445	3672
399.524	3673
399.603	2215
399.682	3120
399.761	3277
399.840	3862
399.919	3385
399.998	2715
400.077	2900
400.156	1992
400.235	5184
400.313	2323
400.392	2028
400.471	3481
400.550	3909
400.629	2237
400.708	2797
400.786	1970
400.865	1949
400.944	1175
401.023	4157
401.102	1669
401.180	3317
401.259	2123
401.338	2389
401.416	2087
401.495	2074
401.574	2420
401.652	2157
401.731	2461
401.810	1952
401.888	2104
401.967	1477
402.046	1754
402.124	2102
402.203	1304
402.281	2158
402.360	668
402.438	1970
402.517	1612
402.596	2224
402.674	1823
402.753	1557
402.831	2797
402.910	3412
402.988	3191
403.066	9950
403.145	7589
403.223	4951
403.302	7696
403.380	6392
403.459	7130
403.537	3464
403.615	2968
403.694	1846
403.772	2839
403.850	2892
403.929	1774
404.007	1846
404.085	3287
404.164	1820
404.242	2007
404.320	2926
404.398	2276
404.477	1551
404.555	5250
404.633	4419
404.711	2167
404.789	2493
404.868	2058
404.946	1214
405.024	2305
405.102	1345
405.180	890
405.258	186
405.336	1807
405.415	612
405.493	2848
405.571	1978
405.649	977
405.727	1017
405.805	3112
405.883	2324
405.961	2568
406.039	785
406.117	929
406.195	2368
406.273	933
406.351	3795
406.429	4203
406.507	1003
406.585	750
406.663	2107
406.740	1409
406.818	1463
406.896	1397
406.974	2915
407.052	729
407.130	3306
407.208	3897
407.285	3035
407.363	646
407.441	2943
407.519	2293
407.596	2747
407.674	11910
407.752	49651
407.830	35976
407.907	6662
407.985	1227
408.063	2344
408.141	1638
408.218	2474
408.296	1348
408.373	2664
408.451	2851
408.529	3021
408.606	2237
408.684	3046
408.762	3953
408.839	4055
408.917	3519
408.994	3828
409.072	4211
409.149	5952
409.227	11089
409.304	14741
409.382	16012
409.459	18092
409.537	24124
409.614	22504
409.692	18093
409.769	16744
409.846	24037
409.924	28789
410.001	20263
410.079	16542
410.156	13262
410.233	8719
410.311	7704
410.388	7137
410.465	6055
410.543	4846
410.620	6212
410.697	6453
410.775	4867
410.852	4385
410.929	5966
411.006	6028
411.083	4395
411.161	4461
411.238	4286
411.315	4410
411.392	4066
411.469	4278
411.547	3184
411.624	2234
411.701	2964
411.778	2679
411.855	2656
411.932	2678
412.009	2915
412.086	2821
412.163	2227
412.240	2068
412.317	3336
412.394	2034
412.471	2262
412.548	1971
412.625	1752
412.702	2639
412.779	2147
412.856	2171
412.933	1443
413.010	2869
413.087	1698
413.164	1320
413.241	2117
413.318	1248
413.395	2569
413.471	1283
413.548	1863
413.625	1826
413.702	125
413.779	1521
413.855	1818
413.932	1163
414.009	644
414.086	2163
414.162	2041
414.239	1765
414.316	1725
414.393	3449
414.469	801
414.546	1271
414.623	1393
414.699	1400
414.776	426
414.853	997
414.929	1737
415.006	1392
415.082	986
415.159	1318
415.236	1306
415.312	1585
415.389	1601
415.465	832
415.542	1153
415.618	-492
415.695	1328
415.771	-279
415.848	867
415.924	535
416.000	619
416.077	2380
416.153	-23
416.230	948
416.306	1329
416.383	891
416.459	1388
416.535	606
416.612	588
416.688	98
416.764	934
416.841	157
416.917	1461
416.993	1527
417.069	1234
417.146	914
417.222	927
417.298	1551
417.374	767
417.451	1512
417.527	658
417.603	541
417.679	907
417.755	1561
417.831	765
417.908	2299
417.984	1532
418.060	586
418.136	1737
418.212	1325
418.288	1250
418.364	1264
418.440	629
418.516	2291
418.592	1326
418.668	1905
418.744	794
418.820	2191
418.896	2663
418.972	1637
419.048	1846
419.124	2419
419.200	1012
419.276	1952
419.352	2192
419.428	2675
419.504	1519
419.579	2290
419.655	2236
419.731	2669
419.807	2537
419.883	2117
419.959	3403
420.034	3567
420.110	3461
420.186	4055
420.262	3763
420.337	3596
420.413	4228
420.489	4197
420.565	6327
420.640	5447
420.716	6608
420.792	5422
420.867	7730
420.943	7256
421.019	8268
421.094	7775
421.170	9260
421.245	10040
421.321	10318
421.397	13092
421.472	23186
421.548	46547
421.623	33261
421.699	21082
421.774	21825
421.850	24600
421.925	29261
422.001	34877
422.076	42168
422.152	52394
422.227	66262
422.302	87703
422.378	115496
422.453	154125
422.529	183932
422.604	154438
422.679	105011
422.755	153103
422.830	190333
422.905	161056
422.981	123306
423.056	95040
423.131	74811
423.207	58925
423.282	47450
423.357	39210
423.432	31725
423.508	27943
423.583	22870
423.658	20596
423.733	19861
423.808	17449
423.883	16250
423.959	16795
424.034	17801
424.109	16419
424.184	13402
424.259	11450
424.334	9389
424.409	8307
424.484	7776
424.559	7761
424.634	6708
424.709	6911
424.784	5512
424.859	5345
424.934	5153
425.009	4995
425.084	5415
425.159	5067
425.234	5131
425.309	3931
425.384	4307
425.459	4167
425.534	4513
425.609	3430
425.683	3459
425.758	3301
425.833	3372
425.908	3617
425.983	3277
426.058	3819
426.132	3769
426.207	2770
426.282	3732
426.357	2985
426.431	2432
426.506	2885
426.581	2711
426.655	2577
426.730	2625
426.805	1830
426.879	2677
426.954	1854
427.029	1531
427.103	2940
427.178	2819
427.253	2893
427.327	1999
427.402	2318
427.476	2201
427.551	1554
427.625	1471
427.700	2665
427.774	1909
427.849	2927
427.923	2278
427.998	2706
428.072	2751
428.147	7865
428.221	30041
428.296	85819
428.370	52059
428.444	10667
428.519	4975
428.593	2949
428.667	4084
428.742	4455
428.816	12646
428.890	53904
428.965	79418
429.039	23785
429.113	5957
429.188	3123
429.262	2574
429.336	2856
429.410	2092
429.485	2788
429.559	2858
429.633	3729
429.707	3853
429.781	11883
429.855	49092
429.930	71962
430.004	24001
430.078	14438
430.152	38331
430.226	112774
430.300	111820
430.374	34232
430.448	12574
430.522	6508
430.596	6714
430.670	17935
430.744	65714
430.818	71799
430.892	16166
430.966	4237
431.040	3446
431.114	890
431.188	1333
431.262	1505
431.336	1070
431.410	2557
431.484	1546
431.557	2397
431.631	2579
431.705	6150
431.779	24616
431.853	82673
431.927	59521
432.000	12689
432.074	3893
432.148	2066
432.222	871
432.295	405
432.369	965
432.443	385
432.516	544
432.590	1689
432.664	616
432.737	-268
432.811	-917
432.885	-293
432.958	-129
433.032	78
433.106	24
433.179	611
433.253	-1
433.326	128
433.400	448
433.473	1022
433.547	-94
433.620	533
433.694	837
433.767	657
433.841	-291
433.914	-130
433.988	746
434.061	232
434.134	86
434.208	544
434.281	-54
434.355	-508
434.428	801
434.501	-671
434.575	-364
434.648	-883
434.721	154
434.795	416
434.868	190
434.941	576
435.014	-112
435.088	871
435.161	1593
435.234	1515
435.307	2204
435.381	3267
435.454	5423
435.527	10705
435.600	12554
435.673	10901
435.746	7153
435.819	6392
435.892	4731
435.966	3538
436.039	2476
436.112	2663
436.185	1481
436.258	626
436.331	434
436.404	1206
436.477	486
436.550	932
436.623	865
436.696	381
436.769	280
436.842	637
436.915	1018
436.987	478
437.060	-13
437.133	437
437.206	-326
437.279	910
437.352	-219
437.425	-290
437.498	669
437.570	-373
437.643	-365
437.716	-202
437.789	178
437.861	222
437.934	226
438.007	-131
438.080	-497
438.152	-302
438.225	-94
438.298	797
438.370	3569
438.443	1744
438.516	-290
438.588	800
438.661	37
438.734	353
438.806	107
438.879	527
438.951	171
439.024	358
439.096	20
439.169	-204
439.241	-642
439.314	47
439.386	66
439.459	-777
439.531	-151
439.604	-223
439.676	1072
439.749	12
439.821	166
439.893	360
439.966	136
440.038	346
440.110	844
440.183	-97
440.255	-310
440.327	415
440.400	1252
440.472	1550
440.544	1383
440.617	93
440.689	1004
440.761	865
440.833	759
440.905	53
440.978	-219
441.050	205
441.122	1189
441.194	25
441.266	886
441.338	425
441.411	512
441.483	1378
441.555	1497
441.627	1040
441.699	1027
441.771	535
441.843	1299
441.915	1273
441.987	742
442.059	1768
442.131	3315
442.203	3955
442.275	5707
442.347	9926
442.419	21785
442.491	74661
442.563	141831
442.635	71094
442.706	21151
442.778	9590
442.850	6882
442.922	5742
442.994	4934
443.066	5950
443.137	7559
443.209	10488
443.281	16814
443.353	34334
443.425	89750
443.496	190186
443.568	198576
443.640	104317
443.711	36311
443.783	18101
443.855	10094
443.926	7413
443.998	5145
444.070	4198
444.141	3690
444.213	3275
444.285	3247
444.356	1855
444.428	2621
444.499	3099
444.571	2933
444.642	3588
444.714	3350
444.785	3930
444.857	4447
444.928	5493
445.000	6061
445.071	9226
445.143	12199
445.214	17837
445.285	30486
445.357	63695
445.428	147526
445.500	216258
445.571	197461
445.642	147488
445.714	68738
445.785	27644
445.856	13704
445.928	10055
445.999	6787
446.070	5776
446.141	4187
446.213	3525
446.284	2002
446.355	2241
446.426	1738
446.497	1819
446.569	1828
446.640	859
446.711	1193
446.782	1054
446.853	801
446.924	620
446.995	416
447.066	1424
447.138	187
447.209	656
447.280	-19
447.351	-27
447.422	109
447.493	207
447.564	-416
447.635	-1066
447.706	-723
447.777	204
447.847	-589
447.918	-1000
447.989	-530
448.060	-227
448.131	-174
448.202	125
448.273	-197
448.344	-588
448.414	-321
448.485	-463
448.556	-191
448.627	-85
448.698	74
448.768	-652
448.839	-958
448.910	-222
448.981	-364
449.051	288
449.122	-256
449.193	-771
449.263	-549
449.334	58
449.405	-790
449.475	-7
449.546	-469
449.616	-106
449.687	743
449.758	131
449.828	-407
449.899	-432
449.969	-95
450.040	-468
450.110	-562
450.181	-268
450.251	-364
450.322	-357
450.392	-414
450.463	66
450.533	-381
450.604	-100
450.674	3
450.744	941
450.815	114
450.885	1844
450.955	440
451.026	954
451.096	888
451.166	486
451.237	1331
451.307	1340
451.377	1446
451.447	665
451.518	453
451.588	371
451.658	701
451.728	39
451.799	-589
451.869	19
451.939	635
452.009	-410
452.079	-49
452.149	-90
452.219	608
452.289	498
452.360	193
452.430	1537
452.500	1600
452.570	5326
452.640	11075
452.710	26830
452.780	32356
452.850	21006
452.920	11519
452.990	6444
453.060	3252
453.129	2579
453.199	1543
453.269	2022
453.339	1567
453.409	1118
453.479	429
453.549	405
453.619	563
453.688	-435
453.758	469
453.828	-531
453.898	-538
453.968	-375
454.037	-229
454.087	-339
454.107	-403
454.168	-622
454.177	-675
454.247	646
454.249	655
454.316	362
454.330	208
454.386	-451
454.411	-259
454.456	-39
454.492	-230
454.525	-383
454.574	28
454.595	164
454.655	-83
454.665	-138
454.734	429
454.736	456
454.804	650
454.817	751
454.873	1149
454.898	709
454.943	-191
454.979	-280
455.013	-402
455.060	220
455.082	472
455.141	-32
455.152	-157
455.221	1084
455.222	1089
455.291	-192
455.303	40
455.360	1084
455.384	1288
455.430	1393
455.465	1117
455.499	870
455.546	593
455.569	443
455.627	917
455.638	985
455.707	728
455.708	749
455.777	1193
455.789	1109
455.846	391
455.869	512
455.916	772
455.950	755
455.985	703
456.031	533
456.054	418
456.112	1136
456.124	1264
456.193	1755
456.193	1736
456.262	1606
456.274	1692
456.332	1877
456.355	1635
456.401	1231
456.436	1686
456.470	1970
456.516	1984
456.540	2024
456.597	1535
456.609	1383
456.678	1663
456.678	1640
456.747	2272
456.759	2191
456.817	1836
456.840	1854
456.886	1891
456.920	2214
456.955	2442
457.001	2625
457.024	2631
457.082	2644
457.093	2683
457.162	2838
457.163	2864
457.232	3615
457.243	3575
457.301	3263
457.324	3332
457.370	3500
457.405	3892
457.439	4341
457.485	4943
457.508	5294
457.566	6407
457.577	6825
457.646	10270
457.647	10348
457.715	21663
457.727	24410
457.784	44530
457.808	57704
457.853	73819
457.889	88509
457.922	87951
457.969	64629
457.991	65254
458.050	71303
458.060	73905
458.129	117475
458.130	118970
458.198	122538
458.211	115296
458.267	76617
458.292	56171
458.336	38907
458.372	33817
458.405	39666
458.453	53255
458.474	66136
458.533	114317
458.543	118364
458.611	178179
458.614	179648
458.680	125600
458.694	106244
458.749	61603
458.775	44339
458.818	27722
458.855	20647
458.887	16156
458.936	12637
458.955	11546
459.016	9188
459.024	8960
459.093	8490
459.097	8435
459.162	7030
459.177	6919
459.230	6661
459.257	6627
459.299	6412
459.338	6234
459.368	6159
459.418	5696
459.437	5535
459.499	5325
459.505	5284
459.574	4931
459.579	4930
459.643	4629
459.659	4555
459.711	5083
459.740	5622
459.780	5850
459.820	5746
459.849	5644
459.900	5432
459.917	5308
459.981	5017
459.986	5002
460.054	5346
460.061	5354
460.123	5388
460.141	5416
460.191	5838
460.222	6070
460.260	5757
460.302	5399
460.328	5844
460.382	7191
460.397	7579
460.462	8864
460.465	9171
460.534	17334
460.543	18446
460.602	48313
460.623	59762
460.671	92626
460.703	122354
460.739	112464
460.783	92022
460.808	78377
460.864	24985
460.876	20676
460.944	8612
460.945	8501
461.013	6961
461.024	6720
461.081	5660
461.104	5565
461.150	5639
461.184	5699
461.218	5849
461.264	6007
461.286	6004
461.345	5956
461.355	5830
461.423	5405
461.425	5387
461.491	5407
461.505	5472
461.559	5733
461.585	5635
461.628	5515
461.665	5648
461.696	5398
461.745	4824
461.764	4874
461.825	5060
461.832	5053
461.901	5190
461.905	5234
461.969	5591
461.985	5518
462.037	5729
462.065	5841
462.105	5512
462.145	5292
462.173	5384
462.225	5597
462.241	5589
462.305	5591
462.310	5639
462.378	6091
462.385	6174
462.446	6345
462.465	6378
462.514	6258
462.545	6048
462.582	5573
462.625	5090
462.650	4997
462.705	5057
462.718	5248
462.785	5997
462.786	5998
462.854	6020
462.865	5924
462.922	5589
462.945	5700
462.990	5617
463.025	5205
463.058	5414
463.104	6007
463.126	5963
463.184	5821
463.194	5862
463.262	5831
463.264	5833
463.330	6084
463.344	6124
463.398	5873
463.424	5743
463.466	5698
463.504	5730
463.533	6097
463.583	6409
463.601	6084
463.663	5029
463.669	5062
463.737	5646
463.743	5679
463.805	5471
463.823	5442
463.873	6086
463.903	6382
463.940	5888
463.982	5262
464.008	5549
464.062	6309
464.076	6284
464.142	6031
464.144	6036
464.211	5835
464.221	5804
464.279	5932
464.301	6014
464.347	6028
464.381	6011
464.414	5919
464.461	5753
464.482	5842
464.540	5945
464.550	5938
464.617	5799
464.620	5792
464.685	6313
464.699	6398
464.753	6116
464.779	5996
464.820	6418
464.859	6632
464.888	6265
464.938	5727
464.956	5972
465.018	6874
465.023	6872
465.091	6708
465.098	6671
465.158	6718
465.177	6718
465.226	6707
465.257	6715
465.293	6720
465.336	6721
465.361	6672
465.416	6410
465.428	6476
465.495	6844
465.496	6850
465.563	5788
465.575	5612
465.631	6218
465.654	6516
465.698	6397
465.734	6203
465.765	6727
465.813	7434
465.833	7193
465.893	6498
465.900	6575
465.968	7139
465.972	7165
466.035	6705
466.052	6527
466.102	6786
466.131	6958
466.170	6848
466.210	6722
466.237	6762
466.290	6768
466.304	6671
466.369	6102
466.372	6123
466.439	6440
466.449	6452
466.506	6679
466.528	6801
466.573	6957
466.607	6956
466.641	7114
466.687	7394
466.708	7489
466.766	7647
466.775	7667
466.842	7687
466.845	7673
466.909	8249
466.925	8358
466.977	8497
467.004	8563
467.044	8063
467.083	7500
467.111	7705
467.163	8069
467.178	8038
467.242	7822
467.245	7859
467.312	8315
467.321	8360
467.379	8539
467.400	8575
467.446	8941
467.480	9176
467.559	8934
467.638	9539
467.717	8865
467.796	9674
467.875	10707
467.955	10116
468.034	12668
468.113	13231
468.192	16381
468.271	19858
468.350	26416
468.429	36668
468.508	38036
468.588	24465
468.667	16342
468.746	12976
468.825	11614
468.904	10322
468.983	9638
469.062	9576
469.141	9761
469.220	8856
469.299	9293
469.378	7849
469.456	8416
469.535	8525
469.614	8145
469.693	7738
469.772	8951
469.851	8739
469.930	8852
470.009	7775
470.088	8692
470.166	9084
470.245	9129
470.324	8896
470.403	9429
470.482	8835
470.560	8650
470.639	8261
470.718	9067
470.797	8655
470.875	8494
470.954	7405
471.033	7800
471.111	7447
471.190	8169
471.269	7455
471.347	8419
471.426	8075
471.505	8249
471.583	7965
471.662	8199
471.740	8323
471.819	7816
471.898	7981
471.976	8937
472.055	7969
472.133	12200
472.212	17483
472.290	10303
472.369	6799
472.447	8125
472.526	7372
472.604	8284
472.683	7965
472.761	7746
472.839	8318
472.918	8523
472.996	8650
473.075	9181
473.153	8935
473.231	8877
473.310	9623
473.388	8637
473.466	8497
473.545	8940
473.623	8435
473.701	9401
473.780	9526
473.858	8736
473.936	10569
474.014	9993
474.093	12268
474.171	16111
474.249	11222
474.327	8916
474.405	8939
474.484	10251
474.562	9569
474.640	8173
474.718	7817
474.796	8700
474.874	8565
474.952	8554
475.030	8077
475.108	8473
475.187	8335
475.265	9108
475.343	9611
475.421	9231
475.499	8953
475.577	8928
475.655	9335
475.733	8886
475.811	8097
475.889	8647
475.966	7754
476.044	8413
476.122	8029
476.200	8732
476.278	8468
476.356	7937
476.434	7919
476.512	8886
476.590	8629
476.667	9820
476.745	7314
476.823	9411
476.901	7770
476.979	8280
477.056	9181
477.134	8555
477.212	7590
477.290	8036
477.367	7345
477.445	8176
477.523	7964
477.601	7501
477.678	8199
477.756	7835
477.834	8293
477.911	8169
477.989	7936
478.066	7783
478.144	8222
478.222	8583
478.299	10643
478.377	13966
478.454	12879
478.532	7855
478.609	7469
478.687	7961
478.764	7723
478.842	8204
478.919	7547
478.997	8460
479.074	7403
479.152	7705
479.229	8565
479.307	8531
479.384	7764
479.461	8132
479.539	7443
479.616	8249
479.694	7096
479.771	8501
479.848	7596
479.926	6272
480.003	8825
480.080	7827
480.157	7723
480.235	9445
480.312	8688
480.389	7953
480.467	7997
480.544	9818
480.621	9319
480.698	10116
480.775	9626
480.853	10205
480.930	9064
481.007	10543
481.084	18224
481.161	34846
481.238	19501
481.315	8876
481.392	9149
481.470	9603
481.547	9298
481.624	8701
481.701	8667
481.778	9662
481.855	10064
481.932	10665
482.009	11074
482.086	10653
482.163	12833
482.240	14587
482.317	15725
482.393	13410
482.470	12155
482.547	11759
482.624	10659
482.701	11428
482.778	11158
482.855	11143
482.932	11469
483.009	12143
483.085	16898
483.162	27389
483.239	24735
483.316	14275
483.393	14485
483.469	13077
483.546	12262
483.623	10519
483.699	10537
483.776	9792
483.853	9721
483.930	9946
484.006	9181
484.083	10596
484.160	9945
484.236	11021
484.313	10470
484.389	11234
484.466	14122
484.543	15379
484.619	19080
484.696	21926
484.772	14670
484.849	12765
484.925	10157
485.002	10464
485.078	9099
485.155	8623
485.231	9038
485.308	8887
485.384	9253
485.461	10941
485.537	9221
485.614	8362
485.690	8604
485.766	8674
485.843	7818
485.919	8461
485.995	8681
486.072	8186
486.148	8486
486.224	8130
486.301	8159
486.377	8429
486.453	7448
486.530	8530
486.606	9816
486.682	9025
486.758	9249
486.835	12515
486.911	11837
486.987	12233
487.063	13421
487.139	19588
487.215	30347
487.292	27700
487.368	23280
487.444	29798
487.520	43187
487.596	71256
487.672	131322
487.748	357681
487.824	574406
487.900	248598
487.976	78588
488.052	40450
488.128	27613
488.204	19512
488.280	17824
488.356	14652
488.432	12710
488.508	11724
488.584	10239
488.660	10643
488.736	9913
488.812	8512
488.888	9281
488.964	9426
489.039	8967
489.115	11100
489.191	13588
489.267	11119
489.343	8551
489.418	7779
489.494	7367
489.570	6563
489.646	9084
489.722	7621
489.797	7822
489.873	8353
489.949	8499
490.024	7754
490.100	8017
490.176	8063
490.251	8524
490.327	7694
490.403	7482
490.478	8482
490.554	7855
490.629	7828
490.705	7594
490.781	8838
490.856	7421
490.932	8293
491.007	7516
491.083	7250
491.158	7867
491.234	6773
491.309	6530
491.385	6647
491.460	6764
491.536	7842
491.611	6831
491.686	8167
491.762	6689
491.837	6643
491.913	7349
491.988	7910
492.063	6838
492.139	7487
492.214	5766
492.289	7247
492.365	6033
492.440	7484
492.515	6294
492.590	6712
492.666	6457
492.741	7166
492.816	6359
492.891	6336
492.967	7483
493.042	6273
493.117	5110
493.192	7649
493.267	7363
493.342	9412
493.418	10660
493.493	7365
493.568	6555
493.643	6896
493.718	6180
493.793	6025
493.868	6055
493.943	6250
494.018	6453
494.093	6091
494.168	6194
494.243	6364
494.318	6284
494.393	5897
494.468	5834
494.543	6888
494.618	6458
494.693	5783
494.768	5845
494.842	6747
494.917	6233
494.992	6713
495.067	6518
495.142	6427
495.217	5472
495.292	6581
495.366	5196
495.441	5383
495.516	5768
495.591	6521
495.665	7551
495.740	8751
495.815	7529
495.890	5886
495.964	5316
496.039	10310
496.114	13139
496.188	31249
496.263	22110
496.338	7892
496.412	6024
496.487	6400
496.561	5829
496.636	6415
496.710	7642
496.785	10287
496.860	6928
496.934	6452
497.009	6250
497.083	5222
497.158	5692
497.232	5970
497.307	6227
497.381	6004
497.455	5817
497.530	5884
497.604	6246
497.679	6460
497.753	6898
497.827	5734
497.902	5975
497.976	5412
498.050	5994
498.125	6677
498.199	5810
498.273	6224
498.348	6323
498.422	6191
498.496	5316
498.570	6199
498.645	5604
498.719	4763
498.793	6131
498.867	6135
498.941	4910
499.016	5819
499.090	5234
499.164	5850
499.238	6199
499.312	6178
499.386	6733
499.460	6489
499.534	6244
499.609	6655
499.683	6055
499.757	6733
499.831	5557
499.905	6231
499.979	5875
500.053	5642
500.127	5513
500.201	5595
500.275	6658
500.349	6780
500.422	6113
500.496	6350
500.570	6396
500.644	7049
500.718	5988
500.792	6981
500.866	6717
500.940	7285
501.013	7696
501.087	5995
501.161	6301
501.235	4787
501.309	7983
501.382	6620
501.456	7165
501.530	7013
501.603	4995
501.677	7034
501.751	4891
501.825	8141
501.898	6335
501.972	5938
502.046	5617
502.119	5813
502.193	5835
502.266	5785
502.340	6329
502.413	6950
502.487	6189
502.561	5634
502.634	6648
502.708	7259
502.781	6011
502.855	7106
502.928	5785
503.002	6494
503.075	7085
503.149	6783
503.222	7218
503.295	7358
503.369	8153
503.442	8717
503.516	10134
503.589	10962
503.662	12455
503.736	16787
503.809	20436
503.882	26021
503.956	41283
504.029	80342
504.102	209935
504.175	314908
504.249	142569
504.322	57757
504.395	31604
504.468	22239
504.542	14813
504.615	11874
504.688	11150
504.761	8569
504.834	10179
504.907	7392
504.980	8087
505.053	6784
505.127	4371
505.200	8540
505.273	5931
505.346	5444
505.419	5347
505.492	7853
505.565	5025
505.638	5917
505.711	5297
505.784	4930
505.857	4966
505.930	6265
506.003	3291
506.076	6495
506.149	4383
506.221	3289
506.294	6454
506.367	3899
506.440	4312
506.513	5765
506.586	4729
506.659	3802
506.731	4970
506.804	5042
506.877	3324
506.950	5168
507.022	5064
507.095	4157
507.168	3806
507.241	4609
507.313	3693
507.386	3106
507.459	4580
507.531	3467
507.604	3530
507.677	5224
507.749	3719
507.822	5091
507.894	3658
507.967	5243
508.040	3284
508.112	4894
508.185	4243
508.257	2739
508.330	5666
508.402	3710
508.475	4423
508.547	4683
508.620	4483
508.692	4758
508.765	4339
508.837	3592
508.909	4921
508.982	3529
509.054	4828
509.127	4615
509.199	4275
509.271	3629
509.344	3861
509.416	4134
509.488	4051
509.560	4151
509.633	3346
509.705	4235
509.777	3351
509.849	4818
509.922	2871
509.994	4690
510.066	4945
510.138	2718
510.210	5472
510.283	3996
510.355	4225
510.427	5026
510.499	4300
510.571	3807
510.643	3159
510.715	5281
510.787	2863
510.859	4888
510.931	3331
511.003	3982
511.076	4607
511.148	4033
511.219	4105
511.291	4703
511.363	5219
511.435	4455
511.507	3281
511.579	4564
511.651	4540
511.723	4516
511.795	2971
511.867	3466
511.939	4354
512.010	4199
512.082	5065
512.154	2401
512.226	3814
512.298	5168
512.369	4377
512.441	4754
512.513	4109
512.585	3370
512.656	4970
512.728	4417
512.800	3942
512.871	5087
512.943	4355
513.015	3621
513.086	4405
513.158	4938
513.230	3492
513.301	3990
513.373	4388
513.444	4781
513.516	4613
513.588	3117
513.659	4356
513.731	4518
513.802	3298
513.874	5902
513.945	3725
514.016	3181
514.088	4340
514.159	3640
514.231	4961
514.302	4399
514.374	4901
514.445	3426
514.516	6351
514.588	3146
514.659	4097
514.730	3646
514.802	4852
514.873	2154
514.944	5913
515.016	4890
515.087	4244
515.158	4418
515.229	4848
515.301	2566
515.372	4048
515.443	4597
515.514	3798
515.585	5222
515.656	6963
515.728	5850
515.799	4007
515.870	4900
515.941	4124
516.012	4276
516.083	5297
516.154	3634
516.225	5512
516.296	5856
516.367	4829
516.438	4524
516.509	4660
516.580	6293
516.651	11305
516.722	23600
516.793	12325
516.864	5971
516.935	5419
517.006	7080
517.077	7957
517.148	10637
517.219	33907
517.289	51115
517.360	9972
517.431	7594
517.502	5129
517.573	6620
517.643	5810
517.714	6293
517.785	6613
517.856	6700
517.926	8560
517.997	9709
518.068	9889
518.138	14249
518.209	15154
518.280	32709
518.350	95339
518.421	48815
518.492	28056
518.562	35536
518.633	49031
518.703	74867
518.774	160392
518.845	362489
518.915	340046
518.986	117476
519.056	51843
519.127	31241
519.197	21705
519.268	16015
519.338	13740
519.408	10507
519.479	10500
519.549	8227
519.620	10028
519.690	7674
519.760	7158
519.831	6497
519.901	5193
519.971	6580
520.042	5464
520.112	5410
520.182	6227
520.253	5644
520.323	4231
520.393	5003
520.463	7548
520.534	2837
520.604	6681
520.674	5758
520.744	4160
520.814	4987
520.885	5448
520.955	5075
521.025	4350
521.095	4866
521.165	6032
521.235	4527
521.305	4714
521.375	5798
521.445	5642
521.515	4117
521.585	6430
521.655	3594
521.725	5964
521.795	6127
521.865	2746
521.935	7281
522.005	4861
522.075	4757
522.145	6805
522.215	6347
522.285	6410
522.355	5185
522.424	6037
522.494	5786
522.564	6366
522.634	6009
522.704	6910
522.774	4704
522.843	6447
522.913	8021
522.983	6298
523.053	5016
523.122	6293
523.192	5751
523.262	5618
523.331	4708
523.401	6909
523.471	5428
523.540	5765
523.610	5000
523.680	6183
523.749	7125
523.819	10084
523.888	10199
523.958	6423
524.027	6281
524.097	6152
524.166	6105
524.236	5455
524.305	8681
524.375	4951
524.444	5400
524.514	7205
524.583	6378
524.653	4783
524.722	6994
524.791	5717
524.861	8364
524.930	6241
524.999	6425
525.069	8006
525.138	7784
525.207	8012
525.277	9405
525.346	8705
525.415	10221
525.484	11997
525.554	13296
525.623	18162
525.692	28519
525.761	26883
525.830	31434
525.900	39537
525.969	62820
526.038	122993
526.107	227798
526.176	597052
526.245	476084
526.314	162874
526.383	313130
526.452	420098
526.522	515185
526.591	481187
526.660	110950
526.729	63076
526.797	65222
526.867	89828
526.935	224876
527.004	674863
527.073	482602
527.142	100286
527.211	43543
527.280	27344
527.349	21661
527.418	14313
527.487	14858
527.555	10588
527.624	10750
527.693	8153
527.762	10668
527.831	7633
527.899	9967
527.968	9051
528.037	6866
528.106	8206
528.174	8313
528.243	7042
528.312	7658
528.380	6301
528.449	6519
528.518	8296
528.586	5561
528.655	7929
528.723	7279
528.792	6483
528.861	6138
528.929	5247
528.998	7399
529.066	7124
529.135	6444
529.203	5956
529.272	5337
529.340	6878
529.409	7995
529.477	5220
529.545	5182
529.614	8608
529.682	5059
529.751	6079
529.819	9457
529.887	5657
529.956	6222
530.024	7615
530.092	5571
530.161	7899
530.229	6968
530.297	6243
530.365	8392
530.434	7755
530.502	6131
530.570	6567
530.638	5142
530.707	7134
530.775	8352
530.843	6385
530.911	6652
530.979	7852
531.047	6951
531.115	7508
531.183	8296
531.252	7842
531.320	7346
531.388	5949
531.456	8064
531.524	6017
531.592	7677
531.660	8494
531.728	7396
531.796	6173
531.864	8876
531.932	7236
532.000	7269
532.067	7254
532.135	8214
532.203	9658
532.271	8500
532.339	10674
532.407	10029
532.475	9575
532.542	9175
532.610	9735
532.678	8555
532.746	11664
532.814	13249
532.881	10198
532.949	10941
533.017	10196
533.084	9301
533.152	9125
533.220	9302
533.287	8747
533.355	8807
533.423	9595
533.490	9463
533.558	11003
533.625	10323
533.693	9930
533.761	10857
533.828	10511
533.896	9502
533.963	10910
534.031	11188
534.098	14347
534.166	17487
534.233	16648
534.300	19487
534.368	19954
534.435	19040
534.503	20018
534.570	22012
534.637	23951
534.705	28121
534.772	34411
534.840	64113
534.907	247172
534.974	309101
535.041	52327
535.109	24761
535.176	20618
535.243	18961
535.310	18035
535.378	16215
535.445	17928
535.512	16744
535.579	18650
535.646	16938
535.714	17733
535.781	18349
535.848	19104
535.915	18607
535.982	17162
536.049	17085
536.116	18586
536.183	17020
536.250	16914
536.317	17021
536.384	19202
536.451	19157
536.518	19945
536.585	17390
536.652	20744
536.719	19827
536.786	16415
536.853	18134
536.920	19422
536.987	19698
537.053	17930
537.120	20613
537.187	20586
537.254	20592
537.321	20061
537.388	21407
537.454	19728
537.521	20830
537.588	19716
537.654	21183
537.721	21488
537.788	22598
537.855	20721
537.921	21434
537.988	19241
538.055	19121
538.121	18998
538.188	18307
538.254	17622
538.321	18429
538.388	18826
538.454	22886
538.521	23305
538.587	22678
538.654	21189
538.720	21613
538.787	21361
538.853	21776
538.920	20569
538.986	17978
539.053	18596
539.119	18976
539.185	20209
539.252	21773
539.318	20937
539.385	24483
539.451	21324
539.517	21479
539.583	20743
539.650	20719
539.716	20726
539.782	18956
539.849	19100
539.915	20565
539.981	20187
540.047	19335
540.114	19398
540.180	20997
540.246	21114
540.312	24132
540.378	21245
540.444	22670
540.510	21763
540.576	22768
540.643	21466
540.709	19584
540.775	21118
540.841	19911
540.907	20268
540.973	20611
541.039	20895
541.105	20698
541.171	21716
541.237	22820
541.303	22900
541.369	24080
541.435	21984
541.500	21724
541.566	18230
541.632	19823
541.698	20882
541.764	22393
541.830	20443
541.896	20019
541.961	21076
542.027	19908
542.093	23279
542.159	23586
542.224	20003
542.290	23124
542.356	20859
542.421	21496
542.487	20029
542.553	20243
542.618	19926
542.684	19484
542.750	20275
542.815	21863
542.881	20911
542.947	22609
543.012	23827
543.078	20084
543.143	18977
543.209	20758
543.274	19539
543.340	20322
543.405	21388
543.471	22012
543.536	21515
543.602	21919
543.667	20340
543.732	22920
543.798	21644
543.863	23792
543.928	22318
543.994	22081
544.059	23049
544.124	23438
544.190	23433
544.255	23872
544.320	24060
544.386	22499
544.451	24617
544.516	23624
544.581	22869
544.646	24986
544.712	25528
544.777	25480
544.842	23757
544.907	25790
544.972	24564
545.037	27262
545.102	28921
545.168	27618
545.233	28262
545.298	28253
545.363	27047
545.428	29792
545.493	29942
545.558	29725
545.623	29923
545.688	29064
545.753	30339
545.818	31733
545.883	35086
545.947	34949
546.012	36689
546.077	37376
546.142	39349
546.207	39872
546.272	41264
546.337	42183
546.401	44253
546.466	47882
546.531	48020
546.596	52011
546.661	53577
546.725	58263
546.790	60764
546.855	66949
546.919	72680
546.984	82695
547.049	86940
547.113	99001
547.178	110289
547.243	123801
547.307	141367
547.372	155471
547.436	156331
547.501	165655
547.565	177603
547.630	164000
547.695	156781
547.759	158071
547.823	159678
547.888	164645
547.952	169110
548.017	175995
548.081	188920
548.146	177582
548.210	180504
548.274	195367
548.339	190806
548.403	175698
548.468	165308
548.532	163442
548.596	169039
548.660	166748
548.725	181013
548.789	194601
548.853	191311
548.917	183481
548.982	178465
549.046	162512
549.110	146287
549.174	151873
549.238	175505
549.303	190659
549.367	197430
549.431	187846
549.495	175810
549.559	178559
549.623	203056
549.687	220364
549.751	215539
549.815	254591
549.879	257138
549.943	249079
550.007	259688
550.071	256849
550.135	232358
550.199	222293
550.263	219370
550.327	208183
550.391	214937
550.455	241096
550.519	245985
550.582	259043
550.646	287214
550.710	290831
550.774	288762
550.838	292240
550.901	299866
550.965	314284
551.029	324165
551.093	343677
551.156	364415
551.220	382694
551.284	392705
551.347	341425
551.411	307862
551.475	298096
551.538	311292
551.602	293782
551.666	278900
551.729	263588
551.793	260547
551.856	255299
551.920	252471
551.983	252601
552.047	248153
552.110	250457
552.174	254920
552.237	259389
552.301	242210
552.364	236637
552.428	226876
552.491	233506
552.554	237204
552.618	234724
552.681	239087
552.745	229419
552.808	234675
552.871	245022
552.934	241394
552.998	236879
553.061	231259
553.124	225583
553.187	223968
553.251	230092
553.314	229842
553.377	233217
553.440	244643
553.503	251083
553.567	251278
553.630	251255
553.693	249016
553.756	250618
553.819	246758
553.882	239063
553.945	238188
554.008	241479
554.071	241260
554.134	244436
554.197	232802
554.260	227894
554.323	230706
554.386	232071
554.449	242168
554.512	242018
554.575	231526
554.638	231888
554.701	229474
554.764	227222
554.827	220392
554.889	213652
554.952	202704
555.015	199101
555.078	201550
555.141	204411
555.203	199534
555.266	200614
555.329	198753
555.391	190454
555.454	188762
555.517	181731
555.580	175576
555.642	171091
555.705	166531
555.768	166418
555.830	162871
555.893	155369
555.955	150200
556.018	147017
556.080	147217
556.143	150947
556.206	148885
556.268	144187
556.330	142319
556.393	138228
556.455	134475
556.518	131370
556.580	128444
556.643	122931
556.705	121703
556.767	118665
556.830	117145
556.892	115679
556.955	112889
557.017	108928
557.079	108775
557.142	106795
557.204	104869
557.266	102137
557.328	98605
557.391	91585
557.453	88557
557.515	89104
557.577	90197
557.639	90155
557.701	89237
557.764	89092
557.826	89145
557.888	89254
557.950	91133
558.012	96835
558.074	115316
558.136	196362
558.198	388003
558.260	181721
558.322	95605
558.384	91764
558.446	93003
558.508	97911
558.570	105906
558.632	115183
558.694	141181
558.756	208757
558.818	445713
558.880	777888
558.942	440931
559.003	422303
559.065	234920
559.127	113720
559.189	104289
559.251	111244
559.312	144602
559.374	271527
559.436	614305
559.498	383142
559.559	130653
559.621	104546
559.683	111508
559.744	159676
559.806	369807
559.868	512791
559.929	171635
559.991	113281
560.052	156161
560.114	366566
560.176	260129
560.237	226656
560.299	338931
560.360	104903
560.422	53289
560.483	46642
560.545	42881
560.606	42605
560.667	40217
560.729	39249
560.790	37340
560.852	35697
560.913	35423
560.974	34252
561.036	34149
561.097	34404
561.158	33248
561.220	33338
561.281	30778
561.342	31883
561.403	31633
561.465	30784
561.526	30763
561.587	31016
561.648	28364
561.709	28695
561.771	29074
561.832	27722
561.893	27053
561.954	27855
562.015	28262
562.076	26119
562.137	26758
562.198	25639
562.259	26429
562.320	27281
562.381	26425
562.442	26426
562.503	26501
562.564	25024
562.625	23993
562.686	24604
562.747	23848
562.808	24413
562.869	23549
562.930	23382
562.991	23315
563.051	23331
563.112	23359
563.173	23759
563.234	22843
563.294	22500
563.355	21113
563.416	21969
563.477	22224
563.537	21630
563.598	21173
563.659	21956
563.720	21163
563.780	21122
563.841	21231
563.901	21838
563.962	21624
564.023	21314
564.083	21435
564.144	22295
564.204	19788
564.265	21063
564.325	19501
564.386	20903
564.446	20796
564.507	19623
564.567	19947
564.628	20226
564.688	20517
564.749	19371
564.809	20803
564.869	21136
564.930	19257
564.990	19565
565.050	19738
565.111	19928
565.171	19542
565.231	20350
565.292	20159
565.352	19786
565.412	20210
565.472	19206
565.532	19677
565.593	19525
565.653	20103
565.713	19224
565.773	20298
565.833	20907
565.893	21207
565.953	19365
566.013	18633
566.074	19211
566.134	17934
566.194	18110
566.254	18191
566.314	17855
566.374	17557
566.434	18474
566.494	18594
566.554	19065
566.614	18546
566.673	19257
566.733	20519
566.793	19638
566.853	19352
566.913	19790
566.973	19766
567.033	19394
567.092	19742
567.152	19059
567.212	20396
567.272	19104
567.331	20537
567.391	21015
567.451	20814
567.511	21756
567.570	21503
567.630	20426
567.690	19324
567.749	19900
567.809	20096
567.868	19263
567.928	18387
567.988	19496
568.047	18641
568.107	20285
568.166	20906
568.226	20054
568.285	21493
568.345	20227
568.404	20153
568.464	19120
568.523	19227
568.582	20241
568.642	19387
568.701	18938
568.761	18479
568.820	19260
568.879	19305
568.939	19165
568.998	19795
569.057	19288
569.116	19581
569.176	20776
569.235	19290
569.294	19071
569.353	18871
569.413	19225
569.472	17849
569.531	18156
569.590	17399
569.649	18208
569.708	17944
569.767	20410
569.827	19183
569.886	18139
569.945	18770
570.004	18968
570.063	18293
570.122	20696
570.181	19636
570.240	19699
570.299	20888
570.358	20538
570.417	20573
570.475	19922
570.534	21111
570.593	20647
570.652	21036
570.711	20128
570.770	19981
570.829	19506
570.887	19195
570.946	21556
571.005	19655
571.064	20538
571.122	19034
571.181	19604
571.240	20029
571.299	19612
571.357	19003
571.416	18887
571.475	18153
571.533	20785
571.592	20857
571.650	21819
571.709	21271
571.768	22925
571.826	23860
571.885	22963
571.943	21903
572.002	21332
572.060	21273
572.119	20199
572.177	20330
572.236	21028
572.294	19962
572.352	21974
572.411	21111
572.469	21296
572.528	20378
572.586	19387
572.644	19022
572.703	19649
572.761	18506
572.819	19457
572.877	18805
572.936	19115
572.994	18759
573.052	18781
573.110	18246
573.169	18315
573.227	18417
573.285	20111
573.343	18483
573.401	19443
573.459	19085
573.517	17960
573.576	18608
573.634	19539
573.692	18436
573.750	19193
573.808	18651
573.866	18689
573.924	17767
573.982	17558
574.040	18480
574.098	17606
574.155	17291
574.213	17578
574.271	17399
574.329	19017
574.387	17804
574.445	16519
574.503	16521
574.560	16960
574.618	16297
574.676	16971
574.734	16993
574.792	16916
574.849	16614
574.907	15075
574.965	14113
575.022	13922
575.080	14211
575.138	13994
575.195	14121
575.253	13822
575.311	13794
575.368	14600
575.426	13242
575.483	14621
575.541	15868
575.598	14603
575.656	14661
575.713	13751
575.771	15049
575.828	15497
575.886	14013
575.943	13825
576.001	13074
576.058	13634
576.115	13136
576.173	13761
576.230	14354
576.287	13919
576.345	14837
576.402	14160
576.459	14284
576.517	13344
576.574	14081
576.631	13902
576.688	12977
576.746	13262
576.803	13281
576.860	13190
576.917	13901
576.974	13936
577.031	13595
577.089	14025
577.146	12463
577.203	12689
577.260	13296
577.317	13626
577.374	12500
577.431	12538
577.488	12887
577.545	12872
577.602	12855
577.659	13041
577.716	12552
577.773	13276
577.830	12930
577.886	13543
577.943	11420
578.000	12516
578.057	12028
578.114	13062
578.171	11890
578.227	11872
578.284	13108
578.341	12683
578.398	13132
578.454	13607
578.511	12860
578.568	13466
578.625	13074
578.681	12855
578.738	12202
578.794	12795
578.851	12954
578.908	13469
578.964	12769
579.021	13502
579.077	12440
579.134	12960
579.190	13321
579.247	13695
579.303	13080
579.360	13079
579.416	12729
579.473	13735
579.529	12747
579.586	13416
579.642	12769
579.698	14084
579.755	13428
579.811	13029
579.867	14156
579.924	13502
579.980	13909
580.036	13796
580.093	13846
580.149	13554
580.205	13515
580.261	14463
580.317	14182
580.374	14860
580.430	14794
580.486	14738
580.542	14281
580.598	14545
580.619	14431
580.654	14246
580.692	14149
580.710	14122
580.765	14063
580.767	14072
580.823	15033
580.838	14787
580.879	14156
580.911	14955
580.935	15583
580.984	14328
580.991	14167
581.047	15376
581.057	15122
581.103	14094
581.130	14166
581.159	14219
581.203	14559
581.215	14679
581.270	13921
581.276	13877
581.326	13503
581.349	13810
581.382	14307
581.422	14292
581.438	14286
581.494	14776
581.494	14754
581.550	13384
581.567	13829
581.606	14711
581.640	14154
581.661	13854
581.713	14497
581.717	14556
581.773	14637
581.786	14704
581.829	14891
581.859	14364
581.885	13953
581.932	14415
581.940	14516
581.996	15395
582.004	15333
582.052	14910
582.077	14308
582.107	13595
582.150	14007
582.163	14141
582.219	14165
582.223	14091
582.274	13331
582.296	13337
582.330	13320
582.368	13308
582.386	13375
582.441	15648
582.441	15652
582.497	14103
582.514	14059
582.552	14133
582.587	13615
582.608	13299
582.659	14103
582.663	14164
582.719	14712
582.732	14431
582.774	13479
582.805	13944
582.830	14420
582.877	14103
582.885	14022
582.941	13565
582.950	13616
582.996	13932
583.023	13912
583.052	13929
583.095	13412
583.107	13304
583.162	14987
583.168	14867
583.218	13496
583.240	13351
583.273	13162
583.313	13364
583.328	13515
583.384	13777
583.385	13776
583.439	13537
583.458	13676
583.494	13939
583.531	13755
583.549	13752
583.603	13710
583.605	13699
583.660	14582
583.676	14543
583.715	14595
583.748	15238
583.770	15540
583.820	14722
583.825	14657
583.881	14996
583.893	14939
583.936	15017
583.965	15024
583.991	14822
584.038	15037
584.046	15099
584.101	14808
584.110	14937
584.156	15628
584.183	15284
584.211	14750
584.255	15598
584.266	15937
584.321	15805
584.328	15860
584.376	15834
584.400	16195
584.431	16976
584.472	16691
584.486	16489
584.541	16602
584.545	16655
584.596	17615
584.617	17641
584.651	17757
584.689	18178
584.706	18374
584.761	18301
584.762	18307
584.816	19335
584.834	19607
584.871	20012
584.906	20764
584.926	21246
584.978	21736
584.980	21766
585.035	23999
585.051	24611
585.090	26346
585.123	27342
585.145	28171
585.195	30956
585.200	31294
585.254	36529
585.267	37932
585.309	42572
585.340	45991
585.364	49100
585.412	56057
585.419	57339
585.473	70508
585.484	73945
585.528	93369
585.556	112464
585.583	147963
585.628	226516
585.637	253571
585.692	468063
585.700	502978
585.747	627347
585.772	582542
585.801	427354
585.845	207536
585.856	174431
585.910	90953
585.917	83114
585.965	61581
585.989	53258
586.019	47357
586.061	41765
586.074	40499
586.128	36229
586.133	35905
586.183	34214
586.205	33676
586.237	33112
586.277	32293
586.292	32154
586.346	32455
586.349	32435
586.401	31673
586.421	31376
586.455	31505
586.493	31768
586.509	31867
586.564	31142
586.565	31152
586.618	33437
586.637	34284
586.672	37333
586.709	40613
586.727	42358
586.781	48395
586.781	48424
586.835	41494
586.853	39661
586.889	36376
586.925	33746
586.944	33297
586.996	33146
586.998	33176
587.052	32932
587.068	32945
587.106	32928
587.140	32717
587.161	32875
587.212	33794
587.215	33860
587.269	33811
587.284	34122
587.323	35254
587.356	35641
587.377	35713
587.427	36516
587.431	36659
587.485	37660
587.499	37910
587.539	38003
587.571	38598
587.593	40123
587.643	42671
587.648	42748
587.702	43043
587.715	43021
587.755	43071
587.786	43273
587.810	43509
587.858	43425
587.864	43483
587.917	44056
587.930	44063
587.971	44047
588.001	44096
588.025	44319
588.073	44432
588.079	44408
588.133	43773
588.145	43603
588.187	43692
588.217	44014
588.241	44829
588.288	46594
588.295	46801
588.348	47314
588.360	47447
588.402	48067
588.431	48150
588.456	48469
588.503	49768
588.510	50151
588.564	52881
588.575	53491
588.617	56201
588.646	57708
588.671	59083
588.718	62521
588.725	63394
588.778	71334
588.789	73315
588.832	99002
588.861	119268
588.886	162640
588.932	256232
588.939	265884
588.993	337495
589.004	338182
589.047	201054
589.075	118275
589.100	93950
589.147	64050
589.154	63363
589.207	59240
589.218	58454
589.261	58973
589.290	59713
589.314	60955
589.361	64022
589.368	65407
589.421	77586
589.433	80752
589.475	124773
589.504	159317
589.528	204687
589.576	300607
589.582	293013
589.635	175618
589.647	151000
589.689	93848
589.718	61591
589.742	58720
589.790	53758
589.795	53718
589.849	52877
589.861	52703
589.902	51972
589.932	51137
589.955	51171
590.004	51325
590.009	51393
590.062	51138
590.075	50983
590.115	50784
590.146	50689
590.168	50910
590.218	51190
590.222	51336
590.275	52212
590.289	52398
590.328	53976
590.360	54894
590.381	54946
590.431	55313
590.435	55493
590.488	56616
590.503	56924
590.541	56938
590.574	56685
590.594	57290
590.645	58917
590.647	59077
590.700	60674
590.716	61096
590.753	63479
590.787	65570
590.806	66158
590.859	67419
590.859	67543
590.912	68136
590.930	68331
590.965	69046
591.001	69534
591.018	69366
591.071	68117
591.072	67992
591.124	67701
591.143	67570
591.177	68434
591.214	69147
591.230	69560
591.283	70508
591.285	70412
591.336	69821
591.356	69633
591.389	69855
591.427	69654
591.442	69576
591.495	68897
591.498	68726
591.547	69585
591.569	69917
591.600	70926
591.640	71752
591.653	72184
591.706	73679
591.711	73694
591.759	75317
591.782	76002
591.811	77336
591.853	78998
591.864	79326
591.917	80066
591.924	80018
591.969	80013
591.995	79855
592.022	80241
592.066	80489
592.075	81120
592.127	84151
592.137	84546
592.180	86609
592.208	87728
592.233	88541
592.279	89589
592.285	89952
592.338	91588
592.350	91780
592.390	91892
592.421	91676
592.443	92536
592.491	93869
592.495	94236
592.548	96773
592.562	97272
592.600	96856
592.633	96173
592.653	96013
592.704	94596
592.705	95202
592.775	98432
592.846	102621
592.916	103515
592.987	103169
593.058	105050
593.128	106341
593.199	107211
593.270	109627
593.341	112263
593.411	114537
593.482	121117
593.553	123259
593.623	124302
593.694	126365
593.764	129028
593.835	126322
593.906	129230
593.976	130944
594.047	134223
594.117	140595
594.188	143073
594.258	143169
594.329	142718
594.399	146865
594.470	152215
594.540	154209
594.611	159440
594.681	157148
594.751	158865
594.822	162571
594.892	169901
594.963	171810
595.033	177651
595.103	184024
595.174	184742
595.244	188894
595.314	195236
595.384	199134
595.455	205126
595.525	211012
595.595	220900
595.665	219461
595.736	213850
595.806	217154
595.876	221564
595.946	221572
596.016	232409
596.087	239203
596.157	240102
596.227	239923
596.297	250681
596.367	270129
596.437	280846
596.507	283177
596.577	280789
596.647	288881
596.717	303677
596.787	309023
596.857	307843
596.927	306696
596.997	311349
597.067	314724
597.137	318501
597.207	321731
597.277	324579
597.347	311870
597.417	302852
597.487	301574
597.557	307952
597.626	315953
597.696	321523
597.766	318230
597.836	300415
597.906	286601
597.975	280804
598.045	283286
598.115	297073
598.185	317629
598.254	352105
598.324	378696
598.394	385839
598.464	373113
598.533	367443
598.603	343573
598.672	333658
598.742	340630
598.812	341180
598.881	351547
598.951	351666
599.020	355399
599.090	367675
599.159	373089
599.229	357098
599.299	351842
599.368	360161
599.437	356606
599.507	328553
599.576	318193
599.646	314033
599.715	308339
599.785	306608
599.854	297823
599.924	293383
599.993	291546
600.062	297540
600.132	306530
600.201	323202
600.270	369687
600.340	390616
600.409	383447
600.478	378119
600.547	391373
600.617	352703
600.686	283799
600.755	258266
600.824	243801
600.894	239225
600.963	240112
601.032	236146
601.101	227824
601.170	217714
601.239	208644
601.308	209316
601.378	210006
601.447	212669
601.516	211810
601.585	212924
601.654	215595
601.723	216545
601.792	222995
601.861	229849
601.930	236205
601.999	239803
602.068	239171
602.137	239105
602.206	243666
602.275	248848
602.343	248402
602.412	250367
602.481	253654
602.550	257786
602.619	260057
602.688	265139
602.756	266898
602.825	269907
602.894	277082
602.963	284204
603.032	285570
603.100	288489
603.169	286304
603.238	289084
603.307	292057
603.375	294231
603.444	299970
603.513	307453
603.581	307852
603.650	312693
603.719	310043
603.787	319586
603.856	328923
603.924	336436
603.993	346614
604.061	358897
604.130	374702
604.198	379702
604.267	384292
604.335	390709
604.404	396103
604.472	403607
604.541	407515
604.609	409114
604.678	411480
604.746	412083
604.815	421502
604.883	428258
604.951	428242
605.020	436051
605.088	445087
605.156	458038
605.225	462356
605.293	460725
605.361	462372
605.429	466218
605.498	475586
605.566	485555
605.634	506972
605.702	524931
605.771	538837
605.839	541562
605.907	533255
605.975	515970
606.043	507306
606.111	509086
606.180	504267
606.248	501451
606.316	497392
606.384	495377
606.452	501997
606.520	518218
606.588	535109
606.656	537827
606.724	527215
606.792	501811
606.860	458644
606.928	425617
606.996	410171
607.064	401270
607.132	411662
607.200	434462
607.267	447144
607.335	454737
607.403	464770
607.471	449166
607.539	436024
607.607	437716
607.674	392157
607.742	391250
607.810	385584
607.878	384531
607.946	395166
608.013	413513
608.081	419952
608.149	424781
608.216	438677
608.284	448335
608.352	451281
608.419	447263
608.487	434042
608.555	431225
608.622	442921
608.690	468678
608.757	511276
608.825	518244
608.893	508342
608.960	481587
609.028	462185
609.095	464093
609.163	462585
609.230	420865
609.298	385082
609.365	406441
609.432	435802
609.500	468326
609.567	523197
609.635	588830
609.702	612452
609.769	584984
609.837	470046
609.904	415729
609.971	420587
610.039	441629
610.106	503126
610.173	707181
610.241	1153345
610.308	876552
610.375	517166
610.442	456128
610.509	434607
610.577	433974
610.644	436896
610.711	449885
610.778	460085
610.845	477873
610.912	503005
610.980	521983
611.047	520370
611.114	513803
611.181	499372
611.248	497840
611.315	520108
611.382	534832
611.449	551277
611.516	561162
611.583	551061
611.650	553467
611.717	558546
611.784	568439
611.851	577997
611.918	594834
611.984	644379
612.051	750833
612.118	1016294
612.185	1522430
612.252	1306939
612.319	806954
612.386	700562
612.452	649197
612.519	619789
612.586	604639
612.653	615645
612.719	634463
612.786	615389
612.853	581557
612.919	571895
612.986	579235
613.053	549175
613.120	525011
613.186	508442
613.253	510775
613.319	511202
613.386	515521
613.453	521654
613.519	523535
613.586	514030
613.652	519929
613.719	513236
613.785	522813
613.852	527163
613.918	526077
613.985	525877
614.051	546992
614.118	542638
614.184	518457
614.250	524844
614.317	537105
614.383	527460
614.449	539087
614.516	534274
614.582	535887
614.648	529035
614.715	524839
614.781	517401
614.847	517204
614.914	513797
614.980	503372
615.046	503521
615.112	519626
615.179	519139
615.245	526262
615.311	517786
615.377	524612
615.443	529028
615.509	533102
615.575	547763
615.642	545189
615.708	554664
615.774	570084
615.840	591973
615.906	604090
615.972	658715
616.038	796172
616.104	1146974
616.170	1609399
616.236	1522103
616.302	986762
616.368	835122
616.434	683820
616.500	632511
616.565	658324
616.631	757357
616.697	692168
616.763	678318
616.829	835190
616.895	1199322
616.961	1183547
617.026	764953
617.092	599562
617.158	564956
617.224	550396
617.289	519506
617.355	499575
617.421	490759
617.487	492048
617.552	469544
617.618	470800
617.684	470120
617.749	471699
617.815	455260
617.880	449483
617.946	446659
618.012	456375
618.077	464773
618.143	446152
618.208	447844
618.274	475974
618.339	476028
618.405	411238
618.470	409741
618.536	407871
618.601	405263
618.667	381822
618.732	366340
618.798	360018
618.863	362459
618.928	358253
618.994	360879
619.059	355612
619.124	358984
619.190	358532
619.255	353928
619.320	355428
619.386	361750
619.451	357070
619.516	346484
619.581	352592
619.647	361215
619.712	365788
619.777	349642
619.842	353993
619.907	361149
619.972	364504
620.038	362579
620.103	355180
620.168	354635
620.233	359290
620.298	362007
620.363	366412
620.428	375091
620.493	384130
620.558	387101
620.623	389632
620.688	387406
620.753	384457
620.818	393386
620.883	393157
620.948	394060
621.013	389317
621.078	381801
621.143	385163
621.207	386834
621.272	381581
621.337	371703
621.402	371099
621.467	367026
621.532	367864
621.596	368161
621.661	359046
621.726	357239
621.791	359446
621.855	361161
621.920	357834
621.985	363525
622.049	368982
622.114	368672
622.179	372287
622.243	377992
622.308	390914
622.373	400559
622.437	392842
622.502	375670
622.566	373404
622.631	371745
622.695	379699
622.760	379074
622.824	376462
622.889	379177
622.953	377152
623.018	394660
623.082	399567
623.147	394735
623.211	388412
623.276	389935
623.340	376284
623.404	371635
623.469	371850
623.533	373034
623.597	366307
623.662	366796
623.726	345949
623.790	330216
623.854	321071
623.919	326894
623.983	330260
624.047	332017
624.111	335616
624.176	339592
624.240	343008
624.304	351540
624.368	340501
624.432	339454
624.496	346875
624.560	360943
624.625	362901
624.689	360044
624.753	374088
624.817	361705
624.881	351180
624.945	326026
625.009	316301
625.073	321514
625.137	330056
625.201	338343
625.265	340140
625.329	328819
625.393	332187
625.456	336516
625.520	342065
625.584	345488
625.648	351068
625.712	356360
625.776	352810
625.839	337406
625.903	296058
625.967	277848
626.031	290848
626.095	333169
626.158	319648
626.222	262864
626.286	247089
626.349	240044
626.413	225531
626.477	222658
626.540	225493
626.604	223860
626.668	218725
626.731	218307
626.795	216933
626.858	215814
626.922	213845
626.986	210017
627.049	212219
627.113	218101
627.176	211775
627.240	206754
627.303	208329
627.366	203790
627.430	207531
627.493	203605
627.557	197815
627.620	202832
627.684	210759
627.747	209338
627.810	195932
627.874	177369
627.937	170914
628.000	176577
628.064	171436
628.127	158230
628.190	152878
628.253	149919
628.317	143969
628.380	137994
628.443	135688
628.506	134458
628.569	128343
628.632	124261
628.696	123775
628.759	123273
628.822	119476
628.885	115236
628.948	114372
629.011	111093
629.074	108401
629.137	105489
629.200	102375
629.263	103538
629.326	101605
629.389	101101
629.452	99892
629.515	97310
629.578	94344
629.641	96407
629.704	97208
629.767	94158
629.830	93764
629.892	90845
629.955	90590
630.018	92549
630.081	91346
630.144	89440
630.207	88604
630.269	89865
630.332	84550
630.395	85927
630.458	82990
630.520	80697
630.583	81373
630.646	83179
630.708	83717
630.771	83892
630.834	88207
630.896	86385
630.959	86060
631.021	83477
631.084	83805
631.146	83798
631.209	85528
631.272	83617
631.334	84757
631.397	85145
631.459	83950
631.522	87628
631.584	89000
631.646	92111
631.709	92261
631.771	91597
631.834	89340
631.896	87857
631.958	83523
632.021	81421
632.083	79123
632.145	80165
632.208	78309
632.270	80790
632.332	77401
632.395	77274
632.457	79583
632.519	75176
632.581	78762
632.643	77186
632.706	75974
632.768	74145
632.830	77768
632.892	78259
632.954	78216
633.016	78695
633.078	78408
633.141	77953
633.203	76942
633.265	77190
633.327	76683
633.389	76679
633.451	77643
633.513	75568
633.575	79203
633.637	76587
633.698	79341
633.760	84011
633.822	84418
633.884	84913
633.946	86111
634.008	87461
634.070	87773
634.132	90927
634.193	95335
634.255	100995
634.317	102452
634.379	100641
634.441	93650
634.502	88231
634.564	83842
634.626	78086
634.687	76117
634.749	73609
634.811	75074
634.873	72191
634.934	73985
634.996	73310
635.057	74080
635.119	73634
635.181	75936
635.242	74654
635.304	72685
635.365	78153
635.427	74463
635.488	74362
635.550	73487
635.611	75286
635.673	73760
635.734	79444
635.796	79944
635.857	86455
635.918	89992
635.980	96508
636.041	99623
636.102	103011
636.164	102591
636.225	100522
636.286	90035
636.348	83482
636.409	78276
636.470	75871
636.531	74785
636.593	73022
636.654	72364
636.715	68961
636.776	70678
636.838	67691
636.899	67443
636.960	66533
637.021	66305
637.082	64343
637.143	63793
637.204	62551
637.265	63197
637.326	64712
637.387	65007
637.448	64021
637.509	64860
637.570	64095
637.631	63671
637.692	61279
637.753	60571
637.814	60756
637.875	60638
637.936	61086
637.997	60736
638.058	60530
638.119	62019
638.179	60079
638.240	60081
638.301	61251
638.362	58137
638.423	58324
638.483	58763
638.544	55806
638.605	60599
638.666	57437
638.726	58337
638.787	58328
638.848	58393
638.908	56394
638.969	54837
639.030	54399
639.090	53553
639.151	53989
639.211	57100
639.272	56407
639.332	57211
639.393	56616
639.453	58568
639.514	60615
639.574	55156
639.635	51896
639.695	53007
639.756	51833
639.816	51429
639.877	50647
639.937	52206
639.997	51800
640.058	50298
640.118	52625
640.178	52519
640.239	51743
640.299	52434
640.359	52110
640.420	55172
640.480	57534
640.540	63228
640.600	63780
640.661	62175
640.721	61408
640.781	68776
640.841	71424
640.901	55227
640.961	53862
641.021	55107
641.082	56429
641.142	52992
641.202	50720
641.262	49004
641.322	50797
641.382	49352
641.442	50455
641.502	49634
641.562	51107
641.622	51742
641.682	54181
641.742	58588
641.802	54852
641.861	50895
641.921	47942
641.981	48086
642.041	47452
642.101	45913
642.161	44455
642.221	46218
642.280	46932
642.340	47384
642.400	46914
642.460	49299
642.519	48811
642.579	49282
642.639	48397
642.698	47213
642.758	50953
642.818	48852
642.877	48127
642.937	49708
642.997	48509
643.056	49024
643.116	47528
643.175	50991
643.235	50418
643.294	51421
643.354	52473
643.414	54122
643.473	58259
643.532	63621
643.592	76003
643.651	101670
643.711	150654
643.770	256322
643.830	518369
643.889	821337
643.948	348470
644.008	121461
644.067	79809
644.126	63808
644.186	56656
644.245	54230
644.304	49379
644.363	50710
644.423	45924
644.482	47587
644.541	50306
644.600	49946
644.659	58932
644.719	63789
644.778	83698
644.837	123989
644.896	221609
644.955	431922
645.014	179945
645.073	70188
645.132	57245
645.191	53596
645.250	50940
645.309	53383
645.368	56782
645.427	68537
645.486	103957
645.545	162970
645.604	66049
645.663	49237
645.722	47750
645.781	50363
645.840	52316
645.898	56981
645.957	70691
646.016	91238
646.075	140440
646.134	243048
646.192	521276
646.251	665767
646.310	207786
646.369	90022
646.427	75255
646.486	60762
646.545	50962
646.603	47575
646.662	45768
646.721	43626
646.779	42314
646.838	43645
646.896	48568
646.955	59279
647.014	81670
647.072	138435
647.131	320943
647.189	174082
647.248	50626
647.306	42493
647.365	39689
647.423	35164
647.481	37716
647.540	34890
647.598	35958
647.657	35229
647.715	35612
647.773	33791
647.832	34228
647.890	30657
647.948	31528
648.007	31909
648.065	29495
648.123	29928
648.181	30810
648.240	30412
648.298	28629
648.356	29318
648.414	30330
648.472	29507
648.531	28107
648.589	26779
648.647	27253
648.705	28327
648.763	28129
648.821	28590
648.879	27660
648.937	29906
648.995	32922
649.053	36724
649.111	47709
649.169	70010
649.227	112743
649.285	215598
649.343	493028
649.401	274261
649.459	66161
649.516	41376
649.574	32833
649.632	34669
649.690	36890
649.748	42251
649.806	56977
649.863	96626
649.921	240058
649.979	170327
650.037	38956
650.094	26070
650.152	25281
650.210	25008
650.268	25990
650.325	27075
650.383	34357
650.440	22321
650.498	20641
650.556	20936
650.613	19964
650.671	20999
650.728	21491
650.786	21921
650.843	27566
650.901	22811
650.958	19870
651.016	17951
651.073	17988
651.131	18903
651.188	16653
651.246	17927
651.303	16258
651.360	17187
651.418	16906
651.475	17097
651.532	16288
651.590	17601
651.647	15741
651.704	16182
651.762	16282
651.819	16962
651.876	15171
651.933	14895
651.990	15201
652.048	15264
652.105	14481
652.162	15763
652.219	14449
652.276	14580
652.333	15225
652.390	14382
652.448	13720
652.505	15610
652.562	13631
652.619	14303
652.676	14619
652.733	14770
652.790	13365
652.847	12600
652.904	13246
652.961	13661
653.017	12737
653.074	14388
653.131	12961
653.188	12706
653.245	13085
653.302	13036
653.359	12874
653.415	13231
653.472	12917
653.529	13224
653.586	12584
653.642	11932
653.699	13272
653.756	12520
653.813	12095
653.869	13862
653.926	12861
653.983	12894
654.039	12910
654.096	13216
654.152	13380
654.209	11131
654.266	13073
654.322	12673
654.379	12408
654.435	13112
654.492	12519
654.548	13214
654.605	12666
654.661	14407
654.717	12137
654.774	12283
654.830	12946
654.887	13660
654.943	13412
655.000	16811
655.056	13945
655.112	12455
655.168	11151
655.225	11920
655.281	12862
655.337	12260
655.394	11450
655.450	11608
655.506	10703
655.562	11390
655.618	12781
655.675	10208
655.731	11868
655.787	10461
655.843	11740
655.899	10971
655.955	11779
656.011	12466
656.067	11068
656.123	11980
656.179	11291
656.235	13199
656.291	10819
656.347	13714
656.403	11330
656.459	11674
656.515	11505
656.571	11904
656.627	11188
656.683	12061
656.739	11959
656.795	11159
656.850	10711
656.906	11306
656.962	11918
657.018	11593
657.074	15218
657.129	19658
657.185	27594
657.241	58609
657.297	33749
657.352	13598
657.408	11467
657.464	11756
657.519	9803
657.575	10442
657.630	11223
657.686	10244
657.742	10463
657.797	10351
657.853	9864
657.908	11597
657.964	9675
658.019	11180
658.075	10658
658.130	10506
658.186	9305
658.241	10859
658.297	9128
658.352	10079
658.407	10263
658.463	9476
658.518	10161
658.573	10027
658.629	9144
658.684	9998
658.739	10309
658.795	8846
658.850	9963
658.905	10470
658.960	10117
659.016	9653
659.071	9458
659.126	10029
659.181	9322
659.236	9925
659.291	9507
659.346	9040
659.401	8785
659.457	9868
659.512	9400
659.567	10623
659.622	10008
659.677	9123
659.732	8280
659.787	9433
659.842	8724
659.897	10034
659.952	9684
660.007	9455
660.061	9597
660.116	8562
660.171	9595
660.226	9801
660.281	9994
660.336	9229
660.391	9363
660.445	9330
660.500	9732
660.555	9771
660.610	8596
660.664	10110
660.719	8902
660.774	8901
660.828	8486
660.883	8492
660.938	8663
660.992	8474
661.047	9253
661.101	7873
661.156	8099
661.211	7264
661.265	7629
661.320	8769
661.374	8736
661.429	7317
661.483	9602
661.538	8999
661.592	9642
661.647	12031
661.701	14775
661.755	10987
661.810	8790
661.864	8149
661.919	7657
661.973	9110
662.027	8322
662.081	7613
662.136	7988
662.190	8671
662.244	8573
662.299	7987
662.353	8763
662.407	7712
662.461	7860
662.515	7999
662.569	7452
662.624	7905
662.678	7615
662.732	8292
662.786	7091
662.840	8192
662.894	8676
662.948	8674
663.002	8159
663.056	8693
663.110	8420
663.164	7825
663.218	9537
663.272	8195
663.326	9036
663.380	7776
663.434	8026
663.488	8388
663.542	8140
663.595	8590
663.649	8323
663.703	9837
663.757	7894
663.811	7700
663.864	7798
663.918	8445
663.972	7268
664.026	8122
664.079	7838
664.133	9862
664.187	8349
664.240	9274
664.294	8924
664.348	9003
664.401	8532
664.455	7944
664.508	7761
664.562	8382
664.615	7985
664.669	7979
664.722	6930
664.776	7671
664.829	8133
664.883	7546
664.936	8846
664.990	7978
665.043	8823
665.097	8864
665.150	9552
665.203	7665
665.257	7659
665.310	9037
665.363	9099
665.417	8545
665.470	8586
665.523	8557
665.576	8354
665.630	8707
665.683	7848
665.736	8927
665.789	8029
665.842	7083
665.895	7970
665.949	8875
666.002	9300
666.055	8837
666.108	10073
666.161	8490
666.214	8721
666.267	9693
666.320	8934
666.373	9123
666.426	8853
666.479	9004
666.532	9238
666.585	9281
666.638	9713
666.691	9805
666.744	8987
666.796	9742
666.849	8801
666.902	9770
666.955	8918
667.008	8438
667.060	8161
667.113	8879
667.166	9899
667.219	10114
667.271	9780
667.324	10337
667.377	9644
667.430	10411
667.482	9466
667.535	9079
667.587	9748
667.640	9289
667.693	8229
667.745	9559
667.798	9781
667.850	8748
667.903	9678
667.955	10480
668.008	8348
668.060	9958
668.113	8578
668.165	9220
668.218	7957
668.270	8726
668.322	7835
668.375	9008
668.427	8345
668.479	8051
668.532	8956
668.584	8856
668.636	8119
668.689	9474
668.741	7659
668.793	8946
668.845	8852
668.898	8428
668.950	8214
669.002	8432
669.054	8635
669.106	7440
669.158	8876
669.211	8045
669.263	8444
669.315	8861
669.367	8293
669.419	7001
669.471	8751
669.523	8042
669.575	8061
669.627	7279
669.679	7158
669.731	8864
669.783	7884
669.835	7331
669.886	6711
669.938	7458
669.990	7768
670.042	6816
670.094	7308
670.146	7507
670.197	7371
670.249	7601
670.301	7180
670.353	8211
670.404	7756
670.456	7280
670.508	8252
670.560	10194
670.611	11344
670.663	13546
670.715	23660
670.766	32635
670.818	12518
670.869	8948
670.921	8291
670.972	9108
671.024	7717
671.075	7713
671.127	7251
671.178	8220
671.230	8742
671.281	9152
671.333	10921
671.384	11076
671.436	15029
671.487	19537
671.538	26091
671.590	40819
671.641	64981
671.692	111277
671.744	194152
671.795	148453
671.846	64152
671.897	33456
671.949	22720
672.000	16887
672.051	13050
672.102	11221
672.153	9949
672.204	9161
672.256	8517
672.307	7988
672.358	7531
672.409	7668
672.460	7721
672.511	6963
672.562	5711
672.613	6377
672.664	4821
672.715	7295
672.766	4876
672.817	5801
672.868	5261
672.919	6155
672.970	4855
673.021	6771
673.071	4829
673.122	4496
673.173	5228
673.224	5688
673.275	5176
673.326	5038
673.376	4486
673.427	5002
673.478	5634
673.528	5994
673.579	5777
673.630	5533
673.680	6081
673.731	5297
673.782	5038
673.832	5645
673.883	5363
673.934	5827
673.984	5462
674.035	6246
674.085	5320
674.136	5599
674.186	5386
674.237	5606
674.287	4391
674.338	5688
674.388	5272
674.438	5153
674.489	6170
674.539	6375
674.589	5654
674.640	5131
674.690	5947
674.740	5586
674.791	4701
674.841	5239
674.891	4805
674.942	4109
674.992	4460
675.042	4254
675.092	3915
675.142	3512
675.193	4305
675.243	4348
675.293	5186
675.343	4479
675.393	4582
675.443	5555
675.493	4086
675.543	3941
675.593	4850
675.643	5244
675.693	4563
675.743	4754
675.793	4346
675.843	4119
675.893	3742
675.943	4507
675.993	3697
676.043	3739
676.093	3329
676.142	4528
676.192	4172
676.242	4323
676.292	4221
676.341	4318
676.391	3548
676.441	3363
676.491	3668
676.540	4008
676.590	3183
676.640	3836
676.689	3319
676.739	3553
676.789	3280
676.838	3747
676.888	3116
676.937	3981
676.987	3418
677.037	3686
677.086	3448
677.136	2826
677.185	3524
677.235	3476
677.284	3169
677.333	3611
677.383	3855
677.432	3103
677.482	3529
677.531	3145
677.580	2332
677.630	3207
677.679	3152
677.728	3755
677.778	2907
677.827	2663
677.876	3904
677.925	3327
677.975	3503
678.024	4308
678.073	4191
678.122	3367
678.171	4203
678.220	4231
678.269	4420
678.319	4149
678.368	4519
678.417	4174
678.466	4325
678.515	4625
678.564	3780
678.613	2655
678.662	3347
678.711	3731
678.760	3121
678.809	4302
678.857	3368
678.906	3326
678.955	3779
679.004	4435
679.053	4868
679.102	4817
679.151	2846
679.199	3511
679.248	3351
679.297	3987
679.346	3103
679.394	2851
679.443	3008
679.492	3269
679.540	2928
679.589	2709
679.638	3172
679.686	3225
679.735	3424
679.784	4402
679.832	3796
679.881	3978
679.929	3605
679.978	3028
680.026	3057
680.075	3438
680.123	3044
680.172	2697
680.220	2331
680.268	3672
680.317	1762
680.365	2878
680.414	2076
680.462	2721
680.510	3231
680.559	2647
680.607	2471
680.655	3126
680.703	3473
680.752	3468
680.800	2849
680.848	3279
680.896	3335
680.945	2855
680.993	2181
681.041	3241
681.089	2393
681.137	3380
681.185	2802
681.233	2755
681.258	2949
681.281	3085
681.329	2974
681.377	1862
681.380	1982
681.425	3299
681.473	3540
681.502	3344
681.521	3115
681.569	3936
681.617	3265
681.624	3299
681.665	3132
681.713	3377
681.745	3863
681.761	4016
681.809	3387
681.857	4522
681.867	4396
681.904	3766
681.952	4527
681.989	3972
682.000	3734
682.048	4879
682.096	4886
682.111	4696
682.143	4182
682.191	4971
682.233	5794
682.239	5864
682.286	4800
682.334	4928
682.354	5326
682.382	5759
682.430	5616
682.476	5061
682.477	5005
682.525	5735
682.572	5140
682.598	4911
682.620	4650
682.667	5533
682.715	5735
682.720	5811
682.763	6078
682.810	5975
682.841	5952
682.857	5876
682.905	5506
682.952	5819
682.963	5888
683.000	5970
683.047	6191
683.085	6762
683.095	6881
683.142	6917
683.190	7032
683.206	6897
683.237	6451
683.284	7120
683.328	6369
683.332	6269
683.379	6575
683.426	6945
683.449	7021
683.473	7106
683.521	6598
683.568	7363
683.571	7420
683.615	7561
683.662	7906
683.693	7471
683.709	7155
683.757	6745
683.804	6914
683.814	7013
683.851	7334
683.898	7966
683.936	7397
683.945	7228
683.992	8142
684.039	8620
684.057	8442
684.086	7975
684.133	7834
684.179	7883
684.180	7860
684.227	8046
684.274	8163
684.300	8181
684.321	8165
684.368	8100
684.415	8662
684.422	8640
684.462	8400
684.509	8957
684.543	9059
684.556	9035
684.603	9022
684.649	9163
684.665	9218
684.696	9274
684.743	9632
684.786	9482
684.790	9435
684.837	9409
684.883	9423
684.908	10017
684.930	10620
684.977	9956
685.023	9551
685.029	9747
685.070	10882
685.117	10410
685.150	9674
685.164	9399
685.210	10281
685.257	10458
685.272	10654
685.303	10985
685.350	10483
685.393	10804
685.396	10780
685.443	9453
685.490	9814
685.514	9696
685.536	9828
685.583	10070
685.629	9629
685.636	9762
685.675	10329
685.722	10525
685.757	10672
685.768	10741
685.815	10489
685.861	11100
685.878	11133
685.908	11039
685.954	11093
686.000	11332
686.000	11327
686.047	11476
686.093	11630
686.121	11586
686.139	11437
686.185	11968
686.232	12347
686.242	12231
686.278	11932
686.324	12400
686.363	11923
686.370	11811
686.416	12164
686.463	12012
686.484	12193
686.509	12332
686.555	12562
686.601	12596
686.606	12600
686.647	12728
686.693	12624
686.727	12230
686.739	12074
686.785	12341
686.831	12321
686.848	12328
686.877	12348
686.923	12667
686.969	12991
686.969	12992
687.015	13028
687.061	13605
687.090	14154
687.107	14302
687.153	14193
687.199	14456
687.211	14308
687.245	13828
687.291	13758
687.332	13844
687.336	13898
687.382	13938
687.428	14580
687.453	14823
687.474	15072
687.520	15859
687.565	16470
687.574	16480
687.611	17415
687.657	20127
687.695	21413
687.702	22062
687.748	27299
687.794	33126
687.816	34415
687.839	31400
687.885	26135
687.931	21509
687.937	20862
687.976	19225
688.022	17062
688.058	15941
688.067	16049
688.113	15129
688.158	15169
688.179	15199
688.204	15258
688.249	14888
688.295	14999
688.300	15006
688.340	15247
688.386	15376
688.421	15445
688.431	15540
688.477	15211
688.522	15844
688.542	16149
688.567	16698
688.613	16996
688.658	17479
688.663	17560
688.703	17516
688.749	16741
688.784	16803
688.794	16944
688.839	17202
688.884	17341
688.905	17347
688.930	17254
688.975	17215
689.020	17186
689.026	17172
689.065	17608
689.110	18483
689.146	18558
689.155	18706
689.201	20355
689.246	21002
689.267	21263
689.291	20324
689.336	19406
689.381	17274
689.388	17033
689.426	17128
689.471	17311
689.509	17404
689.516	17463
689.561	17338
689.606	17675
689.630	17460
689.651	17221
689.696	17377
689.741	17478
689.750	17453
689.785	17713
689.830	18007
689.871	18287
689.875	18272
689.920	17704
689.965	17726
689.992	17185
690.010	17172
690.054	17556
690.099	17718
690.112	17823
690.144	17727
690.189	17249
690.233	16936
690.233	16960
690.278	17395
690.323	17684
690.354	17824
690.367	17913
690.412	17859
690.457	17454
690.474	17687
690.501	17875
690.546	17511
690.590	17270
690.595	17186
690.635	16928
690.680	17137
690.716	16873
690.724	16854
690.769	17073
690.813	17182
690.836	17185
690.857	17535
690.902	18386
690.946	19349
690.957	19288
690.991	18541
691.035	18696
691.077	18528
691.080	18566
691.124	18914
691.168	18548
691.198	18748
691.213	18884
691.257	18794
691.301	19032
691.318	19179
691.346	19256
691.390	19031
691.434	18427
691.439	18346
691.478	18416
691.522	18789
691.559	18858
691.567	18962
691.611	19643
691.655	20115
691.680	20346
691.699	20317
691.743	20373
691.787	20485
691.800	20363
691.831	20203
691.875	20053
691.919	19739
691.921	19702
691.964	19675
692.008	19723
692.041	19549
692.052	19665
692.096	20046
692.139	20531
692.162	20767
692.183	20759
692.227	20158
692.271	20243
692.282	20120
692.315	19840
692.359	19661
692.402	19005
692.403	19040
692.447	19233
692.490	19515
692.523	19407
692.534	19407
692.578	19574
692.622	19464
692.643	19435
692.666	19505
692.709	19584
692.753	19708
692.763	19741
692.797	19969
692.840	19863
692.884	19853
692.884	19891
692.928	19601
692.971	19556
693.004	19264
693.015	19322
693.059	20024
693.102	20330
693.124	20558
693.146	20690
693.189	20216
693.233	20131
693.245	20085
693.276	20278
693.320	20527
693.363	20685
693.365	20653
693.407	20863
693.450	20756
693.485	20706
693.493	20730
693.537	20746
693.580	20614
693.605	20669
693.624	20663
693.667	20362
693.710	19672
693.725	19603
693.753	19936
693.797	20168
693.840	20323
693.845	20299
693.883	20554
693.926	20957
693.966	21004
693.970	21025
694.013	20786
694.056	20991
694.086	20680
694.099	20607
694.142	20610
694.185	20527
694.206	20443
694.229	20883
694.272	21649
694.315	22389
694.326	22532
694.358	22378
694.401	22112
694.444	21964
694.446	21889
694.487	21490
694.530	21284
694.566	21005
694.573	21117
694.616	21452
694.659	22031
694.686	22311
694.702	22601
694.745	23212
694.787	23763
694.806	23937
694.830	23620
694.873	23151
694.916	22398
694.926	22229
694.959	23009
695.002	23737
695.044	24588
695.046	24568
695.087	24978
695.130	25258
695.166	25281
695.172	25320
695.215	25448
695.258	25512
695.286	25464
695.301	25787
695.343	26660
695.386	27686
695.406	27819
695.428	28826
695.471	31360
695.514	33552
695.526	34113
695.556	35840
695.599	38376
695.641	40640
695.646	40790
695.684	38934
695.726	37017
695.766	34766
695.769	34755
695.811	33513
695.854	32506
695.886	31703
695.896	32020
695.938	32665
695.981	33735
696.005	34106
696.023	34991
696.065	37156
696.108	39003
696.125	39790
696.150	40548
696.192	41597
696.235	42593
696.245	42766
696.277	43029
696.319	43179
696.361	43266
696.365	43168
696.404	42209
696.446	41163
696.485	40166
696.488	40278
696.530	40288
696.572	40233
696.604	40341
696.614	40469
696.656	40324
696.698	40184
696.724	40114
696.740	40409
696.783	40916
696.825	41340
696.844	41436
696.867	41777
696.909	42241
696.951	42521
696.964	42606
696.992	42841
697.034	42681
697.076	42916
697.083	42822
697.118	44230
697.160	45704
697.202	47174
697.203	47100
697.244	46747
697.286	46282
697.323	45609
697.327	45713
697.369	45712
697.411	45730
697.442	45610
697.453	45724
697.494	45712
697.536	45631
697.562	45563
697.578	45862
697.620	46270
697.661	46668
697.682	46778
697.703	47579
697.744	48866
697.786	50211
697.801	50571
697.828	50358
697.869	49743
697.911	49161
697.921	48898
697.952	49118
697.994	49239
698.035	49363
698.040	49253
698.077	49789
698.118	50203
698.160	50673
698.160	50545
698.201	51923
698.243	53146
698.279	54094
698.284	54396
698.325	55935
698.367	57443
698.399	58486
698.408	58724
698.449	59179
698.491	59590
698.518	59677
698.532	59682
698.573	59293
698.614	58872
698.638	58480
698.656	58663
698.697	58746
698.738	58842
698.757	58718
698.779	58938
698.820	59095
698.862	59244
698.877	59145
698.903	59067
698.944	58697
698.985	58332
698.996	58080
699.026	58652
699.067	59235
699.116	59775
699.235	59107
699.354	57204
699.474	52872
699.593	53435
699.713	54970
699.832	53483
699.951	57999
700.070	55514
700.190	52868
700.309	51196
700.428	49303
700.547	48967
700.667	48162
700.786	48556
700.905	46196
701.024	48224
701.143	46474
701.262	49038
701.381	50201
701.500	49805
701.619	48466
701.738	50496
701.857	48302
701.976	45488
702.095	48180
702.214	50029
702.333	46655
702.452	49488
702.571	49453
702.690	48489
702.809	49674
702.928	45222
703.047	43154
703.165	44944
703.284	43577
703.403	44500
703.522	42440
703.640	40345
703.759	40403
703.878	39325
703.997	42064
704.115	42614
704.234	41429
704.353	43558
704.471	38994
704.590	38845
704.708	38453
704.827	38198
704.946	37160
705.064	40403
705.183	37489
705.301	38901
705.420	36183
705.538	34836
705.656	34552
705.775	32355
705.893	36106
706.012	35185
706.130	34211
706.249	36025
706.367	33302
706.485	34322
706.604	33464
706.722	34974
706.840	47535
706.958	82945
707.077	53005
707.195	34273
707.313	31826
707.431	28161
707.549	30324
707.668	28037
707.786	32984
707.904	29296
708.022	32163
708.140	29786
708.258	28394
708.376	32373
708.494	28461
708.612	31376
708.730	30419
708.848	28332
708.966	30064
709.084	30212
709.202	30126
709.320	26891
709.438	27226
709.556	27592
709.674	24912
709.791	26319
709.909	24978
710.027	25907
710.145	24836
710.263	25470
710.380	24942
710.498	24739
710.616	24497
710.733	23195
710.851	24035
710.969	23695
711.086	22952
711.204	25199
711.322	23967
711.439	24434
711.557	21999
711.674	22602
711.792	23341
711.909	22474
712.027	21213
712.144	21759
712.262	21528
712.379	23034
712.497	21741
712.614	20914
712.732	21264
712.849	21775
712.966	22240
713.084	24098
713.201	18392
713.318	21456
713.436	24731
713.553	21633
713.670	24324
713.787	24343
713.905	21559
714.022	24703
714.139	25903
714.256	31174
714.373	45196
714.490	79310
714.608	195804
714.725	643507
714.842	604611
714.959	102704
715.076	41239
715.193	32667
715.310	27545
715.427	21127
715.544	23261
715.661	21093
715.778	19560
715.895	20487
716.011	19798
716.128	19200
716.245	19827
716.362	19757
716.479	16693
716.596	18150
716.713	19679
716.829	17544
716.946	16124
717.063	16310
717.180	15681
717.296	16870
717.413	17458
717.530	16921
717.646	14813
717.763	15083
717.880	14898
717.996	15479
718.113	16271
718.229	15173
718.346	14472
718.462	14677
718.579	15700
718.695	14549
718.812	13743
718.928	14996
719.045	14062
719.161	14308
719.277	15525
719.394	15750
719.510	16719
719.626	18680
719.743	21254
719.859	34413
719.975	70713
720.092	254795
720.208	494346
720.324	83152
720.440	26304
720.557	19273
720.673	17047
720.789	16410
720.905	13984
721.021	14853
721.137	12902
721.253	12048
721.369	13179
721.486	12725
721.602	11864
721.718	13428
721.834	12398
721.950	12619
722.066	11968
722.181	12616
722.297	11683
722.413	11949
722.529	12536
722.645	12120
722.761	11374
722.877	12136
722.993	14018
723.108	17942
723.224	17360
723.340	13847
723.456	11514
723.571	10045
723.687	10497
723.803	11883
723.918	11473
724.034	9990
724.150	10861
724.265	11162
724.381	10658
724.497	10576
724.612	10877
724.728	10361
724.843	10167
724.959	10848
725.074	10345
725.190	11832
725.305	10470
725.421	10177
725.536	11601
725.651	10601
725.767	10585
725.882	11136
725.997	10467
726.113	11280
726.228	10359
726.343	10118
726.459	9785
726.574	10748
726.689	10315
726.804	10286
726.920	10343
727.035	10380
727.150	11038
727.265	9868
727.380	10836
727.495	10996
727.610	9197
727.725	9986
727.841	10009
727.956	11291
728.071	10244
728.186	9308
728.301	9527
728.416	11656
728.531	10377
728.645	9488
728.760	9810
728.875	10454
728.990	10120
729.105	9668
729.220	9138
729.335	10302
729.449	10266
729.564	9476
729.679	8523
729.794	11202
729.908	9833
730.023	10153
730.138	10642
730.253	11883
730.367	9778
730.482	9595
730.596	10909
730.711	13496
730.826	23777
730.940	29585
731.055	15358
731.169	14808
731.284	15051
731.398	16034
731.513	15405
731.627	17417
731.742	24425
731.856	32769
731.970	31477
732.085	40253
732.199	59460
732.313	100583
732.428	236188
732.542	544251
732.656	328751
732.771	91399
732.885	53022
732.999	43608
733.113	44357
733.227	41057
733.342	38989
733.456	37263
733.570	37287
733.684	34104
733.798	33115
733.912	33423
734.026	33360
734.140	32593
734.254	31424
734.368	30763
734.482	30861
734.596	32677
734.710	29688
734.824	29749
734.938	29256
735.052	30738
735.166	29489
735.280	29140
735.393	28480
735.507	29852
735.621	27255
735.735	26640
735.849	28476
735.962	26109
736.076	27981
736.190	26694
736.303	26491
736.417	27299
736.531	24599
736.644	27089
736.758	25192
736.872	25436
736.985	25581
737.099	24112
737.212	23520
737.326	23335
737.439	26370
737.553	23451
737.666	24951
737.780	22293
737.893	24273
738.007	22330
738.120	24742
738.233	20619
738.347	23553
738.460	21007
738.573	25056
738.687	21843
738.800	22205
738.913	23035
739.026	22598
739.140	21813
739.253	22096
739.366	20954
739.479	21779
739.592	22615
739.705	19879
739.818	22319
739.932	19505
740.045	21216
740.158	20203
740.271	21036
740.384	20535
740.497	16602
740.610	21186
740.723	18393
740.836	18572
740.949	19294
741.062	21170
741.174	19037
741.287	19377
741.400	20152
741.513	17100
741.626	19467
741.739	18408
741.851	17957
741.964	20093
742.077	17352
742.189	16746
742.302	18649
742.415	18161
742.527	17156
742.640	18083
742.753	15386
742.865	17414
742.978	17486
743.090	16127
743.203	17207
743.316	15431
743.428	16693
743.541	17070
743.653	13970
743.766	16872
743.878	16695
743.990	14400
744.103	16789
744.215	16105
744.327	13150
744.440	18647
744.552	15005
744.664	14042
744.777	16953
744.889	14704
745.001	14149
745.113	15921
745.226	15258
745.338	13281
745.450	17678
745.562	14370
745.674	13578
745.786	16764
745.898	14855
746.010	13572
746.122	15040
746.234	14534
746.347	15122
746.459	14271
746.570	11934
746.682	15199
746.794	16701
746.906	12725
747.018	13873
747.130	14239
747.242	12581
747.354	13426
747.466	13612
747.577	12299
747.689	12793
747.801	14603
747.913	11742
748.024	12287
748.136	12512
748.248	12143
748.359	13446
748.471	13775
748.583	10875
748.694	10432
748.806	13639
748.918	11464
749.029	11595
749.141	13256
749.252	13305
749.364	11018
749.475	11125
749.587	9809
749.698	10637
749.809	11658
749.921	11286
750.032	10871
750.144	10892
750.255	10250
750.366	10626
750.478	10191
750.589	10782
750.700	9788
750.811	11358
750.923	9812
751.034	10005
751.145	12403
751.256	10725
751.367	9512
751.479	10156
751.590	9974
751.701	8554
751.812	8336
751.923	9242
752.034	11949
752.145	10910
752.256	10874
752.367	10532
752.478	10221
752.589	10469
752.700	11005
752.811	9440
752.922	9362
753.032	10063
753.143	10261
753.254	10098
753.365	10351
753.476	11446
753.586	9632
753.697	9622
753.808	8996
753.919	9366
754.029	9210
754.140	8819
754.251	8295
754.361	9591
754.472	9296
754.582	8657
754.693	8239
754.804	10506
754.914	8766
755.025	7420
755.135	8850
755.246	10890
755.356	8742
755.466	8311
755.577	9086
755.687	9423
755.798	8295
755.908	8350
756.018	8669
756.129	9356
756.239	9429
756.349	10295
756.460	8519
756.570	9754
756.680	7468
756.790	9396
756.900	9058
757.011	8021
757.121	6983
757.231	8217
757.341	8034
757.451	7720
757.561	6861
757.671	8003
757.781	8557
757.891	7758
758.001	6725
758.111	8478
758.221	9415
758.331	9557
758.441	8151
758.551	9252
758.661	9058
758.771	8871
758.880	9350
758.990	8262
759.100	8430
759.210	8676
759.320	9013
759.429	9126
759.539	9138
759.649	9850
759.758	11894
759.868	11754
759.978	12105
760.087	13758
760.197	13022
760.307	13160
760.416	11361
760.526	11534
760.635	11298
760.745	11953
760.854	12938
760.964	14330
761.073	13924
761.182	14435
761.292	11355
761.401	10465
761.511	9510
761.620	8893
761.729	8964
761.839	6979
761.948	7911
762.057	7358
762.166	9405
762.276	6727
762.385	8304
762.494	7279
762.603	6757
762.712	7048
762.822	7118
762.931	7369
763.040	6069
763.149	6467
763.258	5905
763.367	6337
763.476	6482
763.585	5624
763.694	5886
763.803	6386
763.912	6388
764.021	5873
764.130	6986
764.238	7554
764.347	7469
764.456	6169
764.565	5883
764.674	6097
764.783	5259
764.891	5417
765.000	6769
765.109	5629
765.217	5022
765.326	5971
765.435	5306
765.543	5714
765.652	6033
765.761	5079
765.869	6086
765.978	5298
766.086	7100
766.195	9283
766.303	16891
766.412	56782
766.520	53747
766.629	9073
766.737	6807
766.846	6492
766.954	5860
767.062	6361
767.171	6035
767.279	7479
767.387	5205
767.496	4769
767.604	5072
767.712	5407
767.820	4894
767.928	5267
768.037	5171
768.145	5894
768.253	5401
768.361	5782
768.469	5216
768.577	4690
768.685	5542
768.793	6259
768.901	5465
769.009	6129
769.117	4740
769.225	5942
769.333	6226
769.441	7417
769.549	6772
769.657	9018
769.765	19471
769.873	54053
769.981	14708
770.088	7791
770.196	7270
770.304	8242
770.412	7971
770.519	7607
770.627	8485
770.735	7972
770.842	7675
770.950	9612
771.058	9149
771.165	12246
771.273	12882
771.380	13016
771.488	18810
771.595	22994
771.703	18832
771.810	17834
771.918	18005
772.025	21833
772.133	26895
772.240	24786
772.348	28999
772.455	27115
772.562	23810
772.670	23359
772.777	25009
772.884	24870
772.991	21928
773.099	24984
773.206	21963
773.313	22116
773.420	22886
773.528	24062
773.635	21289
773.742	23666
773.849	20647
773.956	22679
774.063	21147
774.170	21839
774.277	22360
774.384	20634
774.491	20316
774.598	21454
774.705	20293
774.812	21671
774.919	20515
775.026	20975
775.133	20485
775.239	19985
775.346	19300
775.453	19416
775.560	19168
775.667	20707
775.773	19113
775.880	20160
775.987	19032
776.093	18159
776.200	21764
776.307	14697
776.413	16414
776.520	21661
776.627	18134
776.733	17028
776.840	14974
776.946	22647
777.053	18086
777.159	18518
777.266	15586
777.372	18403
777.478	19297
777.585	19221
777.691	14558
777.798	18854
777.904	15568
778.010	14988
778.117	17624
778.223	16079
778.329	17096
778.435	14289
778.542	16989
778.648	15740
778.754	13976
778.860	16382
778.966	15036
779.072	14919
779.178	15284
779.284	12030
779.391	13869
779.497	16463
779.603	16036
779.708	14216
779.815	12166
779.920	15484
780.026	13176
780.132	14316
780.238	14212
780.344	11729
780.450	17579
780.556	12078
780.661	11381
780.767	16294
780.873	9789
780.979	11669
781.085	16224
781.190	12770
781.296	11927
781.402	13712
781.507	12881
781.613	9821
781.719	12089
781.824	15754
781.930	12195
782.035	11928
782.141	15456
782.246	9953
782.352	10601
782.457	11639
782.563	11543
782.668	12196
782.773	10790
782.879	9559
782.984	11531
783.090	11680
783.195	11914
783.300	13829
783.405	10329
783.511	9900
783.616	11261
783.721	12135
783.826	10516
783.932	9227
784.037	11502
784.142	10720
784.247	10505
784.352	11654
784.457	8239
784.562	11261
784.667	12594
784.772	8740
784.877	7481
784.982	11966
785.087	11040
785.192	8247
785.297	9654
785.402	10725
785.507	10106
785.611	9837
785.716	8348
785.821	9927
785.926	10289
786.031	9403
786.135	9835
786.240	9373
786.345	7408
786.450	7921
786.554	8417
786.659	8375
786.763	8510
786.868	9795
786.973	10077
787.077	8372
787.182	7747
787.286	9503
787.391	10795
787.495	7027
787.600	5479
787.704	8564
787.809	8286
787.913	8006
788.017	8796
788.122	10694
788.226	7899
788.330	5520
788.435	8701
788.539	10145
788.643	6726
788.747	5723
788.852	8157
788.956	8106
789.060	9148
789.164	8491
789.268	6465
789.372	9105
789.476	6927
789.580	6443
789.684	6638
789.788	9413
789.892	7617
789.996	5634
790.100	5416
790.204	8326
790.308	9463
790.412	6651
790.516	4670
790.620	7823
790.724	8656
790.828	7285
790.931	4561
791.035	6741
791.139	6159
791.242	6883
791.346	7216
791.450	7525
791.554	6194
791.657	5116
791.761	6549
791.864	7539
791.968	7882
792.072	7479
792.175	6397
792.279	5361
792.382	6302
792.486	5986
792.589	6016
792.693	7224
792.796	5669
792.899	7515
793.003	7996
793.106	5158
793.209	6119
793.313	6276
793.416	2803
793.519	6547
793.623	8194
793.726	6513
793.829	4634
793.932	4137
794.035	4003
794.138	7710
794.242	8207
794.345	5553
794.448	4015
794.551	4482
794.654	6388
794.757	6912
794.860	4934
794.963	6645
795.066	4712
795.169	6326
795.272	5595
795.375	6956
795.477	3305
795.580	4899
795.683	4242
795.786	7157
795.889	4781
795.991	6153
796.094	5882
796.197	5122
796.300	7483
796.402	6819
796.505	4863
796.608	3953
796.710	4616
796.813	5894
796.915	6640
797.018	6786
797.120	5927
797.223	4776
797.326	7457
797.428	4595
797.530	3919
797.633	5025
797.735	6844
797.838	5301
797.940	6139
798.042	5829
798.145	4777
798.247	4792
798.349	2570
798.452	6840
798.554	5189
798.656	5942
798.758	7486
798.860	5187
798.962	5370
799.065	4474
799.167	3666
799.269	5845
799.371	6412
799.473	8249
799.575	7082
799.677	4877
799.779	5568
799.881	3983
799.983	6360
800.085	4819
800.187	4921
800.289	3424
800.390	4631
800.492	7206
800.594	5360
800.696	4262
800.798	4492
800.899	5007
801.001	5263
801.103	5381
801.205	3931
801.306	4851
801.408	4628
801.509	4734
801.611	4385
801.713	5462
801.814	3820
801.916	3638
802.017	3232
802.119	2664
802.220	3884
802.322	2832
802.423	5469
802.525	2653
802.626	3823
802.727	6048
802.829	4793
802.930	1486
803.031	5087
803.133	4224
803.234	4720
803.335	4460
803.436	3481
803.538	4275
803.639	2366
803.740	4466
803.841	4231
803.942	5801
804.043	5117
804.144	3448
804.245	3757
804.346	3071
804.447	3601
804.548	3473
804.649	4456
804.750	3488
804.851	3520
804.952	4618
805.053	3501
805.154	2384
805.255	4266
805.355	4458
805.456	3251
805.557	3674
805.658	2854
805.758	3726
805.859	3769
805.960	4426
806.061	3513
806.161	3912
806.262	3820
806.362	2658
806.463	2979
806.564	4775
806.664	5016
806.765	2721
806.865	2624
806.966	3378
807.066	2800
807.166	4411
807.267	4616
807.367	2509
807.468	3547
807.568	1824
807.668	3544
807.769	4595
807.869	3465
807.969	3872
808.069	3232
808.170	3627
808.270	2910
808.370	3682
808.470	4291
808.570	2258
808.670	3024
808.770	3876
808.870	2615
808.970	2565
809.070	3154
809.170	2465
809.271	4504
809.370	2792
809.470	3841
809.570	2522
809.670	2825
809.770	3535
809.870	3666
809.970	3735
810.070	3610
810.169	3741
810.269	1902
810.369	4461
810.469	2871
810.568	3227
810.668	2767
810.768	2989
810.867	2951
810.967	2852
811.066	2588
811.166	3400
811.265	3745
811.365	2757
811.464	2950
811.564	2999
811.663	4583
811.763	2711
811.862	3730
811.962	3971
812.061	2189
812.160	2631
812.260	3072
812.359	2740
812.458	3282
812.557	4088
812.657	2439
812.756	3520
812.855	3175
812.954	3189
813.053	3181
813.153	3810
813.252	2948
813.351	3826
813.450	3556
813.549	2772
813.648	2863
813.747	2743
813.846	3109
813.945	3650
814.044	3750
814.143	2879
814.242	4093
814.341	3696
814.439	3740
814.538	4602
814.637	4518
814.736	4767
814.835	5300
814.933	5309
815.032	6580
815.131	9163
815.229	16284
815.328	24632
815.427	17360
815.525	14932
815.624	14435
815.722	14223
815.821	16174
815.919	15368
816.018	15058
816.116	15406
816.215	14926
816.313	17099
816.412	19516
816.510	19657
816.609	21560
816.707	22154
816.805	20097
816.904	18622
817.002	20469
817.100	19930
817.198	20972
817.296	18836
817.395	20160
817.493	19365
817.591	17532
817.689	18537
817.787	19088
817.885	18496
817.983	16547
818.081	18620
818.179	18180
818.277	25727
818.375	20797
818.473	17532
818.571	15399
818.669	17706
818.767	19058
818.865	16925
818.963	12829
819.061	17577
819.158	16330
819.256	20768
819.354	20169
819.452	27646
819.549	22679
819.647	19880
819.745	15051
819.842	14920
819.940	16228
820.038	16015
820.135	13393
820.233	16235
820.330	14687
820.428	13353
820.525	16232
820.623	13829
820.720	12557
820.818	15620
820.915	15227
821.012	13991
821.110	12582
821.207	15072
821.304	13802
821.402	14488
821.499	15405
821.596	11777
821.693	12476
821.791	14832
821.888	13116
821.985	15996
822.082	11313
822.179	13983
822.276	14392
822.373	11258
822.470	11781
822.567	13373
822.664	11400
822.761	12821
822.858	13915
822.955	12693
823.052	9539
823.149	13129
823.246	14477
823.343	10874
823.440	10332
823.536	13629
823.633	12942
823.730	11142
823.827	12737
823.923	12916
824.020	9522
824.117	13327
824.213	12994
824.310	11738
824.407	8829
824.503	13338
824.600	10771
824.696	8684
824.793	14505
824.889	12829
824.986	9595
825.082	8080
825.179	8911
825.275	12817
825.371	14439
825.468	9710
825.564	6126
825.660	10587
825.757	13911
825.853	9485
825.949	8731
826.045	9007
826.142	10019
826.238	12005
826.334	11223
826.430	10535
826.526	6333
826.622	6571
826.718	12582
826.814	12976
826.910	10206
827.006	6537
827.102	6378
827.198	10978
827.294	11919
827.390	11815
827.486	9088
827.582	6470
827.678	6900
827.774	12561
827.869	7116
827.965	8310
828.061	6465
828.157	12165
828.252	11031
828.348	8481
828.444	7277
828.539	7137
828.635	9425
828.731	8695
828.826	7088
828.922	9182
829.017	10808
829.113	10172
829.208	6823
829.304	8567
829.399	11647
829.495	9506
829.590	7367
829.685	8328
829.781	9290
829.876	10488
829.971	5429
830.066	4717
830.162	7339
830.257	12762
830.352	8906
830.447	6335
830.543	6369
830.638	8833
830.733	11099
830.828	6783
830.923	8316
831.018	8610
831.113	9566
831.208	6121
831.303	5028
831.398	6614
831.493	7568
831.588	13004
831.683	6959
831.778	4998
831.873	6317
831.967	8754
832.062	9354
832.157	7194
832.252	6674
832.346	6454
832.441	8784
832.536	7823
832.631	7828
832.725	5290
832.820	6681
832.914	7835
833.009	5800
833.104	4886
833.198	4956
833.293	5950
833.387	8737
833.482	7427
833.576	6540
833.670	6675
833.765	6252
833.859	8709
833.954	8024
834.048	7512
834.142	5999
834.237	4094
834.331	5313
834.425	6591
834.519	6035
834.613	5468
834.708	4969
834.802	5805
834.896	6049
834.990	6054
835.084	5347
835.178	4338
835.272	5000
835.366	8889
835.460	8590
835.554	6008
835.648	4519
835.742	3115
835.836	4210
835.930	5264
836.024	7118
836.117	6769
836.211	5457
836.305	4871
836.399	4460
836.493	5073
836.586	6400
836.680	5870
836.774	4793
836.867	5097
836.961	3794
837.055	4102
837.148	3729
837.242	5356
837.335	6145
837.429	4405
837.522	3549
837.616	4521
837.709	4347
837.803	4692
837.896	6501
837.989	6514
838.083	3274
838.176	3292
838.269	2670
838.363	4800
838.456	4402
838.549	6659
838.642	4242
838.735	3747
838.829	5381
838.922	5766
839.015	4275
839.108	3574
839.201	4749
839.294	6585
839.387	4578
839.480	3161
839.573	4300
839.666	2895
839.759	4023
839.852	4052
839.945	5657
840.038	4410
840.131	2801
840.223	3420
840.316	4611
840.409	5193
840.502	5585
840.594	6144
840.687	1651
840.780	3152
840.873	2153
840.965	3307
841.058	4173
841.150	5582
841.243	2804
841.336	4319
841.428	2673
841.521	3775
841.613	4414
841.706	4512
841.798	3175
841.890	4233
841.983	2009
842.075	3774
842.167	3242
842.260	3836
842.352	5498
842.444	5133
842.537	2922
842.629	2948
842.721	1753
842.813	3856
842.905	2896
842.997	3487
843.090	3824
843.182	3626
843.274	1702
843.366	3361
843.458	3384
843.550	5730
843.642	3662
843.734	4178
843.826	2095
843.918	3058
844.009	3430
844.101	3834
844.193	3724
844.285	4900
844.377	4121
844.469	3288
844.560	1515
844.652	2173
844.744	2051
844.835	2857
844.927	3871
845.019	4129
845.110	3237
845.202	3699
845.293	2852
845.385	2220
845.476	3127
845.568	4733
845.659	2236
845.751	3719
845.842	3016
845.934	2941
846.025	2333
846.116	3534
846.208	3483
846.299	2607
846.390	1786
846.482	2717
846.573	4064
846.664	2977
846.755	2012
846.846	3357
846.937	2077
847.029	1807
847.120	2339
847.211	2537
847.302	4530
847.393	2948
847.484	3135
847.575	1184
847.666	1437
847.757	2571
847.847	2826
847.938	3940
848.029	3603
848.120	3285
848.211	1887
848.302	2049
848.392	2115
848.483	3393
848.574	2044
848.664	3178
848.755	3092
848.846	2438
848.936	1947
849.027	3266
849.118	4107
849.208	3113
849.299	4518
849.389	7558
849.480	9187
849.570	17869
849.661	30788
849.751	50653
849.841	22095
849.932	6486
850.022	3743
850.112	4558
850.203	3400
850.293	2459
850.383	2771
850.474	2881
850.564	1722
850.654	2424
850.744	2596
850.834	3443
850.924	2994
851.014	4885
851.104	3422
851.194	2417
851.284	1583
851.374	2538
851.464	2521
851.554	1960
851.644	1793
851.734	3087
851.824	2839
851.914	3475
852.004	4301
852.094	2606
852.183	1643
852.273	2651
852.363	2034
852.452	3114
852.542	2584
852.632	2706
852.721	2428
852.811	3672
852.901	4751
852.990	3524
853.080	2920
853.169	2968
853.259	3801
853.348	4143
853.438	4569
853.527	5646
853.617	6908
853.706	12777
853.795	19204
853.885	36115
853.974	60825
854.063	102222
854.152	132013
854.242	68049
854.331	24411
854.420	12322
854.509	8948
854.598	7079
854.687	5327
854.777	6215
854.866	3132
854.955	3547
855.044	3169
855.133	3066
855.222	3076
855.311	2574
855.400	1618
855.488	2856
855.577	1448
855.666	2307
855.755	2219
855.844	2618
855.933	2575
856.021	3451
856.110	2627
856.199	2275
856.288	914
856.376	2762
856.465	2488
856.554	1995
856.642	3112
856.731	3618
856.819	3054
856.908	2465
856.996	3013
857.085	843
857.173	1930
857.262	1352
857.350	1567
857.438	1735
857.527	2059
857.615	2696
857.703	3010
857.792	2471
857.880	1761
857.968	1995
858.056	1936
858.145	2545
858.233	2732
858.321	1630
858.409	3214
858.497	2096
858.585	2073
858.673	2455
858.761	1146
858.849	2094
858.937	1276
859.025	2362
859.113	2340
859.201	2638
859.289	3309
859.377	2346
859.465	2650
859.552	1490
859.640	1078
859.728	2137
859.816	2094
859.903	2626
859.991	1992
860.079	2529
860.166	2084
860.254	2059
860.342	2250
860.429	1759
860.517	2166
860.604	2210
860.692	2111
860.779	1698
860.867	1910
860.954	2399
861.042	2577
861.129	4115
861.216	2570
861.304	2793
861.391	2605
861.478	2348
861.565	3139
861.653	2220
861.740	2035
861.827	1941
861.914	2284
862.001	2498
862.089	3309
862.176	3570
862.263	2218
862.350	2222
862.437	1696
862.524	1531
862.611	2155
862.698	2073
862.785	2595
862.871	3653
862.958	3506
863.045	3412
863.132	3398
863.219	3443
863.306	2081
863.392	2821
863.479	3025
863.566	2580
863.652	3072
863.739	3217
863.826	3587
863.912	4584
863.999	2679
864.086	4373
864.172	3799
864.259	4736
864.345	4455
864.432	4432
864.518	3986
864.604	4434
864.691	4715
864.777	5021
864.863	6780
864.950	10656
865.036	12748
865.122	23906
865.209	23714
865.295	20818
865.381	19221
865.467	19262
865.553	19442
865.639	20671
865.726	24768
865.812	33615
865.898	47487
865.984	63039
866.070	95054
866.156	96936
866.242	48185
866.328	26308
866.414	20417
866.499	19616
866.585	17094
866.671	17692
866.757	16865
866.843	17382
866.928	16902
867.014	15815
867.100	16003
867.186	16191
867.271	15618
867.357	15803
867.442	14371
867.528	15709
867.614	15145
867.699	15870
867.785	14821
867.870	14740
867.956	14828
868.041	15350
868.127	14127
868.212	14705
868.297	13734
868.383	14948
868.468	13813
868.553	15758
868.639	13860
868.724	13609
868.809	14135
868.894	13837
868.979	13104
869.065	13934
869.150	11084
869.235	13421
869.320	14211
869.405	11684
869.490	14289
869.575	13030
869.660	10769
869.745	14772
869.830	15347
869.915	11296
870.000	11626
870.085	11414
870.169	15519
870.254	15948
870.339	9979
870.424	9989
870.509	12885
870.593	14689
870.678	13932
870.763	11902
870.847	11156
870.932	13270
871.016	13330
871.101	9334
871.186	11308
871.270	15461
871.355	10063
871.439	10804
871.523	12826
871.608	9952
871.692	9182
871.777	14034
871.861	13491
871.945	10926
872.030	12340
872.114	11717
872.198	9308
872.282	10233
872.367	10344
872.451	11549
872.535	9952
872.619	11346
872.703	11086
872.787	12403
872.871	10855
872.955	9493
873.039	7587
873.123	11028
873.207	12316
873.291	7695
873.375	8744
873.459	12460
873.543	10037
873.627	9665
873.711	8182
873.794	11539
873.878	10549
873.962	8109
874.045	8531
874.129	10044
874.137	10042
874.213	10028
874.245	9881
874.296	9652
874.352	7567
874.380	6554
874.460	10343
874.464	10497
874.547	8779
874.568	9043
874.631	9825
874.676	9481
874.714	9207
874.784	10776
874.798	11084
874.881	7805
874.892	7660
874.965	6736
874.999	8145
875.048	10036
875.107	9758
875.131	9662
875.215	6863
875.215	6862
875.298	6973
875.323	7528
875.381	8872
875.430	10340
875.465	11327
875.538	9632
875.548	9398
875.631	6725
875.646	6618
875.714	6140
875.753	6178
875.798	6340
875.861	8118
875.881	8588
875.964	8331
875.968	8206
876.047	6263
876.076	6922
876.130	8120
876.183	8104
876.213	8103
876.291	9012
876.296	9060
876.379	7460
876.398	7066
876.462	5814
876.506	5592
876.545	5438
876.613	6147
876.628	6320
876.711	7066
876.721	7242
876.794	8512
876.828	8359
876.877	7943
876.935	6847
876.960	6464
877.043	6638
877.043	6641
877.125	7421
877.150	7945
877.208	8839
877.258	7669
877.291	6869
877.365	5332
877.374	5172
877.456	6123
877.472	5931
877.539	5248
877.579	6351
877.622	7398
877.687	7971
877.704	8133
877.787	6923
877.794	6966
877.869	7300
877.901	7277
877.952	7209
878.008	5794
878.034	5098
878.115	4556
878.117	4553
878.199	5635
878.222	5848
878.282	6312
878.329	6916
878.364	7322
878.437	6781
878.447	6653
878.529	4678
878.544	4631
878.611	4664
878.651	5166
878.694	5993
878.758	6715
878.776	6759
878.858	6382
878.865	6332
878.941	5590
878.972	5019
879.023	4329
879.078	5140
879.105	5652
879.185	6695
879.187	6703
879.269	5658
879.292	5871
879.351	6367
879.399	5827
879.433	5457
879.506	4987
879.516	4939
879.598	5313
879.613	5158
879.680	4609
879.720	5535
879.762	6305
879.827	5217
879.844	4976
879.926	4655
879.933	4712
880.007	5197
880.040	4813
880.089	4290
880.147	4744
880.171	4994
880.253	6752
880.254	6746
880.335	4255
880.360	4791
880.417	6629
880.467	6307
880.499	5848
880.574	5440
880.580	5416
880.662	6103
880.680	5833
880.744	4450
880.787	3981
880.825	3881
880.893	5042
880.907	5279
880.989	4577
881.000	4706
881.070	5180
881.106	5336
881.152	5497
881.213	4227
881.233	3782
881.315	3859
881.319	3897
881.396	5349
881.426	5277
881.478	4657
881.532	5353
881.559	5886
881.639	5106
881.641	5056
881.722	4130
881.745	3987
881.803	4573
881.852	4886
881.885	4763
881.958	3996
881.966	3975
882.047	4776
882.064	4696
882.129	3889
882.171	3699
882.210	3462
882.277	2946
882.291	2974
882.372	4334
882.383	4492
882.454	6096
882.489	6260
882.535	5497
882.596	5152
882.616	5182
882.697	5129
882.702	5054
882.778	3565
882.808	3426
882.859	3435
882.914	3898
882.940	4107
883.020	4160
883.021	4158
883.102	4164
883.127	4529
883.183	5619
883.233	5258
883.264	4504
883.339	3221
883.345	3175
883.426	2919
883.445	2989
883.507	3409
883.551	3846
883.587	4324
883.657	4968
883.668	5070
883.749	5672
883.763	5551
883.830	3695
883.869	3188
883.910	3134
883.975	3583
883.991	3763
884.072	3624
884.081	3723
884.152	4797
884.187	5109
884.233	5265
884.292	4957
884.314	4556
884.394	2603
884.398	2559
884.475	2201
884.504	2106
884.555	2703
884.610	3163
884.636	3314
884.716	4257
884.716	4263
884.797	5691
884.821	5729
884.877	4919
884.927	4354
884.958	4051
885.033	3152
885.038	3088
885.118	2609
885.139	2471
885.199	2625
885.244	2658
885.279	2958
885.350	4522
885.359	4751
885.439	5891
885.456	5936
885.520	4260
885.561	3503
885.600	2973
885.667	2437
885.680	2625
885.760	3753
885.773	3845
885.840	2910
885.878	2594
885.920	2663
885.984	2952
886.000	3091
886.080	3724
886.089	3771
886.160	4272
886.195	4473
886.240	4269
886.300	3967
886.320	3835
886.400	3690
886.406	3647
886.480	2883
886.511	2699
886.560	2957
886.616	3290
886.640	3385
886.720	3691
886.722	3695
886.800	2692
886.827	2359
886.879	2905
886.932	3690
886.959	3879
887.038	4104
887.039	4101
887.119	3838
887.143	3789
887.198	3894
887.248	3817
887.278	3655
887.354	3640
887.358	3654
887.437	3546
887.459	3639
887.517	4087
887.564	4153
887.596	3471
887.669	2153
887.676	2148
887.755	2122
887.774	2120
887.835	2355
887.880	2640
887.914	2766
887.985	2850
887.994	2997
888.073	4482
888.090	4759
888.153	5152
888.195	5261
888.232	4521
888.300	3450
888.311	3328
888.391	2446
888.405	2280
888.470	2165
888.510	2089
888.549	2316
888.615	2823
888.628	2963
888.708	3770
888.720	3883
888.787	3888
888.825	3863
888.866	3171
888.930	2203
888.945	2343
889.024	3163
889.035	3264
889.103	3643
889.140	3809
889.182	3255
889.245	2555
889.261	2651
889.340	3080
889.349	3131
889.419	3391
889.454	3536
889.498	3247
889.559	2858
889.577	2936
889.656	3306
889.664	3348
889.735	4183
889.768	4576
889.814	3724
889.873	2583
889.978	3162
890.083	3275
890.187	2554
890.292	3780
890.397	2959
890.501	2520
890.606	1950
890.710	2814
890.815	4281
890.919	2603
891.024	3870
891.128	2076
891.233	1754
891.337	4230
891.442	3392
891.546	4160
891.650	2999
891.755	2793
891.859	3432
891.963	4922
892.068	2801
892.172	2598
892.276	1156
892.380	1996
892.484	3219
892.589	3776
892.693	2820
892.797	1726
892.901	1410
893.005	1763
893.109	4067
893.213	4365
893.317	3846
893.421	2677
893.525	807
893.629	1836
893.733	3482
893.837	2946
893.941	2069
894.045	2247
894.148	1180
894.252	1905
894.356	3684
894.460	4782
894.564	2614
894.667	2391
894.771	1719
894.875	2616
894.978	2414
895.082	2971
895.186	3152
895.289	3613
895.393	1879
895.496	3673
895.600	2593
895.703	1850
895.807	1880
895.910	2246
896.014	2431
896.117	2131
896.221	2469
896.324	3411
896.427	1344
896.531	1706
896.634	2373
896.737	2494
896.840	2527
896.944	3787
897.047	3117
897.150	2876
897.253	909
897.356	2406
897.460	1376
897.563	1323
897.666	2678
897.769	3677
897.872	1652
897.975	2217
898.078	1999
898.181	921
898.284	1647
898.387	3809
898.490	3547
898.593	3226
898.695	1529
898.798	2433
898.901	2148
899.004	1848
899.107	2103
899.209	2266
899.312	3265
899.415	1885
899.518	2090
899.620	1421
899.723	1346
899.826	2382
899.928	1734
900.031	1899
900.133	2559
900.236	2289
900.338	1296
900.441	2457
900.543	2538
900.646	2156
900.748	1794
900.851	2995
900.953	2138
901.055	1410
901.158	1050
901.260	1505
901.362	2070
901.465	1378
901.567	1525
901.669	3042
901.771	1656
901.873	3258
901.976	1759
902.078	2106
902.180	1349
902.282	901
902.384	1751
902.486	3539
902.588	2051
902.690	1260
902.792	1071
902.894	2634
902.996	2527
903.098	1889
903.200	1660
903.302	2330
903.404	1511
903.505	1231
903.607	1770
903.709	3156
903.811	3760
903.913	1600
904.014	1868
904.116	511
904.218	1041
904.319	2050
904.421	2763
904.523	3098
904.624	2021
904.726	1364
904.827	1132
904.929	1661
905.030	1630
905.132	3783
905.233	2535
905.335	298
905.436	1516
905.537	1115
905.639	826
905.740	1777
905.841	2484
905.943	2231
906.044	1689
906.145	632
906.247	388
906.348	1537
906.449	1477
906.550	2016
906.651	1764
906.752	1591
906.854	925
906.955	1231
907.056	2106
907.157	3236
907.258	2388
907.359	1585
907.460	1116
907.561	1410
907.662	1085
907.762	1790
907.863	1366
907.964	3197
908.065	1843
908.166	1679
908.267	1578
908.367	1014
908.468	1309
908.569	1100
908.670	2129
908.770	1552
908.871	1935
908.971	1968
909.072	1485
909.173	1069
909.273	1691
909.374	3061
909.474	1511
909.575	1185
909.675	1208
909.776	2536
909.876	1294
909.977	1154
910.077	2096
910.177	2522
910.278	1895
910.378	1073
910.478	1561
910.579	2719
910.679	1912
910.779	1880
910.879	2371
910.980	1749
911.080	2185
911.180	1261
911.280	1383
911.380	1308
911.480	1257
911.580	1368
911.680	1562
911.780	2052
911.880	2537
911.980	903
912.080	1291
912.180	2514
912.280	1618
912.380	1374
912.480	599
912.580	1365
912.679	1305
912.779	2048
912.879	1707
912.979	1253
913.078	1628
913.178	1425
913.278	1045
913.377	1890
913.477	262
913.577	1277
913.676	1860
913.776	2899
913.875	1566
913.975	2355
914.074	1903
914.174	2553
914.273	1029
914.373	1385
914.472	1507
914.572	1691
914.671	1131
914.770	1461
914.870	1163
914.969	1329
915.068	1892
915.167	1804
915.267	1132
915.366	2194
915.465	1184
915.564	2134
915.663	1261
915.763	2152
915.862	1932
915.961	2089
916.060	947
916.159	1275
916.258	1216
916.357	1061
916.456	1050
916.555	1816
916.654	1612
916.752	2294
916.851	1874
916.950	1210
917.049	1092
917.148	1106
917.247	1523
917.345	783
917.444	1473
917.543	1808
917.642	918
917.740	2158
917.839	3383
917.937	3178
918.036	2768
918.135	1604
918.233	1439
918.332	1077
918.430	1269
918.529	1222
918.627	1233
918.726	2576
918.824	1673
918.923	1080
919.021	1390
919.119	1474
919.218	748
919.316	2110
919.414	1647
919.512	1879
919.611	2165
919.709	2689
919.807	2707
919.905	3745
920.003	3621
920.102	2222
920.200	3946
920.298	3339
920.396	2831
920.494	3341
920.592	2343
920.690	3059
920.788	2366
920.886	2729
920.984	3967
921.082	3219
921.180	4388
921.277	3857
921.375	4818
921.473	6674
921.571	5593
921.669	6105
921.766	5217
921.864	5470
921.962	6118
922.060	4146
922.157	4906
922.255	5671
922.352	5537
922.450	6612
922.548	6919
922.645	7393
922.743	8954
922.840	13834
922.938	16985
923.035	14806
923.133	14768
923.230	16899
923.327	21149
923.425	18794
923.522	17925
923.619	16912
923.717	16090
923.814	15121
923.911	15241
924.008	15761
924.106	14171
924.203	13507
924.300	14628
924.397	14561
924.494	15467
924.591	14772
924.688	13144
924.786	14484
924.883	15612
924.979	14891
925.077	14948
925.173	14100
925.270	13996
925.367	13586
925.464	15421
925.561	14990
925.658	15274
925.755	12803
925.852	15482
925.948	14168
926.045	13527
926.142	13729
926.239	14842
926.335	10732
926.432	13253
926.529	14014
926.625	15146
926.722	12510
926.818	12269
926.915	14477
927.011	12706
927.108	12221
927.204	13056
927.301	11614
927.397	13847
927.494	16280
927.590	10677
927.687	10344
927.783	14720
927.879	13928
927.976	11856
928.072	10880
928.168	12866
928.264	13567
928.361	10994
928.457	14559
928.553	11962
928.649	12060
928.745	13732
928.841	11237
928.937	11589
929.033	12641
929.129	11614
929.225	13376
929.321	11521
929.417	9818
929.513	12902
929.609	10978
929.705	9585
929.801	13171
929.897	10038
929.993	11231
930.089	11610
930.184	10288
930.280	11438
930.376	13735
930.471	11006
930.567	9473
930.663	11407
930.758	9916
930.854	10089
930.950	9893
931.045	9817
931.141	9887
931.236	13239
931.332	11861
931.427	7898
931.523	11518
931.618	11822
931.714	8065
931.809	8185
931.905	12445
932.000	7424
932.095	7214
932.191	11139
932.286	13212
932.381	10941
932.476	8267
932.572	10516
932.667	9159
932.762	8418
932.857	10050
932.952	11768
933.047	10364
933.142	7471
933.237	9248
933.332	10986
933.427	11580
933.522	9165
933.617	8381
933.712	8581
933.807	11087
933.902	11415
933.997	11841
934.092	8363
934.187	8259
934.282	9768
934.376	9418
934.471	10867
934.566	8396
934.661	7738
934.755	9852
934.850	9961
934.945	8902
935.039	7983
935.134	6082
935.228	7331
935.323	13828
935.417	7844
935.512	5669
935.606	5805
935.701	10225
935.795	10007
935.890	9796
935.984	8000
936.079	6370
936.173	8752
936.267	7918
936.362	5705
936.456	8015
936.550	11554
936.644	8888
936.738	5822
936.833	6969
936.927	5121
937.021	7178
937.115	8359
937.209	8967
937.303	8111
937.397	6799
937.491	7702
937.585	9276
937.679	8705
937.773	6529
937.867	6404
937.961	4997
938.055	9205
938.149	9289
938.243	5156
938.337	5922
938.430	5693
938.524	9843
938.618	7168
938.712	5283
938.805	6443
938.899	6983
938.993	10229
939.086	6656
939.180	3332
939.274	5424
939.367	7833
939.461	9322
939.554	6037
939.648	5641
939.741	6230
939.835	7061
939.928	10708
940.022	8578
940.115	5946
940.208	7243
940.302	9381
940.395	9889
940.488	6372
940.582	5629
940.675	4272
940.768	5432
940.861	6968
940.954	8523
941.048	3632
941.141	4375
941.234	4679
941.327	5981
941.420	6977
941.513	7718
941.606	6423
941.699	5064
941.792	7160
941.885	6014
941.978	7161
942.071	7118
942.164	4565
942.257	4231
942.349	4951
942.442	6811
942.535	3745
942.628	4986
942.721	5179
942.813	5848
942.906	7389
942.999	6083
943.091	4822
943.184	5089
943.277	4684
943.369	4533
943.462	2824
943.554	4701
943.647	5716
943.739	6955
943.832	8328
943.924	3779
944.017	3153
944.109	3268
944.201	4263
944.294	5380
944.386	4535
944.478	5194
944.571	4018
944.663	4811
944.755	5186
944.847	6175
944.940	4687
945.032	2920
945.124	2950
945.216	6230
945.308	5309
945.400	5111
945.492	4153
945.584	6103
945.676	6145
945.768	5537
945.860	5627
945.952	6777
946.044	5590
946.136	4778
946.228	4448
946.320	5307
946.412	4779
946.503	5827
946.595	6368
946.687	4424
946.779	3628
946.870	3403
946.962	4008
947.054	4290
947.145	4983
947.237	4131
947.329	3507
947.420	5929
947.512	4897
947.603	2554
947.695	3194
947.786	3574
947.878	2646
947.969	4194
948.061	5101
948.152	4497
948.243	2493
948.335	3281
948.426	2611
948.517	4101
948.609	5163
948.700	4343
948.791	4067
948.882	3485
948.973	2140
949.065	5018
949.156	4058
949.247	1625
949.338	3317
949.429	2508
949.520	3308
949.611	4077
949.702	5175
949.793	3355
949.884	3186
949.975	3384
950.066	2447
950.157	2377
950.247	3099
950.338	3204
950.429	2344
950.520	3194
950.611	1574
950.701	2852
950.792	4888
950.883	4730
950.973	3069
951.064	4199
951.155	3231
951.245	4277
951.336	4353
951.427	5100
951.517	5223
951.608	4550
951.698	3521
951.788	3253
951.879	1607
951.969	2433
952.060	2954
952.150	3103
952.240	5067
952.331	3595
952.421	4667
952.511	2925
952.602	1208
952.692	1804
952.782	1588
952.872	2672
952.962	3645
953.052	2825
953.143	1657
953.233	2892
953.323	2644
953.413	2901
953.503	4666
953.593	3491
953.683	3531
953.773	1964
953.863	1403
953.953	1428
954.042	2551
954.132	3042
954.222	3816
954.312	2649
954.402	2832
954.492	2656
954.581	2765
954.671	3371
954.761	1897
954.850	4888
954.940	2017
955.030	953
955.119	1401
955.209	2217
955.298	2503
955.388	3334
955.477	3930
955.567	1517
955.656	2016
955.746	3178
955.835	2408
955.925	2121
956.014	2941
956.103	4077
956.193	4708
956.282	4484
956.371	2734
956.461	2800
956.550	2692
956.639	2873
956.728	2415
956.817	2629
956.906	2474
956.995	4064
957.085	1261
957.174	2460
957.263	1650
957.352	2167
957.441	2075
957.530	2278
957.619	2194
957.708	2964
957.796	2385
957.885	2209
957.974	1647
958.063	2781
958.152	1097
958.241	2001
958.329	1513
958.418	1898
958.507	1972
958.596	3369
958.684	1865
958.773	2843
958.861	1593
958.950	1909
959.039	1456
959.127	1392
959.216	2178
959.304	1534
959.393	1849
959.481	3094
959.570	1523
959.658	1647
959.746	503
959.835	2247
959.923	1963
960.011	1968
960.100	2786
960.188	2536
960.276	2536
960.365	1567
960.453	871
960.541	1338
960.629	1779
960.717	1097
960.805	486
960.893	1722
960.981	1947
961.069	4103
961.158	3143
961.245	5262
961.333	3481
961.421	1674
961.509	1861
961.597	2266
961.685	2811
961.773	2304
961.861	1868
961.949	2731
962.036	1635
962.124	1819
962.212	1564
962.299	1503
962.387	787
962.475	1634
962.562	1382
962.650	2852
962.738	2978
962.825	1241
962.913	1388
963.000	1493
963.088	1809
963.175	2437
963.263	876
963.350	1939
963.438	1489
963.525	1941
963.612	1621
963.700	1765
963.787	2394
963.874	2898
963.962	1271
964.049	895
964.136	1473
964.223	1290
964.310	1266
964.398	1890
964.485	1445
964.572	2171
964.659	2292
964.746	2179
964.833	900
964.920	1179
965.007	1568
965.094	1681
965.181	1317
965.268	2650
965.355	1376
965.441	985
965.528	1490
965.615	2552
965.702	2291
965.789	2267
965.875	1844
965.962	2323
966.049	1921
966.136	3321
966.222	3385
966.309	2717
966.395	1921
966.482	3783
966.569	2238
966.655	3064
966.742	2211
966.828	1647
966.915	757
967.001	1945
967.087	244
967.174	1076
967.260	1155
967.347	1904
967.433	1416
967.519	1808
967.605	1702
967.692	1867
967.778	1756
967.864	1186
967.950	2108
968.036	1403
968.123	1780
968.209	2612
968.295	136
968.381	2716
968.467	1759
968.553	529
968.639	2016
968.725	1263
968.811	2535
968.897	2924
968.983	2163
969.069	1649
969.154	1354
969.240	1898
969.326	764
969.412	641
969.497	288
969.583	867
969.669	2182
969.755	2496
969.840	2447
969.926	3691
970.012	4768
970.097	6356
970.183	4927
970.268	3124
970.354	2105
970.439	1665
970.525	2426
970.610	926
970.696	2942
970.781	2056
970.866	250
970.952	1966
971.037	670
971.122	2463
971.208	1489
971.293	2427
971.378	884
971.463	1679
971.549	1659
971.634	1668
971.719	1614
971.804	1485
971.889	1480
971.974	1045
972.059	1420
972.144	1690
972.229	1179
972.314	1412
972.399	1588
972.484	1279
972.569	1417
972.654	498
972.739	1896
972.824	1190
972.908	1152
972.993	1315
973.078	1475
973.163	1551
973.247	2043
973.332	588
973.417	2788
973.501	1476
973.586	2063
973.671	2028
973.755	642
973.840	1037
973.924	3153
974.009	3354
974.093	2900
974.178	4506
974.262	2420
974.346	2260
974.431	1943
974.515	1804
974.600	2343
974.684	2461
974.768	820
974.852	2397
974.937	777
975.021	3365
975.105	1286
975.189	2147
975.273	2407
975.358	1523
975.442	527
975.526	2328
975.610	1330
975.694	684
975.778	2623
975.862	1578
975.946	-441
976.030	2833
976.114	1776
976.198	1632
976.281	2105
976.365	2866
976.449	1249
976.533	2084
976.617	730
976.700	670
976.784	978
976.868	1409
976.951	1073
977.035	2020
977.119	1298
977.202	1683
977.286	2392
977.369	3375
977.453	5247
977.536	4685
977.620	2741
977.703	3846
977.787	1657
977.870	3446
977.953	3128
978.037	1521
978.120	2008
978.203	1780
978.287	2041
978.370	2103
978.453	1992
978.536	1617
978.620	2124
978.703	1737
978.786	2169
978.869	1982
978.952	1069
979.035	3798
979.118	1898
979.201	1471
979.284	1480
979.367	2031
979.450	2488
979.533	1857
979.616	1898
979.699	1499
979.782	1842
979.865	1728
979.948	1256
980.030	1618
980.113	2014
980.196	1345
980.279	2716
980.361	2054
980.444	1713
980.526	2857
980.609	4800
980.692	5644
980.774	4876
980.857	3245
980.939	3492
981.022	2474
981.104	1462
981.187	3091
981.269	2891
981.352	2997
981.434	1379
981.516	3075
981.599	2851
981.681	2976
981.763	1837
981.846	2148
981.928	2022
982.010	1903
982.092	1488
982.174	3212
982.256	2612
982.339	2449
982.421	2130
982.503	2267
982.585	933
982.667	2385
982.749	1920
982.831	2226
982.913	2015
982.995	3661
983.077	2393
983.158	3893
983.240	1860
983.322	3510
983.404	5398
983.486	5333
983.568	4634
983.649	4069
983.731	3352
983.813	3382
983.894	2942
983.976	3506
984.058	3701
984.139	3709
984.221	1684
984.302	4353
984.384	3000
984.465	2925
984.547	2995
984.628	1849
984.710	3810
984.791	2915
984.872	2701
984.954	3586
985.035	2919
985.116	3313
985.198	2973
985.279	3897
985.360	2980
985.441	3417
985.522	3843
985.604	2636
985.685	1867
985.766	4244
985.847	4861
985.928	3597
986.009	2586
986.090	3158
986.171	3843
986.252	3415
986.333	2948
986.414	3679
986.495	3493
986.576	3458
986.656	3886
986.737	4292
986.818	4608
986.899	4248
986.980	3689
987.060	5318
987.141	3293
987.222	5028
987.302	5100
987.383	5900
987.464	4624
987.544	5293
987.625	4329
987.705	5906
987.786	5620
987.866	5499
987.947	4776
988.027	5497
988.108	4424
988.188	4932
988.268	4272
988.349	6116
988.429	3837
988.509	4463
988.589	3164
988.670	3282
988.750	4811
988.830	4038
988.910	4845
988.990	4897
989.070	3928
989.151	4865
989.231	4028
989.311	3955
989.391	3587
989.471	4026
989.551	3689
989.631	2514
989.711	4636
989.791	3971
989.870	2705
989.950	5152
990.030	3435
990.110	3948
990.190	3037
990.269	2937
990.349	3058
990.429	4311
990.509	3434
990.588	2896
990.668	3695
990.747	3710
990.827	2424
990.907	3520
990.986	3041
991.066	4007
991.145	2180
991.225	4284
991.304	3178
991.383	3845
991.463	2416
991.542	3422
991.622	2629
991.701	2498
991.780	2128
991.859	3025
991.939	2455
992.018	3200
992.097	2738
992.176	2906
992.256	3075
992.335	2792
992.414	3552
992.493	2214
992.572	1968
992.651	3391
992.730	3149
992.809	2451
992.888	1518
992.967	3069
993.046	2139
993.125	1405
993.203	2212
993.282	2274
993.361	2790
993.440	2822
993.519	1444
993.597	2816
993.676	2013
993.755	2642
993.834	3087
993.912	889
993.991	3515
994.069	1804
994.148	1726
994.226	1607
994.305	2246
994.384	1445
994.462	3199
994.540	1109
994.619	1239
994.697	2838
994.776	2082
994.854	3173
994.932	463
995.011	2265
995.089	1555
995.167	1582
995.245	1358
995.324	1302
995.402	1967
995.480	2252
995.558	1717
995.636	1392
995.714	1539
995.792	2889
995.870	537
995.948	1096
996.026	1622
996.104	739
996.182	2820
996.260	369
996.338	752
996.416	197
996.494	717
996.572	2602
996.649	697
996.727	993
996.805	1664
996.883	1663
996.960	1641
997.038	2055
997.116	1781
997.193	1316
997.271	969
997.348	801
997.426	973
997.504	1356
997.581	2091
997.658	1833
997.736	-1027
997.813	-358
997.891	1978
997.968	757
998.046	297
998.123	523
998.200	1478
998.277	784
998.355	1278
998.432	-838
998.509	302
998.586	894
998.663	728
998.741	1089
998.818	608
998.895	843
998.972	880
999.049	1854
999.126	83
999.203	1013
999.280	484
999.357	724
999.434	189
999.511	-157
999.587	849
999.664	278
999.741	561
999.818	923
999.895	889
999.971	421
1000.048	575
1000.125	1612
1000.202	200
1000.278	1424
1000.355	1060
1000.431	439
1000.508	-302
1000.584	683
1000.661	-235
1000.738	74
1000.814	862
1000.890	1261
1000.967	1056
1001.043	-267
1001.120	-80
1001.196	1001
1001.272	-801
1001.349	75
1001.425	544
1001.501	714
1001.577	-313
1001.654	1150
1001.730	642
1001.806	-599
1001.882	-273
1001.958	1033
1002.034	262
1002.110	721
1002.186	-232
1002.262	493
1002.338	-568
1002.414	936
1002.490	573
1002.566	-530
1002.642	-958
1002.718	1141
1002.794	261
1002.870	-583
1002.945	-102
1003.021	-301
1003.097	-515
1003.173	449
1003.248	-732
1003.324	694
1003.400	206
1003.475	442
1003.551	-101
1003.626	989
1003.702	-233
1003.777	-1168
1003.853	-1251
1003.928	51
1004.004	-291
1004.079	206
1004.155	36
1004.230	-158
1004.305	290
1004.381	-20
1004.456	-1015
1004.531	-745
1004.607	119
1004.682	340
1004.757	810
1004.832	195
1004.907	-949
1004.982	267
1005.057	-633
1005.133	116
1005.208	-581
1005.283	-1099
1005.358	29
1005.433	-1049
1005.508	-496
1005.583	-594
1005.657	257
1005.732	661
1005.807	-629
1005.882	-329
1005.957	-394
1006.032	390
1006.106	-771
1006.181	69
1006.256	-159
1006.331	-115
1006.405	-1085
1006.480	34
1006.554	-389
1006.629	-603
1006.704	-532
1006.778	-935
1006.853	416
1006.927	-494
1007.002	-487
1007.076	-664
1007.150	-531
1007.225	-709
1007.299	64
1007.373	-1045
1007.448	-231
1007.522	304
1007.596	-1061
1007.671	-1247
1007.745	372
1007.819	-737
1007.893	-947
1007.967	-232
1008.041	-1404
1008.115	247
1008.190	-884
1008.264	-114
1008.338	-1990
1008.412	-230
1008.486	-383
1008.560	-86
1008.633	-834
1008.707	-614
1008.781	343
1008.855	-660
1008.929	-816
1009.003	-528
1009.076	-462
1009.150	-800
1009.224	-956
1009.298	-552
1009.371	-1520
1009.445	-204
1009.519	-492
1009.592	-1092
1009.666	-815
1009.739	-110
1009.813	-1424
1009.886	-158
1009.960	-1897
1010.033	-84
1010.107	489
1010.180	-1514
1010.253	-746
1010.327	-781
1010.400	-609
1010.473	-490
1010.547	396
1010.620	-1233
1010.693	-380
1010.766	-1638
1010.840	-676
1010.913	-470
1010.986	-884
1011.059	-1274
1011.132	-580
1011.205	-658
1011.278	-953
1011.351	-630
1011.424	-1546
1011.497	-535
1011.570	-1423
1011.643	-278
1011.716	-985
1011.789	-1053
1011.862	-670
1011.934	-78
1012.007	-1813
1012.080	-936
1012.153	-241
1012.225	-600
1012.298	-1308
1012.371	-1454
1012.443	-343
1012.516	-1976
1012.588	-768
1012.661	-462
1012.733	-1710
1012.806	-612
1012.879	-1675
1012.951	-1322
1013.023	-1282
1013.096	-732
1013.168	-1359
1013.241	-332
1013.313	-1450
1013.385	-1772
1013.458	-1042
1013.530	143
1013.602	-1250
1013.674	-22
1013.746	-2063
1013.819	-967
1013.891	-432
1013.963	-1857
1014.035	-355
1014.107	-358
1014.179	-478
1014.251	-1361
1014.323	-672
1014.395	-466
1014.467	-1613
1014.539	-446
1014.611	-970
1014.683	-1171
1014.754	-1011
1014.826	-1340
1014.898	-1178
1014.970	-1635
1015.042	-166
1015.113	-241
1015.185	-1944
1015.257	-1420
1015.328	-254
1015.400	-1563
1015.471	-1756
1015.543	-1714
1015.615	-1546
1015.686	-1058
1015.757	-1403
1015.829	-982
1015.901	-1218
1015.972	-2028
1016.043	-1040
1016.115	-958
1016.186	-1810
1016.257	-1332
1016.328	-1739
1016.400	22
1016.471	-1911
1016.542	-1520
1016.613	-606
1016.685	-1183
1016.756	-2245
1016.827	-1480
1016.898	-2223
1016.969	-885
1017.040	-1828
1017.111	-1278
1017.182	-1135
1017.253	-1036
1017.324	-1659
1017.395	-1222
1017.466	-1332
1017.537	-1333
1017.608	-1078
1017.678	-1886
1017.749	-1650
1017.820	-1282
1017.891	-1875
1017.961	-1318
1018.032	-1789
1018.103	-943
1018.173	-1882
1018.244	-2058
1018.315	-1933
1018.385	-1182
1018.456	-1726
1018.526	-940
1018.597	-1716
1018.667	-1281
1018.738	-1922
1018.808	-474
1018.878	-1475
1018.949	-613
1019.019	-706
1019.089	-1352
1019.160	-1506
1019.230	-1154
1019.300	-993
1019.371	-2128
1019.441	-1671
1019.511	-990
1019.581	-1451
1019.651	-1642
1019.721	-1628
1019.791	-1809
1019.861	-1268
1019.931	-1198
1020.001	-1162
1020.071	-999
1020.141	-1228
1020.211	-1737
1020.281	-2388
1020.351	-1168
1020.421	-1384
1020.491	-1757
1020.560	-1620
1020.630	-1807
1020.700	-1691
1020.770	-1090
1020.839	-1453
1020.909	-1414
1020.979	-1695
1021.048	-1339
1021.118	-2459
1021.187	-1121
1021.257	-1922
1021.326	-1024
1021.396	-1564
1021.465	-744
1021.535	-1491
1021.604	-1557
1021.674	-1048
1021.743	-901
1021.812	-1733
1021.882	-2202
1021.951	-2791
1022.020	-1985
1022.089	-1216
1022.159	-793
1022.228	-1510
1022.297	-862
1022.366	-2242
1022.435	-1867
1022.504	-1821
1022.573	-1720
1022.642	-1251
1022.711	-1680
1022.781	-1671
1022.849	-1333
1022.918	-1753
1022.987	-1370
1023.056	-989
1023.125	-951
1023.194	-1364
1023.263	-1448
1023.331	-696
1023.400	-1346
1023.469	-2022
1023.538	-1636
1023.606	-2098
1023.675	-2082
1023.744	-1371
1023.812	-1662
1023.881	-1443
1023.949	-1305
1024.018	-1655
1024.086	-1418
1024.155	-1460
1024.223	-1419
1024.292	-1017
1024.360	-1916
1024.429	-925
1024.497	-2011
1024.565	-1424
1024.634	-1766
1024.702	-1296
1024.770	-1647
1024.838	-1145
1024.907	-1244
1024.975	-1828
1025.043	-1158
1025.111	-2062
1025.179	-1048
1025.247	-1815
1025.315	-1134
1025.383	-893
1025.451	-1576
1025.519	-1337
1025.587	-2421
1025.655	-1943
1025.723	-1862
1025.791	-2269
1025.859	-1024
1025.927	-502
1025.995	-2174
1026.062	-1960
1026.130	-2015
1026.198	-2383
1026.266	-1911
1026.333	-1567
1026.401	-850
1026.469	-1627
1026.536	-901
1026.604	-2332
1026.671	-1896
1026.739	-1451
1026.806	-922
1026.874	-1459
1026.941	-1477
1027.009	-1939
1027.076	-2426
1027.144	-695
1027.211	-1807
1027.278	-1950
1027.345	-1999
1027.413	-1576
1027.480	-2153
1027.547	-1668
1027.614	-1463
1027.682	-1967
1027.749	-1915
1027.816	-1440
1027.883	-1731
1027.950	-1448
1028.017	-1984
1028.084	-1388
1028.151	-2149
1028.218	-972
1028.285	-1274
1028.352	-1775
1028.419	-1474
1028.486	-1391
1028.553	-1599
1028.619	-2074
1028.686	-1112
1028.753	-2168
1028.820	-2986
1028.886	-1941
1028.953	-1419
1029.020	-1507
1029.086	-1353
1029.153	-1806
1029.220	-1721
1029.286	-1265
1029.353	-1554
1029.419	-1755
1029.486	-1634
1029.552	-1693
1029.619	-2005
1029.685	-2038
1029.751	-1706
1029.818	-1502
1029.884	-1700
1029.951	-1299
1030.017	-1732
1030.083	-2060
1030.149	-1451
1030.216	-1781
1030.282	-2032
1030.348	-1993
1030.414	-2173
1030.480	-1717
1030.546	-1466
1030.612	-1573
1030.678	-1546
1030.744	-1918
1030.810	-2048
1030.876	-2100
1030.942	-1789
1031.008	-1797
1031.074	-1898
1031.140	-1748
1031.206	-1123
1031.272	-1821
1031.337	-2222
1031.403	-2023
1031.469	-1988
1031.534	-1334
1031.600	-1254
1031.666	-1727
1031.731	-2030
1031.797	-2292
1031.863	-1476
1031.928	-2171
1031.994	-1685
1032.059	-2104
1032.125	-1247
1032.190	-1822
1032.256	-1897
1032.321	-2138
1032.386	-1431
1032.452	-1349
1032.517	-1790
1032.582	-2643
1032.647	-1758
1032.713	-2133
1032.778	-616
1032.843	-2156
1032.908	-1527
1032.974	-1816
1033.039	-1611
1033.104	-2417
1033.169	-1758
1033.234	-2422
1033.299	-1451
1033.364	-1685
1033.429	-2153
1033.494	-2068
1033.559	-1882
1033.624	-1443
1033.688	-793
1033.753	-1797
1033.818	-1577
1033.883	-1582
1033.948	-628
1034.013	-1604
1034.077	-537
1034.142	51
1034.207	263
1034.271	1624
1034.336	3326
1034.400	1460
1034.465	91
1034.530	-804
1034.594	-1290
1034.658	-1371
1034.723	-1180
1034.787	-1659
1034.852	-1399
1034.916	-1515
1034.981	-1337
1035.045	-1172
1035.109	-1755
1035.173	-1195
1035.238	-2170
1035.302	-1003
1035.366	-2343
1035.430	-1997
1035.495	-1707
1035.559	-1415
1035.623	-2323
1035.687	-1749
1035.751	-2687
1035.815	-2097
1035.879	-1133
1035.943	-1224
1036.007	-2042
1036.071	-1712
1036.135	-1546
1036.198	-2069
1036.262	-2078
1036.326	-1689
1036.390	-1486
1036.454	-1181
1036.517	-1084
1036.581	-2144
1036.645	-1494
1036.709	-1992
1036.772	-1706
1036.836	-1033
1036.900	-1070
1036.963	-1712
1037.026	-1658
1037.090	-2022
1037.154	-2264
1037.217	-1396
1037.280	-1556
1037.344	-1281
1037.407	-1781
1037.471	-1669
1037.534	-620
1037.597	-1469
1037.661	-2332
1037.724	-1417
1037.787	-1317
1037.850	-1993
1037.913	-663
1037.977	-884
1038.040	-2497
1038.103	-2074
1038.166	-1534
1038.229	-1827
1038.292	-2146
1038.355	-1440
1038.418	-1509
1038.481	-830
1038.544	-1264
1038.607	-1788
1038.670	-1844
1038.732	-2027
1038.795	-2007
1038.858	-2081
1038.921	-1505
1038.984	-966
1039.046	-1873
1039.109	-1925
1039.172	-1208
1039.234	-1835
1039.297	-2584
1039.360	-1901
1039.422	-1554
1039.485	-1463
1039.547	-1106
1039.610	-944
1039.672	-1446
1039.734	-1796
1039.797	-1486
1039.859	-1260
1039.922	-1834
1039.984	-1407
1040.046	-1616
1040.109	-1229
1040.171	-895
1040.233	-1551
1040.295	-1848
1040.358	-2075
1040.420	-1852
1040.482	-1618
1040.544	-930
1040.606	-1102
1040.668	-1109
1040.730	-2481
1040.792	-1561
1040.854	-1841
1040.916	-1855
1040.978	-2750
1041.040	-687
1041.102	-1694
1041.164	-1888
1041.225	-1872
1041.287	-1700
1041.349	-2415
1041.411	-1904
1041.472	-1947
1041.534	-1934
1041.596	-1677
1041.657	-2109
1041.719	-1922
1041.781	-1611
1041.842	-1710
1041.904	-1563
1041.965	-2090
1042.027	-1269
1042.088	-1517
1042.150	-1105
1042.211	-2384
1042.272	-1352
1042.334	-1487
1042.395	-1080
1042.456	-1947
1042.518	-1098
1042.579	-2015
1042.640	-1282
1042.701	-1571
1042.763	-1270
1042.824	-2127
1042.885	-1305
1042.946	-1435
1043.007	-1688
1043.068	-1688
1043.129	-1370
1043.190	-2387
1043.251	-1013
1043.312	-2067
1043.373	-1013
1043.434	-1934
1043.495	-1865
1043.556	-1379
1043.616	-1833
1043.677	-1634
1043.738	-1256
1043.799	-1435
1043.859	-2119
1043.920	-2369
1043.981	-1997
1044.041	-1621
1044.102	-833
1044.162	-1147
1044.223	-952
1044.284	-1827
1044.344	-1625
1044.405	-1805
1044.465	-1121
1044.525	-1507
1044.586	-1189
1044.646	-1497
1044.707	-240
1044.767	-1483
1044.827	-1876
1044.887	-1438
1044.948	-947
1045.008	-1471
1045.068	-1249
1045.128	-1014
1045.188	-1565
1045.249	-653
1045.309	-1436
1045.369	-1434
1045.429	-88
1045.489	-730
1045.549	-1041
1045.609	-2114
1045.669	-2136
1045.729	-843
1045.789	-608
1045.848	-1082
1045.908	-1530
1045.968	-1758
1046.028	-1121
1046.088	-644
1046.147	-763
1046.207	-1104
1046.267	-404
1046.326	-1419
1046.386	-733
1046.446	-1083
1046.505	-938
1046.565	-1578
1046.624	-794
1046.684	-1141
1046.743	-719
1046.803	-84
1046.862	-155
1046.922	0
