'Start Wavelength	183.907
'End Wavelength	1046.922
'Gate Delay	5.000
'Gate Width (ms)	1.050
'Laser Output Level	0.000
'X Position	0.000
'Y Position	0.000
'Z Position	0.000
'Grid Point Number	1.000
'Shot Number	100.000
183.907	753.000
183.977	-196.000
184.047	-363
184.116	643
184.186	1654
184.256	986
184.325	256
184.395	-954
184.465	905
184.534	996
184.604	-570
184.674	599
184.743	70
184.813	523
184.883	140
184.952	190
185.022	522
185.092	-397
185.161	1221
185.231	-651
185.301	95
185.370	-37
185.440	18
185.509	323
185.579	-124
185.649	110
185.718	63
185.788	829
185.857	296
185.927	-592
185.996	-206
186.066	440
186.136	33
186.205	152
186.275	287
186.344	591
186.414	362
186.483	146
186.553	1298
186.622	2369
186.692	922
186.761	201
186.831	381
186.900	968
186.970	174
187.039	638
187.109	900
187.178	1024
187.248	653
187.317	1249
187.387	-167
187.456	703
187.526	1012
187.595	1238
187.664	230
187.734	1108
187.803	176
187.873	950
187.942	1367
188.012	527
188.081	686
188.150	975
188.220	1077
188.289	1987
188.358	1333
188.428	850
188.497	-46
188.567	899
188.636	239
188.705	278
188.775	452
188.844	1221
188.913	808
188.983	932
189.052	364
189.121	825
189.191	596
189.260	834
189.329	575
189.399	-264
189.468	746
189.537	957
189.606	1177
189.676	914
189.745	1613
189.814	1007
189.883	619
189.953	547
190.022	662
190.091	2294
190.161	2252
190.230	1238
190.299	498
190.368	922
190.437	705
190.507	554
190.576	24
190.645	697
190.714	709
190.783	-50
190.853	791
190.922	1368
190.991	181
191.060	370
191.129	-178
191.198	610
191.268	1385
191.337	1134
191.406	302
191.475	1218
191.544	-198
191.613	1301
191.682	590
191.752	-46
191.821	-83
191.890	536
191.959	490
192.028	652
192.097	1093
192.166	926
192.235	-216
192.304	1218
192.373	-579
192.442	193
192.511	490
192.580	637
192.650	673
192.719	1313
192.788	462
192.857	476
192.926	515
192.995	873
193.064	1335
193.133	2157
193.202	1991
193.271	2018
193.340	1859
193.409	846
193.478	945
193.547	1757
193.615	1896
193.684	1658
193.753	1123
193.822	1537
193.891	618
193.960	1351
194.029	1379
194.098	970
194.167	447
194.236	1319
194.305	-12
194.374	597
194.443	229
194.512	1109
194.580	586
194.649	1068
194.718	935
194.787	1579
194.856	507
194.925	1075
194.994	422
195.062	1028
195.131	617
195.200	1183
195.269	1305
195.338	735
195.407	495
195.475	772
195.544	579
195.613	404
195.682	795
195.751	426
195.819	489
195.888	1058
195.957	921
196.026	981
196.094	926
196.163	945
196.232	649
196.301	375
196.369	256
196.438	932
196.507	812
196.576	283
196.644	1191
196.713	809
196.782	624
196.850	792
196.919	27
196.988	475
197.056	121
197.125	407
197.194	1122
197.262	1471
197.331	902
197.400	629
197.468	-2
197.537	582
197.606	1309
197.674	858
197.743	3509
197.812	1635
197.880	2356
197.949	1449
198.017	1538
198.086	2177
198.155	1414
198.223	1723
198.292	1756
198.360	1209
198.429	1287
198.497	1443
198.566	1650
198.635	3412
198.703	1914
198.772	1904
198.840	2522
198.909	4041
198.977	1248
199.046	1286
199.114	647
199.183	1106
199.251	758
199.320	964
199.388	91
199.457	776
199.525	762
199.594	811
199.662	616
199.731	1451
199.799	1078
199.867	781
199.936	503
200.004	907
200.073	842
200.141	941
200.210	946
200.278	324
200.346	1217
200.415	1883
200.483	1583
200.552	2162
200.620	779
200.688	1256
200.757	743
200.825	1795
200.893	-626
200.962	1264
201.030	723
201.098	200
201.167	1355
201.235	1295
201.303	1750
201.372	2277
201.440	1007
201.508	1293
201.577	606
201.645	1040
201.713	866
201.781	808
201.850	1753
201.918	1201
201.986	632
202.055	1547
202.123	243
202.191	675
202.259	1376
202.327	1980
202.396	425
202.464	1419
202.532	1227
202.600	3464
202.669	3034
202.737	1690
202.805	1253
202.873	1104
202.941	449
203.009	1505
203.078	336
203.146	1357
203.214	926
203.282	838
203.350	1782
203.418	1513
203.487	1499
203.555	1050
203.623	773
203.691	1475
203.759	1106
203.827	867
203.895	1485
203.963	1287
204.031	1164
204.099	1877
204.168	644
204.236	1801
204.304	826
204.372	1134
204.440	1156
204.508	1114
204.576	579
204.644	1400
204.712	430
204.780	2346
204.848	1958
204.916	1121
204.984	528
205.052	938
205.120	121
205.188	542
205.256	759
205.324	1674
205.392	481
205.460	2311
205.528	602
205.596	1412
205.664	1512
205.732	1265
205.799	3072
205.867	5596
205.935	818
206.003	2396
206.071	1368
206.139	1324
206.207	1123
206.275	1839
206.343	635
206.411	1963
206.478	739
206.546	1316
206.614	1377
206.682	1658
206.750	1230
206.818	2285
206.885	2856
206.953	382
207.021	1495
207.089	1563
207.157	958
207.225	1473
207.292	747
207.360	1068
207.428	1358
207.496	1618
207.563	1335
207.631	2082
207.699	272
207.767	1275
207.834	1586
207.902	1854
207.970	1351
208.038	1493
208.105	1105
208.173	1745
208.241	1887
208.309	1878
208.376	1879
208.444	3078
208.512	1713
208.579	1307
208.647	1899
208.715	3352
208.782	1057
208.850	1562
208.918	1086
208.985	1133
209.053	616
209.120	1802
209.188	1669
209.256	1438
209.323	51
209.391	1438
209.459	2089
209.526	2363
209.594	1200
209.661	1390
209.729	1023
209.796	1879
209.864	2161
209.932	665
209.999	2460
210.067	1972
210.134	1550
210.202	2093
210.269	2671
210.337	3251
210.404	3021
210.472	1716
210.539	1483
210.607	1492
210.674	1815
210.742	1542
210.809	1748
210.877	1531
210.944	2250
211.012	1286
211.079	3501
211.146	1651
211.214	2457
211.281	3467
211.349	3110
211.416	2774
211.484	2068
211.551	2671
211.618	1980
211.686	2703
211.753	1828
211.821	2335
211.888	2235
211.955	2665
212.023	2019
212.090	1545
212.157	1776
212.225	2751
212.292	3291
212.359	6188
212.427	13859
212.494	8092
212.561	3209
212.629	2903
212.696	2334
212.763	2492
212.831	1218
212.898	3075
212.965	1594
213.032	2345
213.100	1737
213.167	1747
213.234	2618
213.301	2919
213.369	1905
213.436	1555
213.503	1239
213.570	1750
213.638	2066
213.705	2038
213.772	1443
213.839	1482
213.906	2321
213.973	1583
214.041	1646
214.108	1802
214.175	1661
214.242	1823
214.309	1926
214.376	2531
214.444	1451
214.511	2255
214.578	1637
214.645	2491
214.712	3452
214.779	1988
214.846	1671
214.913	3773
214.980	2981
215.048	3697
215.115	3532
215.182	3631
215.249	1840
215.316	1800
215.383	2066
215.450	2476
215.517	2199
215.584	1927
215.651	1151
215.718	2561
215.785	2225
215.852	1382
215.919	1743
215.986	2567
216.053	1275
216.120	1380
216.187	2362
216.254	2221
216.321	1033
216.388	1327
216.455	1912
216.522	2514
216.589	1284
216.656	2836
216.722	3262
216.789	2888
216.856	2008
216.923	3114
216.990	2682
217.057	2893
217.124	2974
217.191	2212
217.258	3069
217.324	3293
217.391	3481
217.458	4092
217.525	2574
217.592	2687
217.659	1942
217.725	3082
217.792	2636
217.859	2827
217.926	1580
217.993	3205
218.059	2136
218.126	2612
218.193	2117
218.260	2340
218.327	1943
218.393	1982
218.460	1555
218.527	1035
218.594	2179
218.660	2202
218.727	2463
218.794	1659
218.860	2490
218.927	1883
218.994	1114
219.061	2318
219.127	1825
219.194	2444
219.261	1934
219.327	1941
219.394	2309
219.461	1505
219.527	1460
219.594	2490
219.661	1895
219.727	1952
219.794	2570
219.860	2371
219.927	2888
219.994	4548
220.060	6648
220.127	7705
220.193	5459
220.260	3604
220.326	4135
220.393	5024
220.460	5296
220.526	4796
220.593	4027
220.659	5120
220.726	3409
220.792	8454
220.859	7976
220.925	8327
220.992	9270
221.058	10457
221.125	10665
221.191	8606
221.258	3447
221.324	3988
221.391	2631
221.457	2572
221.524	2206
221.590	3997
221.657	9154
221.723	7298
221.789	6501
221.856	6599
221.922	3741
221.989	2789
222.055	2244
222.121	1982
222.188	4388
222.254	3571
222.321	2821
222.387	2206
222.453	1869
222.520	2155
222.586	1831
222.652	1940
222.719	1699
222.785	2777
222.851	1584
222.918	2169
222.984	1815
223.050	1798
223.116	993
223.183	3078
223.249	1647
223.315	1365
223.382	2034
223.448	1356
223.514	440
223.580	2457
223.647	1082
223.713	1597
223.779	1816
223.845	1384
223.911	1675
223.978	1494
224.044	2174
224.110	1477
224.176	2873
224.242	1780
224.309	-249
224.375	2110
224.441	1469
224.507	1294
224.573	515
224.639	1987
224.705	1586
224.772	1440
224.838	1583
224.904	1953
224.970	900
225.036	1215
225.102	425
225.168	2779
225.234	2214
225.300	1816
225.366	1107
225.432	2212
225.499	1851
225.565	1794
225.631	1498
225.697	2862
225.763	2401
225.829	3225
225.895	2690
225.961	4213
226.027	2924
226.093	3134
226.159	5179
226.225	7617
226.291	11717
226.357	16415
226.423	9159
226.489	6954
226.554	4439
226.620	3979
226.686	4180
226.752	6711
226.818	10499
226.884	20770
226.950	19234
227.016	9597
227.082	6139
227.148	4825
227.214	3694
227.279	4341
227.345	4219
227.411	4426
227.477	7194
227.543	11974
227.609	12653
227.674	9745
227.740	5500
227.806	4598
227.872	3467
227.938	3461
228.003	2735
228.069	1910
228.135	2129
228.201	2702
228.267	2197
228.332	1472
228.398	774
228.464	1908
228.530	1438
228.595	2231
228.661	1156
228.727	1884
228.792	2933
228.858	1676
228.924	494
228.990	4179
229.055	984
229.121	3153
229.187	2017
229.252	1759
229.318	1547
229.384	1723
229.449	1440
229.515	179
229.581	247
229.646	3081
229.712	1564
229.777	2873
229.843	1509
229.909	2813
229.974	3207
230.040	2779
230.105	2629
230.171	1810
230.236	3963
230.302	4874
230.368	3799
230.433	3018
230.499	2929
230.564	4273
230.630	905
230.695	2247
230.761	2737
230.826	470
230.892	2866
230.957	1432
231.023	2291
231.088	1019
231.154	2264
231.219	2276
231.284	1285
231.350	2789
231.415	1505
231.481	2770
231.546	909
231.612	1789
231.677	1095
231.742	993
231.808	2884
231.873	2183
231.939	-144
232.004	3552
232.069	2768
232.135	2132
232.200	1613
232.265	2309
232.331	1672
232.396	1021
232.461	1550
232.527	1907
232.592	969
232.657	2235
232.723	1525
232.788	1485
232.853	2216
232.918	1985
232.984	741
233.049	1560
233.114	1184
233.179	1934
233.245	3668
233.310	2828
233.375	270
233.440	2480
233.506	2504
233.571	2364
233.636	1056
233.701	1757
233.766	1351
233.832	2202
233.897	584
233.962	-195
234.027	2463
234.092	2351
234.157	1043
234.222	2508
234.288	2848
234.353	2814
234.418	2909
234.483	3410
234.548	2730
234.613	2327
234.678	3015
234.743	2036
234.808	3543
234.873	1816
234.938	3883
235.004	2448
235.069	2263
235.134	2295
235.199	2966
235.264	2530
235.329	1200
235.394	2812
235.459	4114
235.524	1275
235.589	2845
235.654	2343
235.719	1218
235.784	2877
235.849	2242
235.913	2786
235.978	2663
236.043	2052
236.108	1940
236.173	1736
236.238	2617
236.303	1765
236.368	2222
236.433	3493
236.498	3030
236.563	5472
236.627	8143
236.692	26857
236.757	26200
236.822	10898
236.887	5127
236.952	5623
237.017	4132
237.081	6655
237.146	6232
237.211	13778
237.276	26468
237.341	42278
237.405	21809
237.470	9994
237.535	6013
237.600	5169
237.664	4284
237.729	3039
237.794	3773
237.859	8260
237.923	4982
237.988	2876
238.053	3679
238.118	3369
238.182	3977
238.247	6407
238.312	2089
238.376	3241
238.441	911
238.506	3406
238.570	584
238.635	3582
238.700	1846
238.764	1712
238.829	3118
238.893	3200
238.958	2872
239.023	3376
239.087	2945
239.152	2916
239.216	2613
239.281	2852
239.346	2424
239.410	2619
239.475	2090
239.539	5431
239.604	3918
239.668	4330
239.733	4813
239.797	11874
239.862	23015
239.926	18501
239.991	9416
240.055	5963
240.120	3241
240.184	3970
240.249	2159
240.313	2362
240.378	2013
240.442	3648
240.507	4426
240.571	2390
240.635	1672
240.700	2389
240.764	1427
240.829	2012
240.893	883
240.957	2245
241.022	2586
241.086	3754
241.151	967
241.215	520
241.279	1996
241.344	2114
241.408	3057
241.472	3096
241.537	3781
241.601	3928
241.665	1759
241.730	2633
241.794	3084
241.858	3049
241.922	2921
241.987	3723
242.051	2211
242.115	1949
242.179	2574
242.244	2934
242.308	2721
242.372	3010
242.436	1883
242.501	2953
242.565	2323
242.629	2724
242.693	2879
242.757	2177
242.822	2312
242.886	3390
242.950	2704
243.014	1941
243.078	2460
243.142	3042
243.206	2045
243.271	4136
243.335	3473
243.399	6449
243.463	17185
243.527	46306
243.591	17108
243.655	5987
243.719	3167
243.783	4816
243.847	5484
243.911	8158
243.975	3816
244.040	2907
244.104	3881
244.168	2810
244.232	1657
244.296	4449
244.360	6784
244.424	2505
244.488	2305
244.552	3176
244.615	1927
244.679	2798
244.743	2168
244.807	1118
244.871	2628
244.935	2709
244.999	244
245.063	1890
245.127	2792
245.191	4440
245.255	5158
245.319	3779
245.383	-251
245.446	2821
245.510	1318
245.574	1800
245.638	1311
245.702	874
245.766	3009
245.829	3760
245.893	1655
245.957	2566
246.021	2603
246.085	2113
246.149	2071
246.212	4745
246.276	5397
246.340	3209
246.404	2867
246.467	3026
246.531	1170
246.595	3360
246.659	2743
246.722	861
246.786	2124
246.850	2877
246.913	3146
246.977	1573
247.041	2795
247.104	1974
247.168	2822
247.232	3955
247.295	6948
247.359	4947
247.423	1716
247.486	3274
247.550	2326
247.614	1880
247.677	1623
247.741	2354
247.804	2533
247.868	4847
247.932	2586
247.995	8771
248.059	3702
248.122	1523
248.186	2505
248.249	3714
248.313	11000
248.376	12841
248.440	8369
248.503	3040
248.567	4110
248.630	2972
248.694	3991
248.757	7015
248.821	13670
248.884	9606
248.948	6194
249.011	10894
249.075	15310
249.138	14556
249.202	5804
249.265	3936
249.328	4747
249.392	4128
249.455	5074
249.519	4251
249.582	3907
249.645	5360
249.709	5046
249.772	3930
249.835	3856
249.899	4436
249.962	4898
250.025	4181
250.089	5596
250.152	8243
250.215	4413
250.279	4559
250.342	4946
250.405	4740
250.468	4459
250.532	6920
250.595	11445
250.658	38270
250.721	71362
250.785	26570
250.848	12917
250.911	7456
250.974	7126
251.038	6836
251.101	11550
251.164	8185
251.227	7955
251.290	9300
251.354	14745
251.417	55281
251.480	64001
251.543	42617
251.606	97129
251.669	84765
251.732	33426
251.795	22695
251.859	25455
251.922	64968
251.985	42870
252.048	16627
252.111	11037
252.174	8365
252.237	10270
252.300	20688
252.363	30139
252.426	78099
252.489	35969
252.552	14947
252.615	8882
252.678	10162
252.741	16343
252.804	32222
252.867	82806
252.930	43566
252.993	17403
253.056	10264
253.119	8220
253.182	6708
253.245	14069
253.308	11264
253.371	4800
253.434	5508
253.497	4882
253.559	8685
253.622	5026
253.685	4649
253.748	3855
253.811	3227
253.874	3184
253.937	3262
254.000	3032
254.062	4541
254.125	6873
254.188	7560
254.251	4365
254.314	3201
254.376	3472
254.439	4102
254.502	2991
254.565	3927
254.628	8414
254.690	3952
254.753	2417
254.816	2997
254.878	2671
254.941	4839
255.004	5649
255.067	2895
255.129	1727
255.192	3531
255.255	758
255.317	2131
255.380	2206
255.443	1665
255.505	2598
255.568	2034
255.631	2915
255.693	2844
255.756	1815
255.819	4137
255.881	2621
255.944	3315
256.006	1693
256.069	1727
256.132	1691
256.194	2663
256.257	3024
256.319	3630
256.382	3501
256.444	6176
256.507	4549
256.569	4690
256.632	3924
256.694	5304
256.757	13914
256.819	48169
256.882	22422
256.944	8938
257.007	5139
257.069	4984
257.132	5356
257.194	5742
257.257	3806
257.319	3804
257.381	4605
257.444	12010
257.506	47845
257.569	57770
257.631	19344
257.693	10055
257.756	5827
257.818	4748
257.880	3698
257.943	3993
258.005	2191
258.067	3071
258.130	3371
258.192	3663
258.254	3121
258.317	3500
258.379	3349
258.441	4608
258.503	5307
258.566	4107
258.628	4953
258.690	2656
258.753	3366
258.815	3870
258.877	2752
258.939	4655
259.001	4237
259.064	3378
259.126	3380
259.188	2692
259.250	3784
259.312	3130
259.375	4338
259.437	2925
259.499	3405
259.561	3552
259.623	3543
259.685	3859
259.747	3021
259.809	4881
259.872	6232
259.934	10374
259.996	11548
260.058	5717
260.120	2020
260.182	2685
260.244	2839
260.306	2287
260.368	3974
260.430	1848
260.492	3612
260.554	7215
260.616	3731
260.678	4748
260.740	7193
260.802	3259
260.864	3262
260.926	2140
260.988	3697
261.050	3044
261.112	5992
261.174	10656
261.236	6664
261.298	3867
261.359	3658
261.421	5353
261.483	2081
261.545	3363
261.607	1503
261.669	3633
261.731	3030
261.793	5321
261.854	2568
261.916	4033
261.978	2532
262.040	3986
262.102	2351
262.164	2454
262.225	2441
262.287	3449
262.349	2439
262.411	3770
262.472	3723
262.534	2391
262.596	4427
262.658	3933
262.719	1667
262.781	3725
262.843	2857
262.904	4029
262.966	3133
263.028	4456
263.090	16704
263.151	55508
263.213	19330
263.275	7349
263.336	4214
263.398	4106
263.459	2221
263.521	3898
263.583	3776
263.644	2884
263.706	1674
263.767	1993
263.829	2437
263.891	2418
263.952	1570
264.014	1372
264.075	2751
264.137	7768
264.198	4125
264.260	2430
264.321	2415
264.383	4105
264.444	9508
264.506	4667
264.567	3119
264.629	5779
264.690	9421
264.752	5630
264.813	3789
264.875	2496
264.936	3735
264.998	2609
265.059	4023
265.120	5005
265.182	4726
265.243	20090
265.305	27968
265.366	8417
265.427	3932
265.489	4446
265.550	2560
265.611	3143
265.673	2524
265.734	3548
265.795	3537
265.857	3174
265.918	3775
265.979	7207
266.040	35709
266.102	37913
266.163	10939
266.224	6215
266.286	4320
266.347	2316
266.408	3224
266.469	3208
266.530	2464
266.592	3261
266.653	2900
266.714	3869
266.775	2841
266.836	2854
266.898	2400
266.959	3073
267.020	2883
267.081	4304
267.142	3143
267.203	2934
267.264	2704
267.326	4066
267.387	2610
267.448	2586
267.509	2787
267.570	2946
267.631	2652
267.692	1199
267.753	3496
267.814	2562
267.875	3177
267.936	4991
267.997	3613
268.058	3495
268.119	3005
268.180	2426
268.241	1944
268.302	2374
268.363	2742
268.424	2664
268.485	1975
268.546	1879
268.607	1679
268.668	1909
268.729	1525
268.790	1988
268.851	2792
268.912	2490
268.972	2811
269.033	2512
269.094	1667
269.155	2244
269.216	2411
269.277	2369
269.338	2220
269.398	2672
269.459	2047
269.520	3115
269.581	2430
269.642	2779
269.702	2209
269.763	2716
269.824	1794
269.885	2603
269.945	3044
270.006	3372
270.067	2067
270.128	2827
270.188	2076
270.249	2019
270.310	1718
270.370	2808
270.431	1620
270.492	1789
270.553	2320
270.613	3482
270.674	3555
270.734	2867
270.795	1975
270.856	2663
270.916	2255
270.977	2588
271.038	2469
271.098	2912
271.159	2496
271.219	3092
271.280	3161
271.340	3112
271.401	2421
271.462	2987
271.522	2919
271.583	2878
271.643	2152
271.704	2930
271.764	2916
271.825	4251
271.885	8459
271.946	16394
272.006	5799
272.066	7545
272.127	14832
272.187	13744
272.248	8133
272.308	5253
272.369	9033
272.429	7485
272.489	3975
272.550	4791
272.610	4246
272.671	4158
272.731	3280
272.791	4398
272.852	3308
272.912	4057
272.972	3100
273.033	3195
273.093	2591
273.153	4509
273.214	3864
273.274	3824
273.334	6991
273.394	11786
273.455	5229
273.515	6683
273.575	8505
273.635	6499
273.696	6864
273.756	12270
273.816	6587
273.876	4560
273.936	5558
273.997	7785
274.057	4008
274.117	3486
274.177	3711
274.237	12723
274.297	12505
274.358	6481
274.418	7535
274.478	6203
274.538	3074
274.598	3685
274.658	5037
274.718	5890
274.778	3328
274.838	3220
274.898	3462
274.958	7626
275.018	10396
275.078	8759
275.138	3851
275.198	3388
275.258	3821
275.318	3824
275.378	3765
275.438	3312
275.498	2811
275.558	3361
275.618	8020
275.678	7576
275.738	5313
275.798	4968
275.858	3878
275.918	3654
275.978	2093
276.038	3892
276.098	2668
276.157	3321
276.217	5713
276.277	4366
276.337	3805
276.397	3149
276.457	4024
276.517	2912
276.576	3233
276.636	3763
276.696	2774
276.756	3981
276.815	3616
276.875	4230
276.935	2919
276.995	3963
277.055	4201
277.114	4704
277.174	4613
277.234	5513
277.293	3182
277.353	2892
277.413	3333
277.472	3716
277.532	4662
277.592	5640
277.651	16403
277.711	36906
277.771	12367
277.830	31681
277.890	30181
277.950	20431
278.009	63019
278.069	28684
278.128	22856
278.188	37352
278.248	15743
278.307	38169
278.367	27734
278.426	8905
278.486	6505
278.545	5454
278.605	5495
278.664	5683
278.724	4275
278.783	6964
278.843	13731
278.902	6949
278.962	4748
279.021	6664
279.081	12346
279.140	12760
279.199	7054
279.259	8982
279.318	10223
279.378	12909
279.437	18392
279.496	48611
279.556	166468
279.615	158249
279.675	47941
279.734	23696
279.793	25329
279.853	38530
279.912	17451
279.971	11872
280.031	9846
280.090	14051
280.149	22733
280.208	25850
280.268	113165
280.327	137197
280.386	36298
280.445	16908
280.505	12461
280.564	9374
280.623	8042
280.682	8147
280.742	7941
280.801	5460
280.860	5032
280.919	5541
280.978	5611
281.037	4754
281.097	4801
281.156	5191
281.215	4412
281.274	4721
281.333	8077
281.392	6872
281.451	3486
281.510	5022
281.569	3899
281.628	4504
281.688	4655
281.747	4833
281.806	3541
281.865	4506
281.924	3295
281.983	3764
282.042	3026
282.101	3382
282.160	3750
282.219	3980
282.278	3072
282.337	4060
282.396	4503
282.454	4872
282.513	3261
282.572	6098
282.631	3725
282.690	3774
282.749	3508
282.808	3711
282.867	3534
282.926	4758
282.985	3744
283.043	4664
283.102	3628
283.161	4371
283.220	4821
283.279	7853
283.338	5647
283.396	3945
283.455	4137
283.514	4394
283.573	4443
283.631	5232
283.690	3900
283.749	6370
283.808	6152
283.866	6251
283.925	6432
283.984	5419
284.043	5539
284.101	6024
284.160	5441
284.219	7800
284.277	7062
284.336	7134
284.395	10533
284.453	11157
284.512	9040
284.570	10329
284.629	10619
284.688	13230
284.746	13975
284.805	17281
284.863	21045
284.922	26455
284.981	32841
285.039	47727
285.098	75155
285.156	138781
285.215	180381
285.273	176635
285.332	160425
285.390	98666
285.449	61963
285.507	43129
285.566	32223
285.624	25385
285.683	20020
285.741	16271
285.799	14827
285.858	11824
285.916	9999
285.975	10020
286.033	8785
286.091	7642
286.150	7280
286.208	6800
286.267	7763
286.325	7564
286.383	6307
286.442	6138
286.500	5143
286.558	6546
286.616	6193
286.675	6789
286.733	4681
286.791	5568
286.850	5488
286.908	5410
286.966	5588
287.024	5304
287.083	4643
287.141	4942
287.199	4851
287.257	5749
287.315	4468
287.374	4613
287.432	6117
287.490	5949
287.548	5536
287.606	5240
287.664	5942
287.723	6517
287.781	6638
287.839	6585
287.897	7310
287.955	10772
288.013	14032
288.071	26381
288.129	83914
288.187	225151
288.245	129985
288.303	45944
288.361	24624
288.419	16552
288.477	12314
288.535	10976
288.593	9191
288.651	7880
288.709	5943
288.767	6135
288.825	4742
288.883	5733
288.941	4728
288.999	5095
289.057	3895
289.115	3719
289.173	4024
289.231	4770
289.289	3818
289.346	4021
289.404	3853
289.462	5145
289.520	3703
289.578	4180
289.636	4370
289.694	3507
289.751	4007
289.809	4652
289.867	3594
289.925	4856
289.983	4012
290.040	3990
290.098	4061
290.156	4520
290.214	3402
290.271	3607
290.329	4723
290.387	4215
290.444	3638
290.502	3489
290.560	3170
290.617	4225
290.675	3268
290.733	4419
290.790	2907
290.848	3247
290.906	3320
290.963	3502
291.021	3250
291.078	3588
291.136	3406
291.194	5417
291.251	9285
291.309	5630
291.366	3174
291.424	3716
291.481	3485
291.539	3970
291.596	4584
291.654	3717
291.711	4288
291.769	3048
291.826	3204
291.884	3701
291.941	2146
291.999	2951
292.056	2741
292.114	3453
292.171	3038
292.228	4439
292.286	4026
292.343	3526
292.401	3723
292.458	4259
292.515	3776
292.573	3794
292.630	3852
292.687	4075
292.745	3520
292.802	4046
292.859	7863
292.917	9216
292.974	5461
293.031	4176
293.089	3742
293.146	3307
293.203	3377
293.260	3315
293.318	3531
293.375	4883
293.432	3958
293.489	4494
293.546	3560
293.604	4560
293.661	8419
293.718	17241
293.775	10489
293.832	6201
293.889	6784
293.947	6337
294.004	5071
294.061	3972
294.118	5465
294.175	11132
294.232	18334
294.289	10741
294.346	5729
294.403	5760
294.460	5096
294.517	5037
294.574	3829
294.631	4854
294.688	3406
294.745	5831
294.802	16702
294.859	23360
294.916	10140
294.973	5589
295.030	3870
295.087	3408
295.144	4622
295.201	4366
295.258	3305
295.315	4118
295.372	6195
295.429	10925
295.486	6661
295.542	5498
295.599	10682
295.656	21486
295.713	11246
295.770	10206
295.827	6102
295.883	4856
295.940	4450
295.997	4280
296.054	4379
296.111	4102
296.167	4168
296.224	3887
296.281	3639
296.338	3976
296.394	3650
296.451	2910
296.508	5284
296.564	8922
296.621	7172
296.678	12824
296.734	20352
296.791	10125
296.848	5810
296.904	5337
296.961	6179
297.018	10578
297.074	10233
297.131	5994
297.187	4825
297.244	5862
297.301	10492
297.357	23046
297.414	9171
297.470	5634
297.527	3600
297.583	4652
297.640	3818
297.696	4435
297.753	3313
297.809	4040
297.866	3757
297.922	3820
297.979	3385
298.035	4019
298.092	4529
298.148	7667
298.204	6541
298.261	3996
298.317	7267
298.374	17235
298.430	11590
298.486	6977
298.543	5241
298.599	5935
298.656	5498
298.712	7932
298.768	25115
298.824	25165
298.881	9933
298.937	6433
298.993	5306
299.050	5014
299.106	4835
299.162	4561
299.218	5254
299.275	4980
299.331	5138
299.387	6994
299.443	17515
299.500	36581
299.556	29941
299.612	12734
299.668	10667
299.724	25496
299.780	35211
299.837	14125
299.893	10508
299.949	22181
300.005	35075
300.061	26173
300.117	46000
300.173	22580
300.229	9576
300.285	7661
300.341	7143
300.397	5897
300.453	5787
300.510	6843
300.566	6910
300.622	12578
300.678	40636
300.734	56477
300.790	27494
300.845	21173
300.901	25113
300.957	39919
301.013	19910
301.069	9374
301.125	7689
301.181	6244
301.237	6071
301.293	4805
301.349	5014
301.405	4393
301.461	4550
301.516	4189
301.572	3696
301.628	4245
301.684	4313
301.740	5374
301.796	6702
301.851	5879
301.907	5328
301.963	7497
302.019	11315
302.074	35805
302.130	39029
302.186	18599
302.242	9642
302.297	6433
302.353	5485
302.409	7332
302.464	6694
302.520	6206
302.576	10711
302.631	12914
302.687	7350
302.743	5683
302.798	4272
302.854	4335
302.910	4973
302.965	6568
303.021	6660
303.076	6054
303.132	5301
303.187	6595
303.243	4855
303.299	3729
303.354	4285
303.410	4186
303.465	3984
303.521	4288
303.576	4005
303.632	4998
303.687	5480
303.743	12907
303.798	11568
303.853	6528
303.909	4401
303.964	4662
304.020	3879
304.075	5215
304.130	4579
304.186	6450
304.241	6988
304.297	5411
304.352	3836
304.358	3919
304.407	4590
304.449	4069
304.463	3899
304.518	4103
304.539	3995
304.573	3810
304.629	4189
304.630	4203
304.684	5024
304.720	7784
304.739	9156
304.794	14838
304.811	13209
304.850	9322
304.902	5337
304.905	5083
304.960	4934
304.992	4828
305.015	4739
305.071	5378
305.083	5000
305.126	3635
305.173	4144
305.181	4233
305.236	3095
305.264	3504
305.292	3904
305.347	3861
305.354	3974
305.402	4845
305.445	4667
305.457	4545
305.512	5278
305.535	4838
305.567	4319
305.622	4450
305.626	4472
305.678	5356
305.716	10192
305.733	12011
305.788	12939
305.807	11353
305.843	8651
305.897	11700
305.898	11733
305.953	13015
305.988	9223
306.008	7122
306.063	4949
306.078	4584
306.118	3683
306.168	3718
306.173	3737
306.228	3210
306.259	3498
306.283	3699
306.338	2990
306.349	3274
306.393	4353
306.440	4909
306.448	5036
306.503	5455
306.530	4898
306.558	4565
306.613	7823
306.620	8068
306.668	8897
306.711	8975
306.723	8892
306.778	7602
306.801	6626
306.833	5511
306.888	3890
306.892	3856
306.943	3761
306.982	3469
306.997	3354
307.052	3757
307.072	3849
307.107	4039
307.162	4721
307.163	4728
307.217	5781
307.253	6750
307.272	6875
307.327	7213
307.343	6767
307.381	5972
307.434	5547
307.436	5598
307.491	7805
307.524	10161
307.546	10535
307.600	9061
307.614	7995
307.655	5596
307.704	4859
307.710	4932
307.765	6289
307.795	7469
307.819	8385
307.874	12482
307.885	12754
307.929	12257
307.975	11262
307.984	11605
308.038	16176
308.065	19449
308.093	31188
308.148	64393
308.156	73036
308.202	114262
308.246	141320
308.257	140144
308.312	78932
308.336	53607
308.366	36402
308.421	20249
308.426	19359
308.475	14083
308.517	11492
308.530	10679
308.585	9626
308.607	9023
308.639	8763
308.694	9397
308.697	9474
308.748	13273
308.787	17333
308.803	17183
308.857	14913
308.877	13385
308.912	12550
308.967	13085
308.967	13131
309.021	17934
309.058	22060
309.076	26522
309.130	43327
309.148	50261
309.185	89435
309.238	162882
309.239	163293
309.293	182352
309.328	167994
309.348	149054
309.402	78219
309.418	60935
309.457	43062
309.508	28650
309.511	28118
309.566	25457
309.598	25835
309.620	29019
309.674	40662
309.688	43865
309.729	42616
309.778	36304
309.783	35516
309.837	24739
309.868	19206
309.892	17286
309.946	14337
309.959	14183
310.001	14097
310.049	13171
310.055	12752
310.109	9740
310.139	7604
310.163	6480
310.218	5263
310.229	5052
310.272	5002
310.319	5041
310.326	4984
310.381	4879
310.409	4841
310.435	4665
310.489	4019
310.499	4025
310.543	4454
310.589	4586
310.598	4584
310.652	4787
310.679	4817
310.706	4630
310.760	4404
310.769	4320
310.814	3500
310.859	3079
310.868	3188
310.923	3711
310.948	3953
310.977	3923
311.031	3906
311.038	3921
311.085	3701
311.128	3303
311.139	3290
311.193	3533
311.218	3571
311.247	3465
311.301	3290
311.308	3282
311.356	3428
311.398	3545
311.410	3526
311.464	3526
311.488	3459
311.518	3134
311.572	2654
311.578	2609
311.626	3466
311.668	4205
311.680	4128
311.734	3846
311.758	3713
311.788	3612
311.842	3426
311.847	3420
311.896	4466
311.937	5412
311.950	5374
312.004	5219
312.027	5153
312.058	4798
312.112	4193
312.117	4137
312.165	4039
312.207	3969
312.297	4765
312.386	3941
312.476	3661
312.566	4370
312.656	2733
312.745	2546
312.835	3908
312.925	4444
313.015	4260
313.104	4565
313.194	4187
313.284	4435
313.374	4208
313.463	4205
313.553	4839
313.643	4759
313.732	4965
313.822	4653
313.912	5189
314.001	5209
314.091	5694
314.180	5884
314.270	5113
314.360	4850
314.449	5527
314.539	4932
314.628	5439
314.718	5204
314.808	5267
314.897	5612
314.987	6249
315.076	6084
315.166	6312
315.255	6136
315.345	6628
315.434	6191
315.524	6191
315.613	7244
315.703	11249
315.792	33539
315.881	110993
315.971	33641
316.060	10396
316.150	10616
316.239	10135
316.328	5773
316.418	6188
316.507	6274
316.597	7816
316.686	6646
316.775	7678
316.865	10668
316.954	5534
317.043	4982
317.133	3943
317.222	4298
317.311	4665
317.400	4280
317.490	6542
317.579	6735
317.668	8135
317.757	16059
317.847	58372
317.936	170867
318.025	47124
318.114	39448
318.203	17365
318.293	10328
318.382	10855
318.471	10482
318.560	14316
318.649	27649
318.738	6455
318.828	5491
318.917	4511
319.006	6799
319.095	12996
319.184	32127
319.273	12592
319.362	4650
319.451	3835
319.540	4691
319.629	4758
319.718	6136
319.807	5368
319.896	11165
319.985	37800
320.074	10879
320.163	5209
320.252	6285
320.341	6734
320.430	6706
320.519	4765
320.608	4883
320.697	5704
320.786	5336
320.875	6789
320.964	7193
321.053	7598
321.142	9647
321.230	11972
321.319	10809
321.408	15093
321.497	11830
321.586	9855
321.675	10570
321.764	10738
321.852	9188
321.941	8725
322.030	9078
322.119	10757
322.207	13868
322.296	17654
322.385	15190
322.474	14187
322.562	16092
322.651	12873
322.740	9414
322.829	11207
322.917	13258
323.006	7575
323.095	7657
323.183	6924
323.272	8170
323.361	13983
323.449	35859
323.538	12931
323.626	22948
323.715	14629
323.804	8242
323.892	20164
323.981	9089
324.069	5878
324.158	14320
324.246	11317
324.335	4958
324.424	5318
324.512	4679
324.601	4494
324.689	3594
324.778	5336
324.866	7364
324.954	3692
325.043	4109
325.131	5513
325.220	9782
325.308	9449
325.397	7192
325.485	5938
325.574	3048
325.662	3677
325.750	2866
325.839	3315
325.927	3737
326.015	4027
326.104	6275
326.192	5793
326.280	3319
326.369	3411
326.457	3157
326.545	4181
326.634	3195
326.722	3778
326.810	3723
326.898	3929
326.987	5010
327.075	4258
327.163	6533
327.251	7311
327.340	7186
327.428	5663
327.516	5726
327.604	5154
327.692	4389
327.781	4236
327.869	6159
327.957	5656
328.045	2619
328.133	3233
328.221	3585
328.309	3743
328.397	3875
328.485	5267
328.574	6073
328.662	8530
328.750	6791
328.838	4395
328.926	4153
329.014	3332
329.102	3395
329.190	6798
329.278	4321
329.366	3849
329.454	3152
329.542	2909
329.630	2889
329.718	3219
329.806	2766
329.893	4356
329.981	3630
330.069	4405
330.157	15084
330.245	33909
330.333	14933
330.421	4549
330.509	4307
330.597	6570
330.684	5761
330.772	4829
330.860	6154
330.948	7202
331.036	3961
331.123	2486
331.211	3190
331.299	3197
331.387	6695
331.475	8559
331.562	4491
331.650	3028
331.738	4186
331.825	4754
331.913	3570
332.001	2894
332.089	3763
332.176	6154
332.264	12065
332.352	7908
332.439	3897
332.527	3556
332.614	3391
332.702	5061
332.790	3319
332.877	6032
332.965	12507
333.052	5693
333.140	8143
333.228	14439
333.315	5892
333.403	4430
333.490	8845
333.578	9582
333.665	19940
333.753	10258
333.840	5583
333.928	7073
334.015	11422
334.103	17735
334.190	44092
334.278	17008
334.365	17054
334.452	16012
334.540	10728
334.627	11459
334.715	14424
334.802	23362
334.889	62889
334.977	66491
335.064	25400
335.151	12171
335.239	10668
335.326	11034
335.413	27131
335.501	31267
335.588	11037
335.675	10310
335.762	14386
335.850	18714
335.937	23667
336.024	41639
336.111	87018
336.199	52903
336.286	22124
336.373	12897
336.460	9495
336.547	7510
336.635	6991
336.722	6677
336.809	5863
336.896	5862
336.983	13087
337.070	29669
337.157	43832
337.245	28237
337.332	20251
337.419	6268
337.506	5594
337.593	6314
337.680	12408
337.767	28086
337.854	8392
337.941	9378
338.028	9029
338.115	4943
338.202	6902
338.289	10726
338.376	25029
338.463	9639
338.550	17425
338.637	17723
338.724	7576
338.811	10908
338.898	5183
338.984	3655
339.071	4585
339.158	9769
339.245	10033
339.332	4533
339.419	7046
339.506	6482
339.593	2771
339.679	3733
339.766	2849
339.853	4035
339.940	4194
340.027	3310
340.113	2651
340.200	3424
340.287	3615
340.374	3114
340.460	4396
340.547	3027
340.634	3200
340.720	5544
340.807	3827
340.894	3844
340.980	3242
341.067	3287
341.154	3781
341.240	3099
341.327	4300
341.414	3158
341.500	2741
341.587	3310
341.674	3944
341.760	3659
341.847	3896
341.933	2816
342.020	2513
342.106	2955
342.193	2684
342.279	2562
342.366	2639
342.452	4045
342.539	2729
342.625	3863
342.712	5625
342.798	3473
342.885	2453
342.971	3117
343.058	4072
343.144	2558
343.230	3300
343.317	3058
343.403	2455
343.490	3159
343.576	1765
343.662	2789
343.749	4667
343.835	10045
343.921	5179
344.008	17654
344.094	30745
344.180	6726
344.267	3575
344.353	7576
344.439	7730
344.525	3941
344.612	7755
344.698	8225
344.784	5307
344.870	3327
344.957	3118
345.043	3720
345.129	2570
345.215	3305
345.301	2702
345.387	2532
345.474	3414
345.560	2421
345.646	2845
345.732	3081
345.818	2933
345.904	2706
345.990	2653
346.076	3448
346.162	4834
346.249	3058
346.335	2885
346.421	3771
346.507	4660
346.593	9518
346.679	3227
346.765	4305
346.851	5418
346.937	3446
347.023	3976
347.108	4254
347.194	3429
347.280	2929
347.366	4368
347.452	11406
347.538	18196
347.624	11440
347.710	8229
347.796	4076
347.882	5359
347.967	4810
348.053	4827
348.139	4794
348.225	3532
348.311	3334
348.397	3223
348.482	3738
348.568	3485
348.654	4844
348.740	14491
348.825	13504
348.911	8384
348.997	8243
349.083	13202
349.168	4122
349.254	2915
349.340	3138
349.425	3332
349.511	3653
349.597	7598
349.682	6153
349.768	6998
349.854	4430
349.939	3760
350.025	2662
350.110	3779
350.196	3106
350.282	2246
350.367	3645
350.453	4706
350.538	5206
350.624	3502
350.709	3936
350.795	2515
350.880	4157
350.966	6161
351.051	3471
351.137	3917
351.222	2901
351.308	3879
351.393	4741
351.479	2195
351.564	2176
351.649	3004
351.735	3177
351.820	3338
351.906	4285
351.991	6814
352.076	4113
352.162	4475
352.247	3165
352.332	2925
352.418	2419
352.503	3454
352.588	6597
352.673	4074
352.759	2886
352.844	2482
352.929	2395
353.014	2455
353.100	3709
353.185	3181
353.270	2777
353.355	3787
353.441	3330
353.526	2712
353.611	3259
353.696	3247
353.781	3288
353.866	2566
353.952	3416
354.037	2789
354.122	4050
354.207	3069
354.292	3341
354.377	2272
354.462	2869
354.547	2544
354.632	3607
354.717	5700
354.802	5910
354.887	3256
354.972	4214
355.057	4067
355.142	3169
355.227	4513
355.312	2908
355.397	3090
355.482	4893
355.567	3508
355.652	5241
355.737	3434
355.822	7290
355.907	4878
355.991	3997
356.076	1954
356.161	3085
356.246	3089
356.331	3071
356.416	3226
356.501	14988
356.585	15016
356.670	4367
356.755	5196
356.840	4363
356.924	12720
357.009	33178
357.094	12114
357.179	5362
357.263	6820
357.348	5073
357.433	4207
357.517	4794
357.602	7454
357.687	4555
357.771	4800
357.856	5644
357.941	4549
358.025	13222
358.110	44155
358.195	18172
358.279	5020
358.364	4822
358.448	5596
358.533	10942
358.617	9293
358.702	9038
358.787	4922
358.871	3753
358.956	3196
359.040	3359
359.125	3399
359.209	3962
359.294	4800
359.378	6697
359.462	4926
359.547	3747
359.631	2667
359.716	2351
359.800	3707
359.885	5181
359.969	2816
360.053	6564
360.138	9135
360.222	4018
360.306	3515
360.391	4063
360.475	3558
360.559	5515
360.644	5611
360.728	3555
360.812	9569
360.896	20178
360.981	9361
361.065	5831
361.149	4698
361.233	4243
361.318	4273
361.402	4444
361.486	5997
361.570	4506
361.654	4551
361.739	5443
361.823	14936
361.907	21994
361.991	7137
362.075	8477
362.159	10154
362.243	19957
362.327	42817
362.411	58495
362.495	22319
362.580	11746
362.664	11037
362.748	13734
362.832	21377
362.916	43339
363.000	110509
363.084	144407
363.168	65915
363.252	20501
363.336	13487
363.420	14048
363.503	33518
363.587	35191
363.671	9249
363.755	8328
363.839	10317
363.923	9512
364.007	13193
364.091	18213
364.175	32251
364.258	94024
364.342	147491
364.426	215358
364.510	107029
364.594	35136
364.677	20328
364.761	23955
364.845	17680
364.929	8465
365.013	7139
365.096	6281
365.180	6057
365.264	15948
365.347	50268
365.431	20305
365.515	5944
365.598	3777
365.682	6073
365.766	5858
365.849	7440
365.933	4737
366.017	6722
366.100	4714
366.184	4203
366.267	6248
366.351	6834
366.435	4862
366.518	3095
366.602	3775
366.685	4645
366.769	3672
366.852	5267
366.936	6062
367.019	4677
367.103	4620
367.186	8910
367.270	3981
367.353	3447
367.436	5772
367.520	4263
367.603	5029
367.687	3100
367.770	4065
367.853	5583
367.937	7313
368.020	8291
368.104	3175
368.187	4645
368.270	4420
368.353	4630
368.437	6400
368.520	16630
368.603	6828
368.687	5453
368.770	8062
368.853	4028
368.936	5468
369.020	6445
369.103	2863
369.186	2704
369.269	2995
369.352	4163
369.436	4241
369.519	4215
369.602	1441
369.685	4799
369.768	2904
369.851	5629
369.934	3097
370.018	2383
370.101	2820
370.184	5754
370.267	4984
370.350	4693
370.433	7123
370.516	20350
370.599	52687
370.682	21971
370.765	8688
370.848	8374
370.931	10990
371.014	8639
371.097	2587
371.180	4213
371.263	4234
371.346	2083
371.429	3943
371.511	3285
371.594	3748
371.677	6211
371.760	7743
371.843	5388
371.926	20080
372.009	37050
372.091	13494
372.174	7814
372.257	15412
372.340	7895
372.423	8305
372.505	11689
372.588	5227
372.671	7402
372.754	10306
372.836	7290
372.919	15082
373.002	26248
373.085	7018
373.167	5365
373.250	6581
373.332	13156
373.415	23980
373.498	46201
373.580	28293
373.663	85691
373.746	82958
373.828	14072
373.911	7613
373.993	7545
374.076	26051
374.159	23216
374.241	7644
374.324	10266
374.406	8895
374.489	14738
374.571	31316
374.654	12350
374.736	9569
374.819	21113
374.901	31841
374.983	31108
375.066	9186
375.148	8101
375.231	24224
375.313	40403
375.395	13890
375.478	6574
375.560	5424
375.643	5830
375.725	9143
375.807	25714
375.890	24752
375.972	14162
376.054	8722
376.136	13974
376.219	7196
376.301	9315
376.383	17677
376.465	8846
376.548	5154
376.630	7282
376.712	15288
376.794	7456
376.877	3466
376.959	2257
377.041	4257
377.123	6670
377.205	7134
377.287	3515
377.369	4234
377.452	3573
377.534	3586
377.616	3513
377.698	2713
377.780	2392
377.862	3137
377.944	4721
378.026	3807
378.108	4782
378.190	2716
378.272	4091
378.354	2734
378.436	2540
378.518	4225
378.600	8963
378.682	6753
378.764	6030
378.846	6108
378.928	4039
379.010	3836
379.091	5129
379.173	3789
379.255	2304
379.337	2786
379.419	5148
379.501	9313
379.583	5449
379.664	3769
379.746	2925
379.828	7530
379.910	6762
379.991	7956
380.073	3405
380.155	3783
380.237	2905
380.318	2859
380.400	3018
380.482	5194
380.564	4160
380.645	4102
380.727	4399
380.809	5105
380.890	4004
380.972	3385
381.053	3909
381.135	4948
381.217	4414
381.298	7954
381.380	5816
381.461	6216
381.543	14825
381.624	16678
381.706	6556
381.787	5568
381.869	7202
381.951	12826
382.032	34746
382.113	23129
382.195	6414
382.276	9352
382.358	9316
382.439	15955
382.521	22252
382.602	32974
382.684	19473
382.765	30853
382.846	70411
382.928	142539
383.009	78610
383.090	70300
383.172	225325
383.253	289001
383.334	83916
383.416	39587
383.497	28019
383.578	31928
383.659	62647
383.741	208151
383.822	428561
383.903	200512
383.984	46533
384.066	34939
384.147	20392
384.228	13624
384.309	12077
384.390	11317
384.471	9875
384.553	9544
384.634	9764
384.715	9511
384.796	8422
384.877	7904
384.958	12303
385.039	10348
385.120	8001
385.201	8173
385.282	8499
385.363	10275
385.444	10345
385.525	11541
385.606	16522
385.687	14452
385.768	10399
385.849	10325
385.930	22871
386.011	32038
386.092	12871
386.173	9346
386.254	8222
386.335	10360
386.416	11214
386.496	8987
386.577	10247
386.658	8361
386.739	7291
386.820	8889
386.901	8498
386.981	9107
387.062	10068
387.143	10767
387.224	12515
387.304	13985
387.385	13294
387.466	10396
387.547	13371
387.627	11116
387.708	14546
387.789	19374
387.869	18653
387.950	12278
388.031	8843
388.111	8296
388.192	13405
388.273	16736
388.353	11600
388.434	6758
388.514	9079
388.595	18267
388.676	15988
388.756	9437
388.837	8666
388.917	6528
388.998	6281
389.078	9160
389.159	8570
389.239	4548
389.320	7385
389.400	4735
389.480	8053
389.561	8810
389.641	7294
389.722	6313
389.802	4948
389.883	7510
389.963	11370
390.043	9548
390.124	7351
390.204	6920
390.284	8918
390.365	7708
390.445	24583
390.525	62917
390.605	47676
390.686	9961
390.766	7205
390.846	8081
390.927	5943
391.007	5622
391.087	6904
391.167	5984
391.247	6124
391.328	8742
391.408	11804
391.488	9351
391.568	6565
391.648	8099
391.728	9620
391.808	9037
391.888	8444
391.969	11245
392.049	12237
392.129	13464
392.209	14074
392.289	17160
392.369	16505
392.449	21861
392.529	18361
392.609	20114
392.689	22881
392.769	28988
392.849	34234
392.929	46184
393.009	67003
393.089	89501
393.169	168529
393.248	413260
393.328	778100
393.408	754035
393.488	360936
393.568	145517
393.648	75882
393.728	48722
393.807	35233
393.887	29245
393.967	22800
394.047	20130
394.127	18994
394.206	22958
394.286	61982
394.366	219714
394.446	207551
394.525	48430
394.605	17451
394.685	15188
394.764	23368
394.844	38732
394.924	35246
395.003	14350
395.083	9916
395.163	10018
395.242	8819
395.322	9450
395.402	8745
395.481	11977
395.561	19133
395.640	49704
395.720	64605
395.799	54708
395.879	35864
395.958	27271
396.038	86311
396.117	282595
396.197	273790
396.276	79239
396.356	35624
396.435	34744
396.515	40355
396.594	60102
396.673	130773
396.753	383599
396.832	707235
396.912	520369
396.991	170258
397.070	69671
397.150	38060
397.229	32693
397.308	52934
397.388	84150
397.467	42025
397.546	17720
397.625	10817
397.705	13003
397.784	10050
397.863	8586
397.942	8402
398.022	8749
398.101	15522
398.180	30879
398.259	17127
398.338	8753
398.417	6722
398.497	5791
398.576	6734
398.655	4101
398.734	6554
398.813	6325
398.892	14258
398.971	34088
399.050	16094
399.129	5687
399.208	4869
399.287	4519
399.366	3986
399.445	4425
399.524	4731
399.603	2088
399.682	5242
399.761	9478
399.840	35475
399.919	26756
399.998	6123
400.077	2612
400.156	2870
400.235	5801
400.313	3098
400.392	3560
400.471	5318
400.550	5566
400.629	3586
400.708	3613
400.786	4226
400.865	7098
400.944	6996
401.023	6198
401.102	2276
401.180	3541
401.259	3301
401.338	3643
401.416	3842
401.495	3140
401.574	3982
401.652	2739
401.731	4610
401.810	2478
401.888	3093
401.967	1885
402.046	3549
402.124	3935
402.203	2694
402.281	3555
402.360	3017
402.438	9730
402.517	6745
402.596	3653
402.674	3738
402.753	3563
402.831	3407
402.910	4302
402.988	5326
403.066	9438
403.145	6728
403.223	5216
403.302	7258
403.380	7688
403.459	6713
403.537	4221
403.615	4793
403.694	2356
403.772	3386
403.850	2905
403.929	3270
404.007	1415
404.085	5227
404.164	3799
404.242	5415
404.320	16503
404.398	40415
404.477	30075
404.555	24407
404.633	22795
404.711	28208
404.789	16888
404.868	4803
404.946	2887
405.024	2949
405.102	2731
405.180	1662
405.258	1052
405.336	2962
405.415	2542
405.493	5062
405.571	4939
405.649	2501
405.727	2420
405.805	4779
405.883	3588
405.961	3753
406.039	3355
406.117	1707
406.195	3305
406.273	3349
406.351	13921
406.429	10012
406.507	3954
406.585	2471
406.663	1446
406.740	2080
406.818	1835
406.896	1674
406.974	2704
407.052	1540
407.130	7703
407.208	11163
407.285	7068
407.363	2144
407.441	2229
407.519	2741
407.596	3510
407.674	10118
407.752	36267
407.830	26980
407.907	6931
407.985	2275
408.063	4363
408.141	4960
408.218	4844
408.296	2603
408.373	2393
408.451	3163
408.529	2441
408.606	2953
408.684	2411
408.762	4016
408.839	3078
408.917	3670
408.994	3621
409.072	4390
409.149	5925
409.227	9278
409.304	13549
409.382	15124
409.459	16137
409.537	20971
409.614	18556
409.692	14995
409.769	15796
409.846	21536
409.924	25440
410.001	17523
410.079	13304
410.156	11448
410.233	8617
410.311	7401
410.388	6467
410.465	5422
410.543	4652
410.620	5154
410.697	4710
410.775	4117
410.852	3016
410.929	5078
411.006	6422
411.083	4046
411.161	4616
411.238	5611
411.315	4401
411.392	3017
411.469	3566
411.547	3911
411.624	1868
411.701	2296
411.778	2771
411.855	3049
411.932	2903
412.009	2292
412.086	3032
412.163	3656
412.240	2946
412.317	4124
412.394	2823
412.471	3038
412.548	2165
412.625	1939
412.702	2810
412.779	3745
412.856	3323
412.933	2254
413.010	2320
413.087	2716
413.164	3128
413.241	4403
413.318	1876
413.395	3583
413.471	1923
413.548	2814
413.625	3146
413.702	2112
413.779	3040
413.855	1658
413.932	1741
414.009	1525
414.086	1938
414.162	2265
414.239	2668
414.316	4081
414.393	5729
414.469	2137
414.546	1417
414.623	1833
414.699	1772
414.776	1042
414.853	1731
414.929	2902
415.006	2303
415.082	2536
415.159	2037
415.236	1889
415.312	2786
415.389	3294
415.465	1247
415.542	1223
415.618	1612
415.695	2890
415.771	1435
415.848	907
415.924	2146
416.000	1630
416.077	2989
416.153	934
416.230	811
416.306	1137
416.383	1842
416.459	2372
416.535	1953
416.612	1753
416.688	1726
416.764	2262
416.841	2024
416.917	2637
416.993	2665
417.069	2380
417.146	1903
417.222	2134
417.298	1527
417.374	950
417.451	1791
417.527	1170
417.603	925
417.679	1500
417.755	2113
417.831	1209
417.908	2022
417.984	1283
418.060	1279
418.136	2368
418.212	1959
418.288	2564
418.364	2305
418.440	1310
418.516	1974
418.592	2718
418.668	3556
418.744	2533
418.820	2823
418.896	1938
418.972	1556
419.048	1376
419.124	3070
419.200	1530
419.276	1794
419.352	1540
419.428	2896
419.504	2833
419.579	2501
419.655	3035
419.731	2775
419.807	3429
419.883	3753
419.959	4410
420.034	3438
420.110	3598
420.186	5093
420.262	4932
420.337	4165
420.413	3862
420.489	3956
420.565	3839
420.640	4014
420.716	4072
420.792	3569
420.867	6037
420.943	4637
421.019	6299
421.094	6145
421.170	6222
421.245	6120
421.321	7468
421.397	7667
421.472	14491
421.548	25877
421.623	18880
421.699	11588
421.774	12256
421.850	13760
421.925	16559
422.001	18906
422.076	23746
422.152	30345
422.227	39695
422.302	57109
422.378	85237
422.453	144177
422.529	253402
422.604	354382
422.679	342897
422.755	342321
422.830	245798
422.905	142300
422.981	88264
423.056	59896
423.131	44296
423.207	34486
423.282	26668
423.357	21894
423.432	17890
423.508	16635
423.583	13252
423.658	13137
423.733	11373
423.808	11051
423.883	12278
423.959	13592
424.034	14643
424.109	13655
424.184	10750
424.259	8186
424.334	6355
424.409	5596
424.484	5415
424.559	4476
424.634	3954
424.709	4053
424.784	4205
424.859	4345
424.934	3519
425.009	5165
425.084	5353
425.159	2950
425.234	3743
425.309	2802
425.384	4215
425.459	3188
425.534	4378
425.609	2536
425.683	3269
425.758	2954
425.833	2365
425.908	3278
425.983	3121
426.058	5249
426.132	3026
426.207	2804
426.282	4669
426.357	2237
426.431	2296
426.506	2984
426.581	2333
426.655	2663
426.730	1943
426.805	2138
426.879	3205
426.954	1928
427.029	2790
427.103	4842
427.178	10295
427.253	5894
427.327	2550
427.402	2327
427.476	4630
427.551	2282
427.625	3364
427.700	2855
427.774	2573
427.849	3716
427.923	2977
427.998	3196
428.072	4343
428.147	11010
428.221	50105
428.296	136742
428.370	69230
428.444	11160
428.519	6145
428.593	7788
428.667	7807
428.742	10424
428.816	22358
428.890	90471
428.965	122489
429.039	33049
429.113	11455
429.188	5325
429.262	3218
429.336	3404
429.410	4182
429.485	5625
429.559	7499
429.633	6370
429.707	6422
429.781	19198
429.855	87906
429.930	113136
430.004	38561
430.078	40026
430.152	71204
430.226	186665
430.300	165540
430.374	36396
430.448	12623
430.522	14961
430.596	32906
430.670	38298
430.744	110279
430.818	108067
430.892	20464
430.966	4920
431.040	4090
431.114	2338
431.188	2456
431.262	2291
431.336	2252
431.410	5186
431.484	8201
431.557	5721
431.631	3570
431.705	7173
431.779	40095
431.853	131757
431.927	82463
432.000	13191
432.074	3655
432.148	2682
432.222	1507
432.295	1984
432.369	1077
432.443	1754
432.516	5083
432.590	11126
432.664	4726
432.737	1011
432.811	1189
432.885	912
432.958	1723
433.032	213
433.106	1107
433.179	810
433.253	1057
433.326	607
433.400	281
433.473	1438
433.547	1329
433.620	781
433.694	913
433.767	2178
433.841	727
433.914	1356
433.988	988
434.061	1558
434.134	1996
434.208	604
434.281	1069
434.355	1399
434.428	1854
434.501	1161
434.575	563
434.648	1563
434.721	1686
434.795	2752
434.868	2167
434.941	1019
435.014	1186
435.088	1222
435.161	2297
435.234	3583
435.307	3470
435.381	4532
435.454	6309
435.527	9706
435.600	11511
435.673	9796
435.746	7727
435.819	6093
435.892	4932
435.966	3996
436.039	3187
436.112	3107
436.185	2339
436.258	2262
436.331	1878
436.404	1750
436.477	1321
436.550	1406
436.623	2299
436.696	2110
436.769	1479
436.842	1136
436.915	937
436.987	1456
437.060	1435
437.133	1133
437.206	646
437.279	826
437.352	322
437.425	653
437.498	769
437.570	1174
437.643	933
437.716	-150
437.789	716
437.861	1600
437.934	1840
438.007	1360
438.080	-116
438.152	839
438.225	1212
438.298	7194
438.370	17886
438.443	7408
438.516	1704
438.588	1078
438.661	1126
438.734	639
438.806	969
438.879	1262
438.951	1692
439.024	584
439.096	686
439.169	9
439.241	593
439.314	840
439.386	1595
439.459	2448
439.531	2309
439.604	1333
439.676	1599
439.749	416
439.821	549
439.893	1015
439.966	434
440.038	1117
440.110	705
440.183	401
440.255	349
440.327	1510
440.400	3270
440.472	9417
440.544	5854
440.617	1572
440.689	2381
440.761	1940
440.833	2124
440.905	825
440.978	635
441.050	1468
441.122	2264
441.194	871
441.266	1286
441.338	1788
441.411	2219
441.483	3319
441.555	3937
441.627	2923
441.699	3003
441.771	2994
441.843	2453
441.915	2692
441.987	2812
442.059	3067
442.131	3787
442.203	4675
442.275	6761
442.347	9807
442.419	25187
442.491	110869
442.563	219846
442.635	96023
442.706	26266
442.778	13141
442.850	6695
442.922	5959
442.994	6429
443.066	7380
443.137	8266
443.209	10417
443.281	16603
443.353	37484
443.425	133209
443.496	346906
443.568	346363
443.640	150623
443.711	39184
443.783	15222
443.855	9747
443.926	7299
443.998	6199
444.070	5297
444.141	4618
444.213	4887
444.285	4720
444.356	4250
444.428	4489
444.499	4644
444.571	3245
444.642	3546
444.714	4290
444.785	5253
444.857	6688
444.928	10371
445.000	10051
445.071	11694
445.143	14600
445.214	17923
445.285	30693
445.357	80534
445.428	249721
445.500	420980
445.571	334418
445.642	217005
445.714	80458
445.785	33787
445.856	14706
445.928	9847
445.999	7509
446.070	5557
446.141	4766
446.213	3980
446.284	3167
446.355	4137
446.426	3409
446.497	2906
446.569	3081
446.640	3123
446.711	2858
446.782	2005
446.853	3204
446.924	2505
446.995	1461
447.066	2798
447.138	4439
447.209	2597
447.280	1069
447.351	994
447.422	1216
447.493	1412
447.564	1211
447.635	1042
447.706	978
447.777	702
447.847	987
447.918	-364
447.989	1414
448.060	2134
448.131	4779
448.202	4061
448.273	2153
448.344	1663
448.414	1478
448.485	688
448.556	1531
448.627	581
448.698	2023
448.768	785
448.839	792
448.910	2064
448.981	2632
449.051	1050
449.122	424
449.193	385
449.263	1053
449.334	1506
449.405	1384
449.475	1791
449.546	1273
449.616	3500
449.687	3344
449.758	1944
449.828	1116
449.899	965
449.969	482
450.040	680
450.110	893
450.181	1436
450.251	756
450.322	771
450.392	1044
450.463	1452
450.533	274
450.604	895
450.674	1203
450.744	3094
450.815	1886
450.885	2553
450.955	2622
451.026	1659
451.096	2356
451.166	1829
451.237	4768
451.307	8238
451.377	5507
451.447	2344
451.518	1731
451.588	1885
451.658	1625
451.728	2137
451.799	8021
451.869	9833
451.939	3577
452.009	1853
452.079	2146
452.149	2186
452.219	4040
452.289	9047
452.360	9376
452.430	3977
452.500	3971
452.570	5894
452.640	13648
452.710	29798
452.780	37314
452.850	21817
452.920	11003
452.990	6351
453.060	5020
453.129	3437
453.199	3750
453.269	12123
453.339	26084
453.409	40093
453.479	34965
453.549	50921
453.619	53818
453.688	24986
453.758	4236
453.828	2682
453.898	1739
453.968	1538
454.037	2313
454.087	2006
454.107	1864
454.168	1495
454.177	1422
454.247	1808
454.249	1820
454.316	1685
454.330	1721
454.386	1746
454.411	2815
454.456	4443
454.492	6263
454.525	7876
454.574	5124
454.595	3938
454.655	1436
454.665	1021
454.734	2287
454.736	2359
454.804	3781
454.817	4821
454.873	8643
454.898	9653
454.943	11436
454.979	7967
455.013	4849
455.060	3438
455.082	2933
455.141	3460
455.152	3604
455.221	8751
455.222	8929
455.291	17499
455.303	19045
455.360	23903
455.384	31152
455.430	40432
455.465	29369
455.499	19984
455.546	13423
455.569	10511
455.627	7187
455.638	6662
455.707	2499
455.708	2521
455.777	2122
455.789	2204
455.846	2585
455.869	2526
455.916	2302
455.950	2230
455.985	2184
456.031	2230
456.054	2205
456.112	2134
456.124	2131
456.193	2501
456.193	2477
456.262	2020
456.274	2203
456.332	3100
456.355	3313
456.401	3594
456.436	3205
456.470	2790
456.516	2462
456.540	2235
456.597	1894
456.609	1836
456.678	2725
456.678	2707
456.747	2498
456.759	2452
456.817	2525
456.840	2805
456.886	3091
456.920	2983
456.955	2981
457.001	3305
457.024	3403
457.082	4003
457.093	4079
457.162	4591
457.163	4616
457.232	5261
457.243	5163
457.301	4695
457.324	4553
457.370	4309
457.405	4829
457.439	5380
457.485	5735
457.508	6058
457.566	7570
457.577	8110
457.646	11828
457.647	11910
457.715	25805
457.727	29216
457.784	51535
457.808	66093
457.853	81637
457.889	94272
457.922	92065
457.969	67671
457.991	70862
458.050	83312
458.060	86540
458.129	140347
458.130	142080
458.198	133639
458.211	122876
458.267	77481
458.292	54753
458.336	38235
458.372	34831
458.405	45020
458.453	66722
458.474	83741
458.533	145867
458.543	150193
458.611	217675
458.614	219204
458.680	139570
458.694	112914
458.749	60400
458.775	42263
458.818	24893
458.855	19188
458.887	15435
458.936	11928
458.955	10884
459.016	9321
459.024	9127
459.093	8555
459.097	8493
459.162	7243
459.177	7118
459.230	6892
459.257	6886
459.299	6679
459.338	6417
459.368	6512
459.418	6656
459.437	6410
459.499	5510
459.505	5489
459.574	6201
459.579	6247
459.643	5986
459.659	5812
459.711	5786
459.740	5724
459.780	5498
459.820	5525
459.849	5554
459.900	5622
459.917	5498
459.981	5324
459.986	5336
460.054	5293
460.061	5297
460.123	5394
460.141	5396
460.191	5522
460.222	5785
460.260	6075
460.302	6448
460.328	6512
460.382	6335
460.397	6428
460.462	6597
460.465	6813
460.534	13103
460.543	13851
460.602	33550
460.623	41389
460.671	64320
460.703	84848
460.739	74395
460.783	55303
460.808	47419
460.864	14163
460.876	11397
460.944	6377
460.945	6317
461.013	5833
461.024	5781
461.081	5418
461.104	5335
461.150	5132
461.184	5123
461.218	5599
461.264	6097
461.286	6215
461.345	5943
461.355	5777
461.423	5778
461.425	5761
461.491	5585
461.505	5628
461.559	7772
461.585	8793
461.628	11601
461.665	14494
461.696	15060
461.745	17623
461.764	16569
461.825	9061
461.832	8899
461.901	6341
461.905	6322
461.969	5370
461.985	5226
462.037	6016
462.065	6394
462.105	6549
462.145	6690
462.173	7662
462.225	9450
462.241	9996
462.305	12953
462.310	12725
462.378	9292
462.385	8662
462.446	7119
462.465	6837
462.514	6761
462.545	6873
462.582	6680
462.625	6664
462.650	6507
462.705	5807
462.718	5880
462.785	6694
462.786	6706
462.854	6834
462.865	6935
462.922	8461
462.945	9155
462.990	8050
463.025	6545
463.058	6167
463.104	6110
463.126	6126
463.184	6094
463.194	6132
463.262	6100
463.264	6116
463.330	6678
463.344	6791
463.398	7278
463.424	7363
463.466	6754
463.504	6299
463.533	6591
463.583	6882
463.601	6773
463.663	6198
463.669	6273
463.737	7622
463.743	7731
463.805	10236
463.823	10962
463.873	14238
463.903	16431
463.940	16849
463.982	17514
464.008	15284
464.062	9746
464.076	9497
464.142	6969
464.144	6938
464.211	6616
464.221	6617
464.279	6532
464.301	6492
464.347	6769
464.381	6978
464.414	7253
464.461	7716
464.482	7804
464.540	7947
464.550	7808
464.617	6567
464.620	6515
464.685	7684
464.699	7975
464.753	8671
464.779	9053
464.820	9760
464.859	10276
464.888	9659
464.938	8635
464.956	9017
465.018	10172
465.023	10083
465.091	9054
465.098	8907
465.158	8920
465.177	8952
465.226	8806
465.257	8648
465.293	8760
465.336	8819
465.361	8921
465.416	9321
465.428	9779
465.495	11973
465.496	12022
465.563	16691
465.575	17561
465.631	19633
465.654	20550
465.698	15467
465.734	10663
465.765	9730
465.813	8231
465.833	8155
465.893	8365
465.900	8376
465.968	8314
465.972	8301
466.035	8270
466.052	8252
466.102	7951
466.131	7743
466.170	8397
466.210	9049
466.237	9189
466.290	9465
466.304	9546
466.369	9732
466.372	9738
466.439	9458
466.449	9399
466.506	9603
466.528	9668
466.573	12292
466.607	14199
466.641	17684
466.687	22560
466.708	24248
466.766	28925
466.775	27073
466.842	12698
466.845	11992
466.909	10585
466.925	10285
466.977	10535
467.004	10688
467.044	10816
467.083	10910
467.111	11982
467.163	13952
467.178	14098
467.242	14579
467.245	14514
467.312	12676
467.321	12412
467.379	12537
467.400	12548
467.446	13027
467.480	13334
467.559	13853
467.638	11727
467.717	13216
467.796	13908
467.875	14273
467.955	15172
468.034	20195
468.113	33877
468.192	44626
468.271	26004
468.350	32315
468.429	42578
468.508	42749
468.588	29315
468.667	21993
468.746	23042
468.825	18834
468.904	14029
468.983	13558
469.062	15467
469.141	17441
469.220	11692
469.299	11183
469.378	12378
469.456	13648
469.535	13380
469.614	12084
469.693	12277
469.772	14003
469.851	16215
469.930	14126
470.009	12772
470.088	13598
470.166	17015
470.245	24635
470.324	28527
470.403	21783
470.482	16144
470.560	14063
470.639	12633
470.718	12466
470.797	11820
470.875	14550
470.954	16257
471.033	16956
471.111	10122
471.190	9954
471.269	10170
471.347	10364
471.426	10396
471.505	11389
471.583	11234
471.662	11427
471.740	10464
471.819	10941
471.898	10992
471.976	10595
472.055	9918
472.133	11864
472.212	14058
472.290	12552
472.369	9969
472.447	10618
472.526	9822
472.604	10699
472.683	9856
472.761	10692
472.839	10383
472.918	10997
472.996	10575
473.075	11268
473.153	11983
473.231	11267
473.310	10939
473.388	11639
473.466	10476
473.545	10961
473.623	12138
473.701	11403
473.780	11134
473.858	11648
473.936	16534
474.014	11188
474.093	11722
474.171	14722
474.249	17217
474.327	11874
474.405	10119
474.484	11072
474.562	10159
474.640	10273
474.718	9554
474.796	9643
474.874	10593
474.952	9768
475.030	9130
475.108	9784
475.187	11344
475.265	10998
475.343	10922
475.421	11215
475.499	10456
475.577	10488
475.655	12314
475.733	17288
475.811	25423
475.889	23076
475.966	16342
476.044	10280
476.122	9690
476.200	10785
476.278	10740
476.356	9974
476.434	9507
476.512	9736
476.590	10475
476.667	10086
476.745	8592
476.823	9005
476.901	8985
476.979	10070
477.056	10499
477.134	10389
477.212	12299
477.290	10790
477.367	9110
477.445	8864
477.523	9286
477.601	8958
477.678	9417
477.756	10327
477.834	10891
477.911	9327
477.989	9579
478.066	8126
478.144	9839
478.222	9426
478.299	10630
478.377	10881
478.454	10355
478.532	8492
478.609	8538
478.687	9434
478.764	8589
478.842	10030
478.919	8856
478.997	9183
479.074	9008
479.152	10673
479.229	10627
479.307	9030
479.384	8294
479.461	8873
479.539	8710
479.616	8654
479.694	8879
479.771	9071
479.848	8891
479.926	10557
480.003	12041
480.080	8836
480.157	8884
480.235	8548
480.312	8992
480.389	10519
480.467	13046
480.544	15692
480.621	12007
480.698	11648
480.775	11985
480.853	12035
480.930	9635
481.007	10982
481.084	12810
481.161	15552
481.238	11817
481.315	9880
481.392	10603
481.470	12345
481.547	14206
481.624	10626
481.701	9851
481.778	11771
481.855	11370
481.932	14843
482.009	19955
482.086	17485
482.163	15043
482.240	17138
482.317	18353
482.393	16208
482.470	14332
482.547	14256
482.624	11688
482.701	13261
482.778	13774
482.855	12365
482.932	12638
483.009	13324
483.085	16406
483.162	18404
483.239	19603
483.316	16797
483.393	17521
483.469	15927
483.546	13951
483.623	14542
483.699	12103
483.776	11365
483.853	12569
483.930	14353
484.006	23777
484.083	36433
484.160	22449
484.236	31805
484.313	25383
484.389	22229
484.466	23435
484.543	24781
484.619	28942
484.696	32136
484.772	24556
484.849	22452
484.925	19160
485.002	19399
485.078	18912
485.155	17762
485.231	15549
485.308	16101
485.384	16497
485.461	19070
485.537	24616
485.614	26498
485.690	15125
485.766	15248
485.843	14777
485.919	14996
485.995	15555
486.072	14692
486.148	14765
486.224	14616
486.301	15282
486.377	15711
486.453	14604
486.530	16850
486.606	21319
486.682	22037
486.758	24291
486.835	25578
486.911	22455
486.987	31089
487.063	25910
487.139	25637
487.215	27534
487.292	28461
487.368	31336
487.444	37490
487.520	49616
487.596	72491
487.672	170120
487.748	497435
487.824	731334
487.900	260531
487.976	79621
488.052	45112
488.128	33293
488.204	26070
488.280	23443
488.356	22031
488.432	31658
488.508	39345
488.584	18511
488.660	16392
488.736	15053
488.812	14804
488.888	16940
488.964	16097
489.039	18182
489.115	20178
489.191	17376
489.267	14693
489.343	13659
489.418	13373
489.494	13670
489.570	12105
489.646	14237
489.722	13494
489.797	13623
489.873	18431
489.949	30720
490.024	25536
490.100	12861
490.176	12864
490.251	12795
490.327	14548
490.403	12527
490.478	12531
490.554	11533
490.629	12278
490.705	11767
490.781	12296
490.856	11316
490.932	13075
491.007	11890
491.083	11755
491.158	11098
491.234	13196
491.309	22963
491.385	21548
491.460	11115
491.536	11820
491.611	10355
491.686	11225
491.762	9605
491.837	12432
491.913	15594
491.988	19047
492.063	18606
492.139	14808
492.214	12640
492.289	10971
492.365	9445
492.440	10921
492.515	10715
492.590	11562
492.666	9557
492.741	12741
492.816	16082
492.891	11024
492.967	11361
493.042	10682
493.117	12284
493.192	14347
493.267	27634
493.342	96714
493.418	123146
493.493	18559
493.568	9850
493.643	9346
493.718	11055
493.793	12196
493.868	10710
493.943	9725
494.018	9228
494.093	8553
494.168	10083
494.243	8801
494.318	9171
494.393	8368
494.468	8827
494.543	8617
494.618	8141
494.693	8558
494.768	8991
494.842	9114
494.917	8273
494.992	9270
495.067	7920
495.142	8589
495.217	8729
495.292	8720
495.366	8711
495.441	8764
495.516	10669
495.591	11168
495.665	15911
495.740	24511
495.815	14837
495.890	10109
495.964	8247
496.039	12935
496.114	11269
496.188	14262
496.263	12430
496.338	9709
496.412	10395
496.487	12097
496.561	11088
496.636	10059
496.710	10895
496.785	11500
496.860	11156
496.934	9422
497.009	10373
497.083	10065
497.158	10352
497.232	11279
497.307	12652
497.381	12338
497.455	13104
497.530	15310
497.604	12515
497.679	13272
497.753	17955
497.827	19301
497.902	17698
497.976	23180
498.050	54226
498.125	192159
498.199	161072
498.273	20974
498.348	15949
498.422	15356
498.496	15614
498.570	15611
498.645	13514
498.719	12667
498.793	15213
498.867	19104
498.941	27830
499.016	78828
499.090	193136
499.164	54702
499.238	12542
499.312	11728
499.386	11668
499.460	12296
499.534	12581
499.609	14523
499.683	16954
499.757	17407
499.831	35917
499.905	126898
499.979	101567
500.053	18246
500.127	16019
500.201	10810
500.275	10237
500.349	11425
500.422	11217
500.496	13516
500.570	21928
500.644	67141
500.718	118389
500.792	24322
500.866	10637
500.940	12340
501.013	11421
501.087	10422
501.161	12368
501.235	16223
501.309	42113
501.382	105176
501.456	79111
501.530	21734
501.603	32725
501.677	14077
501.751	8182
501.825	11749
501.898	17900
501.972	42850
502.046	24254
502.119	9983
502.193	20292
502.266	43486
502.340	20312
502.413	21962
502.487	37095
502.561	20665
502.634	10914
502.708	9613
502.781	8523
502.855	9564
502.928	7958
503.002	9070
503.075	8119
503.149	9737
503.222	9598
503.295	10288
503.369	12165
503.442	14620
503.516	37548
503.589	77174
503.662	49876
503.736	27291
503.809	50329
503.882	48728
503.956	77382
504.029	116720
504.102	262200
504.175	359417
504.249	145667
504.322	57174
504.395	33107
504.468	22226
504.542	16278
504.615	13359
504.688	11948
504.761	9091
504.834	11209
504.907	9785
504.980	8629
505.053	8602
505.127	5933
505.200	10183
505.273	9829
505.346	7903
505.419	6420
505.492	8038
505.565	6466
505.638	7381
505.711	5513
505.784	5555
505.857	5700
505.930	7726
506.003	4677
506.076	7879
506.149	7737
506.221	6796
506.294	9203
506.367	17763
506.440	54271
506.513	25359
506.586	8515
506.659	5179
506.731	5593
506.804	6238
506.877	5490
506.950	6000
507.022	6708
507.095	5465
507.168	7126
507.241	6769
507.313	5092
507.386	4211
507.459	6782
507.531	4697
507.604	4825
507.677	5717
507.749	4470
507.822	9177
507.894	8417
507.967	11296
508.040	8176
508.112	8764
508.185	7189
508.257	5616
508.330	9383
508.402	7391
508.475	7954
508.547	8175
508.620	7131
508.692	10763
508.765	7719
508.837	5745
508.909	6614
508.982	6703
509.054	6034
509.127	6197
509.199	6535
509.271	5201
509.344	6174
509.416	6046
509.488	6281
509.560	7472
509.633	6118
509.705	7629
509.777	7200
509.849	8694
509.922	6966
509.994	8958
510.066	8223
510.138	8304
510.210	14699
510.283	10591
510.355	9637
510.427	9068
510.499	7910
510.571	7740
510.643	7592
510.715	8283
510.787	5983
510.859	8511
510.931	7988
511.003	8361
511.076	8557
511.148	6868
511.219	8555
511.291	12854
511.363	12027
511.435	9086
511.507	7366
511.579	8062
511.651	8030
511.723	6994
511.795	7646
511.867	6696
511.939	8150
512.010	12959
512.082	10556
512.154	5999
512.226	6773
512.298	9919
512.369	10652
512.441	9779
512.513	9170
512.585	6606
512.656	8937
512.728	7426
512.800	7463
512.871	8537
512.943	8504
513.015	6289
513.086	6947
513.158	7259
513.230	7411
513.301	7706
513.373	7663
513.444	7162
513.516	6655
513.588	6517
513.659	6549
513.731	6377
513.802	5645
513.874	9563
513.945	8950
514.016	6008
514.088	7076
514.159	5970
514.231	7891
514.302	9576
514.374	9522
514.445	7074
514.516	15611
514.588	9872
514.659	8405
514.730	12309
514.802	10141
514.873	7151
514.944	10195
515.016	8851
515.087	7600
515.158	10332
515.229	13386
515.301	8610
515.372	10211
515.443	8624
515.514	8506
515.585	7607
515.656	8702
515.728	8620
515.799	6864
515.870	8826
515.941	8615
516.012	7641
516.083	11390
516.154	10814
516.225	12908
516.296	14408
516.367	14922
516.438	16664
516.509	20597
516.580	34318
516.651	119258
516.722	360343
516.793	117508
516.864	30290
516.935	29008
517.006	35258
517.077	46607
517.148	115010
517.219	532119
517.289	693758
517.360	123368
517.431	35722
517.502	18160
517.573	18917
517.643	16945
517.714	17405
517.785	20358
517.856	21388
517.926	28619
517.997	33142
518.068	40530
518.138	57192
518.209	99007
518.280	375360
518.350	1072332
518.421	388272
518.492	67224
518.562	54354
518.633	64052
518.703	93562
518.774	206640
518.845	477395
518.915	402775
518.986	124225
519.056	57683
519.127	39371
519.197	38414
519.268	64619
519.338	41118
519.408	18221
519.479	13347
519.549	12438
519.620	12293
519.690	10259
519.760	10448
519.831	9472
519.901	8878
519.971	9311
520.042	9635
520.112	8349
520.182	8529
520.253	8834
520.323	7653
520.393	7791
520.463	10730
520.534	7147
520.604	13825
520.674	9702
520.744	8712
520.814	10342
520.885	12738
520.955	22967
521.025	67935
521.095	22046
521.165	8849
521.235	8166
521.305	6641
521.375	7265
521.445	7076
521.515	7197
521.585	8538
521.655	5819
521.725	7843
521.795	7105
521.865	5739
521.935	11910
522.005	7855
522.075	6790
522.145	7971
522.215	7374
522.285	9382
522.355	11535
522.424	19643
522.494	15649
522.564	8996
522.634	8626
522.704	13839
522.774	7429
522.843	7186
522.913	7674
522.983	6789
523.053	7572
523.122	7456
523.192	6671
523.262	8565
523.331	8551
523.401	7829
523.471	7713
523.540	7455
523.610	5107
523.680	7384
523.749	7621
523.819	10467
523.888	8178
523.958	7166
524.027	7831
524.097	7096
524.166	7719
524.236	6645
524.305	9143
524.375	7189
524.444	6103
524.514	10169
524.583	8046
524.653	7989
524.722	9354
524.791	7444
524.861	9565
524.930	7309
524.999	7834
525.069	10663
525.138	10262
525.207	11596
525.277	11336
525.346	11555
525.415	13778
525.484	13350
525.554	17544
525.623	21427
525.692	26563
525.761	31489
525.830	38709
525.900	50225
525.969	82070
526.038	157655
526.107	358605
526.176	901892
526.245	657516
526.314	210987
526.383	489272
526.452	612554
526.522	912977
526.591	739612
526.660	127553
526.729	78457
526.797	86465
526.867	135306
526.935	414416
527.004	1282625
527.073	744521
527.142	103788
527.211	43911
527.280	30538
527.349	21658
527.418	15427
527.487	15175
527.555	11613
527.624	11522
527.693	9132
527.762	11292
527.831	8869
527.899	9479
527.968	8890
528.037	6877
528.106	8822
528.174	9157
528.243	9354
528.312	9862
528.380	10216
528.449	6413
528.518	8795
528.586	6073
528.655	7667
528.723	6014
528.792	7464
528.861	5724
528.929	6035
528.998	8127
529.066	7552
529.135	8821
529.203	7792
529.272	9941
529.340	11426
529.409	10905
529.477	8993
529.545	8672
529.614	12140
529.682	11679
529.751	12936
529.819	15756
529.887	13150
529.956	12339
530.024	12496
530.092	10439
530.161	12537
530.229	10397
530.297	11040
530.365	11837
530.434	11878
530.502	11579
530.570	12701
530.638	9754
530.707	10274
530.775	11141
530.843	10658
530.911	11523
530.979	10915
531.047	12756
531.115	12352
531.183	11436
531.252	11137
531.320	10648
531.388	9142
531.456	12323
531.524	10895
531.592	13333
531.660	14407
531.728	11623
531.796	12622
531.864	11632
531.932	12760
532.000	11317
532.067	13033
532.135	14374
532.203	15016
532.271	15266
532.339	18553
532.407	18451
532.475	15635
532.542	14096
532.610	15304
532.678	14421
532.746	20852
532.814	27848
532.881	16923
532.949	16010
533.017	13894
533.084	13951
533.152	12625
533.220	12322
533.287	12684
533.355	13863
533.423	14492
533.490	14215
533.558	13844
533.625	13196
533.693	14126
533.761	14417
533.828	15002
533.896	14733
533.963	20714
534.031	20263
534.098	22206
534.166	22038
534.233	20353
534.300	23604
534.368	23283
534.435	22488
534.503	23817
534.570	26010
534.637	28348
534.705	34130
534.772	44714
534.840	97848
534.907	429001
534.974	448149
535.041	54854
535.109	24802
535.176	18848
535.243	18465
535.310	16431
535.378	15333
535.445	16560
535.512	14895
535.579	15596
535.646	14312
535.714	16007
535.781	17012
535.848	17590
535.915	19513
535.982	19542
536.049	19179
536.116	18967
536.183	16349
536.250	16243
536.317	15400
536.384	16354
536.451	17021
536.518	16719
536.585	14873
536.652	17138
536.719	16675
536.786	13374
536.853	14825
536.920	16672
536.987	16862
537.053	13622
537.120	21626
537.187	19643
537.254	15294
537.321	15163
537.388	16056
537.454	13471
537.521	14659
537.588	14991
537.654	15401
537.721	15855
537.788	16653
537.855	14412
537.921	14820
537.988	14424
538.055	14471
538.121	13308
538.188	12012
538.254	14720
538.321	14891
538.388	14808
538.454	16908
538.521	17412
538.587	16240
538.654	15428
538.720	14904
538.787	14872
538.853	14089
538.920	14506
538.986	13648
539.053	13512
539.119	13830
539.185	13447
539.252	15580
539.318	15012
539.385	17079
539.451	14974
539.517	16015
539.583	15979
539.650	16508
539.716	18018
539.782	14651
539.849	12875
539.915	15316
539.981	13686
540.047	13900
540.114	13649
540.180	15422
540.246	14841
540.312	15805
540.378	15689
540.444	17274
540.510	16214
540.576	19710
540.643	15026
540.709	13608
540.775	15493
540.841	13148
540.907	14795
540.973	17745
541.039	16293
541.105	14600
541.171	15006
541.237	15566
541.303	14248
541.369	17292
541.435	15814
541.500	15435
541.566	12318
541.632	14172
541.698	12674
541.764	15706
541.830	14160
541.896	14595
541.961	14726
542.027	14605
542.093	15367
542.159	16934
542.224	13486
542.290	15660
542.356	15798
542.421	16090
542.487	14438
542.553	14051
542.618	14524
542.684	13215
542.750	13427
542.815	14550
542.881	15691
542.947	18525
543.012	16911
543.078	13772
543.143	12836
543.209	14434
543.274	13933
543.340	14089
543.405	15625
543.471	15299
543.536	14051
543.602	15306
543.667	13038
543.732	15599
543.798	14041
543.863	15410
543.928	15429
543.994	13797
544.059	15171
544.124	15163
544.190	15099
544.255	15532
544.320	16113
544.386	14832
544.451	17714
544.516	16359
544.581	16064
544.646	19399
544.712	20516
544.777	18013
544.842	17030
544.907	17352
544.972	16933
545.037	17451
545.102	17942
545.168	18030
545.233	17850
545.298	20152
545.363	19539
545.428	20646
545.493	21110
545.558	21124
545.623	19279
545.688	19847
545.753	20885
545.818	20539
545.883	23105
545.947	21362
546.012	24629
546.077	24297
546.142	26292
546.207	25687
546.272	27606
546.337	28114
546.401	28473
546.466	29877
546.531	30671
546.596	34751
546.661	34518
546.725	36922
546.790	38262
546.855	42436
546.919	44623
546.984	50939
547.049	54622
547.113	62771
547.178	68950
547.243	76918
547.307	88955
547.372	99603
547.436	98701
547.501	106236
547.565	110009
547.630	101556
547.695	98474
547.759	100340
547.823	100575
547.888	100833
547.952	105794
548.017	109286
548.081	113346
548.146	112687
548.210	114086
548.274	123842
548.339	119450
548.403	108529
548.468	100433
548.532	100786
548.596	102278
548.660	104106
548.725	115245
548.789	123997
548.853	119894
548.917	115559
548.982	111761
549.046	101371
549.110	89183
549.174	94085
549.238	109746
549.303	120097
549.367	122539
549.431	116619
549.495	108462
549.559	109009
549.623	126707
549.687	138902
549.751	136936
549.815	164309
549.879	163992
549.943	156130
550.007	166948
550.071	165161
550.135	145008
550.199	139557
550.263	137551
550.327	130414
550.391	136321
550.455	149855
550.519	157887
550.582	167298
550.646	191018
550.710	191356
550.774	189721
550.838	192961
550.901	200870
550.965	213508
551.029	225147
551.093	247312
551.156	276646
551.220	324400
551.284	337629
551.347	256704
551.411	225136
551.475	211623
551.538	207131
551.602	191723
551.666	178513
551.729	168502
551.793	164359
551.856	163524
551.920	159424
551.983	156937
552.047	155086
552.110	156601
552.174	158208
552.237	161581
552.301	149189
552.364	143575
552.428	140999
552.491	144314
552.554	145999
552.618	146501
552.681	150340
552.745	145028
552.808	161449
552.871	176800
552.934	158258
552.998	149051
553.061	145181
553.124	137193
553.187	138359
553.251	143515
553.314	143067
553.377	147134
553.440	163953
553.503	208499
553.567	239008
553.630	162381
553.693	153379
553.756	152927
553.819	149753
553.882	142339
553.945	144933
554.008	144262
554.071	144735
554.134	145461
554.197	137163
554.260	134302
554.323	136729
554.386	141358
554.449	146170
554.512	143881
554.575	139509
554.638	136976
554.701	136973
554.764	135067
554.827	130369
554.889	125892
554.952	118191
555.015	114658
555.078	117697
555.141	119549
555.203	117127
555.266	114558
555.329	116415
555.391	111561
555.454	110571
555.517	106862
555.580	102708
555.642	99183
555.705	98373
555.768	97039
555.830	93239
555.893	88148
555.955	86208
556.018	85334
556.080	85681
556.143	88284
556.206	86428
556.268	84625
556.330	82335
556.393	79957
556.455	79804
556.518	79480
556.580	75620
556.643	72287
556.705	71325
556.767	69148
556.830	68646
556.892	67889
556.955	66580
557.017	64032
557.079	64710
557.142	63375
557.204	62437
557.266	63211
557.328	58494
557.391	54573
557.453	54342
557.515	55018
557.577	58141
557.639	56964
557.701	56628
557.764	57203
557.826	60360
557.888	64247
557.950	68618
558.012	79067
558.074	111788
558.136	270514
558.198	569770
558.260	180836
558.322	74943
558.384	74762
558.446	79112
558.508	88325
558.570	101052
558.632	122287
558.694	168472
558.756	302906
558.818	826997
558.880	1410351
558.942	616452
559.003	616766
559.065	264447
559.127	108518
559.189	104009
559.251	123955
559.312	191362
559.374	466109
559.436	1142471
559.498	542386
559.559	128028
559.621	108122
559.683	130200
559.744	229618
559.806	692971
559.868	846005
559.929	184413
559.991	124385
560.052	217590
560.114	573852
560.176	333224
560.237	345968
560.299	484172
560.360	97424
560.422	40286
560.483	35185
560.545	31400
560.606	30092
560.667	28299
560.729	26172
560.790	25340
560.852	24384
560.913	24566
560.974	24012
561.036	22661
561.097	23626
561.158	21780
561.220	22774
561.281	21128
561.342	20814
561.403	20889
561.465	20791
561.526	22140
561.587	22170
561.648	18041
561.709	18896
561.771	19177
561.832	18549
561.893	17937
561.954	18362
562.015	18473
562.076	17704
562.137	17207
562.198	17587
562.259	17741
562.320	17816
562.381	17054
562.442	16692
562.503	17209
562.564	16779
562.625	15917
562.686	16576
562.747	15758
562.808	16339
562.869	16147
562.930	17197
562.991	16465
563.051	16118
563.112	15306
563.173	16092
563.234	15734
563.294	16051
563.355	14385
563.416	15075
563.477	14686
563.537	14480
563.598	15756
563.659	14229
563.720	14762
563.780	15221
563.841	14590
563.901	15455
563.962	13688
564.023	14215
564.083	14428
564.144	14346
564.204	13978
564.265	14855
564.325	15621
564.386	19045
564.446	17974
564.507	14043
564.567	13743
564.628	12739
564.688	13534
564.749	13243
564.809	14584
564.869	13627
564.930	13598
564.990	12997
565.050	13479
565.111	12641
565.171	12530
565.231	12277
565.292	13558
565.352	12715
565.412	12706
565.472	11736
565.532	12396
565.593	12615
565.653	11944
565.713	12221
565.773	12942
565.833	13552
565.893	14985
565.953	13171
566.013	11886
566.074	12472
566.134	13896
566.194	16303
566.254	16110
566.314	13797
566.374	12891
566.434	12963
566.494	14034
566.554	13260
566.614	13448
566.673	13553
566.733	14256
566.793	14526
566.853	14756
566.913	13501
566.973	14761
567.033	15235
567.092	12884
567.152	12912
567.212	13881
567.272	14793
567.331	14969
567.391	15217
567.451	16438
567.511	17473
567.570	17827
567.630	15489
567.690	14391
567.749	14391
567.809	15192
567.868	15165
567.928	14758
567.988	16621
568.047	18583
568.107	17330
568.166	21492
568.226	25519
568.285	30180
568.345	29293
568.404	25452
568.464	23927
568.523	23451
568.582	23155
568.642	23428
568.701	27008
568.761	32544
568.820	42528
568.879	43461
568.939	38157
568.998	31657
569.057	25656
569.116	23644
569.176	21854
569.235	20098
569.294	18063
569.353	16615
569.413	16358
569.472	14976
569.531	14764
569.590	14123
569.649	14423
569.708	13824
569.767	14429
569.827	14585
569.886	12811
569.945	12278
570.004	14139
570.063	12760
570.122	13630
570.181	14110
570.240	13865
570.299	14048
570.358	14191
570.417	14032
570.475	12861
570.534	13635
570.593	13081
570.652	13646
570.711	13216
570.770	13796
570.829	14187
570.887	13148
570.946	13045
571.005	13129
571.064	14134
571.122	13959
571.181	14215
571.240	13668
571.299	12796
571.357	13550
571.416	12622
571.475	13500
571.533	14347
571.592	14691
571.650	14857
571.709	14288
571.768	16609
571.826	17387
571.885	15075
571.943	14358
572.002	12923
572.060	13250
572.119	12439
572.177	12881
572.236	12993
572.294	12235
572.352	14108
572.411	13291
572.469	13306
572.528	12885
572.586	11455
572.644	12706
572.703	12600
572.761	11989
572.819	11091
572.877	11476
572.936	11075
572.994	11706
573.052	12546
573.110	11493
573.169	13159
573.227	11932
573.285	11948
573.343	12644
573.401	13373
573.459	13149
573.517	12795
573.576	14255
573.634	14233
573.692	13709
573.750	13501
573.808	12346
573.866	12292
573.924	12631
573.982	13881
574.040	13489
574.098	12423
574.155	11505
574.213	12222
574.271	12086
574.329	14524
574.387	13369
574.445	10509
574.503	10329
574.560	11779
574.618	9976
574.676	12093
574.734	11614
574.792	10853
574.849	10153
574.907	9852
574.965	9215
575.022	9128
575.080	8988
575.138	9583
575.195	9413
575.253	8067
575.311	9080
575.368	9032
575.426	8545
575.483	9463
575.541	9678
575.598	9365
575.656	10316
575.713	9873
575.771	10622
575.828	10926
575.886	9016
575.943	9394
576.001	8842
576.058	8813
576.115	8517
576.173	10134
576.230	10805
576.287	9423
576.345	9935
576.402	10796
576.459	9808
576.517	9727
576.574	10006
576.631	10105
576.688	8591
576.746	8769
576.803	8457
576.860	8356
576.917	8960
576.974	9119
577.031	9362
577.089	8670
577.146	8124
577.203	8894
577.260	8171
577.317	9071
577.374	9714
577.431	9646
577.488	8123
577.545	8418
577.602	9082
577.659	8331
577.716	10058
577.773	10872
577.830	9845
577.886	9343
577.943	9517
578.000	9987
578.057	9811
578.114	11547
578.171	13212
578.227	16358
578.284	16131
578.341	13360
578.398	11512
578.454	11304
578.511	10752
578.568	10143
578.625	9633
578.681	9309
578.738	9117
578.794	9604
578.851	9101
578.908	8834
578.964	8497
579.021	8780
579.077	8289
579.134	9035
579.190	8368
579.247	9174
579.303	8823
579.360	7570
579.416	7944
579.473	9527
579.529	8277
579.586	9200
579.642	9567
579.698	9625
579.755	11321
579.811	11109
579.867	10800
579.924	11369
579.980	11311
580.036	14395
580.093	16177
580.149	25331
580.205	27670
580.261	20489
580.317	16914
580.374	14360
580.430	13509
580.486	13075
580.542	10831
580.598	11506
580.619	11307
580.654	10973
580.692	10567
580.710	10383
580.765	11327
580.767	11367
580.823	11386
580.838	11476
580.879	11757
580.911	11397
580.935	11163
580.984	10670
580.991	10616
581.047	11294
581.057	11329
581.103	11495
581.130	12087
581.159	12732
581.203	13543
581.215	13771
581.270	13468
581.276	13235
581.326	11064
581.349	11335
581.382	11791
581.422	11330
581.438	11139
581.494	10552
581.494	10547
581.550	10629
581.567	10665
581.606	10738
581.640	10122
581.661	9747
581.713	10954
581.717	11061
581.773	10403
581.786	10455
581.829	10559
581.859	10817
581.885	11114
581.932	10573
581.940	10459
581.996	9943
582.004	10038
582.052	10549
582.077	10345
582.107	10212
582.150	10445
582.163	10489
582.219	10257
582.223	10339
582.274	11379
582.296	11296
582.330	11223
582.368	10934
582.386	10829
582.441	11149
582.441	11150
582.497	12136
582.514	11778
582.552	11058
582.587	11746
582.608	12157
582.659	11302
582.663	11235
582.719	11552
582.732	11543
582.774	11543
582.805	11804
582.830	12085
582.877	12449
582.885	12502
582.941	12888
582.950	13062
582.996	13930
583.023	14323
583.052	14953
583.095	15390
583.107	15469
583.162	18335
583.168	18396
583.218	18687
583.240	17779
583.273	16333
583.313	14724
583.328	14178
583.384	14164
583.385	14124
583.439	12768
583.458	12752
583.494	12826
583.531	12127
583.549	11851
583.603	12190
583.605	12198
583.660	11838
583.676	12007
583.715	12246
583.748	11914
583.770	11801
583.820	12273
583.825	12291
583.881	11165
583.893	11090
583.936	11035
583.965	11207
583.991	11409
584.038	11879
584.046	11942
584.101	11786
584.110	11874
584.156	12331
584.183	12520
584.211	12715
584.255	12177
584.266	12020
584.321	12331
584.328	12367
584.376	12880
584.400	13150
584.431	13339
584.472	13208
584.486	13230
584.541	14234
584.545	14218
584.596	13735
584.617	13880
584.651	14336
584.689	15166
584.706	15422
584.761	16005
584.762	16004
584.816	15628
584.834	16039
584.871	17184
584.906	17814
584.926	17909
584.978	18478
584.980	18533
585.035	21444
585.051	22122
585.090	23888
585.123	25498
585.145	26548
585.195	28974
585.200	29294
585.254	34368
585.267	36106
585.309	42095
585.340	47160
585.364	50973
585.412	57053
585.419	58082
585.473	73051
585.484	77673
585.528	102046
585.556	127521
585.583	169586
585.628	274189
585.637	308174
585.692	616417
585.700	665300
585.747	850587
585.772	729693
585.801	478079
585.845	190220
585.856	146939
585.910	70862
585.917	64336
585.965	46864
585.989	40617
586.019	35764
586.061	31156
586.074	30154
586.128	27124
586.133	26947
586.183	25604
586.205	25066
586.237	24588
586.277	24121
586.292	23843
586.346	22546
586.349	22566
586.401	23177
586.421	23035
586.455	23181
586.493	23532
586.509	24268
586.564	27245
586.565	27354
586.618	32996
586.637	33967
586.672	33559
586.709	33143
586.727	33442
586.781	36127
586.781	36127
586.835	29463
586.853	28066
586.889	25763
586.925	23444
586.944	22663
586.996	22617
586.998	22636
587.052	22168
587.068	22271
587.106	22866
587.140	23268
587.161	23083
587.212	22107
587.215	22132
587.269	23069
587.284	23334
587.323	23545
587.356	23785
587.377	24166
587.427	25005
587.431	25054
587.485	25796
587.499	25785
587.539	26080
587.571	27037
587.593	28051
587.643	30150
587.648	30233
587.702	30125
587.715	30248
587.755	31371
587.786	32009
587.810	32501
587.858	34215
587.864	34473
587.917	36791
587.930	37347
587.971	39491
588.001	40925
588.025	41521
588.073	42327
588.079	42627
588.133	46071
588.145	46925
588.187	50272
588.217	52688
588.241	55263
588.288	61112
588.295	62100
588.348	70669
588.360	72516
588.402	78945
588.431	83917
588.456	89578
588.503	101970
588.510	104006
588.564	121737
588.575	126235
588.617	147989
588.646	164891
588.671	184652
588.718	228903
588.725	240224
588.778	342693
588.789	368291
588.832	549773
588.861	689543
588.886	845686
588.932	1140681
588.939	1153622
588.993	1144377
589.004	1136463
589.047	915621
589.075	728994
589.100	576902
589.147	336754
589.154	321563
589.207	236675
589.218	222024
589.261	207029
589.290	201818
589.314	210567
589.361	236113
589.368	247422
589.421	355322
589.433	382740
589.475	592251
589.504	756672
589.528	878678
589.576	1066459
589.582	1044563
589.635	760996
589.647	691282
589.689	418535
589.718	253004
589.742	205938
589.790	131490
589.795	127799
589.849	99664
589.861	93854
589.902	83521
589.932	76100
589.955	70895
590.004	59948
590.009	59283
590.062	53101
590.075	51670
590.115	49383
590.146	47552
590.168	45889
590.218	42421
590.222	42395
590.275	41960
590.289	41834
590.328	41113
590.360	40365
590.381	39871
590.431	38761
590.435	38718
590.488	37498
590.503	37198
590.541	36740
590.574	36261
590.594	35946
590.645	35174
590.647	35228
590.700	36079
590.716	36359
590.753	36654
590.787	36753
590.806	36829
590.859	36963
590.859	36982
590.912	36465
590.930	36216
590.965	36446
591.001	36725
591.018	36310
591.071	34838
591.072	34800
591.124	35060
591.143	35049
591.177	34657
591.214	34487
591.230	34865
591.283	35769
591.285	35774
591.336	34278
591.356	33691
591.389	34289
591.427	34843
591.442	34615
591.495	33679
591.498	33597
591.547	33894
591.569	33942
591.600	34419
591.640	34914
591.653	35146
591.706	36214
591.711	36278
591.759	36747
591.782	37032
591.811	38213
591.853	39774
591.864	39484
591.917	37779
591.924	37494
591.969	36829
591.995	36452
592.022	36942
592.066	37687
592.075	37995
592.127	39734
592.137	40024
592.180	41633
592.208	42600
592.233	41641
592.279	39701
592.285	39808
592.338	40514
592.350	40646
592.390	39612
592.421	38780
592.443	39365
592.491	40622
592.495	40710
592.548	41530
592.562	41729
592.600	41149
592.633	40611
592.653	40206
592.704	38891
592.705	39167
592.775	41941
592.846	44176
592.916	42962
592.987	43707
593.058	43277
593.128	43972
593.199	44060
593.270	44373
593.341	44493
593.411	45976
593.482	47766
593.553	49184
593.623	48672
593.694	50068
593.764	51929
593.835	50906
593.906	50148
593.976	52234
594.047	54119
594.117	57546
594.188	58907
594.258	56395
594.329	56029
594.399	57950
594.470	59352
594.540	60495
594.611	61874
594.681	61867
594.751	61588
594.822	64301
594.892	67732
594.963	68241
595.033	71280
595.103	72830
595.174	72683
595.244	79129
595.314	84662
595.384	77609
595.455	80505
595.525	83360
595.595	83806
595.665	84229
595.736	82780
595.806	84457
595.876	84734
595.946	88552
596.016	90290
596.087	93979
596.157	92897
596.227	93892
596.297	96822
596.367	106174
596.437	111802
596.507	112970
596.577	115276
596.647	113355
596.717	119243
596.787	121348
596.857	121153
596.927	123057
596.997	120455
597.067	124577
597.137	126488
597.207	127833
597.277	126867
597.347	121960
597.417	116810
597.487	117215
597.557	120364
597.626	122904
597.696	126822
597.766	125885
597.836	122134
597.906	113744
597.975	109733
598.045	111991
598.115	117015
598.185	125058
598.254	141210
598.324	150121
598.394	152423
598.464	149275
598.533	146756
598.603	136095
598.672	133114
598.742	136799
598.812	137667
598.881	139707
598.951	138886
599.020	143671
599.090	146881
599.159	151395
599.229	142856
599.299	140982
599.368	146513
599.437	144209
599.507	132849
599.576	129954
599.646	127982
599.715	128010
599.785	126544
599.854	122893
599.924	121702
599.993	119868
600.062	122006
600.132	125365
600.201	133270
600.270	152446
600.340	159939
600.409	157172
600.478	155508
600.547	160827
600.617	146303
600.686	118826
600.755	108956
600.824	105944
600.894	102727
600.963	103868
601.032	101598
601.101	99704
601.170	96916
601.239	95246
601.308	94381
601.378	95254
601.447	96687
601.516	97213
601.585	97266
601.654	99838
601.723	101075
601.792	102391
601.861	106761
601.930	113491
601.999	112131
602.068	111911
602.137	112966
602.206	115073
602.275	116984
602.343	118100
602.412	119326
602.481	119961
602.550	120543
602.619	124048
602.688	124297
602.756	125681
602.825	126060
602.894	130799
602.963	131720
603.032	133461
603.100	134285
603.169	134120
603.238	136893
603.307	132124
603.375	135672
603.444	139265
603.513	138971
603.581	141351
603.650	142746
603.719	138679
603.787	139384
603.856	142091
603.924	147110
603.993	150766
604.061	156082
604.130	162451
604.198	166943
604.267	170057
604.335	170821
604.404	174647
604.472	177038
604.541	180732
604.609	181601
604.678	182373
604.746	184807
604.815	192474
604.883	191663
604.951	190487
605.020	193166
605.088	195196
605.156	196190
605.225	198851
605.293	199136
605.361	199586
605.429	200896
605.498	205821
605.566	210306
605.634	218898
605.702	225054
605.771	232898
605.839	235061
605.907	227323
605.975	220428
606.043	217176
606.111	215471
606.180	218518
606.248	215268
606.316	213872
606.384	213807
606.452	209643
606.520	206943
606.588	216848
606.656	217064
606.724	211286
606.792	201987
606.860	180045
606.928	164170
606.996	157644
607.064	155215
607.132	160007
607.200	169496
607.267	175329
607.335	177468
607.403	182882
607.471	177059
607.539	171042
607.607	172765
607.674	152225
607.742	151383
607.810	149836
607.878	148768
607.946	153992
608.013	161048
608.081	163864
608.149	165526
608.216	172558
608.284	176668
608.352	178560
608.419	174295
608.487	174602
608.555	168851
608.622	173056
608.690	185371
608.757	205041
608.825	208030
608.893	201969
608.960	189729
609.028	184063
609.095	184850
609.163	180307
609.230	162390
609.298	149004
609.365	156766
609.432	167596
609.500	185045
609.567	210747
609.635	241665
609.702	254377
609.769	242041
609.837	188269
609.904	164428
609.971	171877
610.039	196602
610.106	261898
610.173	496996
610.241	1066883
610.308	636225
610.375	235073
610.442	184785
610.509	172206
610.577	171794
610.644	171767
610.711	178382
610.778	181363
610.845	190900
610.912	201117
610.980	209854
611.047	215976
611.114	206526
611.181	197707
611.248	196235
611.315	210523
611.382	214922
611.449	221547
611.516	224964
611.583	223985
611.650	225566
611.717	229778
611.784	234492
611.851	246546
611.918	263947
611.984	314480
612.051	441736
612.118	834205
612.185	1664112
612.252	1187979
612.319	426418
612.386	319988
612.452	282694
612.519	264039
612.586	257508
612.653	259944
612.719	272960
612.786	255592
612.853	233816
612.919	229297
612.986	233086
613.053	220708
613.120	205770
613.186	198087
613.253	200358
613.319	199031
613.386	203040
613.453	207489
613.519	203955
613.586	199731
613.652	204706
613.719	200149
613.785	203836
613.852	206972
613.918	205251
613.985	212080
614.051	228285
614.118	249061
614.184	234430
614.250	210321
614.317	213303
614.383	206834
614.449	210465
614.516	208445
614.582	211460
614.648	205936
614.715	202935
614.781	199638
614.847	200986
614.914	198994
614.980	193461
615.046	193866
615.112	201242
615.179	200913
615.245	204224
615.311	202123
615.377	208407
615.443	211377
615.509	211398
615.575	219043
615.642	218127
615.708	224875
615.774	237689
615.840	252277
615.906	276631
615.972	341077
616.038	509701
616.104	981770
616.170	1812162
616.236	1596314
616.302	627345
616.368	446750
616.434	323006
616.500	284813
616.565	311657
616.631	392969
616.697	331905
616.763	334872
616.829	500033
616.895	872840
616.961	851744
617.026	398893
617.092	258619
617.158	229532
617.224	218755
617.289	200517
617.355	188357
617.421	185217
617.487	184627
617.552	173480
617.618	172681
617.684	172089
617.749	173510
617.815	165542
617.880	160054
617.946	158873
618.012	163610
618.077	167688
618.143	158135
618.208	162032
618.274	174115
618.339	174596
618.405	142963
618.470	142705
618.536	143768
618.601	142129
618.667	130333
618.732	124559
618.798	122832
618.863	121349
618.928	121813
618.994	123358
619.059	121977
619.124	124391
619.190	120539
619.255	120430
619.320	120246
619.386	122012
619.451	119733
619.516	115493
619.581	115493
619.647	120979
619.712	121422
619.777	116910
619.842	117654
619.907	118389
619.972	120587
620.038	121097
620.103	116281
620.168	116710
620.233	117880
620.298	118047
620.363	120159
620.428	125243
620.493	125537
620.558	128953
620.623	129032
620.688	128732
620.753	128136
620.818	130502
620.883	130938
620.948	129968
621.013	128530
621.078	128267
621.143	127936
621.207	132798
621.272	128772
621.337	123034
621.402	124872
621.467	125514
621.532	124531
621.596	123472
621.661	119136
621.726	118087
621.791	119412
621.855	120442
621.920	118055
621.985	120265
622.049	124694
622.114	123280
622.179	125434
622.243	128625
622.308	131425
622.373	137473
622.437	131281
622.502	125636
622.566	124501
622.631	124471
622.695	126630
622.760	125583
622.824	126759
622.889	126957
622.953	126820
623.018	134917
623.082	134953
623.147	134249
623.211	130709
623.276	130883
623.340	124837
623.404	122828
623.469	121639
623.533	123756
623.597	121288
623.662	120366
623.726	109830
623.790	104392
623.854	101929
623.919	104102
623.983	104609
624.047	106689
624.111	107949
624.176	110911
624.240	110027
624.304	112340
624.368	109010
624.432	109713
624.496	112521
624.560	118686
624.625	120955
624.689	117879
624.753	123849
624.817	118224
624.881	114251
624.945	103110
625.009	99855
625.073	101630
625.137	105259
625.201	110359
625.265	109986
625.329	105753
625.393	107726
625.456	109491
625.520	112548
625.584	114503
625.648	119435
625.712	127750
625.776	149126
625.839	144861
625.903	101512
625.967	90319
626.031	104929
626.095	129479
626.158	106042
626.222	82896
626.286	77635
626.349	73716
626.413	67506
626.477	70058
626.540	69110
626.604	68563
626.668	68335
626.731	67005
626.795	67468
626.858	68642
626.922	65658
626.986	65132
627.049	64791
627.113	69677
627.176	66464
627.240	64233
627.303	65159
627.366	64120
627.430	64853
627.493	64456
627.557	62670
627.620	66158
627.684	67261
627.747	69751
627.810	61153
627.874	57466
627.937	54145
628.000	57716
628.064	54412
628.127	48700
628.190	49464
628.253	48182
628.317	45508
628.380	44303
628.443	42780
628.506	42638
628.569	41781
628.632	38397
628.696	38797
628.759	38549
628.822	36307
628.885	36038
628.948	36369
629.011	35886
629.074	33570
629.137	34920
629.200	33348
629.263	35410
629.326	31917
629.389	31914
629.452	32261
629.515	32206
629.578	31777
629.641	33417
629.704	32369
629.767	30848
629.830	31365
629.892	31895
629.955	30861
630.018	33414
630.081	30482
630.144	31913
630.207	29147
630.269	32116
630.332	31489
630.395	30434
630.458	28857
630.520	27214
630.583	28787
630.646	28547
630.708	29668
630.771	29287
630.834	31200
630.896	30642
630.959	30358
631.021	29725
631.084	29688
631.146	30764
631.209	32949
631.272	33385
631.334	32632
631.397	32376
631.459	32258
631.522	35429
631.584	34578
631.646	38777
631.709	40501
631.771	40296
631.834	39030
631.896	37386
631.958	32968
632.021	32933
632.083	29683
632.145	31271
632.208	29002
632.270	30065
632.332	28548
632.395	28340
632.457	29259
632.519	28181
632.581	29181
632.643	27798
632.706	28623
632.768	26918
632.830	27486
632.892	28748
632.954	28199
633.016	29896
633.078	28283
633.141	28493
633.203	27852
633.265	29170
633.327	29319
633.389	28200
633.451	29030
633.513	29032
633.575	30562
633.637	29355
633.698	30282
633.760	32607
633.822	32359
633.884	33948
633.946	35120
634.008	36902
634.070	39035
634.132	43772
634.193	46457
634.255	49486
634.317	50398
634.379	50617
634.441	44508
634.502	41333
634.564	37527
634.626	34454
634.687	32955
634.749	30749
634.811	30835
634.873	29022
634.934	29013
634.996	29942
635.057	28155
635.119	29532
635.181	30897
635.242	32101
635.304	28330
635.365	32562
635.427	29118
635.488	30155
635.550	29912
635.611	31752
635.673	29911
635.734	36469
635.796	36093
635.857	41398
635.918	43603
635.980	49717
636.041	52071
636.102	56059
636.164	56802
636.225	54506
636.286	45201
636.348	41482
636.409	36482
636.470	32096
636.531	31286
636.593	30809
636.654	28547
636.715	26968
636.776	26746
636.838	25856
636.899	26087
636.960	25335
637.021	23797
637.082	24382
637.143	24606
637.204	22230
637.265	23877
637.326	23305
637.387	23308
637.448	22757
637.509	23778
637.570	23312
637.631	23099
637.692	21237
637.753	20865
637.814	21914
637.875	21569
637.936	22366
637.997	20730
638.058	20825
638.119	22166
638.179	21250
638.240	20610
638.301	20678
638.362	19938
638.423	19538
638.483	21168
638.544	17912
638.605	18542
638.666	19146
638.726	19369
638.787	19623
638.848	19220
638.908	18755
638.969	18921
639.030	18596
639.090	17046
639.151	17480
639.211	20025
639.272	19794
639.332	20405
639.393	21071
639.453	21349
639.514	22623
639.574	19462
639.635	17263
639.695	19125
639.756	15773
639.816	18037
639.877	17577
639.937	18193
639.997	18653
640.058	15528
640.118	17226
640.178	18015
640.239	17273
640.299	17771
640.359	18559
640.420	19114
640.480	22638
640.540	26764
640.600	26261
640.661	24334
640.721	22019
640.781	23982
640.841	19637
640.901	19018
640.961	18829
641.021	20221
641.082	20690
641.142	17207
641.202	17759
641.262	14863
641.322	16305
641.382	15638
641.442	16152
641.502	15865
641.562	17398
641.622	17156
641.682	19501
641.742	23586
641.802	21042
641.861	18016
641.921	15062
641.981	16499
642.041	15574
642.101	14888
642.161	14234
642.221	14968
642.280	15678
642.340	13773
642.400	13821
642.460	16423
642.519	15513
642.579	15978
642.639	17713
642.698	13824
642.758	18912
642.818	16811
642.877	15989
642.937	16489
642.997	15895
643.056	16335
643.116	15243
643.175	18456
643.235	18339
643.294	17446
643.354	19915
643.414	21771
643.473	26258
643.532	31777
643.592	46049
643.651	71582
643.711	127706
643.770	249722
643.830	587549
643.889	1040756
643.948	305521
644.008	70308
644.067	41037
644.126	29805
644.186	25054
644.245	21862
644.304	18245
644.363	20261
644.423	17349
644.482	18998
644.541	20781
644.600	19036
644.659	27364
644.719	35301
644.778	55065
644.837	94971
644.896	202335
644.955	441573
645.014	142560
645.073	36532
645.132	24684
645.191	21749
645.250	20082
645.309	22938
645.368	24524
645.427	33981
645.486	60979
645.545	104742
645.604	31215
645.663	18790
645.722	19268
645.781	20868
645.840	24391
645.898	30366
645.957	44455
646.016	67573
646.075	124970
646.134	242138
646.192	620033
646.251	812163
646.310	155984
646.369	48826
646.427	37542
646.486	27382
646.545	20351
646.603	18873
646.662	17592
646.721	16592
646.779	16804
646.838	18025
646.896	25767
646.955	34684
647.014	58413
647.072	113868
647.131	303826
647.189	136927
647.248	23276
647.306	16845
647.365	16205
647.423	11792
647.481	14779
647.540	10980
647.598	12341
647.657	12768
647.715	12946
647.773	9753
647.832	12058
647.890	9610
647.948	9739
648.007	10816
648.065	10230
648.123	9662
648.181	12124
648.240	11791
648.298	11603
648.356	9824
648.414	9965
648.472	9599
648.531	10913
648.589	8796
648.647	8961
648.705	10107
648.763	10313
648.821	10662
648.879	12392
648.937	14588
648.995	16461
649.053	21977
649.111	34639
649.169	58173
649.227	106705
649.285	226705
649.343	602165
649.401	274528
649.459	42787
649.516	26094
649.574	21746
649.632	33747
649.690	37769
649.748	31271
649.806	44960
649.863	86446
649.921	219723
649.979	137479
650.037	21844
650.094	10922
650.152	11296
650.210	9720
650.268	10326
650.325	9052
650.383	9878
650.440	6915
650.498	8793
650.556	7517
650.613	7559
650.671	8670
650.728	8419
650.786	9174
650.843	13521
650.901	8575
650.958	7510
651.016	6132
651.073	7338
651.131	6132
651.188	5765
651.246	6922
651.303	5963
651.360	6490
651.418	7220
651.475	6381
651.532	5631
651.590	6277
651.647	5047
651.704	5608
651.762	5932
651.819	6078
651.876	5967
651.933	5826
651.990	7239
652.048	4248
652.105	5552
652.162	6205
652.219	5655
652.276	5456
652.333	6356
652.390	4705
652.448	6566
652.505	5819
652.562	5202
652.619	6790
652.676	9313
652.733	8183
652.790	5802
652.847	3482
652.904	5393
652.961	3828
653.017	4572
653.074	4988
653.131	5114
653.188	4241
653.245	4792
653.302	4806
653.359	4667
653.415	5929
653.472	5162
653.529	5625
653.586	5156
653.642	4529
653.699	6073
653.756	4220
653.813	4368
653.869	5421
653.926	4233
653.983	3814
654.039	5097
654.096	4554
654.152	5265
654.209	2973
654.266	4635
654.322	4214
654.379	5911
654.435	5568
654.492	4571
654.548	4957
654.605	5101
654.661	5886
654.717	4373
654.774	5381
654.830	4901
654.887	4444
654.943	5219
655.000	6133
655.056	5238
655.112	5427
655.168	4346
655.225	4215
655.281	5767
655.337	6010
655.394	7354
655.450	5459
655.506	5082
655.562	6910
655.618	7447
655.675	3292
655.731	4874
655.787	4383
655.843	5176
655.899	3544
655.955	4767
656.011	5125
656.067	4431
656.123	5112
656.179	5811
656.235	5672
656.291	4279
656.347	6025
656.403	5210
656.459	3908
656.515	4683
656.571	4519
656.627	4854
656.683	3623
656.739	4319
656.795	4509
656.850	4837
656.906	4879
656.962	4881
657.018	3771
657.074	6225
657.129	8191
657.185	12925
657.241	29792
657.297	15242
657.352	5386
657.408	3317
657.464	4690
657.519	4610
657.575	2663
657.630	3579
657.686	4334
657.742	3013
657.797	3816
657.853	3715
657.908	4729
657.964	2817
658.019	3772
658.075	3535
658.130	4091
658.186	3321
658.241	4323
658.297	2299
658.352	3255
658.407	2985
658.463	2544
658.518	4350
658.573	4004
658.629	2448
658.684	4171
658.739	4713
658.795	2645
658.850	3476
658.905	2991
658.960	3371
659.016	3106
659.071	3366
659.126	2629
659.181	3432
659.236	4390
659.291	3803
659.346	2971
659.401	4232
659.457	4959
659.512	5737
659.567	4279
659.622	2955
659.677	2946
659.732	2046
659.787	2588
659.842	3937
659.897	3382
659.952	3422
660.007	3342
660.061	3246
660.116	2429
660.171	2405
660.226	2497
660.281	4076
660.336	2761
660.391	3563
660.445	2411
660.500	4081
660.555	3130
660.610	2399
660.664	3247
660.719	2751
660.774	3448
660.828	2749
660.883	2182
660.938	3672
660.992	1750
661.047	3220
661.101	2595
661.156	3451
661.211	1740
661.265	3003
661.320	3284
661.374	3598
661.429	2478
661.483	3088
661.538	1833
661.592	2917
661.647	3554
661.701	3141
661.755	2844
661.810	3331
661.864	2047
661.919	1574
661.973	3310
662.027	3507
662.081	2642
662.136	3233
662.190	1994
662.244	3557
662.299	2728
662.353	3826
662.407	2185
662.461	2861
662.515	3378
662.569	2689
662.624	3358
662.678	3271
662.732	1790
662.786	2838
662.840	2601
662.894	3199
662.948	2830
663.002	2642
663.056	1971
663.110	2025
663.164	2530
663.218	2283
663.272	3237
663.326	3132
663.380	2456
663.434	3428
663.488	2494
663.542	2821
663.595	2573
663.649	2830
663.703	3337
663.757	2679
663.811	2420
663.864	3022
663.918	2950
663.972	3299
664.026	2183
664.079	2760
664.133	3077
664.187	3008
664.240	2427
664.294	2992
664.348	2857
664.401	3183
664.455	2841
664.508	2645
664.562	2746
664.615	2572
664.669	1499
664.722	3116
664.776	2398
664.829	3215
664.883	2259
664.936	2283
664.990	2077
665.043	2916
665.097	3080
665.150	3602
665.203	2460
665.257	2521
665.310	3387
665.363	2984
665.417	3932
665.470	3528
665.523	2416
665.576	2879
665.630	3046
665.683	3819
665.736	3198
665.789	3618
665.842	3201
665.895	3239
665.949	2259
666.002	3869
666.055	2806
666.108	3532
666.161	2585
666.214	3312
666.267	3188
666.320	3990
666.373	3025
666.426	3594
666.479	3886
666.532	4319
666.585	4296
666.638	3958
666.691	2967
666.744	4386
666.796	3259
666.849	3228
666.902	3272
666.955	3211
667.008	2633
667.060	3128
667.113	2398
667.166	3115
667.219	3342
667.271	3188
667.324	2247
667.377	4375
667.430	3739
667.482	4058
667.535	2924
667.587	3407
667.640	3849
667.693	3491
667.745	3135
667.798	3721
667.850	4103
667.903	2799
667.955	2844
668.008	3594
668.060	3147
668.113	3789
668.165	3246
668.218	3669
668.270	3386
668.322	2717
668.375	2601
668.427	3423
668.479	2757
668.532	3398
668.584	2560
668.636	3486
668.689	3358
668.741	3509
668.793	3356
668.845	3170
668.898	3511
668.950	3107
669.002	3029
669.054	2763
669.106	2942
669.158	3666
669.211	3185
669.263	3530
669.315	4541
669.367	5031
669.419	2564
669.471	4376
669.523	3427
669.575	4412
669.627	2849
669.679	3118
669.731	3180
669.783	3268
669.835	2749
669.886	3948
669.938	2933
669.990	3299
670.042	2129
670.094	1946
670.146	2250
670.197	3449
670.249	3462
670.301	3700
670.353	3587
670.404	5233
670.456	5840
670.508	8545
670.560	12475
670.611	20148
670.663	33177
670.715	83579
670.766	123448
670.818	33056
670.869	7815
670.921	5324
670.972	4850
671.024	4239
671.075	4562
671.127	5001
671.178	3730
671.230	4942
671.281	5050
671.333	5891
671.384	5567
671.436	8045
671.487	12705
671.538	18398
671.590	27737
671.641	45975
671.692	81429
671.744	150287
671.795	111591
671.846	43611
671.897	20801
671.949	13258
672.000	9201
672.051	7371
672.102	6395
672.153	4587
672.204	4199
672.256	4922
672.307	3898
672.358	3385
672.409	3652
672.460	3892
672.511	2842
672.562	3002
672.613	2629
672.664	2550
672.715	2975
672.766	3491
672.817	2360
672.868	3089
672.919	2361
672.970	2531
673.021	2969
673.071	2892
673.122	2375
673.173	2331
673.224	1686
673.275	2603
673.326	2721
673.376	2002
673.427	1326
673.478	2285
673.528	3077
673.579	2797
673.630	1300
673.680	3101
673.731	2422
673.782	1641
673.832	2056
673.883	2825
673.934	1971
673.984	3437
674.035	2729
674.085	2484
674.136	2161
674.186	3416
674.237	3177
674.287	4013
674.338	3125
674.388	3609
674.438	2879
674.489	3681
674.539	3422
674.589	3591
674.640	3748
674.690	3056
674.740	2650
674.791	3161
674.841	2478
674.891	1794
674.942	2498
674.992	2406
675.042	1499
675.092	2028
675.142	1697
675.193	2256
675.243	1751
675.293	3620
675.343	1708
675.393	2793
675.443	2658
675.493	2631
675.543	1797
675.593	2327
675.643	1804
675.693	2443
675.743	2240
675.793	2537
675.843	1792
675.893	1980
675.943	1715
675.993	1907
676.043	1616
676.093	1439
676.142	1312
676.192	2217
676.242	2226
676.292	1406
676.341	550
676.391	2072
676.441	1023
676.491	811
676.540	1335
676.590	1772
676.640	1303
676.689	1442
676.739	630
676.789	851
676.838	1294
676.888	2330
676.937	1356
676.987	1857
677.037	1207
677.086	1874
677.136	1465
677.185	1337
677.235	1318
677.284	1566
677.333	632
677.383	899
677.432	268
677.482	1177
677.531	1210
677.580	1276
677.630	1088
677.679	1572
677.728	1491
677.778	1160
677.827	1247
677.876	1621
677.925	1665
677.975	2123
678.024	1452
678.073	2536
678.122	1702
678.171	1991
678.220	1099
678.269	2925
678.319	2351
678.368	2522
678.417	2112
678.466	2872
678.515	1665
678.564	1480
678.613	348
678.662	1589
678.711	1302
678.760	1043
678.809	1214
678.857	1247
678.906	1618
678.955	1379
679.004	1736
679.053	1729
679.102	812
679.151	1386
679.199	684
679.248	1462
679.297	1644
679.346	1744
679.394	1055
679.443	878
679.492	1200
679.540	1814
679.589	962
679.638	1461
679.686	1685
679.735	1245
679.784	1619
679.832	1980
679.881	860
679.929	1302
679.978	1304
680.026	1140
680.075	1642
680.123	-304
680.172	620
680.220	1501
680.268	768
680.317	997
680.365	1663
680.414	365
680.462	390
680.510	1819
680.559	281
680.607	1008
680.655	453
680.703	352
680.752	-108
680.800	668
680.848	1387
680.896	1060
680.945	98
680.993	860
681.041	925
681.089	295
681.137	1349
681.185	1309
681.233	1211
681.258	1259
681.281	1266
681.329	422
681.377	689
681.380	738
681.425	855
681.473	1972
681.502	1821
681.521	1640
681.569	2303
681.617	1288
681.624	1375
681.665	1639
681.713	1767
681.745	1652
681.761	1529
681.809	1668
681.857	2021
681.867	2037
681.904	1946
681.952	2886
681.989	2552
682.000	2390
682.048	2142
682.096	2260
682.111	2225
682.143	2040
682.191	2311
682.233	3263
682.239	3365
682.286	2427
682.334	2495
682.354	2441
682.382	2284
682.430	3555
682.476	2586
682.477	2529
682.525	3521
682.572	2193
682.598	2782
682.620	3250
682.667	2799
682.715	3813
682.720	3784
682.763	3097
682.810	4145
682.841	3499
682.857	3132
682.905	3288
682.952	3642
682.963	3709
683.000	3719
683.047	3369
683.085	4622
683.095	4945
683.142	3772
683.190	3808
683.206	4072
683.237	4455
683.284	4612
683.328	4574
683.332	4528
683.379	4725
683.426	4155
683.449	4128
683.473	4124
683.521	4654
683.568	5226
683.571	5236
683.615	4941
683.662	4974
683.693	4649
683.709	4426
683.757	5085
683.804	4746
683.814	4772
683.851	4710
683.898	5474
683.936	5472
683.945	5455
683.992	5460
684.039	5292
684.057	5377
684.086	5453
684.133	4942
684.179	5231
684.180	5217
684.227	5985
684.274	6291
684.300	6671
684.321	6922
684.368	6018
684.415	6737
684.422	6639
684.462	5972
684.509	5881
684.543	6196
684.556	6315
684.603	7387
684.649	6796
684.665	6910
684.696	6885
684.743	6979
684.786	6946
684.790	6933
684.837	7263
684.883	7389
684.908	7490
684.930	7514
684.977	7923
685.023	7492
685.029	7573
685.070	7949
685.117	7515
685.150	7707
685.164	7846
685.210	8267
685.257	8349
685.272	8539
685.303	8679
685.350	8179
685.393	8280
685.396	8262
685.443	7845
685.490	7632
685.514	7959
685.536	8386
685.583	7714
685.629	8075
685.636	8123
685.675	8178
685.722	7780
685.757	7684
685.768	7695
685.815	8197
685.861	8331
685.878	8689
685.908	9260
685.954	9081
686.000	9879
686.000	9886
686.047	9663
686.093	11020
686.121	10974
686.139	10633
686.185	10566
686.232	9689
686.242	9755
686.278	10041
686.324	9037
686.363	9574
686.370	9708
686.416	9178
686.463	10142
686.484	9968
686.509	9668
686.555	9139
686.601	9332
686.606	9338
686.647	9543
686.693	9416
686.727	9710
686.739	9794
686.785	9683
686.831	9955
686.848	9918
686.877	9793
686.923	10004
686.969	10405
686.969	10406
687.015	9705
687.061	10724
687.090	10774
687.107	10688
687.153	10633
687.199	10901
687.211	10695
687.245	10187
687.291	10478
687.332	11024
687.336	11098
687.382	10920
687.428	10839
687.453	10954
687.474	10926
687.520	10865
687.565	10827
687.574	10882
687.611	11415
687.657	11750
687.695	12063
687.702	12180
687.748	12900
687.794	14085
687.816	14205
687.839	13626
687.885	12806
687.931	12029
687.937	11887
687.976	11722
688.022	12222
688.058	11973
688.067	11918
688.113	12436
688.158	11782
688.179	11761
688.204	11866
688.249	12244
688.295	12913
688.300	12912
688.340	12831
688.386	12720
688.421	12160
688.431	12026
688.477	12275
688.522	12622
688.542	12724
688.567	12979
688.613	13172
688.658	13162
688.663	13162
688.703	13109
688.749	13575
688.784	13439
688.794	13397
688.839	13991
688.884	13754
688.905	13725
688.930	13588
688.975	13314
689.020	13299
689.026	13242
689.065	13117
689.110	13191
689.146	13081
689.155	13090
689.201	13467
689.246	13694
689.267	13710
689.291	13792
689.336	13270
689.381	13928
689.388	13902
689.426	13750
689.471	13656
689.509	13362
689.516	13310
689.561	13253
689.606	13403
689.630	13214
689.651	13189
689.696	13635
689.741	14310
689.750	14237
689.785	13967
689.830	14291
689.871	13627
689.875	13587
689.920	14104
689.965	14117
689.992	14326
690.010	14545
690.054	14596
690.099	15040
690.112	14988
690.144	14753
690.189	14927
690.233	14389
690.233	14407
690.278	14384
690.323	14933
690.354	14612
690.367	14664
690.412	15758
690.457	15995
690.474	16163
690.501	16219
690.546	16644
690.590	16934
690.595	16841
690.635	16983
690.680	18003
690.716	18879
690.724	19346
690.769	21443
690.813	24135
690.836	25105
690.857	27947
690.902	34787
690.946	40754
690.957	42362
690.991	56310
691.035	75865
691.077	93650
691.080	93649
691.124	87326
691.168	81795
691.198	78217
691.213	73034
691.257	57972
691.301	42390
691.318	36296
691.346	33233
691.390	28595
691.434	23604
691.439	23047
691.478	21922
691.522	20585
691.559	19073
691.567	19035
691.611	19189
691.655	19076
691.680	18823
691.699	18567
691.743	17958
691.787	18075
691.800	17833
691.831	17698
691.875	17772
691.919	18060
691.921	18023
691.964	17802
692.008	17773
692.041	17818
692.052	17927
692.096	17451
692.139	17981
692.162	18009
692.183	17876
692.227	17766
692.271	17595
692.282	17466
692.315	17515
692.359	17555
692.402	17723
692.403	17758
692.447	17481
692.490	17863
692.523	17765
692.534	17827
692.578	18121
692.622	17821
692.643	17998
692.666	18027
692.709	17909
692.753	17659
692.763	17485
692.797	17618
692.840	18583
692.884	18679
692.884	18715
692.928	18602
692.971	18617
693.004	18700
693.015	18824
693.059	18759
693.102	19327
693.124	19281
693.146	19640
693.189	20696
693.233	21344
693.245	21616
693.276	22591
693.320	23479
693.363	24442
693.365	24417
693.407	25984
693.450	28172
693.485	29511
693.493	30633
693.537	36701
693.580	42200
693.605	45656
693.624	52045
693.667	66296
693.710	81518
693.725	86658
693.753	114458
693.797	158982
693.840	202928
693.845	207616
693.883	195141
693.926	179804
693.966	166439
693.970	163289
694.013	127409
694.056	91699
694.086	66919
694.099	63648
694.142	52829
694.185	42034
694.206	36773
694.229	35443
694.272	32733
694.315	30225
694.326	29469
694.358	28082
694.401	26074
694.444	24173
694.446	24030
694.487	23781
694.530	23027
694.566	22647
694.573	22620
694.616	21713
694.659	21475
694.686	20901
694.702	20867
694.745	21042
694.787	20921
694.806	20894
694.830	20722
694.873	20065
694.916	19752
694.926	19585
694.959	19898
695.002	20322
695.044	20594
695.046	20559
695.087	20689
695.130	20759
695.166	20833
695.172	20973
695.215	21617
695.258	22127
695.286	22430
695.301	22608
695.343	22899
695.386	23376
695.406	23527
695.428	23778
695.471	23872
695.514	24397
695.526	24391
695.556	24826
695.599	25532
695.641	26166
695.646	26182
695.684	25647
695.726	24710
695.766	24034
695.769	24075
695.811	23793
695.854	23550
695.886	23170
695.896	23192
695.938	23077
695.981	22906
696.005	22796
696.023	23303
696.065	24515
696.108	25644
696.125	26047
696.150	26388
696.192	26822
696.235	27144
696.245	27212
696.277	27461
696.319	27528
696.361	27827
696.365	27768
696.404	28016
696.446	28221
696.485	28211
696.488	28278
696.530	28370
696.572	28572
696.604	28562
696.614	28525
696.656	27984
696.698	27387
696.724	27104
696.740	27121
696.783	26934
696.825	26628
696.844	26465
696.867	26744
696.909	27016
696.951	27345
696.964	27370
696.992	27255
697.034	27026
697.076	26665
697.083	26578
697.118	27477
697.160	28273
697.202	29173
697.203	29120
697.244	28504
697.286	27988
697.323	27250
697.327	27344
697.369	27604
697.411	27950
697.442	28066
697.453	28168
697.494	28297
697.536	28521
697.562	28482
697.578	28491
697.620	28416
697.661	28332
697.682	28220
697.703	28448
697.744	28724
697.786	29167
697.801	29163
697.828	29357
697.869	29670
697.911	29909
697.921	29903
697.952	29863
697.994	29655
698.035	29495
698.040	29388
698.077	29496
698.118	29664
698.160	29741
698.160	29663
698.201	30129
698.243	30456
698.279	30764
698.284	30933
698.325	31678
698.367	32465
698.399	32968
698.408	33019
698.449	32857
698.491	32709
698.518	32524
698.532	32830
698.573	33500
698.614	34173
698.638	34465
698.656	34334
698.697	33827
698.738	33285
698.757	32953
698.779	33230
698.820	33576
698.862	33933
698.877	33971
698.903	34370
698.944	34867
698.985	35361
698.996	35406
699.026	35520
699.067	35544
699.116	35482
699.235	32968
699.354	34077
699.474	31823
699.593	32333
699.713	31991
699.832	31828
699.951	32675
700.070	32367
700.190	30048
700.309	30163
700.428	29626
700.547	29860
700.667	28960
700.786	30205
700.905	28022
701.024	29838
701.143	28525
701.262	29550
701.381	28646
701.500	28584
701.619	28512
701.738	28575
701.857	28409
701.976	28095
702.095	27484
702.214	28686
702.333	27439
702.452	28672
702.571	29355
702.690	30325
702.809	27681
702.928	27099
703.047	25720
703.165	25763
703.284	26566
703.403	25994
703.522	25953
703.640	25823
703.759	27697
703.878	29433
703.997	25883
704.115	25516
704.234	25229
704.353	25880
704.471	23978
704.590	23572
704.708	23494
704.827	22768
704.946	23387
705.064	24733
705.183	23284
705.301	26277
705.420	27914
705.538	27017
705.656	24238
705.775	26681
705.893	37178
706.012	41001
706.130	25341
706.249	26252
706.367	24422
706.485	25665
706.604	24815
706.722	23742
706.840	26987
706.958	30908
707.077	25493
707.195	22964
707.313	22617
707.431	22125
707.549	21750
707.668	21764
707.786	23385
707.904	22361
708.022	22514
708.140	22806
708.258	20786
708.376	22650
708.494	21480
708.612	25696
708.730	29381
708.848	27049
708.966	24566
709.084	23841
709.202	23990
709.320	24051
709.438	24981
709.556	25580
709.674	26848
709.791	29084
709.909	21388
710.027	22717
710.145	23409
710.263	29560
710.380	25363
710.498	22242
710.616	21351
710.733	20700
710.851	20958
710.969	22391
711.086	21951
711.204	22607
711.322	20972
711.439	21544
711.557	19729
711.674	21055
711.792	20320
711.909	21590
712.027	22433
712.144	19343
712.262	19770
712.379	22138
712.497	25101
712.614	26086
712.732	22552
712.849	22457
712.966	22593
713.084	24642
713.201	21782
713.318	23500
713.436	23731
713.553	24271
713.670	26102
713.787	26852
713.905	25474
714.022	26002
714.139	26567
714.256	34572
714.373	50881
714.490	93268
714.608	257035
714.725	1001532
714.842	922451
714.959	99042
715.076	43141
715.193	31859
715.310	28019
715.427	22657
715.544	22512
715.661	22559
715.778	21358
715.895	22924
716.011	22626
716.128	20274
716.245	19605
716.362	20496
716.479	19500
716.596	19667
716.713	21442
716.829	26079
716.946	23726
717.063	18112
717.180	16572
717.296	17192
717.413	16700
717.530	16936
717.646	16482
717.763	16779
717.880	16362
717.996	15451
718.113	16478
718.229	16441
718.346	14198
718.462	15925
718.579	16572
718.695	17161
718.812	18154
718.928	20451
719.045	16579
719.161	15849
719.277	16567
719.394	17154
719.510	17212
719.626	20243
719.743	26414
719.859	41385
719.975	86895
720.092	357285
720.208	752307
720.324	90040
720.440	27327
720.557	21132
720.673	21048
720.789	26208
720.905	46976
721.021	20920
721.137	14774
721.253	15212
721.369	15552
721.486	17408
721.602	18713
721.718	14302
721.834	13083
721.950	13506
722.066	13410
722.181	14009
722.297	13175
722.413	13430
722.529	12441
722.645	13730
722.761	13441
722.877	13746
722.993	15635
723.108	20024
723.224	16511
723.340	13532
723.456	12699
723.571	12409
723.687	11651
723.803	12657
723.918	11477
724.034	12433
724.150	11866
724.265	13985
724.381	20190
724.497	23474
724.612	11673
724.728	11607
724.843	11470
724.959	13189
725.074	20135
725.190	22178
725.305	12920
725.421	11838
725.536	10520
725.651	11432
725.767	10402
725.882	11554
725.997	10118
726.113	11429
726.228	10638
726.343	11129
726.459	9919
726.574	11743
726.689	10296
726.804	10075
726.920	9470
727.035	11369
727.150	11491
727.265	10864
727.380	10993
727.495	11003
727.610	9639
727.725	11131
727.841	11314
727.956	18872
728.071	15191
728.186	10779
728.301	9077
728.416	11161
728.531	9623
728.645	9690
728.760	10261
728.875	10994
728.990	10711
729.105	10854
729.220	9932
729.335	10049
729.449	9612
729.564	10116
729.679	9089
729.794	10057
729.908	10471
730.023	10241
730.138	9356
730.253	10027
730.367	9356
730.482	9826
730.596	9607
730.711	11216
730.826	13066
730.940	13289
731.055	11833
731.169	12170
731.284	12587
731.398	12796
731.513	14356
731.627	15912
731.742	17371
731.856	21623
731.970	22755
732.085	29821
732.199	46799
732.313	87168
732.428	226546
732.542	596883
732.656	319028
732.771	67067
732.885	34350
732.999	27587
733.113	24933
733.227	24009
733.342	21277
733.456	21933
733.570	20122
733.684	19005
733.798	17375
733.912	18236
734.026	18153
734.140	17854
734.254	17954
734.368	21466
734.482	22708
734.596	16727
734.710	16169
734.824	16082
734.938	14888
735.052	15713
735.166	16271
735.280	15930
735.393	14962
735.507	15530
735.621	16311
735.735	20628
735.849	16465
735.962	14745
736.076	14644
736.190	14353
736.303	16647
736.417	18209
736.531	13539
736.644	15070
736.758	13009
736.872	13182
736.985	13761
737.099	13484
737.212	12350
737.326	13613
737.439	13716
737.553	13129
737.666	13144
737.780	12819
737.893	11956
738.007	12816
738.120	13656
738.233	11785
738.347	13666
738.460	12153
738.573	12815
738.687	12157
738.800	12339
738.913	13270
739.026	12067
739.140	13514
739.253	12587
739.366	12756
739.479	11850
739.592	12544
739.705	11569
739.818	13561
739.932	11115
740.045	12374
740.158	11892
740.271	12372
740.384	12088
740.497	10699
740.610	13020
740.723	10946
740.836	11963
740.949	12042
741.062	12193
741.174	12630
741.287	11779
741.400	11304
741.513	10277
741.626	11734
741.739	11402
741.851	10754
741.964	11465
742.077	10502
742.189	10824
742.302	12968
742.415	10954
742.527	10576
742.640	10630
742.753	10742
742.865	10885
742.978	10354
743.090	9397
743.203	11949
743.316	10351
743.428	9967
743.541	9926
743.653	9400
743.766	10322
743.878	11038
743.990	11224
744.103	11460
744.215	9497
744.327	9070
744.440	10732
744.552	10503
744.664	8445
744.777	9900
744.889	8671
745.001	10545
745.113	10097
745.226	9953
745.338	9170
745.450	10347
745.562	9104
745.674	9291
745.786	10106
745.898	9119
746.010	9658
746.122	10480
746.234	9248
746.347	9473
746.459	9503
746.570	8901
746.682	9470
746.794	12055
746.906	9337
747.018	9433
747.130	9874
747.242	8495
747.354	8677
747.466	10201
747.577	8270
747.689	9269
747.801	8874
747.913	9507
748.024	8922
748.136	9110
748.248	7434
748.359	8698
748.471	8638
748.583	8621
748.694	8416
748.806	10510
748.918	9910
749.029	9524
749.141	8758
749.252	9507
749.364	6775
749.475	9200
749.587	8878
749.698	8809
749.809	7973
749.921	9016
750.032	7530
750.144	8663
750.255	7876
750.366	8592
750.478	7892
750.589	8259
750.700	7466
750.811	9037
750.923	8467
751.034	8108
751.145	9331
751.256	8379
751.367	7858
751.479	8555
751.590	7379
751.701	7540
751.812	6900
751.923	8853
752.034	9440
752.145	8625
752.256	7546
752.367	7731
752.478	7200
752.589	8415
752.700	8093
752.811	8243
752.922	8324
753.032	8368
753.143	8849
753.254	8300
753.365	9125
753.476	9819
753.586	7687
753.697	8483
753.808	6293
753.919	6919
754.029	7661
754.140	8811
754.251	7004
754.361	8403
754.472	8383
754.582	8394
754.693	8180
754.804	9800
754.914	7380
755.025	7300
755.135	8105
755.246	7860
755.356	6876
755.466	8516
755.577	7963
755.687	7281
755.798	8064
755.908	9253
756.018	7822
756.129	8609
756.239	8317
756.349	8941
756.460	9633
756.570	9835
756.680	8672
756.790	9365
756.900	8271
757.011	8369
757.121	8182
757.231	8186
757.341	9195
757.451	8341
757.561	8772
757.671	8711
757.781	8891
757.891	9146
758.001	8594
758.111	9968
758.221	9559
758.331	10777
758.441	10556
758.551	10770
758.661	11653
758.771	12360
758.880	10439
758.990	11317
759.100	10462
759.210	12091
759.320	11515
759.429	11712
759.539	12926
759.649	13924
759.758	14413
759.868	16506
759.978	14983
760.087	16517
760.197	16761
760.307	15715
760.416	15878
760.526	14664
760.635	15280
760.745	16366
760.854	18225
760.964	20036
761.073	20143
761.182	19943
761.292	17498
761.401	17387
761.511	15617
761.620	15019
761.729	14941
761.839	14895
761.948	15042
762.057	14970
762.166	14982
762.276	15345
762.385	16900
762.494	16691
762.603	17126
762.712	17543
762.822	17474
762.931	17478
763.040	17946
763.149	18851
763.258	19040
763.367	21645
763.476	20506
763.585	23061
763.694	23349
763.803	25145
763.912	26865
764.021	27610
764.130	28715
764.238	31121
764.347	33572
764.456	37284
764.565	39676
764.674	41350
764.783	45917
764.891	50474
765.000	55888
765.109	65398
765.217	73438
765.326	85693
765.435	100460
765.543	122628
765.652	154843
765.761	198434
765.869	265076
765.978	368788
766.086	531417
766.195	768016
766.303	982685
766.412	759732
766.520	742159
766.629	931895
766.737	713827
766.846	490856
766.954	341770
767.062	252635
767.171	191948
767.279	150181
767.387	119493
767.496	100502
767.604	86681
767.712	75812
767.820	67479
767.928	61821
768.037	56139
768.145	53985
768.253	51255
768.361	50002
768.469	49110
768.577	50569
768.685	52806
768.793	57086
768.901	62298
769.009	72849
769.117	87490
769.225	111476
769.333	152980
769.441	227309
769.549	363371
769.657	614712
769.765	864479
769.873	689251
769.981	797199
770.088	571956
770.196	344194
770.304	227019
770.412	160744
770.519	124543
770.627	97067
770.735	80062
770.842	67604
770.950	58149
771.058	50291
771.165	47759
771.273	42764
771.380	40228
771.488	38033
771.595	36689
771.703	32856
771.810	30980
771.918	29544
772.025	29297
772.133	28609
772.240	27393
772.348	27844
772.455	26314
772.562	25128
772.670	23299
772.777	22561
772.884	22706
772.991	20873
773.099	22313
773.206	19188
773.313	20543
773.420	19590
773.528	18746
773.635	17776
773.742	19442
773.849	17249
773.956	18108
774.063	17003
774.170	17036
774.277	16992
774.384	17198
774.491	15930
774.598	15804
774.705	14834
774.812	15850
774.919	15606
775.026	16080
775.133	14878
775.239	15877
775.346	14059
775.453	14531
775.560	14277
775.667	14523
775.773	12742
775.880	14515
775.987	13788
776.093	13703
776.200	13486
776.307	11721
776.413	12156
776.520	13838
776.627	12539
776.733	12576
776.840	10477
776.946	15053
777.053	12701
777.159	15077
777.266	11611
777.372	13493
777.478	14133
777.585	13364
777.691	9902
777.798	11124
777.904	9943
778.010	11475
778.117	10220
778.223	9733
778.329	10156
778.435	9942
778.542	10530
778.648	10010
778.754	8970
778.860	10559
778.966	9589
779.072	9457
779.178	9228
779.284	9675
779.391	8788
779.497	9609
779.603	12051
779.708	11733
779.815	19793
779.920	58562
780.026	106496
780.132	18900
780.238	10248
780.344	9132
780.450	10655
780.556	8085
780.661	7528
780.767	8967
780.873	7090
780.979	8707
781.085	7943
781.190	8518
781.296	6964
781.402	8762
781.507	7346
781.613	6781
781.719	6644
781.824	8884
781.930	8491
782.035	8278
782.141	8219
782.246	7570
782.352	6296
782.457	7396
782.563	7245
782.668	8075
782.773	6586
782.879	6400
782.984	7483
783.090	7755
783.195	6722
783.300	7966
783.405	6997
783.511	6965
783.616	6306
783.721	6608
783.826	6571
783.932	6576
784.037	7007
784.142	7349
784.247	6475
784.352	6889
784.457	4744
784.562	6086
784.667	7325
784.772	6568
784.877	5302
784.982	7480
785.087	6681
785.192	5992
785.297	6445
785.402	7366
785.507	6023
785.611	6098
785.716	5321
785.821	6290
785.926	5315
786.031	6018
786.135	5331
786.240	6345
786.345	3394
786.450	5691
786.554	5826
786.659	5131
786.763	4298
786.868	6210
786.973	6089
787.077	5927
787.182	4469
787.286	6372
787.391	5494
787.495	4913
787.600	4588
787.704	4872
787.809	5582
787.913	4620
788.017	4324
788.122	6898
788.226	5492
788.330	4348
788.435	4816
788.539	5855
788.643	4469
788.747	3605
788.852	4634
788.956	5080
789.060	4598
789.164	4573
789.268	3625
789.372	5884
789.476	3806
789.580	4140
789.684	3278
789.788	5607
789.892	4891
789.996	5039
790.100	4000
790.204	5189
790.308	5205
790.412	4143
790.516	3947
790.620	4449
790.724	5471
790.828	4924
790.931	3024
791.035	5864
791.139	4056
791.242	3816
791.346	4314
791.450	4638
791.554	4776
791.657	3265
791.761	4494
791.864	5084
791.968	5447
792.072	5094
792.175	3696
792.279	3608
792.382	3510
792.486	4813
792.589	3103
792.693	4942
792.796	2853
792.899	4413
793.003	4829
793.106	2998
793.209	3224
793.313	4280
793.416	2237
793.519	4761
793.623	4657
793.726	4519
793.829	3391
793.932	3564
794.035	2191
794.138	4681
794.242	5215
794.345	4683
794.448	4947
794.551	9330
794.654	28031
794.757	57480
794.860	11042
794.963	5913
795.066	2239
795.169	3877
795.272	3434
795.375	4230
795.477	2686
795.580	3356
795.683	1330
795.786	3676
795.889	2828
795.991	4759
796.094	3633
796.197	2560
796.300	4617
796.402	3881
796.505	3192
796.608	2413
796.710	3869
796.813	3444
796.915	3209
797.018	4242
797.120	3725
797.223	2027
797.326	4560
797.428	2952
797.530	1436
797.633	3714
797.735	4960
797.838	5903
797.940	5343
798.042	3547
798.145	3307
798.247	3884
798.349	1212
798.452	3535
798.554	2903
798.656	3745
798.758	4929
798.860	3525
798.962	3223
799.065	2647
799.167	2027
799.269	4660
799.371	4320
799.473	6191
799.575	4625
799.677	4066
799.779	4230
799.881	1807
799.983	3225
800.085	3648
800.187	2864
800.289	2048
800.390	2497
800.492	4130
800.594	3628
800.696	1933
800.798	1790
800.899	2720
801.001	2297
801.103	3993
801.205	2221
801.306	3655
801.408	1697
801.509	2392
801.611	3138
801.713	3417
801.814	2356
801.916	2229
802.017	1832
802.119	2419
802.220	2612
802.322	2383
802.423	3438
802.525	1526
802.626	2626
802.727	3053
802.829	2753
802.930	453
803.031	3369
803.133	2647
803.234	1613
803.335	3128
803.436	1892
803.538	2793
803.639	1617
803.740	3296
803.841	2254
803.942	3013
804.043	2233
804.144	2224
804.245	2334
804.346	1682
804.447	1706
804.548	2608
804.649	2708
804.750	2093
804.851	1408
804.952	3104
805.053	1042
805.154	1386
805.255	3233
805.355	2489
805.456	1343
805.557	1836
805.658	1074
805.758	2445
805.859	2506
805.960	2749
806.061	1396
806.161	1433
806.262	2638
806.362	2371
806.463	1686
806.564	3038
806.664	1769
806.765	3255
806.865	3267
806.966	5262
807.066	2565
807.166	3261
807.267	2072
807.367	1583
807.468	1972
807.568	830
807.668	2300
807.769	3030
807.869	1064
807.969	2947
808.069	1855
808.170	2930
808.270	1844
808.370	2526
808.470	2424
808.570	1170
808.670	1438
808.770	2015
808.870	1359
808.970	2092
809.070	806
809.170	1588
809.271	1799
809.370	1819
809.470	1855
809.570	2117
809.670	222
809.770	1939
809.870	1276
809.970	2097
810.070	1667
810.169	2472
810.269	280
810.369	2883
810.469	1318
810.568	1158
810.668	1079
810.768	1049
810.867	815
810.967	936
811.066	902
811.166	1521
811.265	2120
811.365	1548
811.464	1496
811.564	2304
811.663	1984
811.763	1339
811.862	2510
811.962	3017
812.061	1450
812.160	1782
812.260	1807
812.359	1595
812.458	770
812.557	3015
812.657	1775
812.756	2045
812.855	1603
812.954	1000
813.053	1776
813.153	2560
813.252	2890
813.351	3973
813.450	2303
813.549	1429
813.648	1826
813.747	1711
813.846	1431
813.945	1542
814.044	1475
814.143	2010
814.242	2916
814.341	1587
814.439	2049
814.538	2908
814.637	2223
814.736	2257
814.835	2707
814.933	2148
815.032	2747
815.131	3852
815.229	5980
815.328	9400
815.427	6051
815.525	6448
815.624	6078
815.722	4816
815.821	6358
815.919	6225
816.018	5661
816.116	6665
816.215	5867
816.313	7444
816.412	8087
816.510	7911
816.609	9510
816.707	9109
816.805	7613
816.904	7823
817.002	9252
817.100	10334
817.198	10379
817.296	9036
817.395	9253
817.493	10320
817.591	8372
817.689	9929
817.787	10617
817.885	13770
817.983	19573
818.081	34342
818.179	71624
818.277	174818
818.375	160619
818.473	52306
818.571	22065
818.669	17509
818.767	15479
818.865	14797
818.963	14631
819.061	21918
819.158	32086
819.256	65432
819.354	139671
819.452	304703
819.549	216474
819.647	68750
819.745	29525
819.842	20925
819.940	15198
820.038	12357
820.135	10421
820.233	11600
820.330	8171
820.428	7810
820.525	7778
820.623	7383
820.720	6128
820.818	7401
820.915	7530
821.012	7965
821.110	5365
821.207	8406
821.304	6150
821.402	6480
821.499	6224
821.596	6028
821.693	5417
821.791	7084
821.888	6397
821.985	6874
822.082	4707
822.179	6313
822.276	5995
822.373	5525
822.470	4999
822.567	5186
822.664	4877
822.761	5385
822.858	4933
822.955	5508
823.052	3702
823.149	5190
823.246	5355
823.343	4381
823.440	4770
823.536	5938
823.633	4465
823.730	4851
823.827	5250
823.923	5313
824.020	5698
824.117	5096
824.213	4252
824.310	5229
824.407	3524
824.503	4953
824.600	4587
824.696	4092
824.793	5789
824.889	5141
824.986	4332
825.082	3582
825.179	3924
825.275	5132
825.371	5206
825.468	3932
825.564	2217
825.660	4838
825.757	5727
825.853	4516
825.949	3239
826.045	3657
826.142	3464
826.238	4655
826.334	3872
826.430	3716
826.526	2405
826.622	3382
826.718	4053
826.814	4469
826.910	4439
827.006	3117
827.102	2507
827.198	5200
827.294	3982
827.390	4439
827.486	2209
827.582	1743
827.678	2672
827.774	4227
827.869	2600
827.965	3576
828.061	2168
828.157	4565
828.252	3829
828.348	2935
828.444	3206
828.539	3829
828.635	3909
828.731	4659
828.826	2866
828.922	4153
829.017	4046
829.113	4527
829.208	2517
829.304	3022
829.399	4198
829.495	4527
829.590	4262
829.685	3520
829.781	3756
829.876	3681
829.971	1926
830.066	2653
830.162	3360
830.257	5174
830.352	2942
830.447	3736
830.543	3910
830.638	3697
830.733	4537
830.828	4042
830.923	4558
831.018	3657
831.113	3576
831.208	2688
831.303	2985
831.398	3019
831.493	4008
831.588	5597
831.683	2601
831.778	2227
831.873	1980
831.967	4286
832.062	2877
832.157	2226
832.252	2746
832.346	3103
832.441	3590
832.536	3185
832.631	3759
832.725	3102
832.820	2312
832.914	2755
833.009	1942
833.104	2983
833.198	2075
833.293	2963
833.387	3247
833.482	3222
833.576	2737
833.670	4029
833.765	2857
833.859	3718
833.954	3170
834.048	3044
834.142	2935
834.237	2491
834.331	1855
834.425	3187
834.519	1975
834.613	3108
834.708	1983
834.802	2549
834.896	2482
834.990	2031
835.084	2097
835.178	2200
835.272	1985
835.366	3116
835.460	3373
835.554	2634
835.648	2591
835.742	1271
835.836	1458
835.930	1300
836.024	2496
836.117	3014
836.211	1952
836.305	2336
836.399	2686
836.493	1513
836.586	3795
836.680	2676
836.774	1431
836.867	2051
836.961	1745
837.055	2369
837.148	1453
837.242	1937
837.335	2091
837.429	1676
837.522	1016
837.616	2210
837.709	3478
837.803	2881
837.896	2667
837.989	2980
838.083	2254
838.176	3691
838.269	1399
838.363	2301
838.456	1749
838.549	2222
838.642	736
838.735	2749
838.829	1561
838.922	1759
839.015	1882
839.108	1169
839.201	1691
839.294	2321
839.387	1971
839.480	902
839.573	2032
839.666	2456
839.759	1011
839.852	898
839.945	1836
840.038	1209
840.131	328
840.223	1733
840.316	1864
840.409	2734
840.502	1165
840.594	3076
840.687	180
840.780	1313
840.873	332
840.965	1562
841.058	1990
841.150	3527
841.243	2323
841.336	2050
841.428	2033
841.521	1948
841.613	1408
841.706	2080
841.798	700
841.890	2397
841.983	319
842.075	1777
842.167	1483
842.260	2300
842.352	2692
842.444	3217
842.537	3751
842.629	5433
842.721	1167
842.813	1457
842.905	1145
842.997	1783
843.090	636
843.182	2704
843.274	2908
843.366	8147
843.458	14093
843.550	8844
843.642	1843
843.734	2446
843.826	1161
843.918	2162
844.009	1746
844.101	1264
844.193	1625
844.285	1854
844.377	1932
844.469	2771
844.560	1016
844.652	1870
844.744	1557
844.835	1031
844.927	2603
845.019	1833
845.110	808
845.202	2450
845.293	1318
845.385	648
845.476	952
845.568	2425
845.659	789
845.751	2248
845.842	1304
845.934	1442
846.025	1175
846.116	1748
846.208	1254
846.299	1411
846.390	907
846.482	2219
846.573	1531
846.664	2441
846.755	1255
846.846	2844
846.937	-606
847.029	1393
847.120	-142
847.211	1342
847.302	1746
847.393	1253
847.484	849
847.575	490
847.666	798
847.757	899
847.847	846
847.938	2488
848.029	1252
848.120	2135
848.211	789
848.302	1171
848.392	986
848.483	1252
848.574	443
848.664	1281
848.755	2423
848.846	1008
848.936	846
849.027	1577
849.118	2049
849.208	2847
849.299	3798
849.389	8836
849.480	16906
849.570	35295
849.661	66850
849.751	108077
849.841	40439
849.932	7697
850.022	2348
850.112	2486
850.203	2870
850.293	2032
850.383	1332
850.474	1692
850.564	1089
850.654	1996
850.744	1654
850.834	1684
850.924	556
851.014	1757
851.104	1616
851.194	1114
851.284	1274
851.374	1814
851.464	1646
851.554	1856
851.644	239
851.734	2160
851.824	1841
851.914	1728
852.004	1504
852.094	1196
852.183	586
852.273	1781
852.363	1453
852.452	1835
852.542	1212
852.632	1917
852.721	1769
852.811	2350
852.901	2409
852.990	3608
853.080	3603
853.169	2907
853.259	3034
853.348	4845
853.438	5357
853.527	8219
853.617	11748
853.706	21165
853.795	38132
853.885	78774
853.974	141095
854.063	249866
854.152	329235
854.242	149232
854.331	42626
854.420	18650
854.509	12972
854.598	9613
854.687	6393
854.777	6669
854.866	3889
854.955	3784
855.044	2232
855.133	2659
855.222	2399
855.311	2487
855.400	2897
855.488	1528
855.577	844
855.666	2341
855.755	2618
855.844	2941
855.933	2827
856.021	2063
856.110	1888
856.199	506
856.288	567
856.376	928
856.465	685
856.554	2136
856.642	822
856.731	1650
856.819	1499
856.908	1412
856.996	682
857.085	1351
857.173	310
857.262	724
857.350	431
857.438	2026
857.527	254
857.615	1095
857.703	405
857.792	574
857.880	221
857.968	676
858.056	1456
858.145	778
858.233	1257
858.321	245
858.409	1116
858.497	682
858.585	29
858.673	548
858.761	546
858.849	703
858.937	835
859.025	233
859.113	373
859.201	733
859.289	1347
859.377	1095
859.465	281
859.552	833
859.640	488
859.728	1219
859.816	807
859.903	1688
859.991	-149
860.079	748
860.166	856
860.254	1020
860.342	943
860.429	550
860.517	495
860.604	1559
860.692	795
860.779	237
860.867	298
860.954	1008
861.042	1425
861.129	2187
861.216	1125
861.304	1257
861.391	1079
861.478	709
861.565	1336
861.653	1333
861.740	227
861.827	769
861.914	455
862.001	1156
862.089	877
862.176	1084
862.263	764
862.350	1403
862.437	44
862.524	1169
862.611	632
862.698	1275
862.785	1482
862.871	1836
862.958	1299
863.045	1178
863.132	928
863.219	1819
863.306	-197
863.392	1399
863.479	164
863.566	1655
863.652	1061
863.739	1384
863.826	2101
863.912	2438
863.999	759
864.086	1618
864.172	1167
864.259	2245
864.345	1405
864.432	1998
864.518	1490
864.604	2674
864.691	1784
864.777	2765
864.863	3579
864.950	5225
865.036	5981
865.122	10927
865.209	10384
865.295	9934
865.381	9038
865.467	11101
865.553	12281
865.639	16773
865.726	25721
865.812	45428
865.898	80144
865.984	120040
866.070	206632
866.156	205489
866.242	71150
866.328	24772
866.414	15206
866.499	12626
866.585	10415
866.671	9292
866.757	8632
866.843	8886
866.928	6559
867.014	6387
867.100	7368
867.186	7168
867.271	6466
867.357	6890
867.442	7108
867.528	6156
867.614	5961
867.699	6172
867.785	7334
867.870	6448
867.956	6613
868.041	6576
868.127	6453
868.212	7221
868.297	5386
868.383	6021
868.468	5250
868.553	5917
868.639	5647
868.724	5704
868.809	5372
868.894	5896
868.979	4715
869.065	5888
869.150	3670
869.235	5811
869.320	5087
869.405	5219
869.490	4942
869.575	4745
869.660	3567
869.745	5802
869.830	5278
869.915	4249
870.000	4308
870.085	4841
870.169	5855
870.254	6519
870.339	3316
870.424	4336
870.509	4633
870.593	5887
870.678	5058
870.763	4142
870.847	4016
870.932	4517
871.016	4463
871.101	4109
871.186	4952
871.270	5556
871.355	3352
871.439	4163
871.523	4739
871.608	3923
871.692	3058
871.777	5997
871.861	4519
871.945	4012
872.030	4483
872.114	4050
872.198	3318
872.282	3002
872.367	3157
872.451	4454
872.535	3091
872.619	4784
872.703	3158
872.787	4722
872.871	4236
872.955	2754
873.039	2566
873.123	4808
873.207	4510
873.291	2312
873.375	2396
873.459	5102
873.543	3398
873.627	3491
873.711	3169
873.794	4575
873.878	2997
873.962	3250
874.045	2465
874.129	3474
874.137	3413
874.213	2803
874.245	2952
874.296	3195
874.352	2492
874.380	2142
874.460	3306
874.464	3354
874.547	2787
874.568	3057
874.631	3838
874.676	3476
874.714	3170
874.784	3475
874.798	3542
874.881	3509
874.892	3427
874.965	2843
874.999	3163
875.048	3579
875.107	3444
875.131	3405
875.215	1976
875.215	1977
875.298	2475
875.323	2633
875.381	3007
875.430	4403
875.465	5382
875.538	3407
875.548	3130
875.631	2282
875.646	2234
875.714	2011
875.753	2330
875.798	2791
875.861	3020
875.881	3036
875.964	2491
875.968	2466
876.047	2196
876.076	2740
876.130	3715
876.183	3447
876.213	3305
876.291	3738
876.296	3756
876.379	2515
876.398	2498
876.462	2569
876.506	2302
876.545	2014
876.613	2636
876.628	2814
876.711	2258
876.721	2402
876.794	3464
876.828	3480
876.877	3260
876.935	2549
876.960	2348
877.043	2336
877.043	2340
877.125	3546
877.150	3725
877.208	3697
877.258	3212
877.291	3004
877.365	2641
877.374	2599
877.456	2403
877.472	2352
877.539	2297
877.579	2699
877.622	3035
877.687	3107
877.704	3112
877.787	3403
877.794	3358
877.869	3042
877.901	3278
877.952	3445
878.008	2393
878.034	1935
878.115	2176
878.117	2189
878.199	2296
878.222	2459
878.282	2847
878.329	2967
878.364	2962
878.437	3393
878.447	3413
878.529	1608
878.544	1705
878.611	2573
878.651	2713
878.694	2862
878.758	3510
878.776	3693
878.858	3330
878.865	3300
878.941	2582
878.972	2363
879.023	2156
879.078	2067
879.105	2152
879.185	3090
879.187	3109
879.269	3809
879.292	3707
879.351	3109
879.399	2787
879.433	2628
879.506	2988
879.516	3046
879.598	2586
879.613	2545
879.680	2279
879.720	2749
879.762	3543
879.827	2817
879.844	2463
879.926	2345
879.933	2368
880.007	3137
880.040	3133
880.089	3059
880.147	3650
880.171	4002
880.253	6038
880.254	6042
880.335	6116
880.360	6454
880.417	8642
880.467	11094
880.499	12650
880.574	15289
880.580	15153
880.662	6997
880.680	5936
880.744	3473
880.787	2399
880.825	2040
880.893	2706
880.907	2827
880.989	2445
881.000	2553
881.070	3592
881.106	3408
881.152	2712
881.213	2267
881.233	2200
881.315	2489
881.319	2486
881.396	3217
881.426	3134
881.478	2563
881.532	3072
881.559	3451
881.639	2382
881.641	2341
881.722	2799
881.745	2518
881.803	2819
881.852	3156
881.885	2918
881.958	2496
881.966	2490
882.047	3099
882.064	2894
882.129	1978
882.171	1889
882.210	1877
882.277	1616
882.291	1674
882.372	3032
882.383	3081
882.454	3516
882.489	3847
882.535	3855
882.596	3626
882.616	3628
882.697	3735
882.702	3693
882.778	2457
882.808	2387
882.859	2469
882.914	2202
882.940	2271
883.020	2382
883.021	2388
883.102	2538
883.127	2871
883.183	3971
883.233	3851
883.264	3227
883.339	2504
883.345	2464
883.426	1753
883.445	1656
883.507	2243
883.551	2746
883.587	3155
883.657	3606
883.668	3682
883.749	3760
883.763	3801
883.830	2805
883.869	2302
883.910	2107
883.975	2206
883.991	2442
884.072	2585
884.081	2696
884.152	3716
884.187	3952
884.233	4295
884.292	4754
884.314	4213
884.394	1703
884.398	1613
884.475	2090
884.504	2102
884.555	1977
884.610	1916
884.636	2142
884.716	2994
884.716	3008
884.797	4303
884.821	4464
884.877	3653
884.927	3234
884.958	3179
885.033	2713
885.038	2655
885.118	2046
885.139	1809
885.199	2247
885.244	2655
885.279	2939
885.350	3529
885.359	3621
885.439	4294
885.456	4344
885.520	3922
885.561	3851
885.600	3291
885.667	2283
885.680	2460
885.760	3694
885.773	3802
885.840	2909
885.878	2526
885.920	2512
885.984	2353
886.000	2529
886.080	3725
886.089	3833
886.160	3684
886.195	3476
886.240	3335
886.300	3311
886.320	3298
886.400	3103
886.406	3077
886.480	2246
886.511	2053
886.560	2414
886.616	2475
886.640	2486
886.720	2833
886.722	2827
886.800	2611
886.827	2650
886.879	2702
886.932	2613
886.959	3008
887.038	4327
887.039	4334
887.119	3770
887.143	3696
887.198	3507
887.248	3132
887.278	3153
887.354	3280
887.358	3297
887.437	3425
887.459	3522
887.517	3635
887.564	3516
887.596	3235
887.669	2679
887.676	2653
887.755	2116
887.774	2034
887.835	2181
887.880	2311
887.914	2701
887.985	3334
887.994	3457
888.073	4482
888.090	4698
888.153	4924
888.195	4994
888.232	4378
888.300	3360
888.311	3346
888.391	3040
888.405	2985
888.470	2571
888.510	2271
888.549	2511
888.615	3077
888.628	3188
888.708	3691
888.720	3770
888.787	3804
888.825	3774
888.866	3227
888.930	2382
888.945	2581
889.024	3619
889.035	3756
889.103	4328
889.140	4592
889.182	4010
889.245	3172
889.261	3314
889.340	3942
889.349	4008
889.419	3576
889.454	3336
889.498	3484
889.559	3716
889.577	3760
889.656	3905
889.664	3915
889.735	4201
889.768	4324
889.814	4181
889.873	3968
889.978	3088
890.083	3269
890.187	3773
890.292	4468
890.397	3003
890.501	3009
890.606	3030
890.710	3490
890.815	4317
890.919	3280
891.024	3271
891.128	3308
891.233	3121
891.337	3526
891.442	4257
891.546	3673
891.650	2911
891.755	2650
891.859	4384
891.963	3927
892.068	3769
892.172	2939
892.276	1401
892.380	2797
892.484	4115
892.589	4265
892.693	4110
892.797	2883
892.901	2510
893.005	2322
893.109	3564
893.213	4069
893.317	3059
893.421	1904
893.525	1405
893.629	2462
893.733	3961
893.837	2403
893.941	2741
894.045	2928
894.148	1969
894.252	3093
894.356	3803
894.460	4292
894.564	2726
894.667	2111
894.771	1524
894.875	1391
894.978	2789
895.082	2959
895.186	3155
895.289	3393
895.393	1711
895.496	3354
895.600	2773
895.703	2421
895.807	2542
895.910	3030
896.014	2785
896.117	3331
896.221	3275
896.324	3474
896.427	2070
896.531	1815
896.634	1561
896.737	2654
896.840	2815
896.944	2711
897.047	3784
897.150	2262
897.253	2410
897.356	1982
897.460	1276
897.563	1649
897.666	4464
897.769	2536
897.872	2068
897.975	2473
898.078	2736
898.181	2310
898.284	1482
898.387	3214
898.490	2753
898.593	2118
898.695	1093
898.798	2391
898.901	2401
899.004	2051
899.107	2272
899.209	2623
899.312	3670
899.415	3064
899.518	1193
899.620	1103
899.723	1536
899.826	2486
899.928	1442
900.031	1541
900.133	2519
900.236	1574
900.338	1816
900.441	2259
900.543	1887
900.646	2471
900.748	2267
900.851	3097
900.953	2653
901.055	1955
901.158	1709
901.260	2037
901.362	2293
901.465	1483
901.567	2183
901.669	2553
901.771	1574
901.873	1982
901.976	2076
902.078	2512
902.180	1339
902.282	1502
902.384	2273
902.486	3065
902.588	2725
902.690	1645
902.792	1361
902.894	1942
902.996	2644
903.098	2733
903.200	600
903.302	1581
903.404	1680
903.505	1565
903.607	2290
903.709	3185
903.811	2978
903.913	1985
904.014	1563
904.116	1334
904.218	1501
904.319	2213
904.421	3761
904.523	2169
904.624	1525
904.726	971
904.827	993
904.929	873
905.030	982
905.132	3284
905.233	2417
905.335	1743
905.436	970
905.537	876
905.639	2175
905.740	2572
905.841	2093
905.943	2420
906.044	1265
906.145	1496
906.247	1202
906.348	807
906.449	1620
906.550	2105
906.651	1411
906.752	1645
906.854	1558
906.955	1147
907.056	1942
907.157	2249
907.258	2639
907.359	1610
907.460	610
907.561	1176
907.662	846
907.762	2352
907.863	1116
907.964	2417
908.065	1103
908.166	1044
908.267	1611
908.367	566
908.468	1364
908.569	1889
908.670	2638
908.770	1832
908.871	2638
908.971	1990
909.072	1857
909.173	2257
909.273	1553
909.374	2632
909.474	1924
909.575	2373
909.675	1965
909.776	2082
909.876	1316
909.977	1635
910.077	1824
910.177	2184
910.278	2535
910.378	937
910.478	1698
910.579	2380
910.679	2340
910.779	2307
910.879	1798
910.980	2185
911.080	2233
911.180	2071
911.280	1075
911.380	1064
911.480	651
911.580	1748
911.680	2011
911.780	2709
911.880	2365
911.980	1581
912.080	1693
912.180	2427
912.280	1304
912.380	1559
912.480	890
912.580	1210
912.679	548
912.779	2274
912.879	1445
912.979	1234
913.078	824
913.178	1120
913.278	1172
913.377	1378
913.477	1388
913.577	1306
913.676	2304
913.776	2350
913.875	1747
913.975	1941
914.074	1375
914.174	2357
914.273	1250
914.373	2147
914.472	1415
914.572	1125
914.671	1269
914.770	1655
914.870	863
914.969	261
915.068	1915
915.167	3247
915.267	2034
915.366	1598
915.465	2276
915.564	2237
915.663	1688
915.763	1531
915.862	2670
915.961	1999
916.060	877
916.159	1430
916.258	1751
916.357	2505
916.456	1347
916.555	2443
916.654	2266
916.752	2610
916.851	2188
916.950	1425
917.049	1954
917.148	1193
917.247	2160
917.345	1739
917.444	1019
917.543	1766
917.642	2093
917.740	2216
917.839	3390
917.937	3332
918.036	2715
918.135	1440
918.233	1776
918.332	1663
918.430	1924
918.529	1659
918.627	1825
918.726	2813
918.824	2373
918.923	2360
919.021	1723
919.119	1878
919.218	2196
919.316	2044
919.414	1735
919.512	1538
919.611	2926
919.709	2575
919.807	2968
919.905	2986
920.003	1924
920.102	2792
920.200	3201
920.298	3731
920.396	3432
920.494	3457
920.592	1582
920.690	2608
920.788	2938
920.886	2698
920.984	3238
921.082	3758
921.180	4256
921.277	3624
921.375	3946
921.473	5566
921.571	5319
921.669	4681
921.766	5590
921.864	5193
921.962	4904
922.060	5487
922.157	5187
922.255	5615
922.352	6287
922.450	6702
922.548	6064
922.645	6755
922.743	9831
922.840	13719
922.938	17191
923.035	14277
923.133	13106
923.230	15257
923.327	19702
923.425	19131
923.522	16824
923.619	16503
923.717	15341
923.814	14188
923.911	13512
924.008	14623
924.106	13043
924.203	12716
924.300	14228
924.397	14584
924.494	14070
924.591	13660
924.688	12545
924.786	13747
924.883	14371
924.979	13462
925.077	14180
925.173	13175
925.270	13855
925.367	13589
925.464	13677
925.561	13892
925.658	14823
925.755	12264
925.852	15564
925.948	13839
926.045	13473
926.142	13937
926.239	14171
926.335	11969
926.432	12647
926.529	14094
926.625	14300
926.722	12285
926.818	11759
926.915	13506
927.011	11931
927.108	11196
927.204	12643
927.301	11215
927.397	12333
927.494	14266
927.590	11032
927.687	10544
927.783	14264
927.879	13464
927.976	11264
928.072	9747
928.168	11563
928.264	12412
928.361	11316
928.457	14315
928.553	11164
928.649	11076
928.745	12195
928.841	10029
928.937	10931
929.033	12365
929.129	11126
929.225	12900
929.321	10685
929.417	10229
929.513	11351
929.609	10818
929.705	9617
929.801	11412
929.897	9660
929.993	10163
930.089	11136
930.184	10872
930.280	11263
930.376	12505
930.471	10219
930.567	9309
930.663	10452
930.758	8797
930.854	9420
930.950	9740
931.045	9267
931.141	9791
931.236	12191
931.332	10720
931.427	7942
931.523	11356
931.618	11259
931.714	7492
931.809	9022
931.905	11644
932.000	7562
932.095	7945
932.191	10468
932.286	12531
932.381	10352
932.476	6578
932.572	9279
932.667	8515
932.762	8029
932.857	9981
932.952	10875
933.047	9695
933.142	8218
933.237	9414
933.332	9959
933.427	10624
933.522	8411
933.617	8794
933.712	7809
933.807	10127
933.902	11122
933.997	11390
934.092	7878
934.187	8264
934.282	9744
934.376	9590
934.471	10245
934.566	8091
934.661	7864
934.755	9284
934.850	9375
934.945	8475
935.039	7750
935.134	7265
935.228	8453
935.323	11960
935.417	8052
935.512	5903
935.606	6341
935.701	8574
935.795	9331
935.890	8565
935.984	7372
936.079	5994
936.173	7101
936.267	7329
936.362	5728
936.456	7765
936.550	10913
936.644	8414
936.738	5952
936.833	6680
936.927	5392
937.021	7826
937.115	8578
937.209	8377
937.303	8272
937.397	5697
937.491	7419
937.585	9347
937.679	7999
937.773	6367
937.867	5858
937.961	6097
938.055	9570
938.149	7526
938.243	5708
938.337	4632
938.430	6450
938.524	9027
938.618	7628
938.712	5821
938.805	5681
938.899	7608
938.993	9672
939.086	6665
939.180	3748
939.274	5818
939.367	8182
939.461	9134
939.554	5738
939.648	5894
939.741	5904
939.835	6915
939.928	10089
940.022	8497
940.115	6389
940.208	8111
940.302	9255
940.395	9429
940.488	6668
940.582	5706
940.675	4838
940.768	6210
940.861	6882
940.954	8235
941.048	5271
941.141	4495
941.234	5904
941.327	6879
941.420	8051
941.513	7109
941.606	6274
941.699	5627
941.792	8374
941.885	6682
941.978	6249
942.071	7240
942.164	4878
942.257	5035
942.349	5534
942.442	6777
942.535	4689
942.628	5194
942.721	5597
942.813	5793
942.906	6656
942.999	5592
943.091	4087
943.184	5606
943.277	4721
943.369	4427
943.462	3688
943.554	5500
943.647	5445
943.739	6389
943.832	7579
943.924	4217
944.017	3368
944.109	4253
944.201	4548
944.294	6109
944.386	5334
944.478	4814
944.571	3356
944.663	5085
944.755	5100
944.847	5607
944.940	5594
945.032	3402
945.124	3256
945.216	5161
945.308	5581
945.400	5335
945.492	4968
945.584	6130
945.676	7286
945.768	5742
945.860	5689
945.952	7165
946.044	5401
946.136	3969
946.228	4847
946.320	4258
946.412	5231
946.503	6039
946.595	7747
946.687	4220
946.779	3546
946.870	3826
946.962	3881
947.054	4461
947.145	5635
947.237	4664
947.329	4685
947.420	4826
947.512	3805
947.603	2750
947.695	3245
947.786	3579
947.878	4031
947.969	4902
948.061	5303
948.152	4451
948.243	2922
948.335	2704
948.426	3588
948.517	4455
948.609	5653
948.700	4542
948.791	3849
948.882	3518
948.973	3957
949.065	4530
949.156	4861
949.247	3362
949.338	3488
949.429	3428
949.520	3203
949.611	3168
949.702	5529
949.793	3663
949.884	4429
949.975	4290
950.066	1762
950.157	3215
950.247	2930
950.338	2820
950.429	3547
950.520	4018
950.611	2399
950.701	3841
950.792	5108
950.883	5082
950.973	3651
951.064	4780
951.155	4751
951.245	4612
951.336	4258
951.427	4694
951.517	5919
951.608	5259
951.698	3161
951.788	3361
951.879	2765
951.969	2254
952.060	2823
952.150	3743
952.240	5228
952.331	4231
952.421	4910
952.511	3271
952.602	2719
952.692	2147
952.782	2650
952.872	2832
952.962	4606
953.052	3329
953.143	3233
953.233	4552
953.323	4120
953.413	3776
953.503	3881
953.593	3318
953.683	3431
953.773	1497
953.863	2716
953.953	2760
954.042	3648
954.132	4339
954.222	4382
954.312	4049
954.402	3043
954.492	3392
954.581	3686
954.671	3722
954.761	2883
954.850	4050
954.940	1593
955.030	2486
955.119	2723
955.209	3009
955.298	3001
955.388	4364
955.477	4693
955.567	3043
955.656	3651
955.746	3133
955.835	3036
955.925	2724
956.014	3415
956.103	4478
956.193	4206
956.282	4594
956.371	3266
956.461	3035
956.550	3865
956.639	3804
956.728	3083
956.817	2945
956.906	3215
956.995	4176
957.085	3031
957.174	3195
957.263	2761
957.352	3200
957.441	3546
957.530	3847
957.619	2933
957.708	2113
957.796	2873
957.885	3922
957.974	2764
958.063	3771
958.152	2516
958.241	2552
958.329	3382
958.418	3264
958.507	3553
958.596	6099
958.684	3476
958.773	4553
958.861	3079
958.950	2864
959.039	2946
959.127	3281
959.216	4721
959.304	3472
959.393	3923
959.481	4235
959.570	4107
959.658	3264
959.746	3688
959.835	4098
959.923	4529
960.011	4225
960.100	3704
960.188	4365
960.276	3785
960.365	2715
960.453	3437
960.541	1980
960.629	2724
960.717	1679
960.805	1522
960.893	2689
960.981	3527
961.069	4295
961.158	4355
961.245	5763
961.333	4200
961.421	3507
961.509	2779
961.597	3534
961.685	3185
961.773	3964
961.861	3699
961.949	3596
962.036	2180
962.124	2407
962.212	2200
962.299	2454
962.387	2336
962.475	2192
962.562	1907
962.650	3695
962.738	2904
962.825	1030
962.913	2408
963.000	2172
963.088	3034
963.175	2639
963.263	2139
963.350	1625
963.438	2246
963.525	2713
963.612	2750
963.700	3192
963.787	6465
963.874	4464
963.962	2048
964.049	1755
964.136	1466
964.223	1235
964.310	1689
964.398	969
964.485	1697
964.572	2714
964.659	3116
964.746	2660
964.833	1425
964.920	2221
965.007	1286
965.094	1834
965.181	2157
965.268	3344
965.355	2415
965.441	2199
965.528	1397
965.615	3679
965.702	1822
965.789	1485
965.875	2724
965.962	3227
966.049	928
966.136	3686
966.222	3222
966.309	4010
966.395	2996
966.482	3186
966.569	3279
966.655	2982
966.742	2551
966.828	1878
966.915	2280
967.001	2026
967.087	922
967.174	1773
967.260	1221
967.347	2415
967.433	2969
967.519	4529
967.605	2051
967.692	2827
967.778	2165
967.864	1744
967.950	1959
968.036	2087
968.123	3051
968.209	2053
968.295	2044
968.381	3033
968.467	1353
968.553	527
968.639	2265
968.725	2980
968.811	4200
968.897	3528
968.983	2476
969.069	1284
969.154	1221
969.240	2032
969.326	670
969.412	1289
969.497	1300
969.583	1153
969.669	2710
969.755	2804
969.840	2568
969.926	4965
970.012	5855
970.097	8015
970.183	6547
970.268	3421
970.354	2732
970.439	2766
970.525	2980
970.610	1658
970.696	2633
970.781	1918
970.866	1016
970.952	2083
971.037	1779
971.122	1765
971.208	2386
971.293	2385
971.378	1046
971.463	2644
971.549	2759
971.634	1175
971.719	1749
971.804	1592
971.889	1873
971.974	2172
972.059	2466
972.144	2263
972.229	1571
972.314	1244
972.399	2229
972.484	1081
972.569	1597
972.654	1309
972.739	2162
972.824	2485
972.908	1499
972.993	1686
973.078	1769
973.163	2339
973.247	2729
973.332	527
973.417	2550
973.501	878
973.586	2589
973.671	1968
973.755	1298
973.840	1774
973.924	1964
974.009	3373
974.093	3005
974.178	3933
974.262	2838
974.346	2695
974.431	1785
974.515	2433
974.600	2245
974.684	1979
974.768	1846
974.852	2285
974.937	1542
975.021	2525
975.105	2259
975.189	1321
975.273	1797
975.358	1158
975.442	610
975.526	2617
975.610	1618
975.694	850
975.778	3486
975.862	1202
975.946	545
976.030	2980
976.114	1119
976.198	2103
976.281	1688
976.365	1524
976.449	2472
976.533	1517
976.617	859
976.700	1769
976.784	2029
976.868	1178
976.951	1398
977.035	1826
977.119	1738
977.202	1440
977.286	1685
977.369	4027
977.453	4842
977.536	4517
977.620	3127
977.703	3107
977.787	2651
977.870	3187
977.953	2351
978.037	1961
978.120	3328
978.203	2096
978.287	2993
978.370	2238
978.453	2191
978.536	1470
978.620	3038
978.703	2360
978.786	1687
978.869	1452
978.952	1072
979.035	4003
979.118	2413
979.201	1966
979.284	2346
979.367	1657
979.450	2860
979.533	1488
979.616	1638
979.699	1257
979.782	2378
979.865	2359
979.948	1223
980.030	1270
980.113	2370
980.196	1087
980.279	2551
980.361	1792
980.444	1578
980.526	3314
980.609	4071
980.692	4949
980.774	4660
980.857	2269
980.939	3157
981.022	2161
981.104	2921
981.187	2461
981.269	2778
981.352	2331
981.434	1597
981.516	2212
981.599	2656
981.681	2044
981.763	2102
981.846	2537
981.928	2191
982.010	3115
982.092	1443
982.174	3147
982.256	2137
982.339	2622
982.421	2253
982.503	2216
982.585	2196
982.667	1399
982.749	2070
982.831	2836
982.913	1452
982.995	2709
983.077	2645
983.158	3613
983.240	1534
983.322	3803
983.404	5461
983.486	4462
983.568	4564
983.649	2636
983.731	4045
983.813	2492
983.894	2902
983.976	3085
984.058	3260
984.139	3668
984.221	1684
984.302	2858
984.384	2742
984.465	2997
984.547	4062
984.628	2499
984.710	4165
984.791	3560
984.872	2369
984.954	2340
985.035	3777
985.116	2623
985.198	2852
985.279	3765
985.360	2847
985.441	2626
985.522	3751
985.604	3151
985.685	1628
985.766	2747
985.847	4296
985.928	3023
986.009	3109
986.090	3003
986.171	3698
986.252	3060
986.333	3082
986.414	3044
986.495	2872
986.576	4057
986.656	3834
986.737	3708
986.818	4047
986.899	3597
986.980	2994
987.060	4285
987.141	3184
987.222	4409
987.302	5678
987.383	6205
987.464	4260
987.544	4317
987.625	4541
987.705	5040
987.786	5160
987.866	4608
987.947	4409
988.027	4064
988.108	3807
988.188	5311
988.268	3974
988.349	4382
988.429	4068
988.509	4701
988.589	4136
988.670	3044
988.750	4828
988.830	3289
988.910	4321
988.990	3752
989.070	3867
989.151	5168
989.231	3029
989.311	4392
989.391	2952
989.471	4115
989.551	3983
989.631	2964
989.711	4319
989.791	2797
989.870	2751
989.950	4163
990.030	3188
990.110	3496
990.190	3239
990.269	2250
990.349	2500
990.429	4471
990.509	3231
990.588	2380
990.668	2709
990.747	3223
990.827	2514
990.907	2734
990.986	3811
991.066	3576
991.145	2174
991.225	2641
991.304	2807
991.383	2891
991.463	2938
991.542	3865
991.622	2055
991.701	2117
991.780	1955
991.859	2434
991.939	2172
992.018	2355
992.097	3086
992.176	3237
992.256	1303
992.335	1859
992.414	3212
992.493	2725
992.572	1526
992.651	3000
992.730	2114
992.809	2903
992.888	1766
992.967	2583
993.046	2535
993.125	1326
993.203	2049
993.282	2747
993.361	2740
993.440	2034
993.519	1516
993.597	2982
993.676	1245
993.755	2993
993.834	2382
993.912	348
993.991	2400
994.069	1796
994.148	1411
994.226	2485
994.305	2107
994.384	953
994.462	3237
994.540	1326
994.619	570
994.697	2494
994.776	1506
994.854	2957
994.932	1538
995.011	1655
995.089	1376
995.167	1378
995.245	1863
995.324	1813
995.402	1973
995.480	1346
995.558	742
995.636	860
995.714	409
995.792	1789
995.870	765
995.948	872
996.026	1131
996.104	451
996.182	1718
996.260	956
996.338	1431
996.416	558
996.494	1260
996.572	2416
996.649	808
996.727	618
996.805	1431
996.883	1581
996.960	1148
997.038	1746
997.116	2839
997.193	500
997.271	987
997.348	990
997.426	899
997.504	1260
997.581	1683
997.658	1638
997.736	-248
997.813	131
997.891	2232
997.968	432
998.046	1196
998.123	1021
998.200	1330
998.277	392
998.355	2090
998.432	89
998.509	325
998.586	940
998.663	1318
998.741	1130
998.818	568
998.895	-715
998.972	1549
999.049	1604
999.126	17
999.203	1164
999.280	857
999.357	242
999.434	558
999.511	1519
999.587	822
999.664	9
999.741	1041
999.818	1124
999.895	32
999.971	877
1000.048	449
1000.125	1208
1000.202	-715
1000.278	745
1000.355	755
1000.431	922
1000.508	-538
1000.584	222
1000.661	623
1000.738	-239
1000.814	-110
1000.890	590
1000.967	147
1001.043	1716
1001.120	-484
1001.196	-443
1001.272	-180
1001.349	800
1001.425	398
1001.501	407
1001.577	381
1001.654	873
1001.730	69
1001.806	121
1001.882	-426
1001.958	797
1002.034	661
1002.110	-150
1002.186	-597
1002.262	-178
1002.338	127
1002.414	310
1002.490	882
1002.566	-440
1002.642	-770
1002.718	691
1002.794	-646
1002.870	-187
1002.945	178
1003.021	109
1003.097	-457
1003.173	1132
1003.248	-487
1003.324	780
1003.400	706
1003.475	-693
1003.551	543
1003.626	647
1003.702	-90
1003.777	-137
1003.853	-402
1003.928	-918
1004.004	403
1004.079	752
1004.155	732
1004.230	-600
1004.305	848
1004.381	-80
1004.456	-132
1004.531	-88
1004.607	-1005
1004.682	-124
1004.757	62
1004.832	-645
1004.907	-258
1004.982	720
1005.057	-254
1005.133	-791
1005.208	-565
1005.283	-544
1005.358	469
1005.433	-1171
1005.508	-565
1005.583	-121
1005.657	-276
1005.732	1173
1005.807	-376
1005.882	-204
1005.957	-94
1006.032	215
1006.106	-346
1006.181	-77
1006.256	-143
1006.331	-641
1006.405	-588
1006.480	141
1006.554	-584
1006.629	-27
1006.704	-205
1006.778	-680
1006.853	-569
1006.927	-143
1007.002	-838
1007.076	-361
1007.150	-555
1007.225	151
1007.299	-11
1007.373	-857
1007.448	-369
1007.522	327
1007.596	-691
1007.671	-14
1007.745	-1112
1007.819	-172
1007.893	-624
1007.967	-312
1008.041	-1105
1008.115	-107
1008.190	-489
1008.264	-156
1008.338	-1296
1008.412	-661
1008.486	-304
1008.560	-633
1008.633	-488
1008.707	-675
1008.781	10
1008.855	-760
1008.929	-608
1009.003	-771
1009.076	-470
1009.150	-249
1009.224	-378
1009.298	-1158
1009.371	-1217
1009.445	-224
1009.519	-650
1009.592	-535
1009.666	-1423
1009.739	-358
1009.813	-1471
1009.886	88
1009.960	-1137
1010.033	-129
1010.107	-1174
1010.180	-408
1010.253	-647
1010.327	-500
1010.400	-1009
1010.473	-489
1010.547	-147
1010.620	-534
1010.693	-818
1010.766	-1376
1010.840	-127
1010.913	-425
1010.986	-1036
1011.059	-1123
1011.132	-1102
1011.205	-809
1011.278	-921
1011.351	-955
1011.424	-600
1011.497	-1498
1011.570	-339
1011.643	-621
1011.716	-1250
1011.789	-1246
1011.862	-544
1011.934	-639
1012.007	-1637
1012.080	-1191
1012.153	-1139
1012.225	-550
1012.298	-1997
1012.371	-1624
1012.443	-769
1012.516	-1896
1012.588	-1640
1012.661	-789
1012.733	-1289
1012.806	-436
1012.879	-1840
1012.951	-600
1013.023	-1051
1013.096	-254
1013.168	-1950
1013.241	302
1013.313	-942
1013.385	-1524
1013.458	-1463
1013.530	98
1013.602	-2019
1013.674	-1116
1013.746	-1950
1013.819	-1482
1013.891	-534
1013.963	-1290
1014.035	-621
1014.107	-834
1014.179	-934
1014.251	-1829
1014.323	-765
1014.395	-1689
1014.467	-1195
1014.539	-358
1014.611	-1105
1014.683	-421
1014.754	-512
1014.826	-1676
1014.898	-888
1014.970	-1407
1015.042	-759
1015.113	-907
1015.185	-979
1015.257	-1656
1015.328	-1220
1015.400	-1672
1015.471	-1192
1015.543	-1829
1015.615	-675
1015.686	-1923
1015.757	-1118
1015.829	-493
1015.901	-1983
1015.972	-972
1016.043	-638
1016.115	-600
1016.186	-822
1016.257	-1579
1016.328	-1380
1016.400	-506
1016.471	-1563
1016.542	-1274
1016.613	-1449
1016.685	-1418
1016.756	-792
1016.827	-1534
1016.898	-1763
1016.969	-1322
1017.040	-1582
1017.111	-1372
1017.182	-915
1017.253	-2340
1017.324	-2341
1017.395	-1591
1017.466	-982
1017.537	-1869
1017.608	-1153
1017.678	-1040
1017.749	-1978
1017.820	-1408
1017.891	-1450
1017.961	-1721
1018.032	-1084
1018.103	-1471
1018.173	-2155
1018.244	-1804
1018.315	-2042
1018.385	-1338
1018.456	-1167
1018.526	-1885
1018.597	-2006
1018.667	-1276
1018.738	-1879
1018.808	-2135
1018.878	-1817
1018.949	-1423
1019.019	-1182
1019.089	-1099
1019.160	-1558
1019.230	-2757
1019.300	-1249
1019.371	-1588
1019.441	-1862
1019.511	-1074
1019.581	-1728
1019.651	-1902
1019.721	-1292
1019.791	-1503
1019.861	-1529
1019.931	-788
1020.001	-1451
1020.071	-1132
1020.141	-1734
1020.211	-1604
1020.281	-2016
1020.351	-2526
1020.421	-623
1020.491	-1433
1020.560	-2205
1020.630	-1657
1020.700	-1427
1020.770	-2314
1020.839	-1516
1020.909	-1607
1020.979	-2275
1021.048	-1858
1021.118	-2092
1021.187	-1205
1021.257	-1362
1021.326	-1076
1021.396	-2209
1021.465	-1449
1021.535	-2306
1021.604	-1994
1021.674	-1652
1021.743	-2042
1021.812	-1948
1021.882	-1377
1021.951	-2587
1022.020	-1798
1022.089	-793
1022.159	-1661
1022.228	-1728
1022.297	-772
1022.366	-2043
1022.435	-1651
1022.504	-1763
1022.573	-1975
1022.642	-1365
1022.711	-2253
1022.781	-1636
1022.849	-2241
1022.918	-2344
1022.987	-1612
1023.056	-2320
1023.125	-1912
1023.194	-1035
1023.263	-1605
1023.331	-2064
1023.400	-1846
1023.469	-1807
1023.538	-1383
1023.606	-2640
1023.675	-2137
1023.744	-2460
1023.812	-1932
1023.881	-2254
1023.949	-1660
1024.018	-2095
1024.086	-1857
1024.155	-930
1024.223	-1091
1024.292	-1185
1024.360	-2249
1024.429	-1039
1024.497	-1691
1024.565	-1799
1024.634	-1257
1024.702	-2007
1024.770	-2292
1024.838	-2776
1024.907	-1936
1024.975	-2364
1025.043	-2382
1025.111	-1742
1025.179	-1935
1025.247	-1967
1025.315	-2545
1025.383	-2161
1025.451	-2143
1025.519	-1767
1025.587	-1116
1025.655	-2164
1025.723	-1733
1025.791	-2000
1025.859	-710
1025.927	-1596
1025.995	-1577
1026.062	-2118
1026.130	-2045
1026.198	-2522
1026.266	-1856
1026.333	-1927
1026.401	-1714
1026.469	-1636
1026.536	-1197
1026.604	-2072
1026.671	-1130
1026.739	-803
1026.806	-1872
1026.874	-2130
1026.941	-1983
1027.009	-2426
1027.076	-1666
1027.144	-1791
1027.211	-2293
1027.278	-2254
1027.345	-1983
1027.413	-1759
1027.480	-2026
1027.547	-2032
1027.614	-1774
1027.682	-2095
1027.749	-2311
1027.816	-1988
1027.883	-1643
1027.950	-1444
1028.017	-2283
1028.084	-1428
1028.151	-1719
1028.218	-2072
1028.285	-1763
1028.352	-2984
1028.419	-1983
1028.486	-2006
1028.553	-1559
1028.619	-1980
1028.686	-1370
1028.753	-1370
1028.820	-1671
1028.886	-2348
1028.953	-1649
1029.020	-1921
1029.086	-2420
1029.153	-1999
1029.220	-2088
1029.286	-1428
1029.353	-1573
1029.419	-2319
1029.486	-2410
1029.552	-2507
1029.619	-1606
1029.685	-1731
1029.751	-2306
1029.818	-975
1029.884	-1886
1029.951	-1385
1030.017	-2078
1030.083	-2151
1030.149	-1253
1030.216	-1989
1030.282	-1624
1030.348	-2540
1030.414	-2144
1030.480	-1258
1030.546	-1947
1030.612	-1862
1030.678	-1994
1030.744	-2786
1030.810	-1163
1030.876	-1791
1030.942	-1471
1031.008	-2278
1031.074	-2108
1031.140	-1353
1031.206	-1362
1031.272	-2207
1031.337	-1396
1031.403	-935
1031.469	-2238
1031.534	-2529
1031.600	-1491
1031.666	-2085
1031.731	-2332
1031.797	-1755
1031.863	-972
1031.928	-1864
1031.994	-2428
1032.059	-1946
1032.125	-1503
1032.190	-2357
1032.256	-1832
1032.321	-1925
1032.386	-2498
1032.452	-1725
1032.517	-2270
1032.582	-1748
1032.647	-2137
1032.713	-2373
1032.778	-1402
1032.843	-1561
1032.908	-1402
1032.974	-1987
1033.039	-3291
1033.104	-1471
1033.169	-1950
1033.234	-1652
1033.299	-2328
1033.364	-2142
1033.429	-1558
1033.494	-1690
1033.559	-1264
1033.624	-2271
1033.688	-1629
1033.753	-1580
1033.818	-1364
1033.883	-1297
1033.948	-578
1034.013	-334
1034.077	-379
1034.142	1191
1034.207	2285
1034.271	4418
1034.336	5834
1034.400	4537
1034.465	1651
1034.530	497
1034.594	-546
1034.658	-1283
1034.723	-2192
1034.787	-1826
1034.852	-1593
1034.916	-2238
1034.981	-2385
1035.045	-1441
1035.109	-1516
1035.173	-1462
1035.238	-1606
1035.302	-1790
1035.366	-2801
1035.430	-2350
1035.495	-1441
1035.559	-1635
1035.623	-1834
1035.687	-2161
1035.751	-1766
1035.815	-1242
1035.879	-2110
1035.943	-1755
1036.007	-1906
1036.071	-2208
1036.135	-2350
1036.198	-1914
1036.262	-1491
1036.326	-1154
1036.390	-1610
1036.454	-1392
1036.517	-653
1036.581	-765
1036.645	-1602
1036.709	-954
1036.772	-1434
1036.836	-1138
1036.900	-1504
1036.963	-1392
1037.026	-1513
1037.090	-1494
1037.154	-1286
1037.217	-1646
1037.280	-2054
1037.344	-1809
1037.407	-1281
1037.471	-1550
1037.534	-1684
1037.597	-1536
1037.661	-856
1037.724	-1536
1037.787	-1693
1037.850	-1497
1037.913	-1442
1037.977	-1245
1038.040	-1689
1038.103	-1765
1038.166	-2112
1038.229	-1832
1038.292	-1727
1038.355	-2170
1038.418	-1218
1038.481	-1472
1038.544	-1987
1038.607	-2515
1038.670	-2209
1038.732	-1577
1038.795	-1964
1038.858	-2144
1038.921	-1218
1038.984	-1195
1039.046	-1543
1039.109	-2064
1039.172	-1796
1039.234	-1331
1039.297	-1685
1039.360	-1524
1039.422	-1477
1039.485	-1787
1039.547	-2102
1039.610	-1439
1039.672	-1775
1039.734	-2060
1039.797	-1857
1039.859	-1241
1039.922	-2324
1039.984	-2405
1040.046	-1630
1040.109	-1958
1040.171	-1884
1040.233	-2029
1040.295	-2260
1040.358	-2055
1040.420	-1416
1040.482	-1746
1040.544	-2320
1040.606	-1210
1040.668	-1902
1040.730	-972
1040.792	-1647
1040.854	-2388
1040.916	-1137
1040.978	-2390
1041.040	-1265
1041.102	-1880
1041.164	-2425
1041.225	-1326
1041.287	-1703
1041.349	-1920
1041.411	-1228
1041.472	-1388
1041.534	-1902
1041.596	-1773
1041.657	-1579
1041.719	-1011
1041.781	-2426
1041.842	-1854
1041.904	-1898
1041.965	-866
1042.027	-947
1042.088	-1476
1042.150	-1568
1042.211	-1506
1042.272	-1102
1042.334	-681
1042.395	-2056
1042.456	-2693
1042.518	-2032
1042.579	-1537
1042.640	-1550
1042.701	-1605
1042.763	-1849
1042.824	-1771
1042.885	-1983
1042.946	-1581
1043.007	-1912
1043.068	-997
1043.129	-1742
1043.190	-1855
1043.251	-1650
1043.312	-2002
1043.373	-1434
1043.434	-1436
1043.495	-1239
1043.556	-1183
1043.616	-1083
1043.677	-2431
1043.738	-1991
1043.799	-1629
1043.859	-1812
1043.920	-1313
1043.981	-1938
1044.041	-1197
1044.102	-1581
1044.162	-1817
1044.223	-2305
1044.284	-1800
1044.344	-1620
1044.405	-2430
1044.465	-798
1044.525	-1415
1044.586	-1832
1044.646	-1436
1044.707	-878
1044.767	-2276
1044.827	-1648
1044.887	-1345
1044.948	-1278
1045.008	-1916
1045.068	-1675
1045.128	-1044
1045.188	-1228
1045.249	-962
1045.309	-1762
1045.369	-1089
1045.429	-1451
1045.489	-1969
1045.549	-1205
1045.609	-841
1045.669	-1970
1045.729	-1745
1045.789	-1125
1045.848	-1525
1045.908	-697
1045.968	-1868
1046.028	-1130
1046.088	-2048
1046.147	-1133
1046.207	-2211
1046.267	-1163
1046.326	-1028
1046.386	-1077
1046.446	-864
1046.505	-1287
1046.565	-817
1046.624	-523
1046.684	-889
1046.743	776
1046.803	-1189
1046.862	-307
1046.922	0
