'Start Wavelength	183.907
'End Wavelength	1046.922
'Gate Delay	5.000
'Gate Width (ms)	1.050
'Laser Output Level	0.000
'X Position	0.000
'Y Position	0.000
'Z Position	0.000
'Grid Point Number	1.000
'Shot Number	100.000
183.907	-273.000
183.977	-290.000
184.047	331
184.116	-422
184.186	-264
184.256	-515
184.325	-1048
184.395	-1068
184.465	82
184.534	-365
184.604	-1261
184.674	-462
184.743	-1272
184.813	-462
184.883	-1495
184.952	362
185.022	-211
185.092	91
185.161	-248
185.231	156
185.301	-620
185.370	820
185.440	-652
185.509	190
185.579	-847
185.649	-345
185.718	-511
185.788	508
185.857	-393
185.927	-364
185.996	-860
186.066	-67
186.136	-718
186.205	-354
186.275	-752
186.344	-51
186.414	-738
186.483	-552
186.553	-116
186.622	266
186.692	-1209
186.761	-399
186.831	-784
186.900	-474
186.970	-313
187.039	96
187.109	-628
187.178	23
187.248	-144
187.317	-65
187.387	-529
187.456	-275
187.526	-1287
187.595	320
187.664	239
187.734	-6
187.803	-352
187.873	69
187.942	-959
188.012	-88
188.081	-1110
188.150	-714
188.220	-422
188.289	-213
188.358	-531
188.428	-239
188.497	-739
188.567	-168
188.636	-1259
188.705	-932
188.775	-575
188.844	-355
188.913	65
188.983	-343
189.052	125
189.121	-659
189.191	-765
189.260	105
189.329	-731
189.399	94
189.468	-494
189.537	-830
189.606	-120
189.676	-569
189.745	-929
189.814	167
189.883	-1262
189.953	55
190.022	-213
190.091	-217
190.161	-923
190.230	-279
190.299	-594
190.368	-266
190.437	-1058
190.507	-644
190.576	609
190.645	-320
190.714	-843
190.783	-942
190.853	-735
190.922	-405
190.991	-1292
191.060	-391
191.129	-1141
191.198	-911
191.268	-1480
191.337	-9
191.406	-1246
191.475	-954
191.544	-679
191.613	-271
191.682	-553
191.752	260
191.821	-1102
191.890	-397
191.959	-868
192.028	-838
192.097	-340
192.166	-476
192.235	-804
192.304	-139
192.373	-1130
192.442	102
192.511	-821
192.580	-44
192.650	-509
192.719	-1133
192.788	-442
192.857	-374
192.926	-1088
192.995	76
193.064	-1001
193.133	17
193.202	-790
193.271	-331
193.340	-332
193.409	364
193.478	-1231
193.547	-1070
193.615	-1526
193.684	-166
193.753	-881
193.822	333
193.891	-1109
193.960	-140
194.029	-697
194.098	144
194.167	-1668
194.236	92
194.305	-1019
194.374	-1009
194.443	-614
194.512	268
194.580	-1408
194.649	-147
194.718	-371
194.787	-372
194.856	-564
194.925	-560
194.994	-779
195.062	-1054
195.131	-519
195.200	-1383
195.269	-922
195.338	233
195.407	-592
195.475	-1055
195.544	-291
195.613	-95
195.682	-153
195.751	-529
195.819	-768
195.888	-213
195.957	-301
196.026	-979
196.094	-870
196.163	-837
196.232	-426
196.301	-722
196.369	-414
196.438	-919
196.507	-1002
196.576	-1396
196.644	-96
196.713	-250
196.782	-631
196.850	-8
196.919	-780
196.988	-329
197.056	-473
197.125	-331
197.194	-837
197.262	-264
197.331	-624
197.400	-300
197.468	-1415
197.537	-559
197.606	-408
197.674	-82
197.743	-772
197.812	-1238
197.880	-820
197.949	-149
198.017	-1107
198.086	-472
198.155	-352
198.223	-672
198.292	-1180
198.360	-608
198.429	-971
198.497	-370
198.566	-1190
198.635	-351
198.703	-391
198.772	-505
198.840	-964
198.909	-1007
198.977	-1306
199.046	-585
199.114	-737
199.183	-747
199.251	-516
199.320	-626
199.388	-1805
199.457	-1113
199.525	-590
199.594	-592
199.662	-1140
199.731	-243
199.799	-717
199.867	-560
199.936	-766
200.004	-86
200.073	-549
200.141	-228
200.210	-1576
200.278	-825
200.346	-404
200.415	-222
200.483	-882
200.552	359
200.620	-741
200.688	-1185
200.757	-1060
200.825	-23
200.893	-1327
200.962	-167
201.030	-357
201.098	-1089
201.167	-336
201.235	423
201.303	-1356
201.372	-822
201.440	-598
201.508	-39
201.577	-466
201.645	-94
201.713	-1177
201.781	-288
201.850	-601
201.918	-154
201.986	-802
202.055	-389
202.123	-816
202.191	-75
202.259	-282
202.327	-1006
202.396	-1105
202.464	-849
202.532	-1447
202.600	-458
202.669	-380
202.737	-442
202.805	-938
202.873	-318
202.941	-978
203.009	-43
203.078	-889
203.146	-484
203.214	-207
203.282	-1478
203.350	-1066
203.418	-535
203.487	-1227
203.555	-616
203.623	-373
203.691	-1027
203.759	-616
203.827	-286
203.895	-1841
203.963	-961
204.031	-1186
204.099	-1589
204.168	-1146
204.236	-137
204.304	-1331
204.372	-792
204.440	-777
204.508	-1081
204.576	-1552
204.644	-882
204.712	-1235
204.780	-629
204.848	-1101
204.916	-118
204.984	-1106
205.052	-984
205.120	-1847
205.188	-1204
205.256	-1415
205.324	-985
205.392	-1861
205.460	51
205.528	-2001
205.596	-796
205.664	-804
205.732	-1491
205.799	-631
205.867	-732
205.935	-1845
206.003	-348
206.071	-623
206.139	-919
206.207	-1085
206.275	-27
206.343	-1280
206.411	-969
206.478	-1240
206.546	-889
206.614	-1274
206.682	-844
206.750	-1070
206.818	-190
206.885	-682
206.953	-1480
207.021	-249
207.089	-653
207.157	-2036
207.225	-738
207.292	-1002
207.360	-144
207.428	-1745
207.496	-881
207.563	-1082
207.631	-968
207.699	-954
207.767	-1180
207.834	-1634
207.902	-768
207.970	-1174
208.038	-423
208.105	-1076
208.173	-1214
208.241	-1112
208.309	-936
208.376	-1159
208.444	-872
208.512	-1354
208.579	-1067
208.647	-361
208.715	-561
208.782	-1194
208.850	-1134
208.918	-700
208.985	-125
209.053	-1769
209.120	-1235
209.188	-1492
209.256	-826
209.323	-1999
209.391	-1462
209.459	123
209.526	-695
209.594	-1017
209.661	-468
209.729	-1526
209.796	-70
209.864	-1064
209.932	-1544
209.999	-713
210.067	-964
210.134	-574
210.202	-1293
210.269	-812
210.337	-561
210.404	-1356
210.472	-661
210.539	-1264
210.607	-1365
210.674	-1634
210.742	-1013
210.809	-1049
210.877	-748
210.944	-1218
211.012	-1618
211.079	184
211.146	-1269
211.214	-872
211.281	-1153
211.349	-811
211.416	-780
211.484	-1030
211.551	-1758
211.618	-953
211.686	-768
211.753	-1725
211.821	-993
211.888	-952
211.955	-871
212.023	-1252
212.090	-1051
212.157	-1118
212.225	-505
212.292	-1379
212.359	-1266
212.427	-1062
212.494	-531
212.561	-399
212.629	-977
212.696	-1447
212.763	-763
212.831	-1901
212.898	-104
212.965	-1160
213.032	-885
213.100	-880
213.167	-1362
213.234	-432
213.301	-1316
213.369	-1499
213.436	-538
213.503	-1200
213.570	-979
213.638	-1588
213.705	-1567
213.772	-1927
213.839	-1536
213.906	-334
213.973	-1222
214.041	-1734
214.108	-855
214.175	-1449
214.242	-924
214.309	-1821
214.376	-1655
214.444	-1556
214.511	-536
214.578	-1927
214.645	-742
214.712	-1812
214.779	-1476
214.846	-1682
214.913	-334
214.980	-641
215.048	-1078
215.115	-831
215.182	-1415
215.249	-1243
215.316	-1726
215.383	-772
215.450	-691
215.517	-1043
215.584	-521
215.651	-1974
215.718	-20
215.785	-917
215.852	-1548
215.919	-1355
215.986	-921
216.053	-1235
216.120	-1620
216.187	-1463
216.254	-1077
216.321	-1369
216.388	-1328
216.455	-846
216.522	-4
216.589	-1074
216.656	-1300
216.722	-1622
216.789	-667
216.856	-1354
216.923	-1476
216.990	-680
217.057	-905
217.124	-1398
217.191	-1829
217.258	-893
217.324	-986
217.391	-1410
217.458	-1064
217.525	-2192
217.592	-1169
217.659	-2025
217.725	236
217.792	-1760
217.859	-363
217.926	-2124
217.993	-1347
218.059	-763
218.126	-488
218.193	-1395
218.260	-625
218.327	-1695
218.393	-1878
218.460	-1836
218.527	-919
218.594	-1963
218.660	-2307
218.727	-1035
218.794	-1042
218.860	-898
218.927	-1293
218.994	-1499
219.061	-1281
219.127	-1986
219.194	-540
219.261	-1488
219.327	-1564
219.394	-827
219.461	-1923
219.527	-1249
219.594	-964
219.661	-1233
219.727	-1972
219.794	-1136
219.860	-1191
219.927	-1622
219.994	-1414
220.060	-592
220.127	-779
220.193	-259
220.260	-1205
220.326	-1514
220.393	-1342
220.460	-2072
220.526	-1571
220.593	-2414
220.659	-405
220.726	-1504
220.792	-904
220.859	-1418
220.925	-1729
220.992	-1468
221.058	-1349
221.125	-1641
221.191	-1113
221.258	-1267
221.324	-672
221.391	-2015
221.457	-1720
221.524	-1348
221.590	-1065
221.657	-1134
221.723	-1505
221.789	-1920
221.856	-1005
221.922	-1978
221.989	-625
222.055	-1209
222.121	-1301
222.188	-422
222.254	-946
222.321	-1680
222.387	-1611
222.453	-631
222.520	-1459
222.586	-1677
222.652	-869
222.719	-1501
222.785	-1089
222.851	-2109
222.918	-1109
222.984	-1903
223.050	-1160
223.116	-2149
223.183	407
223.249	-1830
223.315	-489
223.382	-1772
223.448	-1303
223.514	-1221
223.580	-1265
223.647	-1686
223.713	-1235
223.779	-1128
223.845	-1005
223.911	-1352
223.978	-533
224.044	-1875
224.110	-930
224.176	-1399
224.242	-918
224.309	-2381
224.375	-1184
224.441	-1493
224.507	-1815
224.573	-2899
224.639	-406
224.705	-2565
224.772	-1218
224.838	-2044
224.904	-1323
224.970	-1947
225.036	-711
225.102	-2558
225.168	-934
225.234	-1566
225.300	-471
225.366	-1442
225.432	-1003
225.499	-1437
225.565	-1520
225.631	-2357
225.697	-1691
225.763	-1142
225.829	-1005
225.895	-1376
225.961	-1396
226.027	-1896
226.093	-1671
226.159	-765
226.225	-1137
226.291	-1245
226.357	-860
226.423	-1886
226.489	-927
226.554	-1270
226.620	-1611
226.686	-1986
226.752	-929
226.818	-1489
226.884	-1947
226.950	-1557
227.016	-1238
227.082	-1965
227.148	-1132
227.214	-1225
227.279	-1068
227.345	-1576
227.411	-1094
227.477	-1750
227.543	-913
227.609	-1118
227.674	-1129
227.740	-1555
227.806	-1029
227.872	-1766
227.938	-688
228.003	-987
228.069	-1681
228.135	-2398
228.201	-851
228.267	-1483
228.332	-1029
228.398	-2713
228.464	-831
228.530	-1813
228.595	-855
228.661	-2056
228.727	-2367
228.792	-1395
228.858	-1773
228.924	-3349
228.990	-351
229.055	-2083
229.121	-1283
229.187	-1329
229.252	-711
229.318	-1830
229.384	-1055
229.449	-1347
229.515	-2599
229.581	-1919
229.646	-136
229.712	-2205
229.777	-2171
229.843	-2423
229.909	-1666
229.974	-133
230.040	-1436
230.105	-1474
230.171	-1692
230.236	-1445
230.302	-1455
230.368	-1389
230.433	-2920
230.499	-2221
230.564	-368
230.630	-1909
230.695	-990
230.761	-1452
230.826	-2628
230.892	-755
230.957	-1239
231.023	-2077
231.088	-1341
231.154	-2349
231.219	-606
231.284	-2700
231.350	-967
231.415	-3143
231.481	-415
231.546	-1507
231.612	-1487
231.677	-2636
231.742	-1917
231.808	-494
231.873	-2091
231.939	-3177
232.004	-533
232.069	-1410
232.135	-2049
232.200	-2615
232.265	-325
232.331	-1498
232.396	-1041
232.461	-2302
232.527	-1824
232.592	-2009
232.657	-1607
232.723	-1680
232.788	-1664
232.853	-1976
232.918	-1409
232.984	-1877
233.049	-1080
233.114	-2142
233.179	-1544
233.245	-1806
233.310	-1481
233.375	-2279
233.440	-727
233.506	-2542
233.571	-1474
233.636	-2539
233.701	-1893
233.766	-2204
233.832	-394
233.897	-2126
233.962	-2446
234.027	-305
234.092	-1415
234.157	-2359
234.222	-1535
234.288	-1572
234.353	-2487
234.418	-1156
234.483	-438
234.548	-1756
234.613	-1845
234.678	-1279
234.743	-2265
234.808	-1390
234.873	-2041
234.938	-798
235.004	-915
235.069	-2165
235.134	-1675
235.199	-1347
235.264	-1593
235.329	-3228
235.394	-1112
235.459	-1390
235.524	-2253
235.589	-1200
235.654	-2006
235.719	-3202
235.784	-878
235.849	-1734
235.913	-1508
235.978	-2132
236.043	-1557
236.108	-1072
236.173	-2775
236.238	-1978
236.303	-2046
236.368	-2346
236.433	-1077
236.498	-2275
236.563	-993
236.627	-2765
236.692	-730
236.757	-1726
236.822	-1371
236.887	-2214
236.952	-491
237.017	-2817
237.081	-620
237.146	-2930
237.211	-300
237.276	-2185
237.341	-1194
237.405	-1733
237.470	-1695
237.535	-1781
237.600	-1019
237.664	-1378
237.729	-2436
237.794	-1984
237.859	-979
237.923	-2520
237.988	-1249
238.053	-873
238.118	-1951
238.182	-2816
238.247	-846
238.312	-3081
238.376	-1493
238.441	-2801
238.506	-370
238.570	-2706
238.635	-163
238.700	-1994
238.764	-2254
238.829	-2182
238.893	-2698
238.958	-1002
239.023	-1880
239.087	-1562
239.152	-1537
239.216	-2450
239.281	-1705
239.346	-1239
239.410	-1587
239.475	-2297
239.539	-873
239.604	-3080
239.668	-719
239.733	-2203
239.797	-413
239.862	-746
239.926	-335
239.991	-1006
240.055	-1446
240.120	-1931
240.184	-1344
240.249	-2818
240.313	-1730
240.378	-2161
240.442	-1108
240.507	-1261
240.571	-1145
240.635	-2141
240.700	-1949
240.764	-1965
240.829	-1453
240.893	-2425
240.957	-564
241.022	-1568
241.086	-1544
241.151	-2411
241.215	-2047
241.279	-1806
241.344	-1988
241.408	-1670
241.472	-1558
241.537	-1247
241.601	-830
241.665	-3027
241.730	-1811
241.794	-1680
241.858	-2642
241.922	-1676
241.987	-1002
242.051	-1944
242.115	-2186
242.179	-1799
242.244	-1728
242.308	-1237
242.372	-1535
242.436	-2412
242.501	-1021
242.565	-2804
242.629	-2223
242.693	-1177
242.757	-3277
242.822	-1786
242.886	-672
242.950	-1446
243.014	-2508
243.078	-1362
243.142	-1828
243.206	-2867
243.271	-1513
243.335	-2244
243.399	-1398
243.463	-2849
243.527	-1232
243.591	-2640
243.655	-1362
243.719	-2612
243.783	-1062
243.847	-2851
243.911	-682
243.975	-3164
244.040	-3531
244.104	-693
244.168	-1267
244.232	-2404
244.296	-1509
244.360	-1622
244.424	-2170
244.488	-2021
244.552	-1202
244.615	-3080
244.679	-1389
244.743	-2275
244.807	-2623
244.871	-1647
244.935	-1006
244.999	-2747
245.063	-1329
245.127	-1033
245.191	-1464
245.255	-1998
245.319	-1668
245.383	-2757
245.446	-1386
245.510	-3366
245.574	-1641
245.638	-1400
245.702	-2918
245.766	-1536
245.829	-404
245.893	-2577
245.957	-2690
246.021	-1623
246.085	-1614
246.149	-2270
246.212	-877
246.276	-3291
246.340	-2235
246.404	-1589
246.467	-622
246.531	-4114
246.595	-559
246.659	-824
246.722	-2811
246.786	-1958
246.850	-2282
246.913	-1697
246.977	-3094
247.041	-1915
247.104	-1870
247.168	-2236
247.232	-1908
247.295	-1658
247.359	-1168
247.423	-2460
247.486	-1551
247.550	-1627
247.614	-1810
247.677	-2130
247.741	-1699
247.804	-2223
247.868	-1309
247.932	-2726
247.995	-620
248.059	-2259
248.122	-2023
248.186	-1624
248.249	-1814
248.313	-1105
248.376	-794
248.440	-2932
248.503	-2849
248.567	-217
248.630	-2255
248.694	-1829
248.757	-1420
248.821	-2147
248.884	-505
248.948	-2968
249.011	-1586
249.075	-798
249.138	-984
249.202	-1874
249.265	-2279
249.328	-736
249.392	-2781
249.455	-1381
249.519	-1449
249.582	-2353
249.645	-1023
249.709	-2289
249.772	-1400
249.835	-1905
249.899	-2256
249.962	-1104
250.025	-2121
250.089	-2043
250.152	-529
250.215	-2119
250.279	-1768
250.342	-1673
250.405	-1853
250.468	-2356
250.532	-1936
250.595	-1385
250.658	-2397
250.721	-1019
250.785	-1803
250.848	-531
250.911	-2883
250.974	-1967
251.038	-1404
251.101	-1945
251.164	-1493
251.227	-1669
251.290	-2077
251.354	-2447
251.417	-1618
251.480	-1604
251.543	-1021
251.606	-1347
251.669	-1269
251.732	-1819
251.795	-1674
251.859	-1447
251.922	-1879
251.985	-1365
252.048	-1345
252.111	-1668
252.174	-2238
252.237	-1387
252.300	-534
252.363	-2665
252.426	-271
252.489	-2711
252.552	-994
252.615	-2762
252.678	-514
252.741	-1535
252.804	-1981
252.867	-1476
252.930	-1016
252.993	-2516
253.056	-841
253.119	-2055
253.182	-2101
253.245	-2477
253.308	-1074
253.371	-2888
253.434	-1628
253.497	-1612
253.559	-617
253.622	-2523
253.685	-1748
253.748	-2372
253.811	-1822
253.874	-1512
253.937	-2385
254.000	-2518
254.062	-1995
254.125	-2528
254.188	-887
254.251	-2723
254.314	-1619
254.376	-2904
254.439	-919
254.502	-2008
254.565	-1955
254.628	-1403
254.690	-1649
254.753	-2570
254.816	-1237
254.878	-2797
254.941	-885
255.004	-1824
255.067	-1216
255.129	-2282
255.192	-1209
255.255	-3165
255.317	-2137
255.380	-2259
255.443	-1905
255.505	-1984
255.568	-1665
255.631	-2121
255.693	-1313
255.756	-2810
255.819	-892
255.881	-3030
255.944	-2033
256.006	-1817
256.069	-2087
256.132	-2850
256.194	-1796
256.257	-1965
256.319	-1673
256.382	-2216
256.444	-1791
256.507	-2468
256.569	-1519
256.632	-2296
256.694	-2719
256.757	-1715
256.819	-1146
256.882	-2576
256.944	-2186
257.007	-1727
257.069	-1991
257.132	-2522
257.194	-855
257.257	-2570
257.319	-2679
257.381	-2312
257.444	-1563
257.506	-2080
257.569	-1665
257.631	-3287
257.693	-1329
257.756	-2181
257.818	-3140
257.880	-2276
257.943	-889
258.005	-3168
258.067	-1695
258.130	-1695
258.192	-2248
258.254	-3038
258.317	-1983
258.379	-2188
258.441	-1863
258.503	-1781
258.566	-2414
258.628	-1790
258.690	-1793
258.753	-1050
258.815	-1833
258.877	-2430
258.939	-1483
259.001	-2383
259.064	-2673
259.126	-2631
259.188	-1773
259.250	-1280
259.312	-2372
259.375	-3073
259.437	-2317
259.499	-1715
259.561	-1084
259.623	-2988
259.685	-2296
259.747	-2495
259.809	-1521
259.872	-1965
259.934	-1050
259.996	-1566
260.058	-1540
260.120	-2601
260.182	-1343
260.244	-2056
260.306	-1867
260.368	-1211
260.430	-2089
260.492	-2081
260.554	-1044
260.616	-2786
260.678	-1303
260.740	-2125
260.802	-2109
260.864	-1176
260.926	-1331
260.988	-1400
261.050	-2319
261.112	-2482
261.174	-865
261.236	-2512
261.298	-2227
261.359	-1578
261.421	-1347
261.483	-3000
261.545	-1131
261.607	-3071
261.669	-1398
261.731	-1801
261.793	-1075
261.854	-3521
261.916	-893
261.978	-2360
262.040	-1530
262.102	-1630
262.164	-2123
262.225	-2016
262.287	-1792
262.349	-2662
262.411	-1491
262.472	-1448
262.534	-2589
262.596	-2522
262.658	-1453
262.719	-2266
262.781	-1097
262.843	-2306
262.904	-943
262.966	-1303
263.028	-2322
263.090	-2385
263.151	-1296
263.213	-2372
263.275	-2706
263.336	-2258
263.398	-1477
263.459	-2554
263.521	-2327
263.583	-1937
263.644	-1752
263.706	-2294
263.767	-2681
263.829	-1307
263.891	-2117
263.952	-2562
264.014	-1813
264.075	-2450
264.137	-1587
264.198	-1974
264.260	-2391
264.321	-1875
264.383	-2100
264.444	-1781
264.506	-2589
264.567	-2359
264.629	-1181
264.690	-3157
264.752	-1503
264.813	-1209
264.875	-1713
264.936	-2385
264.998	-2362
265.059	-2284
265.120	-1792
265.182	-3380
265.243	-2373
265.305	-2482
265.366	-1518
265.427	-1866
265.489	-1401
265.550	-3232
265.611	-2297
265.673	-2381
265.734	-2330
265.795	-1675
265.857	-2276
265.918	-3128
265.979	-1442
266.040	-2489
266.102	-1398
266.163	-1989
266.224	-1724
266.286	-1795
266.347	-2405
266.408	-2422
266.469	-1677
266.530	-2615
266.592	-1991
266.653	-2547
266.714	-2572
266.775	-2116
266.836	-1113
266.898	-3011
266.959	-1675
267.020	-2297
267.081	-1336
267.142	-2403
267.203	-2265
267.264	-3063
267.326	-1405
267.387	-2670
267.448	-2078
267.509	-1928
267.570	-2145
267.631	-2184
267.692	-2154
267.753	-2135
267.814	-2244
267.875	-2537
267.936	-2127
267.997	-2421
268.058	-2215
268.119	-2098
268.180	-2180
268.241	-2740
268.302	-2147
268.363	-2265
268.424	-2215
268.485	-2285
268.546	-2204
268.607	-2058
268.668	-2354
268.729	-2270
268.790	-2141
268.851	-2154
268.912	-2097
268.972	-2071
269.033	-1980
269.094	-2817
269.155	-1968
269.216	-1634
269.277	-1684
269.338	-1946
269.398	-1908
269.459	-2954
269.520	-1703
269.581	-2370
269.642	-1205
269.702	-2532
269.763	-1587
269.824	-2411
269.885	-1647
269.945	-1584
270.006	-1705
270.067	-2793
270.128	-2523
270.188	-2745
270.249	-2373
270.310	-2559
270.370	-1256
270.431	-2311
270.492	-1587
270.553	-2155
270.613	-1973
270.674	-2017
270.734	-2204
270.795	-1643
270.856	-1909
270.916	-2151
270.977	-1831
271.038	-1860
271.098	-1125
271.159	-3037
271.219	-1919
271.280	-1922
271.340	-2110
271.401	-2891
271.462	-2031
271.522	-2217
271.583	-1988
271.643	-2399
271.704	-2207
271.764	-2843
271.825	-2298
271.885	-2172
271.946	-994
272.006	-2093
272.066	-1675
272.127	-1071
272.187	-276
272.248	-1924
272.308	-1702
272.369	-1214
272.429	-1672
272.489	-2007
272.550	-2469
272.610	-1648
272.671	-1727
272.731	-1525
272.791	-2587
272.852	-3156
272.912	-1503
272.972	-2351
273.033	-1000
273.093	-2680
273.153	-1225
273.214	-1630
273.274	-2173
273.334	-1460
273.394	-1531
273.455	-2786
273.515	-733
273.575	-2422
273.635	-1343
273.696	-2425
273.756	-1548
273.816	-2046
273.876	-1591
273.936	-2129
273.997	-1646
274.057	-2199
274.117	-2265
274.177	-1866
274.237	-1614
274.297	-2331
274.358	-1390
274.418	-2572
274.478	-1162
274.538	-3315
274.598	-2703
274.658	-1352
274.718	-1573
274.778	-2864
274.838	-1313
274.898	-2382
274.958	-1727
275.018	-1495
275.078	-1316
275.138	-1790
275.198	-2224
275.258	-2824
275.318	-806
275.378	-1651
275.438	-1660
275.498	-1965
275.558	-1205
275.618	-1981
275.678	-1848
275.738	-2029
275.798	-1941
275.858	-1978
275.918	-1637
275.978	-2765
276.038	-1748
276.098	-2162
276.157	-2197
276.217	-2048
276.277	-1897
276.337	-1649
276.397	-1886
276.457	-1968
276.517	-2215
276.576	-1789
276.636	-2336
276.696	-2092
276.756	-1542
276.815	-2382
276.875	-2142
276.935	-2370
276.995	-1875
277.055	-1985
277.114	-1866
277.174	-1651
277.234	-1514
277.293	-1717
277.353	-1504
277.413	-1674
277.472	-2242
277.532	-2221
277.592	-1549
277.651	-1817
277.711	136
277.771	-2122
277.830	732
277.890	-798
277.950	-460
278.009	1648
278.069	613
278.128	-497
278.188	330
278.248	-1347
278.307	-269
278.367	672
278.426	-1528
278.486	-1999
278.545	-1759
278.605	-1662
278.664	-1701
278.724	-2201
278.783	-1499
278.843	-1566
278.902	-1357
278.962	-1942
279.021	-793
279.081	-1166
279.140	-1379
279.199	-2437
279.259	-746
279.318	-1687
279.378	-1127
279.437	-1420
279.496	906
279.556	14623
279.615	10554
279.675	1343
279.734	-279
279.793	-883
279.853	391
279.912	-1503
279.971	-996
280.031	-381
280.090	-191
280.149	-314
280.208	-810
280.268	8924
280.327	10595
280.386	12
280.445	-769
280.505	-1971
280.564	-402
280.623	-1615
280.682	-1338
280.742	-1837
280.801	-1191
280.860	-1999
280.919	-1522
280.978	-2080
281.037	-1810
281.097	-2062
281.156	-952
281.215	-2143
281.274	-1353
281.333	-1441
281.392	-1526
281.451	-1765
281.510	-2199
281.569	-2350
281.628	-1223
281.688	-2101
281.747	-919
281.806	-1763
281.865	-1184
281.924	-2149
281.983	-1747
282.042	-2182
282.101	-2222
282.160	-1460
282.219	-2443
282.278	-2388
282.337	-1549
282.396	-2389
282.454	-1582
282.513	-1980
282.572	-1449
282.631	-2334
282.690	-1753
282.749	-2227
282.808	-1026
282.867	-1815
282.926	-1780
282.985	-2169
283.043	-1597
283.102	-2231
283.161	-1719
283.220	-1997
283.279	-1022
283.338	-2147
283.396	-2699
283.455	-2004
283.514	-1275
283.573	-1639
283.631	-1635
283.690	-2139
283.749	-1402
283.808	-2394
283.866	-1656
283.925	-2669
283.984	-1451
284.043	-933
284.101	-1576
284.160	-2725
284.219	-1097
284.277	-1310
284.336	-1826
284.395	-1372
284.453	-1148
284.512	-1347
284.570	-1129
284.629	-1785
284.688	-722
284.746	-821
284.805	-232
284.863	-515
284.922	621
284.981	607
285.039	3767
285.098	5108
285.156	11301
285.215	16622
285.273	15535
285.332	12118
285.390	8025
285.449	3397
285.507	3140
285.566	659
285.624	1217
285.683	-190
285.741	-536
285.799	-1542
285.858	-939
285.916	-530
285.975	-701
286.033	-1687
286.091	-1571
286.150	-2440
286.208	-152
286.267	-1500
286.325	-1466
286.383	-1542
286.442	-1658
286.500	-1678
286.558	-1131
286.616	-2588
286.675	-1063
286.733	-1729
286.791	-1056
286.850	-1659
286.908	-1272
286.966	-1899
287.024	-2003
287.083	-2350
287.141	-1405
287.199	-1023
287.257	-1465
287.315	-1191
287.374	-1765
287.432	-2046
287.490	-1077
287.548	-2012
287.606	-1164
287.664	-2077
287.723	-974
287.781	-1501
287.839	-1287
287.897	-2387
287.955	-1295
288.013	-2333
288.071	-1776
288.129	-2229
288.187	453
288.245	-798
288.303	-1160
288.361	-1595
288.419	-2274
288.477	-2539
288.535	-1559
288.593	-2205
288.651	-1770
288.709	-2562
288.767	-2094
288.825	-3226
288.883	-2008
288.941	-1811
288.999	-2102
289.057	-1944
289.115	-2020
289.173	-2604
289.231	-1734
289.289	-2425
289.346	-1001
289.404	-1817
289.462	-1218
289.520	-1643
289.578	-1811
289.636	-1939
289.694	-1784
289.751	-1446
289.809	-1610
289.867	-2104
289.925	-1469
289.983	-1488
290.040	-1997
290.098	-2143
290.156	-1762
290.214	-1776
290.271	-1476
290.329	-1447
290.387	-1693
290.444	-1689
290.502	-1824
290.560	-1882
290.617	-1233
290.675	-2278
290.733	-1351
290.790	-1853
290.848	-1210
290.906	-1994
290.963	-1769
291.021	-2464
291.078	-1399
291.136	-2463
291.194	-1685
291.251	-1807
291.309	-1543
291.366	-1639
291.424	-1506
291.481	-2466
291.539	-2171
291.596	-1584
291.654	-1315
291.711	-1198
291.769	-1301
291.826	-1830
291.884	-1386
291.941	-2369
291.999	-1923
292.056	-1423
292.114	-1622
292.171	-2072
292.228	-1062
292.286	-1981
292.343	-1533
292.401	-1579
292.458	-2065
292.515	-2259
292.573	-1060
292.630	-1741
292.687	-1327
292.745	-1434
292.802	-1904
292.859	-1753
292.917	-1035
292.974	-1718
293.031	-1443
293.089	-1954
293.146	-2454
293.203	-1427
293.260	-1589
293.318	-2602
293.375	-1977
293.432	-2762
293.489	-1533
293.546	-1898
293.604	-1741
293.661	-1688
293.718	-222
293.775	-1205
293.832	-1055
293.889	-1303
293.947	-1696
294.004	-2379
294.061	-1793
294.118	-2349
294.175	-1227
294.232	-2293
294.289	-1324
294.346	-1292
294.403	-1404
294.460	-2325
294.517	-1545
294.574	-2327
294.631	-1216
294.688	-2310
294.745	-1483
294.802	-1918
294.859	-699
294.916	-2240
294.973	-2004
295.030	-3025
295.087	-2819
295.144	-2152
295.201	-1963
295.258	-1935
295.315	-1726
295.372	-2336
295.429	-1562
295.486	-2035
295.542	-2095
295.599	-1916
295.656	-731
295.713	-2044
295.770	-1001
295.827	-1698
295.883	-1327
295.940	-2342
295.997	-1612
296.054	-2103
296.111	-1089
296.167	-2086
296.224	-2224
296.281	-1937
296.338	-2319
296.394	-2481
296.451	-1708
296.508	-2401
296.564	-1720
296.621	-1248
296.678	-993
296.734	-830
296.791	-1921
296.848	-1775
296.904	-2138
296.961	-2502
297.018	-1619
297.074	-1200
297.131	-2107
297.187	-1536
297.244	-1160
297.301	-1371
297.357	-59
297.414	-1749
297.470	-1897
297.527	-2637
297.583	-1637
297.640	-1906
297.696	-2461
297.753	-1297
297.809	-1531
297.866	-2721
297.922	-2120
297.979	-2837
298.035	-2291
298.092	-2971
298.148	-1846
298.204	-1584
298.261	-2238
298.317	-2041
298.374	-1131
298.430	-1176
298.486	-1832
298.543	-2423
298.599	-1271
298.656	-2264
298.712	-2652
298.768	-2651
298.824	-2118
298.881	-2798
298.937	-1352
298.993	-1519
299.050	-1615
299.106	-2255
299.162	-1837
299.218	-2181
299.275	-1018
299.331	-1686
299.387	-981
299.443	-922
299.500	987
299.556	1246
299.612	-319
299.668	-1043
299.724	1083
299.780	2571
299.837	143
299.893	-571
299.949	923
300.005	837
300.061	782
300.117	2223
300.173	1127
300.229	-1854
300.285	-975
300.341	-1900
300.397	-1564
300.453	-2275
300.510	-1387
300.566	-1576
300.622	-482
300.678	1619
300.734	4749
300.790	700
300.845	595
300.901	365
300.957	2341
301.013	-157
301.069	-700
301.125	-1385
301.181	-874
301.237	-1963
301.293	-2037
301.349	-1751
301.405	-2226
301.461	-1617
301.516	-2338
301.572	-2286
301.628	-1842
301.684	-2007
301.740	-1699
301.796	-1723
301.851	-2005
301.907	-1739
301.963	-1653
302.019	-1981
302.074	1038
302.130	919
302.186	-693
302.242	-1299
302.297	-1965
302.353	-2423
302.409	-1133
302.464	-2560
302.520	-2448
302.576	-1534
302.631	-903
302.687	-1491
302.743	-1717
302.798	-2201
302.854	-1509
302.910	-2072
302.965	-2295
303.021	-1826
303.076	-1504
303.132	-2491
303.187	-1882
303.243	-2599
303.299	-1769
303.354	-2119
303.410	-1352
303.465	-2294
303.521	-2282
303.576	-2133
303.632	-1824
303.687	-1678
303.743	-935
303.798	-1354
303.853	-1859
303.909	-1434
303.964	-1963
304.020	-2941
304.075	-2588
304.130	-2018
304.186	-1154
304.241	-604
304.297	-1236
304.352	-2173
304.358	-2140
304.407	-1870
304.449	-2411
304.463	-2598
304.518	-1890
304.539	-2052
304.573	-2310
304.629	-1671
304.630	-1684
304.684	-2278
304.720	-1428
304.739	-1007
304.794	-1079
304.811	-980
304.850	-762
304.902	-1406
304.905	-1450
304.960	-1119
304.992	-1819
305.015	-2335
305.071	-1660
305.083	-1776
305.126	-2147
305.173	-1936
305.181	-1900
305.236	-1998
305.264	-1496
305.292	-1009
305.347	-1969
305.354	-1816
305.402	-841
305.445	-1899
305.457	-2221
305.512	-1348
305.535	-1217
305.567	-942
305.622	-2089
305.626	-2061
305.678	-1643
305.716	-883
305.733	-594
305.788	-676
305.807	-859
305.843	-1018
305.897	-474
305.898	-470
305.953	-115
305.988	-778
306.008	-1122
306.063	-694
306.078	-1020
306.118	-1795
306.168	-1452
306.173	-1431
306.228	-1661
306.259	-1464
306.283	-1274
306.338	-1201
306.349	-1123
306.393	-779
306.440	-1176
306.448	-1244
306.503	-803
306.530	-1318
306.558	-1819
306.613	-1346
306.620	-1331
306.668	-1212
306.711	-685
306.723	-583
306.778	-1245
306.801	-989
306.833	-524
306.888	-988
306.892	-961
306.943	-582
306.982	-887
306.997	-1038
307.052	-996
307.072	-1122
307.107	-1198
307.162	-789
307.163	-795
307.217	-1037
307.253	-848
307.272	-754
307.327	-952
307.343	-870
307.381	-731
307.434	-991
307.436	-982
307.491	-452
307.524	-32
307.546	40
307.600	-301
307.614	-454
307.655	-726
307.704	-688
307.710	-678
307.765	-933
307.795	-826
307.819	-737
307.874	-1210
307.885	-1100
307.929	-527
307.975	-938
307.984	-954
308.038	229
308.065	302
308.093	602
308.148	1583
308.156	1820
308.202	3239
308.246	4632
308.257	4446
308.312	1674
308.336	675
308.366	457
308.421	-676
308.426	-693
308.475	-624
308.517	-509
308.530	-399
308.585	-137
308.607	-183
308.639	-534
308.694	-675
308.697	-678
308.748	-60
308.787	155
308.803	119
308.857	-243
308.877	-113
308.912	313
308.967	290
308.967	290
309.021	922
309.058	1137
309.076	1407
309.130	2541
309.148	2746
309.185	5420
309.238	10393
309.239	10445
309.293	12155
309.328	11942
309.348	10566
309.402	5272
309.418	3895
309.457	2954
309.508	2039
309.511	2032
309.566	2530
309.598	2618
309.620	3273
309.674	5706
309.688	6369
309.729	6608
309.778	5850
309.783	5703
309.837	3277
309.868	2241
309.892	2239
309.946	2005
309.959	2119
310.001	2174
310.049	1778
310.055	1713
310.109	1481
310.139	977
310.163	635
310.218	384
310.229	276
310.272	385
310.319	906
310.326	959
310.381	615
310.409	613
310.435	630
310.489	501
310.499	516
310.543	785
310.589	771
310.598	782
310.652	1183
310.679	1096
310.706	962
310.760	986
310.769	971
310.814	1010
310.859	997
310.868	1013
310.923	885
310.948	881
310.977	905
311.031	948
311.038	961
311.085	597
311.128	-93
311.139	30
311.193	959
311.218	1281
311.247	1033
311.301	661
311.308	590
311.356	645
311.398	781
311.410	854
311.464	1061
311.488	1183
311.518	1004
311.572	590
311.578	541
311.626	946
311.668	1177
311.680	1159
311.734	1168
311.758	1117
311.788	1080
311.842	1055
311.847	1039
311.896	1126
311.937	1199
311.950	1197
312.004	1131
312.027	1103
312.058	1101
312.112	1073
312.117	1064
312.165	1320
312.207	1526
312.297	129
312.386	1108
312.476	494
312.566	1302
312.656	1612
312.745	880
312.835	1914
312.925	1461
313.015	1355
313.104	1348
313.194	2081
313.284	1163
313.374	1370
313.463	1727
313.553	2048
313.643	1485
313.732	2732
313.822	1123
313.912	2321
314.001	2115
314.091	2961
314.180	2127
314.270	2508
314.360	2021
314.449	2986
314.539	1967
314.628	2876
314.718	2372
314.808	2324
314.897	2283
314.987	3355
315.076	2856
315.166	3466
315.255	3538
315.345	2888
315.434	2206
315.524	2871
315.613	1893
315.703	2765
315.792	5005
315.881	15746
315.971	5281
316.060	2440
316.150	2200
316.239	2141
316.328	1876
316.418	2229
316.507	2729
316.597	3269
316.686	3128
316.775	1863
316.865	2313
316.954	2327
317.043	2018
317.133	2057
317.222	1941
317.311	1428
317.400	1134
317.490	2499
317.579	2003
317.668	2351
317.757	2968
317.847	7647
317.936	22768
318.025	8105
318.114	6064
318.203	3274
318.293	3216
318.382	3559
318.471	4744
318.560	4359
318.649	4159
318.738	2040
318.828	1562
318.917	1109
319.006	1333
319.095	1922
319.184	2876
319.273	1874
319.362	1993
319.451	910
319.540	1169
319.629	1677
319.718	2047
319.807	1502
319.896	1107
319.985	2721
320.074	1737
320.163	1708
320.252	1123
320.341	2083
320.430	1458
320.519	2171
320.608	2352
320.697	2796
320.786	3331
320.875	4004
320.964	4521
321.053	4024
321.142	4501
321.230	5727
321.319	6239
321.408	7658
321.497	6573
321.586	5154
321.675	5127
321.764	3501
321.852	4806
321.941	4592
322.030	4081
322.119	4055
322.207	6204
322.296	6806
322.385	7814
322.474	8426
322.562	10005
322.651	7254
322.740	4934
322.829	4526
322.917	3053
323.006	3721
323.095	3093
323.183	2660
323.272	2571
323.361	2151
323.449	3410
323.538	2627
323.626	2525
323.715	2070
323.804	1286
323.892	1679
323.981	1386
324.069	1767
324.158	2168
324.246	1997
324.335	1885
324.424	2090
324.512	2137
324.601	1670
324.689	1394
324.778	2347
324.866	1519
324.954	1245
325.043	1549
325.131	531
325.220	2254
325.308	1458
325.397	1804
325.485	1556
325.574	1958
325.662	2030
325.750	1341
325.839	1608
325.927	1404
326.015	1355
326.104	883
326.192	1201
326.280	1528
326.369	1516
326.457	1578
326.545	1821
326.634	384
326.722	1230
326.810	1829
326.898	2013
326.987	1262
327.075	1498
327.163	2637
327.251	1035
327.340	1683
327.428	2924
327.516	3578
327.604	2184
327.692	1365
327.781	1322
327.869	1384
327.957	1242
328.045	471
328.133	1993
328.221	1153
328.309	1817
328.397	1511
328.485	1695
328.574	2868
328.662	4906
328.750	3012
328.838	1843
328.926	3136
329.014	1491
329.102	1468
329.190	1307
329.278	2019
329.366	1465
329.454	691
329.542	1221
329.630	1439
329.718	1872
329.806	700
329.893	1349
329.981	947
330.069	1585
330.157	1299
330.245	1816
330.333	1482
330.421	1584
330.509	955
330.597	2245
330.684	1409
330.772	1641
330.860	600
330.948	1301
331.036	1131
331.123	691
331.211	1072
331.299	589
331.387	882
331.475	1406
331.562	1330
331.650	1309
331.738	1345
331.825	1648
331.913	1191
332.001	1465
332.089	1166
332.176	1433
332.264	1057
332.352	1083
332.439	1361
332.527	2475
332.614	1003
332.702	1122
332.790	1711
332.877	1618
332.965	3194
333.052	1145
333.140	2603
333.228	2974
333.315	2145
333.403	1744
333.490	1647
333.578	1991
333.665	4973
333.753	2830
333.840	1522
333.928	2442
334.015	2860
334.103	3674
334.190	4828
334.278	6273
334.365	9704
334.452	10464
334.540	6294
334.627	6131
334.715	7670
334.802	9985
334.889	17796
334.977	26404
335.064	18087
335.151	7312
335.239	5752
335.326	4533
335.413	4257
335.501	4710
335.588	4921
335.675	4913
335.762	5911
335.850	8563
335.937	12196
336.024	20456
336.111	35564
336.199	34201
336.286	15082
336.373	8146
336.460	4317
336.547	5011
336.635	2982
336.722	3095
336.809	2955
336.896	2558
336.983	2640
337.070	3072
337.157	2910
337.245	1868
337.332	2817
337.419	2708
337.506	2714
337.593	1988
337.680	1905
337.767	2440
337.854	1817
337.941	1357
338.028	2197
338.115	1407
338.202	2046
338.289	1528
338.376	1612
338.463	1849
338.550	1744
338.637	2130
338.724	1888
338.811	2108
338.898	1819
338.984	1505
339.071	486
339.158	1940
339.245	1539
339.332	1744
339.419	1610
339.506	2079
339.593	1087
339.679	1850
339.766	1347
339.853	1828
339.940	1909
340.027	1068
340.113	1623
340.200	1563
340.287	1535
340.374	1297
340.460	2004
340.547	-164
340.634	1635
340.720	1268
340.807	573
340.894	961
340.980	1328
341.067	1623
341.154	2148
341.240	2248
341.327	2266
341.414	1766
341.500	409
341.587	1788
341.674	1532
341.760	1895
341.847	1939
341.933	1793
342.020	925
342.106	1780
342.193	2141
342.279	1274
342.366	2043
342.452	2015
342.539	1234
342.625	752
342.712	1679
342.798	1710
342.885	1244
342.971	926
343.058	875
343.144	1034
343.230	1781
343.317	1326
343.403	1345
343.490	1884
343.576	784
343.662	972
343.749	519
343.835	1603
343.921	1426
344.008	5359
344.094	11260
344.180	2761
344.267	1041
344.353	2372
344.439	2518
344.525	1609
344.612	1376
344.698	1476
344.784	798
344.870	801
344.957	851
345.043	1758
345.129	691
345.215	1335
345.301	331
345.387	1239
345.474	1372
345.560	1375
345.646	869
345.732	2483
345.818	1420
345.904	1322
345.990	677
346.076	1195
346.162	874
346.249	2304
346.335	793
346.421	1538
346.507	2022
346.593	3690
346.679	641
346.765	2221
346.851	3347
346.937	866
347.023	2718
347.108	1648
347.194	1101
347.280	1402
347.366	2539
347.452	7142
347.538	9008
347.624	6095
347.710	3471
347.796	1489
347.882	1616
347.967	1143
348.053	1730
348.139	1043
348.225	1066
348.311	1306
348.397	1786
348.482	2051
348.568	1097
348.654	2653
348.740	9767
348.825	8783
348.911	4145
348.997	2979
349.083	5011
349.168	1056
349.254	971
349.340	1735
349.425	1530
349.511	1576
349.597	1819
349.682	969
349.768	3539
349.854	1264
349.939	1885
350.025	993
350.110	391
350.196	1726
350.282	1809
350.367	2783
350.453	799
350.538	1749
350.624	576
350.709	2184
350.795	1292
350.880	1096
350.966	1614
351.051	1563
351.137	1544
351.222	1826
351.308	2276
351.393	2675
351.479	430
351.564	1391
351.649	1941
351.735	1183
351.820	1620
351.906	1856
351.991	945
352.076	815
352.162	1304
352.247	1344
352.332	1465
352.418	706
352.503	1197
352.588	2725
352.673	815
352.759	1790
352.844	424
352.929	923
353.014	1560
353.100	1962
353.185	1693
353.270	401
353.355	1860
353.441	1089
353.526	758
353.611	1237
353.696	817
353.781	2397
353.866	560
353.952	1403
354.037	700
354.122	1131
354.207	1468
354.292	446
354.377	1587
354.462	562
354.547	957
354.632	1785
354.717	2269
354.802	408
354.887	674
354.972	1146
355.057	2142
355.142	755
355.227	1634
355.312	1382
355.397	1103
355.482	1589
355.567	676
355.652	2571
355.737	1225
355.822	2834
355.907	1485
355.991	1717
356.076	647
356.161	1324
356.246	884
356.331	2468
356.416	785
356.501	5654
356.585	4465
356.670	673
356.755	3645
356.840	1953
356.924	3614
357.009	9787
357.094	4454
357.179	1074
357.263	1540
357.348	2231
357.433	1830
357.517	990
357.602	1294
357.687	1276
357.771	1322
357.856	1618
357.941	2179
358.025	4051
358.110	12299
358.195	6389
358.279	1265
358.364	1934
358.448	2183
358.533	4240
358.617	2443
358.702	3094
358.787	2671
358.871	1722
358.956	1771
359.040	2482
359.125	1737
359.209	1699
359.294	1758
359.378	3404
359.462	2941
359.547	1680
359.631	1670
359.716	578
359.800	1431
359.885	1927
359.969	469
360.053	2642
360.138	1684
360.222	1139
360.306	1596
360.391	1241
360.475	1763
360.559	1869
360.644	2219
360.728	1051
360.812	3865
360.896	7405
360.981	2607
361.065	1432
361.149	2210
361.233	1723
361.318	1404
361.402	1694
361.486	2690
361.570	2113
361.654	1333
361.739	1971
361.823	4551
361.907	9179
361.991	3405
362.075	3602
362.159	5046
362.243	10549
362.327	25214
362.411	41285
362.495	15340
362.580	6840
362.664	5418
362.748	5514
362.832	10474
362.916	20707
363.000	62197
363.084	94044
363.168	37928
363.252	11248
363.336	6733
363.420	5351
363.503	4575
363.587	3859
363.671	3444
363.755	2600
363.839	5334
363.923	4085
364.007	5931
364.091	7026
364.175	10874
364.258	27267
364.342	65759
364.426	125072
364.510	69489
364.594	22012
364.677	11372
364.761	8933
364.845	7813
364.929	3438
365.013	3393
365.096	2729
365.180	1451
365.264	2065
365.347	4045
365.431	2206
365.515	649
365.598	1533
365.682	3827
365.766	1461
365.849	1775
365.933	1510
366.017	3575
366.100	1934
366.184	1291
366.267	3274
366.351	1908
366.435	1865
366.518	1598
366.602	2100
366.685	1401
366.769	1544
366.852	1806
366.936	2080
367.019	1829
367.103	452
367.186	2702
367.270	2283
367.353	1568
367.436	2750
367.520	2269
367.603	2478
367.687	1660
367.770	2191
367.853	4144
367.937	4049
368.020	4369
368.104	1561
368.187	2162
368.270	2316
368.353	2108
368.437	1208
368.520	2142
368.603	2322
368.687	2108
368.770	3853
368.853	1485
368.936	1808
369.020	1872
369.103	1216
369.186	988
369.269	1454
369.352	2390
369.436	1372
369.519	1796
369.602	-190
369.685	3366
369.768	1065
369.851	2194
369.934	1369
370.018	1287
370.101	1315
370.184	4047
370.267	2156
370.350	1400
370.433	2316
370.516	4518
370.599	11531
370.682	2995
370.765	3302
370.848	3565
370.931	3275
371.014	3346
371.097	130
371.180	2656
371.263	1732
371.346	748
371.429	2432
371.511	1824
371.594	1545
371.677	1998
371.760	2807
371.843	2214
371.926	6543
372.009	13028
372.091	7331
372.174	3703
372.257	5467
372.340	3150
372.423	3287
372.505	3673
372.588	1124
372.671	3602
372.754	3300
372.836	3094
372.919	2095
373.002	3107
373.085	1478
373.167	3324
373.250	3038
373.332	5064
373.415	9243
373.498	13652
373.580	7815
373.663	15475
373.746	17389
373.828	4331
373.911	2917
373.993	2214
374.076	2953
374.159	2369
374.241	2720
374.324	4000
374.406	3926
374.489	4755
374.571	12333
374.654	5454
374.736	3969
374.819	7775
374.901	12280
374.983	11531
375.066	3953
375.148	3612
375.231	4229
375.313	4496
375.395	3143
375.478	3196
375.560	3361
375.643	3512
375.725	4538
375.807	8349
375.890	7262
375.972	1898
376.054	3200
376.136	2591
376.219	2425
376.301	4305
376.383	6307
376.465	3368
376.548	2602
376.630	2256
376.712	5948
376.794	3092
376.877	2404
376.959	1028
377.041	2582
377.123	983
377.205	2133
377.287	717
377.369	2471
377.452	1813
377.534	2276
377.616	1794
377.698	2760
377.780	866
377.862	1947
377.944	2829
378.026	881
378.108	1769
378.190	1788
378.272	2733
378.354	1813
378.436	1603
378.518	1148
378.600	2342
378.682	1778
378.764	2220
378.846	2892
378.928	1619
379.010	1975
379.091	2657
379.173	2216
379.255	318
379.337	1683
379.419	1721
379.501	4325
379.583	1904
379.664	2127
379.746	555
379.828	3497
379.910	1990
379.991	4107
380.073	918
380.155	1462
380.237	1271
380.318	1049
380.400	1329
380.482	1973
380.564	1714
380.645	1638
380.727	1347
380.809	2641
380.890	1313
380.972	841
381.053	1421
381.135	2672
381.217	1037
381.298	3857
381.380	1807
381.461	1888
381.543	4680
381.624	5809
381.706	2785
381.787	1930
381.869	2829
381.951	3826
382.032	10162
382.113	8833
382.195	671
382.276	3648
382.358	2353
382.439	6153
382.521	7226
382.602	10699
382.684	6117
382.765	7216
382.846	13912
382.928	32479
383.009	17610
383.090	13352
383.172	44009
383.253	64045
383.334	18423
383.416	11306
383.497	7449
383.578	6426
383.659	10930
383.741	39391
383.822	91902
383.903	46058
383.984	11157
384.066	10492
384.147	6788
384.228	5078
384.309	3888
384.390	3154
384.471	3604
384.553	3698
384.634	2979
384.715	3192
384.796	1940
384.877	2032
384.958	3664
385.039	3111
385.120	2315
385.201	3597
385.282	2026
385.363	3203
385.444	3302
385.525	3972
385.606	6732
385.687	6200
385.768	3212
385.849	2640
385.930	7650
386.011	12773
386.092	4688
386.173	3596
386.254	3540
386.335	4928
386.416	3251
386.496	3286
386.577	4614
386.658	2715
386.739	2882
386.820	4613
386.901	2429
386.981	4049
387.062	4883
387.143	4766
387.224	6277
387.304	7994
387.385	8059
387.466	5196
387.547	7502
387.627	6902
387.708	7868
387.789	9219
387.869	8864
387.950	6320
388.031	4283
388.111	1578
388.192	4543
388.273	4854
388.353	3980
388.434	2832
388.514	3614
388.595	7159
388.676	7226
388.756	3995
388.837	4288
388.917	2551
388.998	920
389.078	3375
389.159	2967
389.239	1445
389.320	3778
389.400	1057
389.480	4252
389.561	3515
389.641	3316
389.722	3206
389.802	1250
389.883	3218
389.963	5539
390.043	4155
390.124	1164
390.204	2829
390.284	3750
390.365	3201
390.445	3156
390.525	3305
390.605	2977
390.686	2065
390.766	3411
390.846	3229
390.927	2130
391.007	1857
391.087	3257
391.167	2578
391.247	2043
391.328	2709
391.408	2557
391.488	3786
391.568	1533
391.648	1506
391.728	2887
391.808	4357
391.888	3346
391.969	4270
392.049	3697
392.129	4547
392.209	4587
392.289	6807
392.369	6144
392.449	5279
392.529	5404
392.609	7064
392.689	8189
392.769	9116
392.849	11650
392.929	14466
393.009	19090
393.089	26384
393.169	47763
393.248	104141
393.328	211846
393.408	215647
393.488	109893
393.568	46742
393.648	25286
393.728	15633
393.807	11042
393.887	9897
393.967	7791
394.047	6218
394.127	4379
394.206	4866
394.286	6175
394.366	16168
394.446	18270
394.525	5754
394.605	3124
394.685	3537
394.764	5104
394.844	8626
394.924	12499
395.003	5337
395.083	3062
395.163	3158
395.242	2022
395.322	3162
395.402	2117
395.481	3906
395.561	3930
395.640	14619
395.720	32040
395.799	14534
395.879	5146
395.958	4097
396.038	7139
396.117	23165
396.197	26630
396.276	8899
396.356	6164
396.435	7749
396.515	11918
396.594	16836
396.673	34512
396.753	96237
396.832	194166
396.912	151871
396.991	53967
397.070	24636
397.150	13155
397.229	13548
397.308	24390
397.388	47776
397.467	22868
397.546	7750
397.625	3475
397.705	5853
397.784	4993
397.863	3959
397.942	4095
398.022	3366
398.101	3297
398.180	3589
398.259	2417
398.338	3158
398.417	2109
398.497	2395
398.576	3060
398.655	1251
398.734	2644
398.813	1886
398.892	3568
398.971	2583
399.050	1382
399.129	593
399.208	1758
399.287	2412
399.366	709
399.445	1403
399.524	1959
399.603	614
399.682	1848
399.761	1419
399.840	3226
399.919	2774
399.998	1043
400.077	765
400.156	1100
400.235	3726
400.313	988
400.392	1128
400.471	2379
400.550	2642
400.629	343
400.708	1155
400.786	476
400.865	847
400.944	205
401.023	2970
401.102	28
401.180	1041
401.259	1329
401.338	427
401.416	1101
401.495	170
401.574	1434
401.652	292
401.731	1562
401.810	791
401.888	460
401.967	-225
402.046	895
402.124	1548
402.203	-29
402.281	1668
402.360	831
402.438	1350
402.517	-536
402.596	1198
402.674	1408
402.753	784
402.831	1259
402.910	1786
402.988	61
403.066	1807
403.145	2614
403.223	2021
403.302	1309
403.380	965
403.459	1966
403.537	1751
403.615	990
403.694	-47
403.772	1512
403.850	1540
403.929	926
404.007	315
404.085	1463
404.164	613
404.242	286
404.320	2345
404.398	2866
404.477	2360
404.555	6833
404.633	5938
404.711	2405
404.789	1620
404.868	826
404.946	228
405.024	870
405.102	783
405.180	-59
405.258	-752
405.336	1305
405.415	255
405.493	531
405.571	1402
405.649	443
405.727	-137
405.805	1913
405.883	1617
405.961	1811
406.039	-104
406.117	-333
406.195	1784
406.273	80
406.351	4060
406.429	2757
406.507	-39
406.585	82
406.663	93
406.740	292
406.818	-1117
406.896	-125
406.974	480
407.052	-620
407.130	1870
407.208	3093
407.285	1605
407.363	-746
407.441	658
407.519	445
407.596	216
407.674	1588
407.752	6905
407.830	5582
407.907	1003
407.985	-600
408.063	163
408.141	757
408.218	1277
408.296	-504
408.373	380
408.451	1189
408.529	1279
408.606	830
408.684	1630
408.762	2057
408.839	1835
408.917	2289
408.994	1693
409.072	1270
409.149	3323
409.227	6748
409.304	9446
409.382	8994
409.459	11238
409.537	14200
409.614	13127
409.692	8499
409.769	8505
409.846	14896
409.924	18847
410.001	11823
410.079	7857
410.156	5898
410.233	3457
410.311	3076
410.388	2763
410.465	2644
410.543	2029
410.620	3783
410.697	3068
410.775	2469
410.852	1586
410.929	3595
411.006	3376
411.083	2299
411.161	2428
411.238	2734
411.315	1975
411.392	1659
411.469	2085
411.547	1841
411.624	8
411.701	456
411.778	1195
411.855	971
411.932	-16
412.009	569
412.086	1269
412.163	1277
412.240	997
412.317	1220
412.394	690
412.471	1222
412.548	489
412.625	731
412.702	587
412.779	993
412.856	999
412.933	432
413.010	696
413.087	1317
413.164	235
413.241	1564
413.318	107
413.395	1295
413.471	108
413.548	235
413.625	726
413.702	230
413.779	522
413.855	413
413.932	-126
414.009	-487
414.086	371
414.162	947
414.239	-55
414.316	1465
414.393	2353
414.469	126
414.546	346
414.623	929
414.699	725
414.776	-238
414.853	-237
414.929	882
415.006	358
415.082	892
415.159	672
415.236	-292
415.312	1213
415.389	1042
415.465	-877
415.542	273
415.618	-348
415.695	1143
415.771	-848
415.848	-875
415.924	578
416.000	304
416.077	946
416.153	-1285
416.230	-121
416.306	2
416.383	687
416.459	362
416.535	262
416.612	-285
416.688	-22
416.764	-655
416.841	-532
416.917	-742
416.993	91
417.069	-148
417.146	-409
417.222	-106
417.298	-264
417.374	-344
417.451	421
417.527	-783
417.603	-1087
417.679	558
417.755	-133
417.831	-637
417.908	525
417.984	262
418.060	-938
418.136	701
418.212	294
418.288	302
418.364	396
418.440	-599
418.516	281
418.592	-174
418.668	870
418.744	906
418.820	437
418.896	421
418.972	-342
419.048	909
419.124	1197
419.200	-279
419.276	259
419.352	85
419.428	1148
419.504	226
419.579	787
419.655	1279
419.731	903
419.807	906
419.883	606
419.959	1534
420.034	851
420.110	1537
420.186	1837
420.262	1752
420.337	1555
420.413	1999
420.489	2329
420.565	3785
420.640	2172
420.716	3376
420.792	1992
420.867	4677
420.943	2174
421.019	3096
421.094	4377
421.170	4687
421.245	4850
421.321	4651
421.397	4919
421.472	7791
421.548	9643
421.623	9897
421.699	9749
421.774	10227
421.850	10837
421.925	14521
422.001	17204
422.076	20332
422.152	26573
422.227	35512
422.302	49855
422.378	68815
422.453	100929
422.529	136069
422.604	128864
422.679	89488
422.755	125440
422.830	142161
422.905	108354
422.981	75538
423.056	53562
423.131	40277
423.207	30634
423.282	24282
423.357	20908
423.432	15696
423.508	14094
423.583	11010
423.658	10491
423.733	9563
423.808	8130
423.883	7926
423.959	7657
424.034	10048
424.109	10089
424.184	5822
424.259	5003
424.334	4597
424.409	3647
424.484	3599
424.559	3012
424.634	3030
424.709	2271
424.784	3259
424.859	2566
424.934	2578
425.009	1835
425.084	2634
425.159	1802
425.234	2988
425.309	1231
425.384	2069
425.459	558
425.534	2309
425.609	1224
425.683	1116
425.758	1379
425.833	1247
425.908	2513
425.983	658
426.058	2127
426.132	1372
426.207	1199
426.282	1845
426.357	-46
426.431	989
426.506	908
426.581	875
426.655	1072
426.730	838
426.805	204
426.879	989
426.954	273
427.029	483
427.103	1322
427.178	3588
427.253	1969
427.327	582
427.402	416
427.476	317
427.551	377
427.625	525
427.700	1388
427.774	297
427.849	795
427.923	172
427.998	444
428.072	1310
428.147	4111
428.221	16493
428.296	53139
428.370	29980
428.444	4249
428.519	1743
428.593	813
428.667	511
428.742	1625
428.816	5605
428.890	30856
428.965	49016
429.039	12656
429.113	2300
429.188	209
429.262	1323
429.336	75
429.410	940
429.485	980
429.559	442
429.633	1009
429.707	1161
429.781	4681
429.855	29075
429.930	43487
430.004	11567
430.078	5968
430.152	19194
430.226	68731
430.300	69828
430.374	16504
430.448	4610
430.522	1987
430.596	2801
430.670	9175
430.744	39428
430.818	44469
430.892	8407
430.966	617
431.040	1095
431.114	-271
431.188	-375
431.262	-777
431.336	5
431.410	103
431.484	-302
431.557	556
431.631	258
431.705	2559
431.779	13037
431.853	48854
431.927	34878
432.000	5088
432.074	1609
432.148	-359
432.222	-115
432.295	-197
432.369	-69
432.443	-750
432.516	756
432.590	1089
432.664	414
432.737	-1098
432.811	-1270
432.885	-172
432.958	-1020
433.032	-1066
433.106	-1087
433.179	-713
433.253	-931
433.326	-945
433.400	-371
433.473	-586
433.547	-1903
433.620	-309
433.694	-1083
433.767	-635
433.841	-823
433.914	-506
433.988	-194
434.061	-629
434.134	-1005
434.208	-176
434.281	-818
434.355	-750
434.428	-287
434.501	-660
434.575	-1244
434.648	-1164
434.721	-1229
434.795	-1183
434.868	-1091
434.941	-698
435.014	-664
435.088	-705
435.161	-640
435.234	524
435.307	231
435.381	462
435.454	2570
435.527	6981
435.600	6839
435.673	5378
435.746	3029
435.819	1432
435.892	1129
435.966	209
436.039	-437
436.112	-110
436.185	28
436.258	-81
436.331	-981
436.404	-571
436.477	-1005
436.550	-899
436.623	25
436.696	-684
436.769	-74
436.842	-1082
436.915	-1876
436.987	-808
437.060	-1096
437.133	56
437.206	-1379
437.279	-686
437.352	-722
437.425	-971
437.498	-87
437.570	-1314
437.643	-1005
437.716	-885
437.789	-649
437.861	-1186
437.934	-527
438.007	-619
438.080	-1386
438.152	-1208
438.225	-428
438.298	441
438.370	4777
438.443	1317
438.516	-1220
438.588	-116
438.661	-1208
438.734	-1140
438.806	-1405
438.879	234
438.951	-912
439.024	-182
439.096	-845
439.169	-34
439.241	-598
439.314	-664
439.386	-963
439.459	-479
439.531	-448
439.604	-738
439.676	-612
439.749	-531
439.821	-845
439.893	-643
439.966	-747
440.038	-547
440.110	-217
440.183	-901
440.255	-551
440.327	200
440.400	-343
440.472	2202
440.544	546
440.617	-593
440.689	175
440.761	-24
440.833	-374
440.905	95
440.978	-399
441.050	-521
441.122	-2
441.194	-919
441.266	-1125
441.338	-1005
441.411	-897
441.483	-437
441.555	-116
441.627	-764
441.699	-194
441.771	-614
441.843	-290
441.915	-241
441.987	-498
442.059	491
442.131	448
442.203	1520
442.275	1699
442.347	3762
442.419	8485
442.491	41116
442.563	85903
442.635	36525
442.706	7143
442.778	2930
442.850	1662
442.922	1895
442.994	1104
443.066	1770
443.137	1839
443.209	3859
443.281	6181
443.353	13918
443.425	47216
443.496	123951
443.568	129976
443.640	58571
443.711	13333
443.783	6150
443.855	3572
443.926	1900
443.998	1351
444.070	515
444.141	449
444.213	-214
444.285	507
444.356	409
444.428	259
444.499	88
444.571	468
444.642	88
444.714	462
444.785	853
444.857	545
444.928	653
445.000	1173
445.071	2640
445.143	3186
445.214	6483
445.285	10754
445.357	27642
445.428	85411
445.500	143891
445.571	122779
445.642	85483
445.714	32259
445.785	10493
445.856	3710
445.928	2334
445.999	1701
446.070	303
446.141	427
446.213	409
446.284	-710
446.355	1
446.426	-105
446.497	-363
446.569	-1120
446.640	-557
446.711	-405
446.782	-1156
446.853	-846
446.924	-320
446.995	-396
447.066	-1145
447.138	-339
447.209	-528
447.280	-1552
447.351	-672
447.422	-1005
447.493	-387
447.564	-762
447.635	-1279
447.706	-963
447.777	-1062
447.847	-1311
447.918	-1616
447.989	-1180
448.060	-1237
448.131	-909
448.202	-614
448.273	-1076
448.344	-950
448.414	-999
448.485	-1957
448.556	-860
448.627	-715
448.698	-579
448.768	-1266
448.839	-1567
448.910	-1481
448.981	-357
449.051	-1275
449.122	-1100
449.193	-750
449.263	-1572
449.334	-1644
449.405	-1108
449.475	-1695
449.546	-952
449.616	-516
449.687	-1
449.758	-586
449.828	-1113
449.899	-1933
449.969	-1955
450.040	-1419
450.110	-518
450.181	-1602
450.251	-1658
450.322	-968
450.392	-674
450.463	-1252
450.533	-717
450.604	-1422
450.674	-1227
450.744	-113
450.815	-535
450.885	76
450.955	-804
451.026	-761
451.096	-1206
451.166	-514
451.237	-140
451.307	232
451.377	217
451.447	-830
451.518	-769
451.588	-826
451.658	-451
451.728	-187
451.799	-991
451.869	-512
451.939	-662
452.009	-392
452.079	-897
452.149	-998
452.219	-1121
452.289	-352
452.360	-1281
452.430	-597
452.500	-153
452.570	662
452.640	5116
452.710	15992
452.780	16221
452.850	7522
452.920	2485
452.990	1402
453.060	589
453.129	-579
453.199	-607
453.269	-496
453.339	-305
453.409	-123
453.479	-439
453.549	15
453.619	-707
453.688	-722
453.758	-935
453.828	-965
453.898	-1463
453.968	-1260
454.037	-167
454.087	-902
454.107	-1212
454.168	-731
454.177	-680
454.247	-1496
454.249	-1474
454.316	-1212
454.330	-1149
454.386	-962
454.411	-975
454.456	-1049
454.492	-1081
454.525	-1134
454.574	-414
454.595	-84
454.655	-1001
454.665	-1175
454.734	-469
454.736	-467
454.804	-917
454.817	-745
454.873	-97
454.898	-525
454.943	-1259
454.979	-1013
455.013	-885
455.060	-667
455.082	-549
455.141	-661
455.152	-718
455.221	-713
455.222	-707
455.291	-804
455.303	-716
455.360	-383
455.384	-313
455.430	-250
455.465	-500
455.499	-890
455.546	-344
455.569	1
455.627	79
455.638	91
455.707	-812
455.708	-796
455.777	-764
455.789	-684
455.846	-370
455.869	-560
455.916	-892
455.950	-749
455.985	-677
456.031	-835
456.054	-889
456.112	77
456.124	239
456.193	-480
456.193	-493
456.262	-430
456.274	-241
456.332	457
456.355	86
456.401	-522
456.436	-306
456.470	-134
456.516	-227
456.540	-322
456.597	-438
456.609	-462
456.678	-127
456.678	-139
456.747	-290
456.759	-316
456.817	-344
456.840	-54
456.886	379
456.920	159
456.955	-81
457.001	137
457.024	280
457.082	856
457.093	945
457.162	529
457.163	543
457.232	322
457.243	378
457.301	873
457.324	751
457.370	505
457.405	763
457.439	1038
457.485	877
457.508	763
457.566	1353
457.577	1557
457.646	2699
457.647	2729
457.715	8048
457.727	9224
457.784	16095
457.808	22247
457.853	29934
457.889	34943
457.922	35525
457.969	23178
457.991	22448
458.050	26374
458.060	27114
458.129	48831
458.130	49447
458.198	50374
458.211	44816
458.267	24600
458.292	17061
458.336	10245
458.372	9372
458.405	12894
458.453	20317
458.474	25492
458.533	46619
458.543	48118
458.611	77541
458.614	77783
458.680	48859
458.694	38532
458.749	16479
458.775	11415
458.818	5791
458.855	4558
458.887	3785
458.936	2979
458.955	2692
459.016	1982
459.024	1899
459.093	2096
459.097	2082
459.162	1783
459.177	1790
459.230	1833
459.257	1921
459.299	1962
459.338	1857
459.368	1748
459.418	1441
459.437	1271
459.499	890
459.505	902
459.574	1170
459.579	1230
459.643	1681
459.659	1676
459.711	1621
459.740	1650
459.780	1630
459.820	1538
459.849	1298
459.900	1309
459.917	1488
459.981	1377
459.986	1341
460.054	1379
460.061	1400
460.123	1490
460.141	1548
460.191	1700
460.222	1481
460.260	1233
460.302	1375
460.328	1516
460.382	2019
460.397	2110
460.462	1368
460.465	1381
460.534	2784
460.543	2935
460.602	7760
460.623	9942
460.671	16107
460.703	21555
460.739	19586
460.783	14730
460.808	12675
460.864	3761
460.876	2931
460.944	2003
460.945	1985
461.013	1826
461.024	1737
461.081	1671
461.104	1615
461.150	760
461.184	653
461.218	1337
461.264	1822
461.286	1771
461.345	1566
461.355	1560
461.423	1757
461.425	1756
461.491	1368
461.505	1409
461.559	1782
461.585	1680
461.628	1683
461.665	1827
461.696	1951
461.745	2347
461.764	2319
461.825	1709
461.832	1695
461.901	2065
461.905	2066
461.969	1356
461.985	1283
462.037	2538
462.065	3179
462.105	2394
462.145	1518
462.173	1823
462.225	2327
462.241	2234
462.305	1985
462.310	2012
462.378	2426
462.385	2447
462.446	1732
462.465	1548
462.514	1973
462.545	2247
462.582	2135
462.625	2021
462.650	2003
462.705	2037
462.718	2053
462.785	2053
462.786	2044
462.854	1516
462.865	1362
462.922	1681
462.945	1989
462.990	1748
463.025	1347
463.058	1562
463.104	2200
463.126	2148
463.184	1595
463.194	1568
463.262	1438
463.264	1438
463.330	1667
463.344	1693
463.398	1954
463.424	1979
463.466	1712
463.504	1736
463.533	2174
463.583	2696
463.601	2638
463.663	2473
463.669	2436
463.737	1880
463.743	1847
463.805	2320
463.823	2438
463.873	2504
463.903	2500
463.940	2688
463.982	2948
464.008	2599
464.062	1614
464.076	1675
464.142	2230
464.144	2224
464.211	1654
464.221	1621
464.279	1939
464.301	1920
464.347	1998
464.381	2207
464.414	2084
464.461	1792
464.482	1920
464.540	2245
464.550	2218
464.617	1857
464.620	1853
464.685	2291
464.699	2341
464.753	2400
464.779	2399
464.820	2612
464.859	2811
464.888	2408
464.938	1836
464.956	2212
465.018	3342
465.023	3306
465.091	2706
465.098	2656
465.158	2522
465.177	2471
465.226	2768
465.257	2910
465.293	2561
465.336	2213
465.361	2452
465.416	2994
465.428	3008
465.495	2870
465.496	2877
465.563	2996
465.575	3003
465.631	2499
465.654	2318
465.698	2515
465.734	2608
465.765	2711
465.813	2872
465.833	2765
465.893	2466
465.900	2456
465.968	2167
465.972	2153
466.035	2670
466.052	2792
466.102	2476
466.131	2247
466.170	2367
466.210	2489
466.237	2629
466.290	2968
466.304	2948
466.369	2733
466.372	2735
466.439	2668
466.449	2644
466.506	2859
466.528	2952
466.573	3224
466.607	3399
466.641	3384
466.687	3392
466.708	3304
466.766	2950
466.775	3046
466.842	3768
466.845	3794
466.909	3179
466.925	3012
466.977	2788
467.004	2670
467.044	3069
467.083	3469
467.111	3340
467.163	3068
467.178	2983
467.242	2610
467.245	2631
467.312	2996
467.321	3042
467.379	3251
467.400	3318
467.446	3651
467.480	3882
467.559	3492
467.638	3352
467.717	3456
467.796	3762
467.875	2975
467.955	3093
468.034	3954
468.113	4553
468.192	5373
468.271	7095
468.350	9352
468.429	14901
468.508	15553
468.588	9202
468.667	5542
468.746	4644
468.825	3742
468.904	4853
468.983	3751
469.062	3069
469.141	3150
469.220	3210
469.299	3835
469.378	3390
469.456	3532
469.535	3631
469.614	3593
469.693	3374
469.772	3778
469.851	4157
469.930	2798
470.009	3670
470.088	3115
470.166	5605
470.245	7236
470.324	7617
470.403	5841
470.482	3914
470.560	4204
470.639	3992
470.718	3167
470.797	3362
470.875	3253
470.954	3168
471.033	3588
471.111	3841
471.190	4074
471.269	2903
471.347	2879
471.426	2917
471.505	2989
471.583	3159
471.662	2600
471.740	3181
471.819	3648
471.898	3498
471.976	3254
472.055	3193
472.133	3252
472.212	3627
472.290	2883
472.369	3042
472.447	3539
472.526	3255
472.604	3283
472.683	3796
472.761	3508
472.839	3137
472.918	4028
472.996	2826
473.075	3604
473.153	3462
473.231	3468
473.310	3485
473.388	2253
473.466	3011
473.545	3307
473.623	3179
473.701	3193
473.780	3668
473.858	2514
473.936	5420
474.014	3172
474.093	3741
474.171	4012
474.249	3455
474.327	4151
474.405	3462
474.484	3863
474.562	2907
474.640	2870
474.718	3613
474.796	3071
474.874	4395
474.952	3466
475.030	2738
475.108	3689
475.187	3264
475.265	3626
475.343	3501
475.421	3584
475.499	3444
475.577	3593
475.655	3778
475.733	3814
475.811	3962
475.889	3508
475.966	4210
476.044	3054
476.122	3319
476.200	3120
476.278	3425
476.356	3324
476.434	3817
476.512	3542
476.590	3808
476.667	3637
476.745	3064
476.823	4634
476.901	3225
476.979	2966
477.056	2769
477.134	2732
477.212	3723
477.290	3252
477.367	2681
477.445	3324
477.523	3450
477.601	3456
477.678	3085
477.756	3668
477.834	3586
477.911	2860
477.989	2814
478.066	3315
478.144	3848
478.222	3303
478.299	3839
478.377	3326
478.454	4101
478.532	3176
478.609	3431
478.687	3352
478.764	2680
478.842	3005
478.919	3864
478.997	3453
479.074	3268
479.152	3779
479.229	2799
479.307	2845
479.384	3460
479.461	3326
479.539	3683
479.616	3081
479.694	3145
479.771	3941
479.848	3095
479.926	1509
480.003	4367
480.080	3840
480.157	3903
480.235	3003
480.312	3722
480.389	3999
480.467	3529
480.544	3570
480.621	3795
480.698	3651
480.775	3340
480.853	3835
480.930	3895
481.007	3397
481.084	3896
481.161	3945
481.238	3595
481.315	3011
481.392	3602
481.470	2712
481.547	2647
481.624	3094
481.701	3973
481.778	3509
481.855	3879
481.932	4262
482.009	5619
482.086	4248
482.163	4881
482.240	5280
482.317	5479
482.393	4748
482.470	4645
482.547	4264
482.624	3885
482.701	4179
482.778	3414
482.855	3008
482.932	3657
483.009	2983
483.085	4232
483.162	4307
483.239	6041
483.316	4834
483.393	5700
483.469	3710
483.546	5154
483.623	3843
483.699	3897
483.776	3665
483.853	3958
483.930	3307
484.006	3464
484.083	4267
484.160	3512
484.236	4103
484.313	4150
484.389	3076
484.466	6259
484.543	4991
484.619	7829
484.696	9399
484.772	6267
484.849	5018
484.925	4573
485.002	3972
485.078	4978
485.155	3799
485.231	3167
485.308	3417
485.384	3914
485.461	4367
485.537	3082
485.614	3732
485.690	3038
485.766	3127
485.843	2944
485.919	3807
485.995	3900
486.072	3744
486.148	3549
486.224	2843
486.301	3280
486.377	3256
486.453	2895
486.530	3651
486.606	5113
486.682	4441
486.758	4657
486.835	3860
486.911	2576
486.987	5063
487.063	5294
487.139	4144
487.215	5230
487.292	6678
487.368	8184
487.444	7883
487.520	11893
487.596	17981
487.672	50074
487.748	154728
487.824	223245
487.900	59141
487.976	16617
488.052	8813
488.128	7703
488.204	4997
488.280	5910
488.356	5144
488.432	3973
488.508	4389
488.584	3716
488.660	4082
488.736	4297
488.812	3268
488.888	4406
488.964	3052
489.039	3769
489.115	4709
489.191	5210
489.267	3679
489.343	4034
489.418	2671
489.494	4041
489.570	1901
489.646	4780
489.722	3402
489.797	3627
489.873	4344
489.949	3720
490.024	3047
490.100	2871
490.176	3413
490.251	3637
490.327	2961
490.403	3603
490.478	3514
490.554	4017
490.629	3421
490.705	4110
490.781	3891
490.856	3563
490.932	3920
491.007	4522
491.083	2697
491.158	2713
491.234	3007
491.309	3898
491.385	2613
491.460	3223
491.536	4202
491.611	3557
491.686	3646
491.762	3694
491.837	3703
491.913	3279
491.988	3700
492.063	4291
492.139	3847
492.214	3227
492.289	3112
492.365	3199
492.440	2706
492.515	2759
492.590	3362
492.666	2828
492.741	3440
492.816	3240
492.891	2819
492.967	3184
493.042	3116
493.117	3059
493.192	3610
493.267	4197
493.342	4451
493.418	4517
493.493	3344
493.568	4716
493.643	2082
493.718	3111
493.793	3094
493.868	4048
493.943	3243
494.018	3641
494.093	2691
494.168	3536
494.243	2365
494.318	3523
494.393	4569
494.468	3499
494.543	3253
494.618	3347
494.693	3540
494.768	3143
494.842	2982
494.917	3502
494.992	3808
495.067	3506
495.142	3147
495.217	3668
495.292	2911
495.366	2916
495.441	2372
495.516	4565
495.591	4192
495.665	4114
495.740	5327
495.815	4314
495.890	3018
495.964	1545
496.039	6153
496.114	4287
496.188	4750
496.263	3609
496.338	3915
496.412	2983
496.487	3515
496.561	3343
496.636	3667
496.710	3005
496.785	3963
496.860	3743
496.934	3499
497.009	4336
497.083	3354
497.158	3721
497.232	3876
497.307	4429
497.381	4432
497.455	4501
497.530	3194
497.604	4117
497.679	3529
497.753	4698
497.827	2767
497.902	3623
497.976	4884
498.050	5382
498.125	7366
498.199	6633
498.273	4184
498.348	3551
498.422	4596
498.496	4765
498.570	5608
498.645	2616
498.719	1935
498.793	3197
498.867	3182
498.941	3330
499.016	3843
499.090	6650
499.164	4479
499.238	3616
499.312	3332
499.386	4063
499.460	4588
499.534	5345
499.609	4800
499.683	3912
499.757	3521
499.831	2888
499.905	5050
499.979	4820
500.053	2457
500.127	3374
500.201	2565
500.275	3783
500.349	3838
500.422	4280
500.496	4032
500.570	4828
500.644	7896
500.718	7617
500.792	3267
500.866	4208
500.940	2550
501.013	3287
501.087	1886
501.161	3604
501.235	1489
501.309	4887
501.382	4102
501.456	4777
501.530	2616
501.603	2070
501.677	2673
501.751	1629
501.825	4171
501.898	3337
501.972	2772
502.046	2584
502.119	1377
502.193	2227
502.266	2112
502.340	3056
502.413	2815
502.487	3681
502.561	2239
502.634	2825
502.708	2222
502.781	1507
502.855	3404
502.928	1772
503.002	3056
503.075	2973
503.149	2923
503.222	3373
503.295	2284
503.369	3472
503.442	2535
503.516	3479
503.589	3945
503.662	5356
503.736	5642
503.809	8130
503.882	8058
503.956	13448
504.029	29008
504.102	88078
504.175	124181
504.249	38851
504.322	13365
504.395	8479
504.468	5573
504.542	4199
504.615	2903
504.688	3566
504.761	1693
504.834	4760
504.907	2919
504.980	3216
505.053	2796
505.127	472
505.200	5285
505.273	2690
505.346	2479
505.419	1210
505.492	2980
505.565	2797
505.638	3060
505.711	2541
505.784	2009
505.857	2414
505.930	3605
506.003	1323
506.076	4160
506.149	1773
506.221	614
506.294	3882
506.367	1384
506.440	2834
506.513	2809
506.586	2890
506.659	1858
506.731	1624
506.804	1663
506.877	1555
506.950	2827
507.022	3200
507.095	534
507.168	1931
507.241	2656
507.313	1666
507.386	938
507.459	3045
507.531	1982
507.604	1733
507.677	1904
507.749	901
507.822	2661
507.894	2097
507.967	2861
508.040	1785
508.112	2375
508.185	3159
508.257	1534
508.330	3320
508.402	1655
508.475	1068
508.547	2461
508.620	2068
508.692	2117
508.765	2979
508.837	1864
508.909	2337
508.982	1791
509.054	2616
509.127	2358
509.199	1590
509.271	1565
509.344	1892
509.416	1524
509.488	2196
509.560	2036
509.633	1847
509.705	1374
509.777	2803
509.849	2843
509.922	1070
509.994	1240
510.066	2605
510.138	287
510.210	4186
510.283	1239
510.355	3113
510.427	1722
510.499	2007
510.571	2306
510.643	1481
510.715	2985
510.787	1082
510.859	3357
510.931	2029
511.003	1538
511.076	3216
511.148	2172
511.219	990
511.291	2236
511.363	2404
511.435	2572
511.507	1307
511.579	2625
511.651	3035
511.723	1469
511.795	2395
511.867	1766
511.939	2449
512.010	1844
512.082	3153
512.154	639
512.226	2118
512.298	3284
512.369	2379
512.441	1762
512.513	2597
512.585	1880
512.656	3898
512.728	1877
512.800	2003
512.871	2826
512.943	3097
513.015	976
513.086	2584
513.158	2031
513.230	1536
513.301	1284
513.373	2617
513.444	2093
513.516	2795
513.588	2285
513.659	2432
513.731	2370
513.802	1961
513.874	4031
513.945	2613
514.016	1164
514.088	3108
514.159	623
514.231	3553
514.302	2460
514.374	2672
514.445	1270
514.516	4935
514.588	1995
514.659	2139
514.730	1496
514.802	3605
514.873	334
514.944	4359
515.016	1833
515.087	1552
515.158	1738
515.229	3804
515.301	689
515.372	3417
515.443	959
515.514	2650
515.585	1045
515.656	3362
515.728	3194
515.799	1468
515.870	2746
515.941	3254
516.012	1301
516.083	3844
516.154	2333
516.225	3812
516.296	4919
516.367	4529
516.438	4073
516.509	5902
516.580	9068
516.651	34707
516.722	99555
516.793	28644
516.864	7075
516.935	7924
517.006	9711
517.077	12100
517.148	31816
517.219	141980
517.289	167658
517.360	18200
517.431	6672
517.502	4061
517.573	4333
517.643	4085
517.714	3791
517.785	5528
517.856	4721
517.926	7565
517.997	9323
518.068	10126
518.138	15415
518.209	24819
518.280	94857
518.350	289809
518.421	83962
518.492	17336
518.562	12941
518.633	15680
518.703	21578
518.774	58700
518.845	155066
518.915	133655
518.986	30766
519.056	14496
519.127	8247
519.197	7314
519.268	5366
519.338	6202
519.408	3460
519.479	4179
519.549	2625
519.620	4712
519.690	3200
519.760	3719
519.831	1913
519.901	2855
519.971	3267
520.042	2636
520.112	492
520.182	3321
520.253	3208
520.323	1952
520.393	1556
520.463	3736
520.534	-446
520.604	4963
520.674	2804
520.744	1763
520.814	1678
520.885	3364
520.955	2034
521.025	2008
521.095	2009
521.165	3849
521.235	2385
521.305	1361
521.375	2569
521.445	3164
521.515	1606
521.585	4224
521.655	-39
521.725	3283
521.795	2400
521.865	9
521.935	3849
522.005	1849
522.075	2250
522.145	3000
522.215	1228
522.285	3300
522.355	993
522.424	3405
522.494	1047
522.564	2857
522.634	1399
522.704	4852
522.774	2475
522.843	2687
522.913	2464
522.983	1520
523.053	1495
523.122	3904
523.192	1939
523.262	2588
523.331	1626
523.401	3229
523.471	2038
523.540	3212
523.610	1457
523.680	2738
523.749	2727
523.819	4555
523.888	2471
523.958	1486
524.027	2657
524.097	2817
524.166	2392
524.236	1548
524.305	3802
524.375	2517
524.444	1082
524.514	4854
524.583	2096
524.653	1133
524.722	2565
524.791	1502
524.861	4470
524.930	2075
524.999	2026
525.069	3681
525.138	3484
525.207	2865
525.277	4667
525.346	4219
525.415	5131
525.484	4996
525.554	4338
525.623	6431
525.692	8186
525.761	9088
525.830	11025
525.900	15208
525.969	24748
526.038	46009
526.107	103149
526.176	275920
526.245	192163
526.314	58293
526.383	141443
526.452	172705
526.522	262318
526.591	204622
526.660	31655
526.729	19848
526.797	23568
526.867	34082
526.935	107850
527.004	377438
527.073	197115
527.142	26913
527.211	11662
527.280	9431
527.349	6826
527.418	4243
527.487	6236
527.555	3837
527.624	4251
527.693	3113
527.762	4778
527.831	2795
527.899	3357
527.968	4127
528.037	1851
528.106	4804
528.174	2958
528.243	3493
528.312	3650
528.380	2800
528.449	2756
528.518	5065
528.586	2011
528.655	4136
528.723	3260
528.792	3379
528.861	2575
528.929	2542
528.998	2597
529.066	3166
529.135	3630
529.203	3028
529.272	1165
529.340	4573
529.409	4350
529.477	2242
529.545	1692
529.614	5458
529.682	2079
529.751	4021
529.819	6196
529.887	3881
529.956	3541
530.024	5268
530.092	3423
530.161	5167
530.229	4473
530.297	3267
530.365	4719
530.434	5665
530.502	2674
530.570	3708
530.638	2970
530.707	4274
530.775	5227
530.843	3146
530.911	3736
530.979	4366
531.047	4041
531.115	4629
531.183	4357
531.252	5404
531.320	4090
531.388	3355
531.456	4616
531.524	2625
531.592	5240
531.660	6153
531.728	4079
531.796	3861
531.864	4576
531.932	5171
532.000	3531
532.067	4684
532.135	4685
532.203	6421
532.271	5027
532.339	6711
532.407	5488
532.475	5832
532.542	5335
532.610	6116
532.678	4407
532.746	7244
532.814	8845
532.881	6651
532.949	5990
533.017	6724
533.084	5527
533.152	5054
533.220	4826
533.287	4116
533.355	4351
533.423	5975
533.490	3844
533.558	5981
533.625	6596
533.693	5715
533.761	5733
533.828	5571
533.896	4299
533.963	6968
534.031	6820
534.098	8865
534.166	8927
534.233	7972
534.300	9383
534.368	10715
534.435	8880
534.503	10008
534.570	9120
534.637	11233
534.705	12920
534.772	15522
534.840	29287
534.907	125522
534.974	131354
535.041	17787
535.109	10097
535.176	8530
535.243	8990
535.310	8184
535.378	7812
535.445	7844
535.512	8217
535.579	8655
535.646	7737
535.714	8317
535.781	9518
535.848	9945
535.915	9390
535.982	7762
536.049	8351
536.116	10056
536.183	7532
536.250	7191
536.317	7508
536.384	9429
536.451	9510
536.518	9485
536.585	8395
536.652	10893
536.719	9847
536.786	8134
536.853	8756
536.920	10061
536.987	9785
537.053	7790
537.120	11241
537.187	11411
537.254	9903
537.321	9461
537.388	10765
537.454	10133
537.521	8678
537.588	9379
537.654	10694
537.721	10137
537.788	10836
537.855	10160
537.921	9887
537.988	9142
538.055	9548
538.121	8600
538.188	7894
538.254	8140
538.321	8625
538.388	9783
538.454	10649
538.521	11649
538.587	11066
538.654	10027
538.720	10273
538.787	10251
538.853	10134
538.920	9579
538.986	8119
539.053	8511
539.119	8965
539.185	8980
539.252	10623
539.318	10459
539.385	11738
539.451	9269
539.517	10926
539.583	11050
539.650	10358
539.716	10053
539.782	9885
539.849	9138
539.915	9763
539.981	9215
540.047	9245
540.114	9495
540.180	11024
540.246	10244
540.312	10859
540.378	10331
540.444	11132
540.510	11040
540.576	10948
540.643	9678
540.709	8726
540.775	10147
540.841	9150
540.907	9839
540.973	9533
541.039	10091
541.105	10649
541.171	10564
541.237	9965
541.303	11107
541.369	12724
541.435	11613
541.500	11309
541.566	8929
541.632	9851
541.698	9948
541.764	10956
541.830	9844
541.896	8822
541.961	10364
542.027	10039
542.093	11355
542.159	11168
542.224	9558
542.290	11278
542.356	9746
542.421	9858
542.487	10110
542.553	9116
542.618	9308
542.684	9928
542.750	9539
542.815	11500
542.881	9989
542.947	11786
543.012	12930
543.078	10262
543.143	10460
543.209	10509
543.274	8844
543.340	10408
543.405	10709
543.471	10073
543.536	11372
543.602	10762
543.667	9578
543.732	12705
543.798	9995
543.863	11144
543.928	10755
543.994	10158
544.059	11809
544.124	11738
544.190	11772
544.255	11928
544.320	12996
544.386	11207
544.451	12381
544.516	11373
544.581	11135
544.646	11975
544.712	13133
544.777	12510
544.842	11919
544.907	12253
544.972	12965
545.037	11797
545.102	13524
545.168	12847
545.233	13866
545.298	14174
545.363	13169
545.428	13679
545.493	14998
545.558	14007
545.623	13295
545.688	14587
545.753	16891
545.818	14081
545.883	17108
545.947	16547
546.012	18171
546.077	18430
546.142	19825
546.207	18965
546.272	21577
546.337	21374
546.401	22752
546.466	23000
546.531	23360
546.596	26638
546.661	26702
546.725	28502
546.790	29261
546.855	34093
546.919	36205
546.984	40458
547.049	42819
547.113	48559
547.178	53973
547.243	61452
547.307	72074
547.372	77860
547.436	79015
547.501	83812
547.565	90155
547.630	83184
547.695	80164
547.759	79337
547.823	79216
547.888	82261
547.952	85305
548.017	87382
548.081	89081
548.146	87914
548.210	90552
548.274	98879
548.339	97046
548.403	88173
548.468	82765
548.532	81436
548.596	84840
548.660	85773
548.725	94262
548.789	99125
548.853	97606
548.917	94714
548.982	91386
549.046	80883
549.110	74677
549.174	76984
549.238	89979
549.303	98891
549.367	101219
549.431	95112
549.495	89223
549.559	91153
549.623	104667
549.687	113378
549.751	113785
549.815	133913
549.879	136111
549.943	128602
550.007	137410
550.071	134412
550.135	121321
550.199	114329
550.263	115996
550.327	108890
550.391	111016
550.455	122583
550.519	130114
550.582	137930
550.646	153307
550.710	155084
550.774	151832
550.838	152329
550.901	157935
550.965	166502
551.029	169992
551.093	179193
551.156	189303
551.220	197742
551.284	210376
551.347	177019
551.411	162270
551.475	158609
551.538	168040
551.602	158413
551.666	150401
551.729	141885
551.793	141472
551.856	137859
551.920	136189
551.983	136830
552.047	135211
552.110	135828
552.174	135653
552.237	140072
552.301	130560
552.364	126422
552.428	123540
552.491	126142
552.554	129448
552.618	128872
552.681	133374
552.745	127032
552.808	132791
552.871	139397
552.934	133286
552.998	130099
553.061	126999
553.124	123609
553.187	122662
553.251	124894
553.314	126343
553.377	128088
553.440	135363
553.503	137483
553.567	139226
553.630	137877
553.693	139093
553.756	138993
553.819	139541
553.882	134164
553.945	135477
554.008	134788
554.071	137751
554.134	138426
554.197	131076
554.260	130049
554.323	132785
554.386	131780
554.449	136627
554.512	135513
554.575	130640
554.638	129797
554.701	128567
554.764	128852
554.827	124198
554.889	121168
554.952	113895
555.015	111782
555.078	112787
555.141	113759
555.203	111795
555.266	111037
555.329	110141
555.391	106185
555.454	105618
555.517	100535
555.580	95819
555.642	92392
555.705	92856
555.768	91690
555.830	89171
555.893	84970
555.955	82687
556.018	80880
556.080	81635
556.143	84322
556.206	81594
556.268	78675
556.330	76804
556.393	74966
556.455	73836
556.518	71742
556.580	68876
556.643	65508
556.705	66911
556.767	63716
556.830	62696
556.892	61370
556.955	60187
557.017	59308
557.079	59696
557.142	56079
557.204	55272
557.266	55434
557.328	51276
557.391	48597
557.453	47946
557.515	48083
557.577	48905
557.639	47574
557.701	47069
557.764	45268
557.826	45960
557.888	46998
557.950	48109
558.012	50260
558.074	60484
558.136	109094
558.198	199947
558.260	77173
558.322	45684
558.384	46076
558.446	46711
558.508	48078
558.570	53213
558.632	57996
558.694	70962
558.756	110183
558.818	265993
558.880	464463
558.942	197185
559.003	207974
559.065	98705
559.127	50509
559.189	49415
559.251	54311
559.312	73654
559.374	154180
559.436	368701
559.498	169535
559.559	55102
559.621	48219
559.683	56001
559.744	84209
559.806	221443
559.868	267060
559.929	69930
559.991	52931
560.052	83967
560.114	194558
560.176	116638
560.237	122901
560.299	163603
560.360	41651
560.422	24187
560.483	22688
560.545	21736
560.606	21332
560.667	21000
560.729	19615
560.790	19797
560.852	19059
560.913	17533
560.974	17348
561.036	17909
561.097	17849
561.158	17695
561.220	17223
561.281	16322
561.342	16918
561.403	17074
561.465	15408
561.526	15914
561.587	16006
561.648	14986
561.709	14773
561.771	15383
561.832	13925
561.893	14378
561.954	14575
562.015	14093
562.076	13945
562.137	13322
562.198	13389
562.259	14561
562.320	14251
562.381	13641
562.442	13564
562.503	12944
562.564	13618
562.625	12648
562.686	13073
562.747	13060
562.808	11826
562.869	11857
562.930	11636
562.991	11933
563.051	11439
563.112	11588
563.173	11507
563.234	11434
563.294	12690
563.355	10777
563.416	10873
563.477	11874
563.537	11332
563.598	10613
563.659	11071
563.720	11587
563.780	11595
563.841	10968
563.901	11789
563.962	11257
564.023	11267
564.083	11497
564.144	11308
564.204	10895
564.265	9856
564.325	10010
564.386	11272
564.446	10855
564.507	10356
564.567	10490
564.628	10308
564.688	10829
564.749	10159
564.809	10267
564.869	9843
564.930	9703
564.990	11491
565.050	10630
565.111	9836
565.171	9652
565.231	10760
565.292	11683
565.352	10297
565.412	11197
565.472	10611
565.532	10207
565.593	9951
565.653	10995
565.713	9807
565.773	10790
565.833	9592
565.893	10731
565.953	9819
566.013	9782
566.074	9821
566.134	9536
566.194	8456
566.254	9937
566.314	9526
566.374	9106
566.434	10229
566.494	8782
566.554	9506
566.614	10472
566.673	9409
566.733	10018
566.793	9920
566.853	10409
566.913	10080
566.973	10397
567.033	9482
567.092	9068
567.152	9017
567.212	10973
567.272	10123
567.331	10347
567.391	9900
567.451	11778
567.511	10078
567.570	10781
567.630	10392
567.690	10415
567.749	10088
567.809	9875
567.868	10152
567.928	10676
567.988	10003
568.047	11035
568.107	10362
568.166	10323
568.226	9570
568.285	10758
568.345	10767
568.404	10061
568.464	10272
568.523	10506
568.582	10569
568.642	10317
568.701	9857
568.761	10110
568.820	10023
568.879	10012
568.939	9918
568.998	10582
569.057	9553
569.116	10126
569.176	8993
569.235	10297
569.294	9452
569.353	10484
569.413	9484
569.472	9371
569.531	8939
569.590	8987
569.649	9072
569.708	8658
569.767	10438
569.827	10118
569.886	10316
569.945	9334
570.004	10053
570.063	9232
570.122	10228
570.181	10412
570.240	10242
570.299	9996
570.358	10015
570.417	9913
570.475	9517
570.534	11217
570.593	10634
570.652	10974
570.711	10591
570.770	11034
570.829	10735
570.887	10272
570.946	10369
571.005	11086
571.064	9931
571.122	11255
571.181	9910
571.240	10115
571.299	8565
571.357	9627
571.416	10200
571.475	10388
571.533	9800
571.592	11993
571.650	10769
571.709	11014
571.768	12567
571.826	12187
571.885	11381
571.943	11618
572.002	10052
572.060	9901
572.119	10457
572.177	9742
572.236	9785
572.294	9736
572.352	10315
572.411	10697
572.469	10070
572.528	10617
572.586	9816
572.644	9688
572.703	10593
572.761	11038
572.819	8505
572.877	9288
572.936	9197
572.994	9891
573.052	9200
573.110	10335
573.169	8851
573.227	9390
573.285	9841
573.343	9983
573.401	8361
573.459	10137
573.517	9674
573.576	9276
573.634	8763
573.692	9629
573.750	8836
573.808	9045
573.866	8999
573.924	8815
573.982	9048
574.040	9305
574.098	9013
574.155	8376
574.213	8797
574.271	8791
574.329	9382
574.387	8431
574.445	7044
574.503	8019
574.560	7964
574.618	8327
574.676	7583
574.734	7859
574.792	8339
574.849	7214
574.907	6672
574.965	7466
575.022	6786
575.080	6975
575.138	7494
575.195	6970
575.253	6597
575.311	6641
575.368	6872
575.426	6829
575.483	8234
575.541	7715
575.598	7486
575.656	6963
575.713	6795
575.771	8050
575.828	6821
575.886	6986
575.943	7272
576.001	6424
576.058	5474
576.115	6596
576.173	5685
576.230	6802
576.287	6980
576.345	7074
576.402	6256
576.459	6813
576.517	6018
576.574	6466
576.631	5864
576.688	6791
576.746	6821
576.803	6788
576.860	6523
576.917	7530
576.974	6450
577.031	7543
577.089	6866
577.146	6178
577.203	6302
577.260	6866
577.317	6056
577.374	5991
577.431	5945
577.488	5607
577.545	5806
577.602	6650
577.659	6010
577.716	6464
577.773	5840
577.830	6303
577.886	6327
577.943	5606
578.000	6175
578.057	6791
578.114	6832
578.171	6938
578.227	6592
578.284	5925
578.341	6474
578.398	6249
578.454	6497
578.511	6399
578.568	6502
578.625	6284
578.681	6143
578.738	6740
578.794	5483
578.851	6170
578.908	6065
578.964	6001
579.021	6840
579.077	6302
579.134	6777
579.190	6375
579.247	7072
579.303	6101
579.360	5522
579.416	6438
579.473	6457
579.529	6180
579.586	6774
579.642	6680
579.698	6214
579.755	7202
579.811	7055
579.867	6834
579.924	5736
579.980	6435
580.036	6123
580.093	7522
580.149	6637
580.205	7907
580.261	7108
580.317	7420
580.374	6670
580.430	7500
580.486	7036
580.542	7155
580.598	7169
580.619	7037
580.654	6812
580.692	6334
580.710	6098
580.765	6708
580.767	6730
580.823	7097
580.838	7023
580.879	6829
580.911	7155
580.935	7391
580.984	7510
580.991	7536
581.047	7128
581.057	7199
581.103	7489
581.130	7276
581.159	7065
581.203	7410
581.215	7501
581.270	7055
581.276	7025
581.326	6716
581.349	6854
581.382	7095
581.422	7124
581.438	7153
581.494	7042
581.494	7045
581.550	7325
581.567	7261
581.606	7045
581.640	7210
581.661	7355
581.713	8387
581.717	8464
581.773	6837
581.786	6975
581.829	7472
581.859	7604
581.885	7702
581.932	7395
581.940	7335
581.996	7250
582.004	7349
582.052	7838
582.077	7602
582.107	7339
582.150	7401
582.163	7419
582.219	7417
582.223	7400
582.274	7229
582.296	7384
582.330	7618
582.368	7526
582.386	7549
582.441	7875
582.441	7874
582.497	7548
582.514	7425
582.552	7354
582.587	7325
582.608	7324
582.659	7478
582.663	7470
582.719	8941
582.732	8914
582.774	8919
582.805	8078
582.830	7401
582.877	8018
582.885	8115
582.941	7548
582.950	7676
582.996	8229
583.023	8214
583.052	8307
583.095	8778
583.107	8865
583.162	7533
583.168	7606
583.218	8320
583.240	7957
583.273	7466
583.313	8188
583.328	8471
583.384	8067
583.385	8062
583.439	7683
583.458	7880
583.494	8323
583.531	8474
583.549	8668
583.603	8834
583.605	8824
583.660	8584
583.676	8350
583.715	8137
583.748	8826
583.770	9128
583.820	8192
583.825	8129
583.881	9246
583.893	9075
583.936	8199
583.965	8165
583.991	8333
584.038	9014
584.046	9110
584.101	8673
584.110	8723
584.156	8833
584.183	8874
584.211	8987
584.255	9650
584.266	9877
584.321	9877
584.328	9867
584.376	9688
584.400	9816
584.431	9989
584.472	9821
584.486	9784
584.541	11108
584.545	11095
584.596	10657
584.617	10715
584.651	11184
584.689	11542
584.706	11661
584.761	11401
584.762	11400
584.816	12071
584.834	12368
584.871	13106
584.906	13163
584.926	13155
584.978	14388
584.980	14455
585.035	15144
585.051	15610
585.090	17022
585.123	17613
585.145	18121
585.195	20457
585.200	20785
585.254	23673
585.267	24697
585.309	27824
585.340	29863
585.364	32269
585.412	37689
585.419	38560
585.473	47562
585.484	49884
585.528	66988
585.556	81900
585.583	114079
585.628	180123
585.637	205877
585.692	400328
585.700	429713
585.747	511043
585.772	472891
585.801	324167
585.845	138271
585.856	117331
585.910	57298
585.917	51025
585.965	39180
585.989	33775
586.019	30407
586.061	26984
586.074	26376
586.128	24250
586.133	23972
586.183	22101
586.205	21931
586.237	22189
586.277	21843
586.292	21822
586.346	21387
586.349	21380
586.401	21726
586.421	21513
586.455	20969
586.493	20930
586.509	21410
586.564	21745
586.565	21750
586.618	23900
586.637	24503
586.672	27068
586.709	31031
586.727	32833
586.781	35654
586.781	35699
586.835	29841
586.853	28340
586.889	25905
586.925	23167
586.944	22606
586.996	22497
586.998	22526
587.052	22129
587.068	21643
587.106	21884
587.140	22658
587.161	23007
587.212	23658
587.215	23711
587.269	24306
587.284	24143
587.323	23956
587.356	24217
587.377	24852
587.427	25960
587.431	26035
587.485	26207
587.499	26353
587.539	26916
587.571	27032
587.593	27726
587.643	29604
587.648	29746
587.702	30291
587.715	30279
587.755	30189
587.786	30403
587.810	30837
587.858	30948
587.864	31003
587.917	31003
587.930	31023
587.971	31136
588.001	31280
588.025	32014
588.073	32552
588.079	32551
588.133	32356
588.145	32211
588.187	31679
588.217	31470
588.241	32382
588.288	33456
588.295	33534
588.348	34536
588.360	34464
588.402	34709
588.431	34977
588.456	35467
588.503	36286
588.510	36600
588.564	38589
588.575	39127
588.617	41168
588.646	41920
588.671	42895
588.718	45471
588.725	46284
588.778	53043
588.789	54695
588.832	75693
588.861	92258
588.886	128649
588.932	206206
588.939	213610
588.993	261878
589.004	262044
589.047	151090
589.075	85710
589.100	69769
589.147	48500
589.154	47925
589.207	43541
589.218	42755
589.261	43759
589.290	44446
589.314	45536
589.361	47757
589.368	49097
589.421	60911
589.433	63766
589.475	100343
589.504	128662
589.528	165633
589.576	240882
589.582	233791
589.635	132616
589.647	112185
589.689	70773
589.718	46188
589.742	44388
589.790	40713
589.795	40744
589.849	40628
589.861	40452
589.902	39772
589.932	39119
589.955	39161
590.004	38745
590.009	38769
590.062	38686
590.075	38375
590.115	38753
590.146	39084
590.168	39213
590.218	38990
590.222	39156
590.275	40269
590.289	40362
590.328	40782
590.360	40983
590.381	41328
590.431	41841
590.435	42022
590.488	42995
590.503	43184
590.541	43645
590.574	43806
590.594	44411
590.645	45595
590.647	45792
590.700	47572
590.716	48000
590.753	49349
590.787	50301
590.806	50654
590.859	51139
590.859	51303
590.912	52448
590.930	52724
590.965	53410
591.001	53741
591.018	53880
591.071	53773
591.072	53612
591.124	52551
591.143	52036
591.177	53100
591.214	53880
591.230	54362
591.283	55386
591.285	55257
591.336	55220
591.356	54950
591.389	55130
591.427	55062
591.442	54963
591.495	53814
591.498	53580
591.547	54694
591.569	54937
591.600	55855
591.640	56602
591.653	56928
591.706	57528
591.711	57429
591.759	59414
591.782	60166
591.811	61817
591.853	63737
591.864	64012
591.917	64283
591.924	64128
591.969	64365
591.995	64154
592.022	64567
592.066	64791
592.075	65340
592.127	67415
592.137	67599
592.180	68661
592.208	68943
592.233	69809
592.279	70885
592.285	71414
592.338	73924
592.350	74271
592.390	73573
592.421	72598
592.443	73660
592.491	75306
592.495	75674
592.548	77437
592.562	77679
592.600	77698
592.633	77254
592.653	78164
592.704	79437
592.705	79872
592.775	78616
592.846	82401
592.916	83796
592.987	83920
593.058	84056
593.128	86343
593.199	86149
593.270	86931
593.341	89516
593.411	94258
593.482	96644
593.553	98848
593.623	97256
593.694	101773
593.764	104780
593.835	102951
593.906	103064
593.976	105878
594.047	108413
594.117	113831
594.188	114877
594.258	116598
594.329	115392
594.399	118479
594.470	121827
594.540	125436
594.611	128750
594.681	129105
594.751	127056
594.822	133373
594.892	138300
594.963	141503
595.033	144728
595.103	150426
595.174	150133
595.244	154285
595.314	159445
595.384	161843
595.455	166308
595.525	174838
595.595	180123
595.665	180827
595.736	172702
595.806	178523
595.876	182338
595.946	181884
596.016	189644
596.087	197108
596.157	195084
596.227	197508
596.297	207335
596.367	222139
596.437	232746
596.507	231631
596.577	230264
596.647	240262
596.717	251637
596.787	255871
596.857	253260
596.927	255200
596.997	257022
597.067	262033
597.137	261185
597.207	266457
597.277	268515
597.347	256240
597.417	247980
597.487	249402
597.557	255630
597.626	262284
597.696	263749
597.766	261746
597.836	248674
597.906	233881
597.975	230279
598.045	235052
598.115	244976
598.185	261450
598.254	292239
598.324	314955
598.394	321965
598.464	310439
598.533	306486
598.603	283547
598.672	276978
598.742	285145
598.812	283351
598.881	294995
598.951	289494
599.020	294705
599.090	304459
599.159	309960
599.229	296402
599.299	290126
599.368	302521
599.437	297764
599.507	273960
599.576	263970
599.646	261102
599.715	259105
599.785	254410
599.854	248805
599.924	244700
599.993	242686
600.062	249758
600.132	253926
600.201	270796
600.270	311711
600.340	329203
600.409	319823
600.478	318058
600.547	326100
600.617	295197
600.686	236146
600.755	214248
600.824	203285
600.894	198802
600.963	200980
601.032	197331
601.101	189229
601.170	181395
601.239	176333
601.308	173533
601.378	176121
601.447	176886
601.516	177624
601.585	179440
601.654	182456
601.723	182571
601.792	186519
601.861	193368
601.930	200345
601.999	200806
602.068	200685
602.137	203981
602.206	207440
602.275	209153
602.343	210656
602.412	213785
602.481	214452
602.550	218031
602.619	223893
602.688	226206
602.756	226922
602.825	230161
602.894	236566
602.963	238804
603.032	244031
603.100	243660
603.169	243362
603.238	247684
603.307	247513
603.375	252289
603.444	255622
603.513	258554
603.581	264291
603.650	266947
603.719	261576
603.787	269329
603.856	276807
603.924	283392
603.993	292853
604.061	302856
604.130	317412
604.198	321207
604.267	327005
604.335	332881
604.404	337438
604.472	342605
604.541	344972
604.609	348769
604.678	349658
604.746	348554
604.815	361751
604.883	365122
604.951	365112
605.020	372716
605.088	378212
605.156	387250
605.225	393352
605.293	392247
605.361	394104
605.429	395659
605.498	402472
605.566	413564
605.634	432570
605.702	445079
605.771	459657
605.839	457746
605.907	454175
605.975	436225
606.043	430095
606.111	432676
606.180	429281
606.248	424393
606.316	420944
606.384	419717
606.452	422086
606.520	434154
606.588	447906
606.656	452867
606.724	444446
606.792	419860
606.860	385520
606.928	352002
606.996	340533
607.064	332185
607.132	342221
607.200	358602
607.267	373661
607.335	379685
607.403	391644
607.471	375045
607.539	366533
607.607	368358
607.674	327734
607.742	326209
607.810	321206
607.878	324509
607.946	328421
608.013	345713
608.081	350987
608.149	352952
608.216	366772
608.284	376651
608.352	380169
608.419	374015
608.487	364831
608.555	360146
608.622	370625
608.690	393992
608.757	432804
608.825	435625
608.893	429006
608.960	402857
609.028	388342
609.095	389447
609.163	386601
609.230	347539
609.298	319154
609.365	338942
609.432	361390
609.500	393088
609.567	443466
609.635	496894
609.702	521113
609.769	494433
609.837	391141
609.904	344770
609.971	351766
610.039	369712
610.106	437774
610.173	655642
610.241	1138756
610.308	794807
610.375	434852
610.442	380038
610.509	360579
610.577	363092
610.644	367320
610.711	379492
610.778	386195
610.845	401686
610.912	423495
610.980	438057
611.047	437530
611.114	431479
611.181	421013
611.248	419692
611.315	440699
611.382	453122
611.449	464383
611.516	470754
611.583	465018
611.650	469351
611.717	473002
611.784	476324
611.851	490532
611.918	504887
611.984	552496
612.051	666367
612.118	959494
612.185	1499058
612.252	1230567
612.319	701785
612.386	600393
612.452	550657
612.519	526252
612.586	515507
612.653	522812
612.719	537335
612.786	521108
612.853	488716
612.919	482971
612.986	485696
613.053	461942
613.120	437665
613.186	422536
613.253	425513
613.319	427887
613.386	429758
613.453	433496
613.519	438934
613.586	429677
613.652	434301
613.719	428722
613.785	438734
613.852	443519
613.918	437827
613.985	443531
614.051	458359
614.118	455123
614.184	437426
614.250	439671
614.317	447697
614.383	443622
614.449	450833
614.516	449458
614.582	449769
614.648	441738
614.715	440384
614.781	429634
614.847	430089
614.914	427733
614.980	418864
615.046	419299
615.112	430826
615.179	431392
615.245	439696
615.311	432744
615.377	437440
615.443	440745
615.509	442823
615.575	460778
615.642	454066
615.708	462038
615.774	478253
615.840	494908
615.906	510237
615.972	562747
616.038	715238
616.104	1107627
616.170	1616499
616.236	1471995
616.302	888298
616.368	741139
616.434	580473
616.500	531880
616.565	575178
616.631	685778
616.697	591052
616.763	590530
616.829	776031
616.895	1188661
616.961	1139462
617.026	654214
617.092	498134
617.158	466191
617.224	456614
617.289	426134
617.355	407180
617.421	403424
617.487	400651
617.552	381420
617.618	381689
617.684	381851
617.749	383858
617.815	371380
617.880	364871
617.946	365256
618.012	368288
618.077	376059
618.143	360491
618.208	365946
618.274	387194
618.339	386163
618.405	329115
618.470	331089
618.536	327208
618.601	323681
618.667	303751
618.732	289678
618.798	287296
618.863	287758
618.928	284062
618.994	287314
619.059	282208
619.124	285848
619.190	283341
619.255	283023
619.320	280851
619.386	284548
619.451	282345
619.516	271948
619.581	278318
619.647	287822
619.712	287864
619.777	275614
619.842	278974
619.907	283137
619.972	286976
620.038	285718
620.103	279889
620.168	279786
620.233	285168
620.298	286541
620.363	288567
620.428	294106
620.493	302509
620.558	306900
620.623	310288
620.688	304483
620.753	304338
620.818	309219
620.883	312807
620.948	311453
621.013	306819
621.078	301123
621.143	304333
621.207	307354
621.272	300025
621.337	295399
621.402	292325
621.467	288396
621.532	287825
621.596	287808
621.661	282043
621.726	280164
621.791	283530
621.855	282462
621.920	279439
621.985	284181
622.049	289717
622.114	290922
622.179	293683
622.243	300881
622.308	306091
622.373	317573
622.437	311873
622.502	296692
622.566	295227
622.631	295025
622.695	299581
622.760	297296
622.824	297302
622.889	295789
622.953	295141
623.018	313729
623.082	317896
623.147	311823
623.211	306255
623.276	309945
623.340	298960
623.404	290059
623.469	289422
623.533	295353
623.597	287129
623.662	286856
623.726	267348
623.790	252810
623.854	247465
623.919	251607
623.983	255589
624.047	258066
624.111	260222
624.176	266833
624.240	266282
624.304	274764
624.368	264754
624.432	264467
624.496	271816
624.560	283502
624.625	285053
624.689	282157
624.753	296670
624.817	281898
624.881	276688
624.945	250321
625.009	245429
625.073	249438
625.137	256878
625.201	268213
625.265	268188
625.329	256559
625.393	257326
625.456	262343
625.520	270300
625.584	269690
625.648	277269
625.712	281436
625.776	280286
625.839	265645
625.903	230959
625.967	216272
626.031	229629
626.095	267269
626.158	249235
626.222	201499
626.286	190184
626.349	183797
626.413	171760
626.477	170804
626.540	172428
626.604	171794
626.668	166861
626.731	165787
626.795	165902
626.858	167969
626.922	163996
626.986	162562
627.049	163645
627.113	171154
627.176	164185
627.240	159116
627.303	160234
627.366	157020
627.430	159709
627.493	156578
627.557	152924
627.620	157432
627.684	163754
627.747	166260
627.810	150124
627.874	137616
627.937	131572
628.000	137464
628.064	132478
628.127	120013
628.190	119889
628.253	115148
628.317	110144
628.380	105148
628.443	101769
628.506	102630
628.569	98676
628.632	93125
628.696	93031
628.759	94105
628.822	89378
628.885	88108
628.948	85053
629.011	85413
629.074	82567
629.137	79306
629.200	78223
629.263	77146
629.326	75393
629.389	76438
629.452	74921
629.515	74055
629.578	72802
629.641	73990
629.704	75432
629.767	72053
629.830	70774
629.892	69490
629.955	68909
630.018	71600
630.081	69406
630.144	70623
630.207	67210
630.269	69503
630.332	66213
630.395	66259
630.458	64050
630.520	62051
630.583	63613
630.646	64515
630.708	63622
630.771	64503
630.834	70618
630.896	66958
630.959	66511
631.021	65533
631.084	63750
631.146	64971
631.209	65845
631.272	64722
631.334	67091
631.397	68046
631.459	66711
631.522	71344
631.584	72549
631.646	75437
631.709	77367
631.771	75979
631.834	72634
631.896	70936
631.958	67375
632.021	66581
632.083	62702
632.145	63982
632.208	61570
632.270	62118
632.332	61043
632.395	60683
632.457	62189
632.519	60080
632.581	60803
632.643	60630
632.706	61015
632.768	58375
632.830	61678
632.892	62025
632.954	62092
633.016	63286
633.078	61732
633.141	62006
633.203	61444
633.265	60505
633.327	60945
633.389	62301
633.451	61553
633.513	60859
633.575	63178
633.637	60774
633.698	62216
633.760	65723
633.822	68098
633.884	69853
633.946	70767
634.008	70939
634.070	73044
634.132	76074
634.193	81051
634.255	86510
634.317	88442
634.379	87280
634.441	78798
634.502	73610
634.564	68003
634.626	63037
634.687	60798
634.749	59859
634.811	60347
634.873	58718
634.934	58230
634.996	58371
635.057	59466
635.119	58839
635.181	60001
635.242	61525
635.304	59037
635.365	62563
635.427	60836
635.488	61219
635.550	59493
635.611	60574
635.673	58721
635.734	64925
635.796	66389
635.857	71422
635.918	75122
635.980	82403
636.041	86227
636.102	92206
636.164	91821
636.225	88472
636.286	76698
636.348	69886
636.409	65873
636.470	61597
636.531	61475
636.593	57699
636.654	56601
636.715	55036
636.776	55786
636.838	53962
636.899	53255
636.960	52628
637.021	51639
637.082	50716
637.143	49306
637.204	47567
637.265	49242
637.326	50588
637.387	51096
637.448	49972
637.509	49073
637.570	49487
637.631	49701
637.692	48343
637.753	45454
637.814	46529
637.875	47172
637.936	47252
637.997	45709
638.058	46675
638.119	46608
638.179	45901
638.240	46750
638.301	46434
638.362	44726
638.423	43775
638.483	44647
638.544	42278
638.605	44085
638.666	42668
638.726	44646
638.787	43154
638.848	44088
638.908	43041
638.969	41746
639.030	41450
639.090	40514
639.151	41510
639.211	43126
639.272	43390
639.332	42903
639.393	43873
639.453	46009
639.514	46498
639.574	41554
639.635	40278
639.695	40158
639.756	37935
639.816	38440
639.877	37894
639.937	40029
639.997	39399
640.058	37729
640.118	38205
640.178	40197
640.239	38427
640.299	38693
640.359	39498
640.420	41846
640.480	45718
640.540	50519
640.600	51190
640.661	46850
640.721	44073
640.781	44846
640.841	40891
640.901	39558
640.961	39787
641.021	42079
641.082	43311
641.142	39999
641.202	38832
641.262	36459
641.322	38059
641.382	36176
641.442	37816
641.502	37441
641.562	38650
641.622	38049
641.682	40913
641.742	45740
641.802	42429
641.861	38338
641.921	35130
641.981	35405
642.041	34704
642.101	33815
642.161	33099
642.221	33774
642.280	34707
642.340	34765
642.400	33845
642.460	35989
642.519	35841
642.579	35999
642.639	37284
642.698	34683
642.758	38585
642.818	36409
642.877	35786
642.937	36636
642.997	36756
643.056	36487
643.116	34720
643.175	37556
643.235	37806
643.294	37851
643.354	39272
643.414	40804
643.473	44686
643.532	51769
643.592	62104
643.651	87607
643.711	136727
643.770	247085
643.830	528244
643.889	825861
643.948	320145
644.008	100667
644.067	64278
644.126	50378
644.186	44097
644.245	40564
644.304	36221
644.363	37934
644.423	35012
644.482	35295
644.541	37215
644.600	38222
644.659	44902
644.719	51327
644.778	72389
644.837	114328
644.896	222720
644.955	446542
645.014	160588
645.073	54816
645.132	42377
645.191	41179
645.250	39440
645.309	40672
645.368	45179
645.427	57514
645.486	96654
645.545	158333
645.604	51625
645.663	37126
645.722	35504
645.781	37533
645.840	39535
645.898	45117
645.957	57753
646.016	78629
646.075	129749
646.134	234267
646.192	540283
646.251	658972
646.310	181224
646.369	74077
646.427	61993
646.486	47938
646.545	39182
646.603	35660
646.662	33876
646.721	31625
646.779	31390
646.838	32757
646.896	38581
646.955	48507
647.014	73229
647.072	133437
647.131	331499
647.189	156474
647.248	38678
647.306	31973
647.365	29320
647.423	25181
647.481	28694
647.540	25742
647.598	27261
647.657	26173
647.715	25573
647.773	24179
647.832	24571
647.890	21802
647.948	22954
648.007	22786
648.065	21150
648.123	20720
648.181	21782
648.240	21376
648.298	20318
648.356	20795
648.414	21596
648.472	21178
648.531	19941
648.589	19537
648.647	19030
648.705	20300
648.763	20003
648.821	20435
648.879	20434
648.937	22624
648.995	25553
649.053	29203
649.111	40604
649.169	62270
649.227	106785
649.285	215170
649.343	509392
649.401	253463
649.459	55354
649.516	33325
649.574	26782
649.632	26452
649.690	29876
649.748	35101
649.806	50274
649.863	92498
649.921	252146
649.979	157670
650.037	29572
650.094	19484
650.152	19362
650.210	16894
650.268	17906
650.325	17386
650.383	16860
650.440	14350
650.498	15270
650.556	13775
650.613	13874
650.671	15517
650.728	15088
650.786	16630
650.843	23835
650.901	16603
650.958	13561
651.016	13762
651.073	13066
651.131	13099
651.188	12187
651.246	11879
651.303	11150
651.360	12607
651.418	11344
651.475	12065
651.532	11106
651.590	12975
651.647	11012
651.704	11271
651.762	12404
651.819	11786
651.876	10286
651.933	11164
651.990	11589
652.048	9559
652.105	9378
652.162	11960
652.219	10193
652.276	11638
652.333	11479
652.390	9551
652.448	10215
652.505	10112
652.562	10497
652.619	9579
652.676	10035
652.733	10330
652.790	9699
652.847	8194
652.904	10763
652.961	8348
653.017	8917
653.074	10527
653.131	9205
653.188	9379
653.245	9531
653.302	9830
653.359	10036
653.415	8924
653.472	9322
653.529	9319
653.586	8139
653.642	9499
653.699	9727
653.756	8946
653.813	8652
653.869	9941
653.926	8285
653.983	8596
654.039	9712
654.096	8794
654.152	9647
654.209	7338
654.266	8877
654.322	7347
654.379	9375
654.435	8219
654.492	8646
654.548	9394
654.605	8119
654.661	9318
654.717	9078
654.774	9298
654.830	9128
654.887	9012
654.943	8146
655.000	8648
655.056	7909
655.112	8621
655.168	7053
655.225	8629
655.281	9257
655.337	8498
655.394	8629
655.450	7543
655.506	8599
655.562	7763
655.618	8581
655.675	6961
655.731	8021
655.787	6732
655.843	9196
655.899	7267
655.955	8492
656.011	8350
656.067	7857
656.123	8355
656.179	7944
656.235	9428
656.291	7247
656.347	8850
656.403	7769
656.459	7527
656.515	8208
656.571	8770
656.627	7582
656.683	7453
656.739	8869
656.795	7359
656.850	7758
656.906	9347
656.962	9752
657.018	8166
657.074	11109
657.129	15115
657.185	24180
657.241	56075
657.297	28310
657.352	9410
657.408	7858
657.464	8068
657.519	7054
657.575	5949
657.630	6443
657.686	7405
657.742	6960
657.797	7060
657.853	6691
657.908	8080
657.964	6567
658.019	6372
658.075	6839
658.130	7575
658.186	6809
658.241	6809
658.297	6166
658.352	6494
658.407	6514
658.463	6593
658.518	6381
658.573	7875
658.629	5509
658.684	6651
658.739	7458
658.795	6036
658.850	6601
658.905	5654
658.960	6339
659.016	6120
659.071	6012
659.126	5883
659.181	5673
659.236	7038
659.291	7019
659.346	5801
659.401	6373
659.457	5979
659.512	5861
659.567	6294
659.622	6131
659.677	5894
659.732	5023
659.787	5966
659.842	5050
659.897	6339
659.952	6439
660.007	6754
660.061	6302
660.116	4647
660.171	5173
660.226	4718
660.281	6698
660.336	5373
660.391	6277
660.445	4877
660.500	5334
660.555	4979
660.610	5615
660.664	5809
660.719	4808
660.774	5998
660.828	5594
660.883	5828
660.938	5945
660.992	4782
661.047	5790
661.101	5541
661.156	5481
661.211	4917
661.265	4987
661.320	5249
661.374	5339
661.429	5249
661.483	5683
661.538	4637
661.592	5621
661.647	4902
661.701	6591
661.755	5601
661.810	5540
661.864	4060
661.919	3999
661.973	5276
662.027	5601
662.081	5077
662.136	4985
662.190	5335
662.244	5696
662.299	4741
662.353	6013
662.407	5682
662.461	4516
662.515	5285
662.569	5164
662.624	5623
662.678	5336
662.732	4835
662.786	4786
662.840	5212
662.894	5086
662.948	4939
663.002	5518
663.056	4522
663.110	4656
663.164	4781
663.218	5473
663.272	4739
663.326	5415
663.380	4897
663.434	5553
663.488	4743
663.542	4896
663.595	4507
663.649	4869
663.703	5483
663.757	6030
663.811	4488
663.864	5071
663.918	5370
663.972	4891
664.026	4665
664.079	4773
664.133	5858
664.187	4918
664.240	5005
664.294	5679
664.348	4494
664.401	5421
664.455	5068
664.508	5700
664.562	4611
664.615	5592
664.669	4641
664.722	4975
664.776	3981
664.829	5190
664.883	4556
664.936	4515
664.990	5112
665.043	4950
665.097	5393
665.150	6509
665.203	4659
665.257	5205
665.310	5754
665.363	5375
665.417	5607
665.470	5435
665.523	5059
665.576	5282
665.630	4368
665.683	4646
665.736	5469
665.789	4946
665.842	3974
665.895	5266
665.949	4928
666.002	5737
666.055	5158
666.108	5688
666.161	5075
666.214	5564
666.267	5577
666.320	6869
666.373	6064
666.426	5950
666.479	5186
666.532	5858
666.585	7115
666.638	6323
666.691	6025
666.744	5959
666.796	5456
666.849	5871
666.902	6032
666.955	4946
667.008	5857
667.060	5781
667.113	6015
667.166	6343
667.219	6795
667.271	7130
667.324	6451
667.377	6998
667.430	5836
667.482	5872
667.535	5087
667.587	6175
667.640	6036
667.693	5420
667.745	6222
667.798	6239
667.850	6024
667.903	6554
667.955	5430
668.008	6210
668.060	6172
668.113	5378
668.165	6011
668.218	5307
668.270	6008
668.322	4958
668.375	5941
668.427	5767
668.479	5815
668.532	6447
668.584	5503
668.636	5539
668.689	5548
668.741	5111
668.793	6251
668.845	5107
668.898	6338
668.950	5161
669.002	5259
669.054	5110
669.106	5456
669.158	6170
669.211	4881
669.263	4840
669.315	5468
669.367	4971
669.419	4093
669.471	6321
669.523	4593
669.575	5455
669.627	4416
669.679	4472
669.731	4867
669.783	5492
669.835	5286
669.886	4844
669.938	4413
669.990	4591
670.042	4662
670.094	4520
670.146	4909
670.197	4470
670.249	5200
670.301	4387
670.353	5408
670.404	5616
670.456	5051
670.508	5874
670.560	7356
670.611	9035
670.663	11439
670.715	24258
670.766	33496
670.818	9793
670.869	6511
670.921	6092
670.972	5837
671.024	5349
671.075	5000
671.127	5529
671.178	5417
671.230	5893
671.281	6037
671.333	8176
671.384	8705
671.436	11618
671.487	16725
671.538	23350
671.590	38561
671.641	64330
671.692	116083
671.744	204526
671.795	142364
671.846	53798
671.897	26072
671.949	17808
672.000	12080
672.051	9468
672.102	7563
672.153	6822
672.204	5891
672.256	6528
672.307	5729
672.358	4547
672.409	4753
672.460	4481
672.511	3843
672.562	3631
672.613	4470
672.664	3381
672.715	4700
672.766	3757
672.817	3364
672.868	3581
672.919	4385
672.970	2989
673.021	3459
673.071	3356
673.122	3097
673.173	3374
673.224	3966
673.275	3484
673.326	2778
673.376	3259
673.427	3028
673.478	3858
673.528	3738
673.579	3966
673.630	3119
673.680	3732
673.731	3716
673.782	3020
673.832	3370
673.883	3311
673.934	2308
673.984	3309
674.035	2739
674.085	3325
674.136	3107
674.186	4327
674.237	3545
674.287	3599
674.338	4025
674.388	3949
674.438	3851
674.489	4205
674.539	4405
674.589	4280
674.640	4084
674.690	3880
674.740	4086
674.791	3354
674.841	3579
674.891	2345
674.942	2203
674.992	2351
675.042	2687
675.092	2339
675.142	2287
675.193	2165
675.243	2323
675.293	2882
675.343	3219
675.393	3382
675.443	2765
675.493	2984
675.543	2035
675.593	2760
675.643	1993
675.693	3125
675.743	2604
675.793	2915
675.843	2157
675.893	2652
675.943	2054
675.993	2565
676.043	2220
676.093	2992
676.142	2273
676.192	2356
676.242	2207
676.292	2768
676.341	2885
676.391	2679
676.441	1865
676.491	2649
676.540	1876
676.590	2561
676.640	2232
676.689	2047
676.739	2486
676.789	1990
676.838	1653
676.888	2308
676.937	1911
676.987	1648
677.037	1906
677.086	1420
677.136	2197
677.185	1522
677.235	2143
677.284	3186
677.333	1498
677.383	2231
677.432	1474
677.482	1614
677.531	2004
677.580	1460
677.630	1958
677.679	1886
677.728	1342
677.778	1189
677.827	1470
677.876	2014
677.925	2213
677.975	1786
678.024	1536
678.073	1625
678.122	2719
678.171	2023
678.220	1698
678.269	3452
678.319	3752
678.368	3819
678.417	3009
678.466	2380
678.515	1441
678.564	2030
678.613	882
678.662	1782
678.711	2051
678.760	2036
678.809	2437
678.857	2121
678.906	2155
678.955	1846
679.004	2169
679.053	1008
679.102	1467
679.151	2488
679.199	1342
679.248	1681
679.297	1542
679.346	541
679.394	736
679.443	1083
679.492	1340
679.540	1694
679.589	1713
679.638	1569
679.686	1241
679.735	2265
679.784	2914
679.832	3930
679.881	1646
679.929	2218
679.978	1676
680.026	2423
680.075	1927
680.123	1409
680.172	352
680.220	2039
680.268	1917
680.317	1166
680.365	1311
680.414	823
680.462	1114
680.510	1879
680.559	1964
680.607	1608
680.655	1607
680.703	1781
680.752	1540
680.800	1264
680.848	1284
680.896	1327
680.945	1048
680.993	486
681.041	779
681.089	789
681.137	800
681.185	1107
681.233	1010
681.258	1524
681.281	1982
681.329	1320
681.377	828
681.380	876
681.425	1255
681.473	1861
681.502	1980
681.521	2017
681.569	1655
681.617	678
681.624	800
681.665	1343
681.713	1724
681.745	2137
681.761	2296
681.809	1714
681.857	2713
681.867	2597
681.904	2085
681.952	2866
681.989	2561
682.000	2429
682.048	2146
682.096	2385
682.111	2392
682.143	2324
682.191	2387
682.233	2799
682.239	2834
682.286	1624
682.334	2337
682.354	2140
682.382	1803
682.430	2886
682.476	2575
682.477	2544
682.525	2930
682.572	2720
682.598	3076
682.620	3341
682.667	2267
682.715	3167
682.720	3210
682.763	3323
682.810	2876
682.841	2966
682.857	2979
682.905	2946
682.952	2977
682.963	3077
683.000	3344
683.047	3455
683.085	4215
683.095	4386
683.142	3333
683.190	3339
683.206	3210
683.237	2926
683.284	3533
683.328	3727
683.332	3726
683.379	2973
683.426	3801
683.449	3535
683.473	3230
683.521	3438
683.568	3918
683.571	3964
683.615	4246
683.662	4087
683.693	3828
683.709	3627
683.757	3521
683.804	3871
683.814	3791
683.851	3546
683.898	4046
683.936	3749
683.945	3646
683.992	3635
684.039	4110
684.057	3946
684.086	3633
684.133	4487
684.179	3724
684.180	3684
684.227	4688
684.274	4305
684.300	4168
684.321	4040
684.368	3955
684.415	5176
684.422	5077
684.462	4404
684.509	4584
684.543	4573
684.556	4550
684.603	4841
684.649	4729
684.665	4875
684.696	5122
684.743	5549
684.786	5559
684.790	5536
684.837	5200
684.883	6047
684.908	5654
684.930	5324
684.977	5891
685.023	5409
685.029	5475
685.070	5814
685.117	5612
685.150	5568
685.164	5519
685.210	5753
685.257	5989
685.272	5902
685.303	5789
685.350	5501
685.393	6008
685.396	6018
685.443	5605
685.490	5941
685.514	5795
685.536	5715
685.583	5743
685.629	5468
685.636	5416
685.675	5296
685.722	6218
685.757	6379
685.768	6320
685.815	5203
685.861	5942
685.878	5862
685.908	5850
685.954	5528
686.000	6697
686.000	6711
686.047	6339
686.093	6429
686.121	6318
686.139	6142
686.185	6543
686.232	5944
686.242	6056
686.278	6470
686.324	6756
686.363	6804
686.370	6804
686.416	6204
686.463	6982
686.484	6817
686.509	6670
686.555	6421
686.601	6165
686.606	6198
686.647	6350
686.693	6692
686.727	6388
686.739	6330
686.785	6349
686.831	7120
686.848	7179
686.877	7150
686.923	6716
686.969	6339
686.969	6337
687.015	7163
687.061	7886
687.090	7896
687.107	7822
687.153	8051
687.199	7999
687.211	7907
687.245	7489
687.291	7678
687.332	7443
687.336	7454
687.382	7686
687.428	7917
687.453	8062
687.474	8028
687.520	8248
687.565	7460
687.574	7460
687.611	7925
687.657	8694
687.695	9031
687.702	9073
687.748	9276
687.794	10471
687.816	10206
687.839	9656
687.885	9148
687.931	8980
687.937	8940
687.976	8941
688.022	8605
688.058	9178
688.067	9293
688.113	8685
688.158	8710
688.179	8554
688.204	8523
688.249	8827
688.295	8668
688.300	8631
688.340	8365
688.386	8884
688.421	8291
688.431	8173
688.477	8992
688.522	9227
688.542	9233
688.567	9288
688.613	9600
688.658	10140
688.663	10118
688.703	9682
688.749	9374
688.784	9646
688.794	9769
688.839	9939
688.884	10024
688.905	9939
688.930	9770
688.975	9553
689.020	9404
689.026	9410
689.065	9682
689.110	9790
689.146	9836
689.155	9823
689.201	9564
689.246	9410
689.267	9424
689.291	9479
689.336	9308
689.381	9148
689.388	9145
689.426	9300
689.471	9515
689.509	9396
689.516	9406
689.561	10010
689.606	10114
689.630	10106
689.651	10034
689.696	9990
689.741	10189
689.750	10199
689.785	10460
689.830	10315
689.871	10574
689.875	10561
689.920	10328
689.965	10085
689.992	9793
690.010	9831
690.054	9931
690.099	9675
690.112	9840
690.144	10168
690.189	9747
690.233	9710
690.233	9726
690.278	10264
690.323	10620
690.354	10748
690.367	10716
690.412	10457
690.457	10065
690.474	10189
690.501	10419
690.546	10164
690.590	10279
690.595	10197
690.635	9620
690.680	9393
690.716	9445
690.724	9517
690.769	9855
690.813	9667
690.836	9573
690.857	9744
690.902	10535
690.946	10944
690.957	11140
690.991	11796
691.035	12195
691.077	12734
691.080	12745
691.124	12494
691.168	12306
691.198	11786
691.213	11586
691.257	11600
691.301	11392
691.318	11373
691.346	11513
691.390	11268
691.434	11162
691.439	11149
691.478	11238
691.522	11231
691.559	11260
691.567	11342
691.611	11832
691.655	12154
691.680	12404
691.699	12358
691.743	11559
691.787	11509
691.800	11320
691.831	11263
691.875	11735
691.919	11671
691.921	11655
691.964	11499
692.008	11418
692.041	11393
692.052	11493
692.096	11441
692.139	11613
692.162	11571
692.183	11511
692.227	11335
692.271	11710
692.282	11637
692.315	11443
692.359	11633
692.402	11487
692.403	11509
692.447	11397
692.490	11324
692.523	11296
692.534	11309
692.578	11115
692.622	10968
692.643	11066
692.666	11253
692.709	11280
692.753	11578
692.763	11515
692.797	11432
692.840	11429
692.884	11471
692.884	11496
692.928	11517
692.971	11688
693.004	11665
693.015	11662
693.059	11793
693.102	11702
693.124	11538
693.146	11469
693.189	11827
693.233	11744
693.245	11727
693.276	11684
693.320	11680
693.363	11593
693.365	11550
693.407	11504
693.450	11857
693.485	12369
693.493	12488
693.537	12804
693.580	12619
693.605	12748
693.624	12864
693.667	12933
693.710	12963
693.725	12984
693.753	13817
693.797	15027
693.840	16499
693.845	16553
693.883	15583
693.926	15173
693.966	14427
693.970	14388
694.013	13901
694.056	13108
694.086	12520
694.099	12452
694.142	12584
694.185	12180
694.206	12210
694.229	12558
694.272	12734
694.315	13119
694.326	13177
694.358	13206
694.401	13186
694.444	13025
694.446	13009
694.487	13171
694.530	12755
694.566	12697
694.573	12768
694.616	12600
694.659	12886
694.686	12920
694.702	12973
694.745	13228
694.787	13075
694.806	13089
694.830	13218
694.873	13255
694.916	13475
694.926	13504
694.959	13770
695.002	14015
695.044	14041
695.046	14013
695.087	14290
695.130	14591
695.166	14938
695.172	15007
695.215	15109
695.258	15245
695.286	15205
695.301	15312
695.343	15393
695.386	15875
695.406	15911
695.428	16529
695.471	17773
695.514	19156
695.526	19481
695.556	20792
695.599	22597
695.641	24174
695.646	24311
695.684	22979
695.726	21442
695.766	19830
695.769	19847
695.811	19496
695.854	19155
695.886	18864
695.896	19019
695.938	19416
695.981	19768
696.005	19957
696.023	20505
696.065	21825
696.108	22974
696.125	23421
696.150	23946
696.192	24772
696.235	25552
696.245	25689
696.277	25653
696.319	25600
696.361	25323
696.365	25260
696.404	24999
696.446	24497
696.485	23934
696.488	23987
696.530	23884
696.572	23935
696.604	23802
696.614	23868
696.656	24067
696.698	24133
696.724	24156
696.740	24118
696.783	23889
696.825	23463
696.844	23326
696.867	23645
696.909	23974
696.951	24304
696.964	24344
696.992	24473
697.034	24674
697.076	24857
697.083	24828
697.118	25801
697.160	26862
697.202	27809
697.203	27770
697.244	27550
697.286	27219
697.323	26778
697.327	26856
697.369	27102
697.411	27154
697.442	27188
697.453	27154
697.494	26786
697.536	26383
697.562	26039
697.578	26159
697.620	26302
697.661	26519
697.682	26542
697.703	27181
697.744	28340
697.786	29507
697.801	29805
697.828	29413
697.869	28785
697.911	28174
697.921	27940
697.952	28222
697.994	28515
698.035	28831
698.040	28798
698.077	28971
698.118	29030
698.160	29076
698.160	29001
698.201	30066
698.243	31067
698.279	31914
698.284	32048
698.325	32504
698.367	32946
698.399	33184
698.408	33347
698.449	33781
698.491	34138
698.518	34315
698.532	34480
698.573	34716
698.614	34933
698.638	34968
698.656	35055
698.697	35056
698.738	35067
698.757	34977
698.779	34836
698.820	34396
698.862	33948
698.877	33700
698.903	34109
698.944	34613
698.985	35118
698.996	35168
699.026	35006
699.067	34657
699.116	34152
699.235	34288
699.354	32340
699.474	31555
699.593	30923
699.713	31096
699.832	32199
699.951	33017
700.070	32696
700.190	30709
700.309	30124
700.428	28720
700.547	28665
700.667	28907
700.786	28984
700.905	26876
701.024	28529
701.143	27223
701.262	29239
701.381	29430
701.500	29935
701.619	28336
701.738	28924
701.857	28996
701.976	27310
702.095	27636
702.214	29184
702.333	27301
702.452	29081
702.571	28847
702.690	28441
702.809	28979
702.928	26004
703.047	25787
703.165	25981
703.284	25910
703.403	25933
703.522	25692
703.640	25051
703.759	24138
703.878	22652
703.997	24120
704.115	25617
704.234	24272
704.353	25395
704.471	22784
704.590	22697
704.708	22431
704.827	22495
704.946	21730
705.064	22724
705.183	21920
705.301	21873
705.420	20747
705.538	19684
705.656	19933
705.775	19135
705.893	20671
706.012	20497
706.130	18768
706.249	21988
706.367	19446
706.485	20859
706.604	19174
706.722	19110
706.840	21269
706.958	22162
707.077	18624
707.195	19566
707.313	19095
707.431	17140
707.549	17876
707.668	16174
707.786	19198
707.904	17920
708.022	18672
708.140	18209
708.258	17555
708.376	19227
708.494	15770
708.612	18477
708.730	18132
708.848	17308
708.966	17632
709.084	18552
709.202	18573
709.320	15415
709.438	16597
709.556	17403
709.674	14495
709.791	16218
709.909	15250
710.027	15607
710.145	15199
710.263	15234
710.380	15083
710.498	14945
710.616	15075
710.733	13814
710.851	14992
710.969	14796
711.086	13516
711.204	15209
711.322	14770
711.439	13769
711.557	12938
711.674	13593
711.792	13590
711.909	13440
712.027	12532
712.144	12615
712.262	13779
712.379	13310
712.497	13204
712.614	13177
712.732	13832
712.849	12263
712.966	13899
713.084	13305
713.201	11268
713.318	13290
713.436	15722
713.553	13788
713.670	14355
713.787	14552
713.905	13013
714.022	14602
714.139	16210
714.256	18400
714.373	27730
714.490	52565
714.608	135458
714.725	497502
714.842	450122
714.959	60081
715.076	24950
715.193	19335
715.310	16257
715.427	13424
715.544	13681
715.661	13764
715.778	12698
715.895	12820
716.011	11164
716.128	10927
716.245	10978
716.362	11163
716.479	10296
716.596	10480
716.713	10759
716.829	10318
716.946	9451
717.063	9908
717.180	9001
717.296	9809
717.413	9908
717.530	10258
717.646	8253
717.763	9500
717.880	10751
717.996	8503
718.113	9689
718.229	9136
718.346	9037
718.462	8898
718.579	8823
718.695	9210
718.812	8233
718.928	8960
719.045	8316
719.161	8893
719.277	10117
719.394	9409
719.510	9632
719.626	11064
719.743	13468
719.859	22171
719.975	47531
720.092	188778
720.208	381835
720.324	51115
720.440	14864
720.557	11441
720.673	10830
720.789	10168
720.905	9261
721.021	9136
721.137	8470
721.253	7544
721.369	7686
721.486	8820
721.602	7821
721.718	7377
721.834	7610
721.950	7554
722.066	7992
722.181	7880
722.297	7972
722.413	7150
722.529	7530
722.645	7919
722.761	6987
722.877	7399
722.993	8781
723.108	11207
723.224	9108
723.340	8069
723.456	6569
723.571	6879
723.687	6101
723.803	7668
723.918	7271
724.034	6025
724.150	7262
724.265	6580
724.381	6725
724.497	6442
724.612	6626
724.728	6411
724.843	5959
724.959	6433
725.074	6941
725.190	6808
725.305	6956
725.421	6440
725.536	6659
725.651	7273
725.767	6326
725.882	6625
725.997	6369
726.113	6722
726.228	7019
726.343	6332
726.459	6075
726.574	6491
726.689	5461
726.804	6132
726.920	6907
727.035	6099
727.150	6767
727.265	5543
727.380	6448
727.495	6572
727.610	5005
727.725	6196
727.841	5978
727.956	6042
728.071	6096
728.186	6206
728.301	5771
728.416	7241
728.531	6171
728.645	5411
728.760	5871
728.875	6088
728.990	5876
729.105	5607
729.220	5558
729.335	6996
729.449	6111
729.564	5743
729.679	4762
729.794	6617
729.908	5618
730.023	5870
730.138	5809
730.253	7595
730.367	5629
730.482	6128
730.596	6177
730.711	7525
730.826	10946
730.940	10330
731.055	8064
731.169	9019
731.284	8971
731.398	9198
731.513	9488
731.627	10575
731.742	13833
731.856	18711
731.970	18263
732.085	22450
732.199	33259
732.313	58183
732.428	150434
732.542	402277
732.656	227073
732.771	50502
732.885	29376
732.999	25604
733.113	25967
733.227	23761
733.342	23547
733.456	22980
733.570	20968
733.684	20392
733.798	18804
733.912	19459
734.026	20544
734.140	20053
734.254	18556
734.368	18220
734.482	17531
734.596	18826
734.710	17367
734.824	17453
734.938	16115
735.052	17957
735.166	17567
735.280	17543
735.393	17140
735.507	16868
735.621	16632
735.735	16018
735.849	17478
735.962	15312
736.076	16728
736.190	15530
736.303	15499
736.417	15610
736.531	15577
736.644	15934
736.758	15088
736.872	14721
736.985	14899
737.099	14313
737.212	14386
737.326	13723
737.439	14610
737.553	13355
737.666	15443
737.780	13405
737.893	14468
738.007	13452
738.120	14682
738.233	12871
738.347	13765
738.460	12451
738.573	14427
738.687	13255
738.800	14124
738.913	13331
739.026	13298
739.140	12854
739.253	12729
739.366	13375
739.479	12086
739.592	13282
739.705	11224
739.818	14267
739.932	11612
740.045	12106
740.158	12907
740.271	13064
740.384	12174
740.497	9884
740.610	13220
740.723	11558
740.836	12056
740.949	11236
741.062	13079
741.174	11401
741.287	10782
741.400	12281
741.513	9130
741.626	11075
741.739	10815
741.851	10306
741.964	12367
742.077	9480
742.189	9466
742.302	10750
742.415	10857
742.527	10057
742.640	11087
742.753	8751
742.865	10281
742.978	10148
743.090	9431
743.203	9497
743.316	9129
743.428	10035
743.541	10270
743.653	8208
743.766	9513
743.878	9377
743.990	8288
744.103	10192
744.215	9251
744.327	8125
744.440	11537
744.552	9324
744.664	8299
744.777	10394
744.889	8574
745.001	8800
745.113	9640
745.226	8677
745.338	8051
745.450	9714
745.562	8455
745.674	7801
745.786	9624
745.898	8619
746.010	8552
746.122	9688
746.234	8833
746.347	9154
746.459	8115
746.570	6768
746.682	9073
746.794	9686
746.906	7248
747.018	6600
747.130	8819
747.242	6530
747.354	7129
747.466	8290
747.577	7523
747.689	8418
747.801	8620
747.913	7615
748.024	6901
748.136	6433
748.248	6505
748.359	6921
748.471	8438
748.583	5999
748.694	6021
748.806	8185
748.918	6420
749.029	6604
749.141	7178
749.252	7800
749.364	6495
749.475	6202
749.587	6138
749.698	5815
749.809	7656
749.921	7416
750.032	6574
750.144	5882
750.255	5959
750.366	6433
750.478	6746
750.589	5592
750.700	4855
750.811	6723
750.923	5868
751.034	5295
751.145	7101
751.256	5020
751.367	6084
751.479	6176
751.590	5406
751.701	5609
751.812	5178
751.923	4849
752.034	7407
752.145	5733
752.256	6333
752.367	5289
752.478	5488
752.589	6415
752.700	5604
752.811	5044
752.922	4719
753.032	6122
753.143	5571
753.254	5822
753.365	6655
753.476	7253
753.586	4979
753.697	5451
753.808	6076
753.919	6292
754.029	4929
754.140	4824
754.251	5371
754.361	4976
754.472	5829
754.582	4654
754.693	4417
754.804	6949
754.914	4530
755.025	4321
755.135	5028
755.246	5607
755.356	4971
755.466	4403
755.577	5036
755.687	4562
755.798	4182
755.908	5091
756.018	5684
756.129	5525
756.239	5520
756.349	5364
756.460	5349
756.570	5781
756.680	4928
756.790	5458
756.900	5724
757.011	4256
757.121	4744
757.231	3897
757.341	5683
757.451	3645
757.561	4196
757.671	4492
757.781	5233
757.891	5224
758.001	3792
758.111	5076
758.221	5592
758.331	5450
758.441	4483
758.551	4572
758.661	6044
758.771	5597
758.880	4957
758.990	4800
759.100	4813
759.210	4900
759.320	5180
759.429	5307
759.539	6635
759.649	6176
759.758	7364
759.868	7276
759.978	7776
760.087	8666
760.197	8203
760.307	7271
760.416	6487
760.526	6180
760.635	7647
760.745	8185
760.854	7504
760.964	9031
761.073	9049
761.182	9085
761.292	6978
761.401	6275
761.511	5705
761.620	5194
761.729	5701
761.839	4645
761.948	4568
762.057	3705
762.166	4040
762.276	4164
762.385	5125
762.494	3773
762.603	4676
762.712	5400
762.822	4148
762.931	3722
763.040	3187
763.149	3963
763.258	3941
763.367	4083
763.476	3995
763.585	4074
763.694	3088
763.803	3795
763.912	3837
764.021	4783
764.130	4003
764.238	4917
764.347	4537
764.456	5105
764.565	4348
764.674	4101
764.783	3319
764.891	4548
765.000	5155
765.109	4152
765.217	4634
765.326	5083
765.435	6174
765.543	5608
765.652	6078
765.761	7417
765.869	10471
765.978	13622
766.086	24562
766.195	46175
766.303	112370
766.412	242024
766.520	194827
766.629	75431
766.737	30573
766.846	18437
766.954	12036
767.062	9723
767.171	7965
767.279	6831
767.387	5357
767.496	4796
767.604	5317
767.712	4829
767.820	4777
767.928	4735
768.037	3966
768.145	4134
768.253	4850
768.361	4905
768.469	3670
768.577	3935
768.685	4459
768.793	5495
768.901	4111
769.009	5386
769.117	4886
769.225	6351
769.333	8612
769.441	11835
769.549	19515
769.657	43802
769.765	122989
769.873	199674
769.981	85409
770.088	25009
770.196	14772
770.304	10411
770.412	8778
770.519	7580
770.627	8048
770.735	6558
770.842	6045
770.950	5840
771.058	6745
771.165	7568
771.273	8409
771.380	8838
771.488	11876
771.595	13871
771.703	12387
771.810	10830
771.918	12329
772.025	13525
772.133	16247
772.240	14372
772.348	17648
772.455	16601
772.562	15051
772.670	14377
772.777	14812
772.884	15005
772.991	13582
773.099	15381
773.206	13394
773.313	13705
773.420	13560
773.528	13124
773.635	12338
773.742	14320
773.849	12861
773.956	12963
774.063	13026
774.170	13031
774.277	13213
774.384	11533
774.491	12042
774.598	12306
774.705	11758
774.812	12869
774.919	12738
775.026	11890
775.133	11940
775.239	11859
775.346	11150
775.453	11232
775.560	10626
775.667	12670
775.773	10520
775.880	11321
775.987	11672
776.093	11929
776.200	13090
776.307	9534
776.413	10231
776.520	12531
776.627	11003
776.733	9606
776.840	8888
776.946	13498
777.053	9540
777.159	9546
777.266	7615
777.372	9845
777.478	10952
777.585	11476
777.691	8841
777.798	10051
777.904	8558
778.010	8553
778.117	9783
778.223	9044
778.329	9631
778.435	7486
778.542	10532
778.648	9233
778.754	8215
778.860	10512
778.966	8938
779.072	8434
779.178	9232
779.284	7792
779.391	8051
779.497	8447
779.603	9876
779.708	8422
779.815	7701
779.920	10990
780.026	11105
780.132	8444
780.238	7473
780.344	6861
780.450	10647
780.556	6919
780.661	6739
780.767	9748
780.873	5753
780.979	7473
781.085	8928
781.190	7267
781.296	6354
781.402	7856
781.507	7251
781.613	5733
781.719	7408
781.824	8574
781.930	7233
782.035	7444
782.141	9507
782.246	5525
782.352	6090
782.457	6402
782.563	6956
782.668	7179
782.773	6396
782.879	5495
782.984	6269
783.090	6518
783.195	6755
783.300	8183
783.405	6523
783.511	5395
783.616	6000
783.721	6465
783.826	5351
783.932	5430
784.037	6919
784.142	6844
784.247	6397
784.352	6661
784.457	5050
784.562	6883
784.667	6297
784.772	4216
784.877	3854
784.982	7428
785.087	6013
785.192	4896
785.297	4313
785.402	5729
785.507	5871
785.611	6087
785.716	4192
785.821	6395
785.926	6278
786.031	5337
786.135	5423
786.240	5705
786.345	4259
786.450	5054
786.554	5704
786.659	4363
786.763	4495
786.868	5717
786.973	6741
787.077	4717
787.182	4076
787.286	5444
787.391	6498
787.495	2861
787.600	3380
787.704	4239
787.809	5200
787.913	4375
788.017	5342
788.122	6205
788.226	4534
788.330	2644
788.435	4623
788.539	5080
788.643	4129
788.747	2532
788.852	3914
788.956	3667
789.060	5690
789.164	4734
789.268	4151
789.372	4971
789.476	4408
789.580	2822
789.684	3338
789.788	5470
789.892	5259
789.996	3420
790.100	2028
790.204	4994
790.308	5594
790.412	4066
790.516	2354
790.620	3553
790.724	4991
790.828	4051
790.931	1972
791.035	4720
791.139	3361
791.242	3449
791.346	4477
791.450	4219
791.554	2809
791.657	2108
791.761	4731
791.864	4666
791.968	4458
792.072	4205
792.175	3488
792.279	3139
792.382	3493
792.486	2508
792.589	2085
792.693	4319
792.796	2751
792.899	4110
793.003	4108
793.106	1844
793.209	2604
793.313	3634
793.416	1391
793.519	3754
793.623	4410
793.726	4041
793.829	2823
793.932	2290
794.035	2017
794.138	4486
794.242	4385
794.345	2969
794.448	2409
794.551	2022
794.654	3851
794.757	5251
794.860	3087
794.963	3117
795.066	2572
795.169	3556
795.272	2996
795.375	3800
795.477	1147
795.580	1961
795.683	1468
795.786	3357
795.889	2261
795.991	3129
796.094	3730
796.197	2701
796.300	3309
796.402	3060
796.505	1616
796.608	1937
796.710	2720
796.813	2966
796.915	3441
797.018	3237
797.120	3856
797.223	1513
797.326	3878
797.428	1218
797.530	1696
797.633	2147
797.735	3948
797.838	3006
797.940	3429
798.042	2457
798.145	1629
798.247	2890
798.349	970
798.452	2411
798.554	3375
798.656	2537
798.758	3828
798.860	2983
798.962	2087
799.065	1811
799.167	1223
799.269	3112
799.371	2987
799.473	4491
799.575	3800
799.677	1961
799.779	3248
799.881	1188
799.983	2937
800.085	2249
800.187	2313
800.289	1166
800.390	1980
800.492	3102
800.594	2848
800.696	2207
800.798	1952
800.899	1788
801.001	2840
801.103	3101
801.205	1571
801.306	1400
801.408	1491
801.509	2336
801.611	2829
801.713	3023
801.814	1189
801.916	1013
802.017	1946
802.119	1455
802.220	2609
802.322	654
802.423	3302
802.525	874
802.626	1296
802.727	3190
802.829	3075
802.930	-1326
803.031	3287
803.133	1869
803.234	2014
803.335	2014
803.436	1506
803.538	1693
803.639	-1
803.740	2820
803.841	2028
803.942	3265
804.043	2528
804.144	837
804.245	2160
804.346	1329
804.447	981
804.548	1287
804.649	3406
804.750	1118
804.851	2075
804.952	1813
805.053	1366
805.154	511
805.255	2450
805.355	1817
805.456	2147
805.557	1706
805.658	966
805.758	2052
805.859	1448
805.960	2513
806.061	1944
806.161	691
806.262	1065
806.362	1258
806.463	1190
806.564	2220
806.664	1725
806.765	1028
806.865	1342
806.966	1398
807.066	573
807.166	2006
807.267	2443
807.367	1555
807.468	1910
807.568	420
807.668	1263
807.769	2311
807.869	1348
807.969	1890
808.069	1713
808.170	1162
808.270	1101
808.370	2270
808.470	1895
808.570	365
808.670	950
808.770	630
808.870	1296
808.970	1581
809.070	843
809.170	1048
809.271	1984
809.370	1819
809.470	1226
809.570	707
809.670	-59
809.770	1218
809.870	1945
809.970	2460
810.070	2095
810.169	2096
810.269	349
810.369	2551
810.469	1420
810.568	1768
810.668	960
810.768	935
810.867	1179
810.967	216
811.066	862
811.166	1174
811.265	2312
811.365	843
811.464	1182
811.564	1211
811.663	627
811.763	-28
811.862	2343
811.962	1367
812.061	1355
812.160	1138
812.260	1520
812.359	686
812.458	1108
812.557	2279
812.657	537
812.756	2058
812.855	1346
812.954	1146
813.053	1660
813.153	1785
813.252	186
813.351	1478
813.450	1169
813.549	1206
813.648	1425
813.747	1158
813.846	2013
813.945	1135
814.044	1691
814.143	2121
814.242	2454
814.341	1198
814.439	1534
814.538	1950
814.637	2261
814.736	1936
814.835	3156
814.933	1677
815.032	2914
815.131	4248
815.229	8905
815.328	14088
815.427	9893
815.525	8725
815.624	8611
815.722	9341
815.821	8818
815.919	9202
816.018	7248
816.116	8951
816.215	8294
816.313	9123
816.412	11388
816.510	12012
816.609	12794
816.707	13901
816.805	10820
816.904	10337
817.002	11189
817.100	12079
817.198	12457
817.296	10261
817.395	10511
817.493	10783
817.591	9828
817.689	10705
817.787	9884
817.885	10255
817.983	9830
818.081	10308
818.179	9746
818.277	15490
818.375	12209
818.473	9794
818.571	7888
818.669	9633
818.767	10884
818.865	8930
818.963	7443
819.061	9608
819.158	8961
819.256	12132
819.354	11291
819.452	16709
819.549	12081
819.647	11381
819.745	8428
819.842	8387
819.940	8802
820.038	7722
820.135	7040
820.233	9387
820.330	7546
820.428	7109
820.525	9566
820.623	7787
820.720	6519
820.818	7735
820.915	8821
821.012	7961
821.110	7041
821.207	8593
821.304	6930
821.402	8238
821.499	9060
821.596	6233
821.693	6384
821.791	8589
821.888	6622
821.985	8311
822.082	5034
822.179	7267
822.276	7518
822.373	5620
822.470	6203
822.567	7724
822.664	5086
822.761	7370
822.858	6787
822.955	6530
823.052	5845
823.149	6821
823.246	7877
823.343	5327
823.440	4936
823.536	7078
823.633	6792
823.730	5822
823.827	6601
823.923	6738
824.020	6024
824.117	6604
824.213	5974
824.310	6150
824.407	4838
824.503	7361
824.600	5619
824.696	4741
824.793	6923
824.889	6354
824.986	5430
825.082	3413
825.179	4206
825.275	6817
825.371	7484
825.468	4723
825.564	2792
825.660	7218
825.757	7982
825.853	5805
825.949	3708
826.045	4143
826.142	6353
826.238	6174
826.334	5915
826.430	5231
826.526	3207
826.622	3274
826.718	6124
826.814	6686
826.910	5929
827.006	2518
827.102	3850
827.198	6507
827.294	6355
827.390	5760
827.486	4066
827.582	2284
827.678	3402
827.774	7825
827.869	3956
827.965	4332
828.061	3277
828.157	6132
828.252	5103
828.348	3751
828.444	4247
828.539	3839
828.635	5252
828.731	4976
828.826	3156
828.922	4604
829.017	5488
829.113	4497
829.208	3419
829.304	3329
829.399	5352
829.495	4771
829.590	3932
829.685	3898
829.781	4631
829.876	5030
829.971	1831
830.066	1733
830.162	3823
830.257	6691
830.352	3910
830.447	2455
830.543	3398
830.638	3529
830.733	6170
830.828	3420
830.923	4646
831.018	4475
831.113	4901
831.208	3024
831.303	1354
831.398	3028
831.493	4078
831.588	7051
831.683	3060
831.778	2023
831.873	2259
831.967	3995
832.062	4514
832.157	3089
832.252	3574
832.346	3175
832.441	4610
832.536	3779
832.631	3256
832.725	3056
832.820	3680
832.914	3997
833.009	2440
833.104	1996
833.198	2998
833.293	2623
833.387	5410
833.482	3562
833.576	3483
833.670	2584
833.765	2505
833.859	4256
833.954	4601
834.048	2866
834.142	3088
834.237	1381
834.331	3208
834.425	3948
834.519	2422
834.613	2202
834.708	2656
834.802	3177
834.896	2970
834.990	2524
835.084	2061
835.178	1623
835.272	1648
835.366	4438
835.460	3713
835.554	2585
835.648	1555
835.742	467
835.836	2126
835.930	2378
836.024	3132
836.117	2742
836.211	2177
836.305	2061
836.399	2739
836.493	1159
836.586	4002
836.680	3115
836.774	2063
836.867	2132
836.961	173
837.055	625
837.148	1981
837.242	2934
837.335	2593
837.429	2296
837.522	1399
837.616	1240
837.709	1416
837.803	1061
837.896	3052
837.989	3228
838.083	2148
838.176	773
838.269	590
838.363	2276
838.456	1804
838.549	2479
838.642	972
838.735	1979
838.829	2565
838.922	1853
839.015	1781
839.108	1211
839.201	2074
839.294	2132
839.387	1475
839.480	2070
839.573	944
839.666	1262
839.759	1353
839.852	855
839.945	1425
840.038	1763
840.131	1142
840.223	796
840.316	2439
840.409	2065
840.502	2046
840.594	2922
840.687	-585
840.780	1226
840.873	543
840.965	1056
841.058	1513
841.150	2743
841.243	498
841.336	1798
841.428	985
841.521	1089
841.613	967
841.706	1214
841.798	282
841.890	1504
841.983	828
842.075	1295
842.167	918
842.260	1470
842.352	2731
842.444	830
842.537	311
842.629	912
842.721	909
842.813	1413
842.905	198
842.997	1990
843.090	1170
843.182	769
843.274	107
843.366	1046
843.458	1373
843.550	2054
843.642	1336
843.734	1342
843.826	102
843.918	652
844.009	1781
844.101	-38
844.193	1409
844.285	1107
844.377	1357
844.469	417
844.560	298
844.652	1158
844.744	1084
844.835	1353
844.927	2065
845.019	1080
845.110	694
845.202	2422
845.293	478
845.385	571
845.476	701
845.568	1850
845.659	1359
845.751	1770
845.842	-3
845.934	1301
846.025	472
846.116	1163
846.208	1550
846.299	77
846.390	938
846.482	229
846.573	1772
846.664	892
846.755	892
846.846	1400
846.937	-472
847.029	83
847.120	672
847.211	706
847.302	2021
847.393	206
847.484	1602
847.575	317
847.666	-517
847.757	146
847.847	762
847.938	1695
848.029	327
848.120	473
848.211	664
848.302	496
848.392	32
848.483	1218
848.574	1156
848.664	1071
848.755	838
848.846	117
848.936	161
849.027	944
849.118	1133
849.208	31
849.299	1779
849.389	3635
849.480	6405
849.570	12205
849.661	25030
849.751	42303
849.841	16620
849.932	3911
850.022	1180
850.112	1412
850.203	944
850.293	-80
850.383	512
850.474	351
850.564	789
850.654	146
850.744	-601
850.834	746
850.924	335
851.014	2043
851.104	177
851.194	683
851.284	344
851.374	1125
851.464	909
851.554	519
851.644	270
851.734	855
851.824	1082
851.914	520
852.004	1630
852.094	-67
852.183	214
852.273	571
852.363	173
852.452	1132
852.542	394
852.632	283
852.721	-133
852.811	22
852.901	1364
852.990	831
853.080	780
853.169	1019
853.259	1750
853.348	1569
853.438	2561
853.527	4050
853.617	3850
853.706	7719
853.795	14038
853.885	27047
853.974	48180
854.063	85596
854.152	112495
854.242	53906
854.331	15241
854.420	7929
854.509	4746
854.598	3539
854.687	3084
854.777	2171
854.866	898
854.955	1805
855.044	685
855.133	-278
855.222	892
855.311	510
855.400	1195
855.488	19
855.577	1138
855.666	755
855.755	1081
855.844	114
855.933	738
856.021	1267
856.110	-209
856.199	747
856.288	250
856.376	377
856.465	37
856.554	463
856.642	844
856.731	1356
856.819	898
856.908	474
856.996	307
857.085	-369
857.173	298
857.262	14
857.350	1014
857.438	188
857.527	-35
857.615	527
857.703	1895
857.792	233
857.880	-636
857.968	335
858.056	244
858.145	908
858.233	248
858.321	-173
858.409	1155
858.497	680
858.585	-72
858.673	1036
858.761	108
858.849	479
858.937	66
859.025	680
859.113	735
859.201	-308
859.289	918
859.377	667
859.465	644
859.552	1400
859.640	-324
859.728	-71
859.816	156
859.903	1423
859.991	-600
860.079	547
860.166	660
860.254	390
860.342	616
860.429	571
860.517	674
860.604	348
860.692	-167
860.779	-468
860.867	965
860.954	663
861.042	1477
861.129	1265
861.216	687
861.304	1057
861.391	519
861.478	663
861.565	1134
861.653	1266
861.740	999
861.827	392
861.914	388
862.001	212
862.089	28
862.176	915
862.263	-242
862.350	2
862.437	787
862.524	-405
862.611	1125
862.698	1221
862.785	1252
862.871	1699
862.958	1076
863.045	663
863.132	941
863.219	679
863.306	-423
863.392	1347
863.479	594
863.566	362
863.652	563
863.739	817
863.826	2127
863.912	1892
863.999	731
864.086	1036
864.172	1521
864.259	1551
864.345	903
864.432	2190
864.518	808
864.604	1465
864.691	1198
864.777	2561
864.863	3050
864.950	4786
865.036	6117
865.122	12820
865.209	12895
865.295	11629
865.381	10872
865.467	10136
865.553	10279
865.639	10844
865.726	15398
865.812	21634
865.898	33801
865.984	47350
866.070	76084
866.156	78383
866.242	32400
866.328	15478
866.414	11472
866.499	9801
866.585	9385
866.671	9024
866.757	8680
866.843	9059
866.928	7779
867.014	8227
867.100	8838
867.186	8011
867.271	7845
867.357	8322
867.442	7981
867.528	7663
867.614	7341
867.699	7766
867.785	8516
867.870	7671
867.956	7523
868.041	7879
868.127	7487
868.212	6955
868.297	7096
868.383	7564
868.468	7012
868.553	7235
868.639	6722
868.724	7675
868.809	6688
868.894	6326
868.979	7514
869.065	6761
869.150	5835
869.235	6767
869.320	6037
869.405	6131
869.490	5692
869.575	6400
869.660	4384
869.745	7863
869.830	7596
869.915	4994
870.000	6247
870.085	5885
870.169	7980
870.254	8276
870.339	4784
870.424	4866
870.509	5787
870.593	7858
870.678	6738
870.763	5961
870.847	5102
870.932	6260
871.016	5974
871.101	3844
871.186	5737
871.270	7153
871.355	3234
871.439	5458
871.523	7360
871.608	4388
871.692	4409
871.777	7723
871.861	6377
871.945	4822
872.030	5673
872.114	5978
872.198	5054
872.282	4865
872.367	4458
872.451	4309
872.535	4937
872.619	5095
872.703	4995
872.787	5565
872.871	5238
872.955	3611
873.039	2550
873.123	5024
873.207	5817
873.291	3346
873.375	3838
873.459	5855
873.543	4248
873.627	3974
873.711	3870
873.794	5372
873.878	4169
873.962	3304
874.045	4355
874.129	4631
874.137	4631
874.213	4632
874.245	4221
874.296	3558
874.352	3631
874.380	3668
874.460	3773
874.464	3777
874.547	3597
874.568	3813
874.631	4471
874.676	3935
874.714	3484
874.784	4767
874.798	5018
874.881	4489
874.892	4249
874.965	2678
874.999	3463
875.048	4495
875.107	4452
875.131	4448
875.215	2834
875.215	2834
875.298	2673
875.323	2994
875.381	3865
875.430	4424
875.465	4752
875.538	4340
875.548	4294
875.631	2369
875.646	2424
875.714	2643
875.753	2838
875.798	3105
875.861	3975
875.881	4222
875.964	2763
875.968	2734
876.047	2325
876.076	2768
876.130	3563
876.183	3436
876.213	3367
876.291	3823
876.296	3852
876.379	3807
876.398	3724
876.462	3414
876.506	2680
876.545	2034
876.613	2402
876.628	2513
876.711	3278
876.721	3376
876.794	3924
876.828	4005
876.877	4086
876.935	3103
876.960	2744
877.043	2410
877.043	2414
877.125	3512
877.150	3695
877.208	3874
877.258	3280
877.291	2955
877.365	2635
877.374	2587
877.456	2575
877.472	2378
877.539	1670
877.579	2499
877.622	3334
877.687	3556
877.704	3618
877.787	2246
877.794	2343
877.869	3369
877.901	3398
877.952	3419
878.008	2369
878.034	1843
878.115	2115
878.117	2124
878.199	2168
878.222	2403
878.282	3110
878.329	3375
878.364	3495
878.437	3322
878.447	3261
878.529	1296
878.544	1359
878.611	1960
878.651	2134
878.694	2429
878.758	2873
878.776	2903
878.858	3070
878.865	3004
878.941	2116
878.972	1952
879.023	1858
879.078	1965
879.105	2103
879.185	2818
879.187	2828
879.269	2672
879.292	2750
879.351	2876
879.399	2587
879.433	2326
879.506	2396
879.516	2441
879.598	2770
879.613	2678
879.680	2048
879.720	2360
879.762	2639
879.827	1876
879.844	1799
879.926	2181
879.933	2251
880.007	2474
880.040	2282
880.089	1973
880.147	2710
880.171	3167
880.253	3742
880.254	3742
880.335	2759
880.360	3134
880.417	4517
880.467	5167
880.499	5462
880.574	5694
880.580	5645
880.662	4183
880.680	3721
880.744	2325
880.787	2067
880.825	1889
880.893	2249
880.907	2327
880.989	1880
881.000	1854
881.070	2006
881.106	2111
881.152	2024
881.213	1904
881.233	1855
881.315	2081
881.319	2067
881.396	2424
881.426	2502
881.478	2090
881.532	2425
881.559	2858
881.639	2684
881.641	2662
881.722	1702
881.745	1677
881.803	1960
881.852	2194
881.885	2285
881.958	1759
881.966	1715
882.047	2107
882.064	2073
882.129	2010
882.171	1973
882.210	1737
882.277	1927
882.291	2056
882.372	2260
882.383	2335
882.454	2824
882.489	2644
882.535	2152
882.596	2289
882.616	2442
882.697	2119
882.702	2110
882.778	1512
882.808	1497
882.859	1564
882.914	1314
882.940	1396
883.020	2249
883.021	2256
883.102	2414
883.127	2612
883.183	3205
883.233	3007
883.264	2390
883.339	1455
883.345	1428
883.426	895
883.445	948
883.507	1669
883.551	2031
883.587	2209
883.657	2312
883.668	2355
883.749	2894
883.763	2837
883.830	1821
883.869	1605
883.910	1526
883.975	1448
883.991	1520
884.072	1837
884.081	1892
884.152	2640
884.187	2859
884.233	3076
884.292	2861
884.314	2400
884.394	1010
884.398	966
884.475	1059
884.504	941
884.555	1036
884.610	1167
884.636	1281
884.716	2222
884.716	2230
884.797	2653
884.821	2811
884.877	2503
884.927	2098
884.958	2076
885.033	2124
885.038	2082
885.118	1519
885.139	1335
885.199	1405
885.244	1609
885.279	1899
885.350	2250
885.359	2310
885.439	3189
885.456	3195
885.520	2022
885.561	1552
885.600	1746
885.667	2046
885.680	2019
885.760	1839
885.773	1746
885.840	1134
885.878	1030
885.920	1183
885.984	1419
886.000	1644
886.080	2502
886.089	2606
886.160	2283
886.195	2128
886.240	2295
886.300	2357
886.320	2274
886.400	2049
886.406	2037
886.480	1517
886.511	1223
886.560	1369
886.616	1590
886.640	1729
886.720	2077
886.722	2088
886.800	1776
886.827	1608
886.879	1997
886.932	2295
886.959	2451
887.038	2841
887.039	2835
887.119	2000
887.143	1768
887.198	1797
887.248	1808
887.278	1856
887.354	1823
887.358	1798
887.437	1321
887.459	1218
887.517	2160
887.564	2825
887.596	2468
887.669	1560
887.676	1547
887.755	1456
887.774	1452
887.835	1262
887.880	1200
887.914	1695
887.985	2403
887.994	2375
888.073	2345
888.090	2285
888.153	2828
888.195	3183
888.232	2765
888.300	2113
888.311	2113
888.391	2000
888.405	2006
888.470	1482
888.510	1022
888.549	1301
888.615	2004
888.628	2113
888.708	2630
888.720	2698
888.787	2674
888.825	2661
888.866	1913
888.930	734
888.945	908
889.024	1923
889.035	2046
889.103	1804
889.140	1667
889.182	1906
889.245	2293
889.261	2046
889.340	836
889.349	696
889.419	1277
889.454	1582
889.498	1525
889.559	1449
889.577	1652
889.656	2539
889.664	2626
889.735	2176
889.768	1955
889.814	2204
889.873	2526
889.978	2213
890.083	1893
890.187	1635
890.292	2426
890.397	1984
890.501	1852
890.606	1714
890.710	2061
890.815	2683
890.919	1858
891.024	1457
891.128	1723
891.233	1061
891.337	1513
891.442	2133
891.546	2380
891.650	856
891.755	2218
891.859	2980
891.963	2971
892.068	1889
892.172	1730
892.276	900
892.380	2056
892.484	1274
892.589	2272
892.693	1142
892.797	812
892.901	837
893.005	2094
893.109	2246
893.213	2279
893.317	1189
893.421	1333
893.525	856
893.629	1463
893.733	1845
893.837	2532
893.941	1106
894.045	2556
894.148	1337
894.252	1914
894.356	1916
894.460	3009
894.564	1246
894.667	1628
894.771	1453
894.875	905
894.978	1407
895.082	2285
895.186	2870
895.289	2027
895.393	1383
895.496	2219
895.600	1636
895.703	1302
895.807	1756
895.910	1761
896.014	1307
896.117	1291
896.221	1348
896.324	1826
896.427	1092
896.531	1803
896.634	1225
896.737	2431
896.840	1183
896.944	1917
897.047	1587
897.150	1478
897.253	1850
897.356	1729
897.460	1114
897.563	1367
897.666	2291
897.769	2252
897.872	460
897.975	1946
898.078	1916
898.181	1310
898.284	968
898.387	2762
898.490	1830
898.593	1518
898.695	430
898.798	1876
898.901	256
899.004	1480
899.107	1111
899.209	981
899.312	2853
899.415	2266
899.518	938
899.620	1001
899.723	423
899.826	1848
899.928	539
900.031	1191
900.133	2022
900.236	1458
900.338	205
900.441	1443
900.543	1701
900.646	2305
900.748	1195
900.851	2615
900.953	1149
901.055	1125
901.158	237
901.260	1455
901.362	704
901.465	1090
901.567	1062
901.669	1788
901.771	1180
901.873	1683
901.976	1162
902.078	1233
902.180	1229
902.282	1485
902.384	1565
902.486	2380
902.588	2003
902.690	486
902.792	870
902.894	1521
902.996	1245
903.098	1313
903.200	1095
903.302	1001
903.404	925
903.505	425
903.607	1318
903.709	2322
903.811	1400
903.913	657
904.014	387
904.116	644
904.218	597
904.319	1142
904.421	1507
904.523	1526
904.624	489
904.726	1188
904.827	725
904.929	1142
905.030	91
905.132	1627
905.233	1788
905.335	1216
905.436	647
905.537	703
905.639	589
905.740	1009
905.841	1082
905.943	952
906.044	744
906.145	370
906.247	340
906.348	1157
906.449	1061
906.550	1578
906.651	906
906.752	494
906.854	680
906.955	752
907.056	1412
907.157	1510
907.258	1720
907.359	1631
907.460	519
907.561	802
907.662	907
907.762	1242
907.863	1006
907.964	1511
908.065	912
908.166	1050
908.267	378
908.367	1389
908.468	305
908.569	1068
908.670	1080
908.770	1441
908.871	476
908.971	1974
909.072	557
909.173	1235
909.273	475
909.374	1437
909.474	1399
909.575	790
909.675	308
909.776	461
909.876	375
909.977	1126
910.077	1727
910.177	1393
910.278	751
910.378	967
910.478	-102
910.579	1212
910.679	1294
910.779	771
910.879	868
910.980	1533
911.080	1011
911.180	1673
911.280	5
911.380	908
911.480	490
911.580	377
911.680	733
911.780	734
911.880	1014
911.980	1145
912.080	-68
912.180	1613
912.280	1531
912.380	1101
912.480	224
912.580	551
912.679	82
912.779	1676
912.879	900
912.979	1058
913.078	111
913.178	736
913.278	901
913.377	1172
913.477	875
913.577	754
913.676	1566
913.776	1891
913.875	740
913.975	1497
914.074	212
914.174	871
914.273	-129
914.373	1498
914.472	1141
914.572	532
914.671	898
914.770	533
914.870	468
914.969	595
915.068	652
915.167	1755
915.267	564
915.366	1159
915.465	300
915.564	870
915.663	650
915.763	1076
915.862	1373
915.961	1617
916.060	529
916.159	834
916.258	344
916.357	1104
916.456	1167
916.555	1121
916.654	663
916.752	580
916.851	137
916.950	1649
917.049	479
917.148	1040
917.247	612
917.345	-250
917.444	560
917.543	1116
917.642	1198
917.740	627
917.839	1328
917.937	2035
918.036	1192
918.135	960
918.233	806
918.332	758
918.430	494
918.529	844
918.627	684
918.726	1378
918.824	1256
918.923	546
919.021	519
919.119	673
919.218	-52
919.316	1010
919.414	650
919.512	1114
919.611	375
919.709	2295
919.807	827
919.905	2286
920.003	1737
920.102	1704
920.200	1482
920.298	2155
920.396	1664
920.494	1655
920.592	735
920.690	2123
920.788	1055
920.886	1601
920.984	981
921.082	1837
921.180	2370
921.277	1944
921.375	2527
921.473	4240
921.571	2680
921.669	2637
921.766	2148
921.864	2934
921.962	2984
922.060	2746
922.157	2467
922.255	3228
922.352	2389
922.450	3485
922.548	3671
922.645	4368
922.743	5035
922.840	8830
922.938	9587
923.035	8389
923.133	7267
923.230	9137
923.327	11078
923.425	10144
923.522	9825
923.619	9691
923.717	8115
923.814	8487
923.911	7439
924.008	8767
924.106	8098
924.203	7867
924.300	8202
924.397	8317
924.494	7980
924.591	8069
924.688	7562
924.786	7700
924.883	7775
924.979	8264
925.077	7366
925.173	7731
925.270	7058
925.367	7833
925.464	8118
925.561	8214
925.658	8803
925.755	6912
925.852	6944
925.948	7935
926.045	6695
926.142	8135
926.239	7820
926.335	5465
926.432	7298
926.529	7542
926.625	7630
926.722	6816
926.818	5828
926.915	8181
927.011	6661
927.108	7239
927.204	7111
927.301	6545
927.397	7523
927.494	9024
927.590	5884
927.687	6317
927.783	7925
927.879	7869
927.976	5729
928.072	6243
928.168	6298
928.264	7310
928.361	6134
928.457	7773
928.553	5904
928.649	6285
928.745	7102
928.841	5771
928.937	6045
929.033	6568
929.129	5764
929.225	7482
929.321	6011
929.417	5305
929.513	5727
929.609	6122
929.705	4488
929.801	6371
929.897	5026
929.993	6262
930.089	6563
930.184	5005
930.280	5708
930.376	8984
930.471	5346
930.567	5732
930.663	5457
930.758	4920
930.854	5434
930.950	5288
931.045	4723
931.141	5233
931.236	7256
931.332	5704
931.427	4958
931.523	7198
931.618	6256
931.714	3892
931.809	5060
931.905	7037
932.000	4379
932.095	3871
932.191	6095
932.286	7440
932.381	5631
932.476	5106
932.572	4538
932.667	4665
932.762	3872
932.857	5805
932.952	6089
933.047	4840
933.142	3628
933.237	5450
933.332	5531
933.427	5932
933.522	4652
933.617	4149
933.712	4463
933.807	5815
933.902	5981
933.997	6858
934.092	3812
934.187	5302
934.282	4453
934.376	5472
934.471	5295
934.566	4314
934.661	3655
934.755	6195
934.850	5573
934.945	5592
935.039	3729
935.134	3959
935.228	4314
935.323	7052
935.417	3682
935.512	3535
935.606	3753
935.701	4379
935.795	5076
935.890	5140
935.984	4177
936.079	3048
936.173	3950
936.267	3888
936.362	3170
936.456	4443
936.550	5190
936.644	4830
936.738	2644
936.833	3333
936.927	3030
937.021	3814
937.115	3613
937.209	4043
937.303	4207
937.397	3242
937.491	2788
937.585	5308
937.679	4330
937.773	3692
937.867	2938
937.961	3000
938.055	5243
938.149	4963
938.243	1897
938.337	2642
938.430	2629
938.524	5188
938.618	3361
938.712	2151
938.805	3154
938.899	4866
938.993	5081
939.086	3125
939.180	1761
939.274	3296
939.367	3520
939.461	4638
939.554	2942
939.648	2558
939.741	2515
939.835	3765
939.928	4061
940.022	3611
940.115	2444
940.208	4638
940.302	4314
940.395	5366
940.488	2733
940.582	3388
940.675	2390
940.768	2975
940.861	4433
940.954	4498
941.048	2271
941.141	2302
941.234	2354
941.327	2762
941.420	3790
941.513	3660
941.606	2093
941.699	2991
941.792	3630
941.885	4428
941.978	3110
942.071	3759
942.164	2074
942.257	2130
942.349	3564
942.442	3357
942.535	2074
942.628	3179
942.721	2505
942.813	2549
942.906	3276
942.999	3127
943.091	2091
943.184	3400
943.277	2437
943.369	2920
943.462	1753
943.554	2265
943.647	2192
943.739	3682
943.832	4021
943.924	1450
944.017	2024
944.109	1970
944.201	1913
944.294	3505
944.386	2362
944.478	2246
944.571	1735
944.663	2132
944.755	2561
944.847	3214
944.940	2566
945.032	1007
945.124	1895
945.216	3185
945.308	2157
945.400	2510
945.492	2470
945.584	3163
945.676	3055
945.768	2138
945.860	2291
945.952	3473
946.044	2585
946.136	1754
946.228	2700
946.320	1884
946.412	1801
946.503	2378
946.595	3117
946.687	1679
946.779	1374
946.870	1708
946.962	1211
947.054	1151
947.145	3302
947.237	2400
947.329	1433
947.420	2980
947.512	1312
947.603	1369
947.695	1660
947.786	1215
947.878	1595
947.969	2277
948.061	2330
948.152	2438
948.243	2168
948.335	2150
948.426	1106
948.517	1797
948.609	2776
948.700	1649
948.791	1821
948.882	2022
948.973	1183
949.065	2508
949.156	2055
949.247	2102
949.338	2341
949.429	773
949.520	489
949.611	1385
949.702	2789
949.793	1274
949.884	2009
949.975	758
950.066	716
950.157	876
950.247	1820
950.338	2169
950.429	1187
950.520	2096
950.611	793
950.701	1948
950.792	1773
950.883	2059
950.973	1753
951.064	1790
951.155	1190
951.245	2828
951.336	1602
951.427	2311
951.517	3164
951.608	2447
951.698	1891
951.788	2308
951.879	655
951.969	1014
952.060	2077
952.150	2634
952.240	2561
952.331	806
952.421	2864
952.511	1349
952.602	1143
952.692	950
952.782	1226
952.872	1625
952.962	1564
953.052	1296
953.143	1064
953.233	1910
953.323	1811
953.413	2634
953.503	2633
953.593	2240
953.683	1515
953.773	-63
953.863	1247
953.953	636
954.042	482
954.132	2014
954.222	2184
954.312	1122
954.402	963
954.492	1411
954.581	1410
954.671	1665
954.761	500
954.850	2403
954.940	-209
955.030	799
955.119	358
955.209	1161
955.298	114
955.388	1345
955.477	2532
955.567	650
955.656	770
955.746	1869
955.835	614
955.925	1386
956.014	1296
956.103	1994
956.193	1785
956.282	2339
956.371	1024
956.461	1630
956.550	1465
956.639	1497
956.728	670
956.817	1216
956.906	1329
956.995	2708
957.085	1216
957.174	1473
957.263	178
957.352	1212
957.441	1278
957.530	2075
957.619	840
957.708	1000
957.796	983
957.885	2013
957.974	664
958.063	2105
958.152	142
958.241	1240
958.329	855
958.418	1410
958.507	979
958.596	2486
958.684	-15
958.773	1868
958.861	1453
958.950	563
959.039	531
959.127	1141
959.216	1223
959.304	1317
959.393	794
959.481	2050
959.570	-147
959.658	793
959.746	517
959.835	1664
959.923	433
960.011	1227
960.100	1412
960.188	1953
960.276	897
960.365	963
960.453	-10
960.541	364
960.629	-78
960.717	1348
960.805	218
960.893	521
960.981	-64
961.069	2333
961.158	1699
961.245	2989
961.333	1902
961.421	1644
961.509	461
961.597	2066
961.685	434
961.773	1466
961.861	595
961.949	1891
962.036	563
962.124	1795
962.212	177
962.299	1072
962.387	910
962.475	402
962.562	-542
962.650	2229
962.738	1215
962.825	406
962.913	699
963.000	1462
963.088	1185
963.175	1398
963.263	1170
963.350	1492
963.438	-505
963.525	993
963.612	857
963.700	814
963.787	1184
963.874	1454
963.962	682
964.049	1445
964.136	643
964.223	826
964.310	186
964.398	844
964.485	873
964.572	1600
964.659	670
964.746	1097
964.833	-225
964.920	486
965.007	1104
965.094	1308
965.181	651
965.268	1324
965.355	1212
965.441	1422
965.528	152
965.615	1732
965.702	634
965.789	1258
965.875	711
965.962	1686
966.049	840
966.136	1861
966.222	1738
966.309	1974
966.395	702
966.482	1617
966.569	403
966.655	1263
966.742	108
966.828	1507
966.915	388
967.001	988
967.087	74
967.174	455
967.260	1005
967.347	798
967.433	131
967.519	1019
967.605	141
967.692	1049
967.778	358
967.864	379
967.950	-123
968.036	485
968.123	893
968.209	877
968.295	-588
968.381	2470
968.467	782
968.553	482
968.639	1482
968.725	-343
968.811	634
968.897	1657
968.983	168
969.069	614
969.154	518
969.240	925
969.326	193
969.412	981
969.497	134
969.583	763
969.669	1262
969.755	1575
969.840	-65
969.926	2604
970.012	1593
970.097	2945
970.183	1404
970.268	1398
970.354	1138
970.439	545
970.525	1133
970.610	500
970.696	1317
970.781	1236
970.866	-272
970.952	889
971.037	850
971.122	480
971.208	1054
971.293	752
971.378	322
971.463	309
971.549	506
971.634	724
971.719	1391
971.804	701
971.889	1639
971.974	757
972.059	37
972.144	876
972.229	820
972.314	1052
972.399	450
972.484	677
972.569	847
972.654	-194
972.739	763
972.824	205
972.908	383
972.993	469
973.078	-216
973.163	977
973.247	965
973.332	-368
973.417	1823
973.501	199
973.586	363
973.671	854
973.755	694
973.840	2281
973.924	679
974.009	1004
974.093	808
974.178	2540
974.262	1619
974.346	886
974.431	250
974.515	1199
974.600	325
974.684	1375
974.768	456
974.852	2307
974.937	36
975.021	1383
975.105	-5
975.189	751
975.273	-85
975.358	-181
975.442	-292
975.526	1308
975.610	-132
975.694	263
975.778	458
975.862	571
975.946	-134
976.030	2188
976.114	704
976.198	845
976.281	-397
976.365	1175
976.449	-58
976.533	360
976.617	90
976.700	1037
976.784	360
976.868	392
976.951	139
977.035	536
977.119	-291
977.202	961
977.286	392
977.369	1666
977.453	1846
977.536	1436
977.620	1283
977.703	2032
977.787	-330
977.870	2123
977.953	1820
978.037	-38
978.120	982
978.203	-324
978.287	224
978.370	1428
978.453	234
978.536	734
978.620	1765
978.703	1569
978.786	191
978.869	329
978.952	-318
979.035	1775
979.118	1305
979.201	1032
979.284	560
979.367	1411
979.450	60
979.533	117
979.616	601
979.699	525
979.782	875
979.865	153
979.948	-70
980.030	1023
980.113	475
980.196	697
980.279	867
980.361	291
980.444	-252
980.526	1662
980.609	1166
980.692	2381
980.774	1972
980.857	873
980.939	1885
981.022	903
981.104	140
981.187	1055
981.269	1063
981.352	1662
981.434	-565
981.516	84
981.599	1135
981.681	985
981.763	360
981.846	763
981.928	1069
982.010	470
982.092	-441
982.174	1217
982.256	-2
982.339	732
982.421	1298
982.503	1698
982.585	-699
982.667	2170
982.749	1083
982.831	712
982.913	-558
982.995	887
983.077	-575
983.158	2493
983.240	-485
983.322	1564
983.404	3190
983.486	1247
983.568	1973
983.649	1983
983.731	1783
983.813	1161
983.894	1235
983.976	973
984.058	821
984.139	2458
984.221	604
984.302	2763
984.384	1378
984.465	1253
984.547	1074
984.628	1004
984.710	1833
984.791	1867
984.872	880
984.954	1074
985.035	705
985.116	854
985.198	656
985.279	2387
985.360	1664
985.441	1476
985.522	2389
985.604	517
985.685	-15
985.766	2241
985.847	2205
985.928	52
986.009	688
986.090	573
986.171	1141
986.252	744
986.333	736
986.414	1589
986.495	643
986.576	2240
986.656	1829
986.737	2900
986.818	1327
986.899	1103
986.980	1073
987.060	2199
987.141	301
987.222	2381
987.302	1995
987.383	2990
987.464	2066
987.544	3109
987.625	1605
987.705	2768
987.786	2082
987.866	2129
987.947	1948
988.027	3075
988.108	1020
988.188	2081
988.268	1510
988.349	1887
988.429	1455
988.509	2776
988.589	852
988.670	145
988.750	2516
988.830	2415
988.910	2555
988.990	2629
989.070	2061
989.151	1750
989.231	296
989.311	2149
989.391	1680
989.471	1517
989.551	956
989.631	1321
989.711	1923
989.791	1004
989.870	-626
989.950	2314
990.030	1868
990.110	1722
990.190	447
990.269	1237
990.349	1478
990.429	2319
990.509	1699
990.588	1338
990.668	1319
990.747	944
990.827	1395
990.907	1576
990.986	930
991.066	1345
991.145	-203
991.225	1850
991.304	972
991.383	1532
991.463	453
991.542	1155
991.622	1316
991.701	764
991.780	803
991.859	1143
991.939	422
992.018	1422
992.097	925
992.176	739
992.256	861
992.335	433
992.414	1605
992.493	522
992.572	1104
992.651	2200
992.730	41
992.809	1553
992.888	-542
992.967	1031
993.046	1024
993.125	-272
993.203	76
993.282	1016
993.361	1261
993.440	882
993.519	251
993.597	1316
993.676	179
993.755	1678
993.834	81
993.912	-86
993.991	1540
994.069	-147
994.148	477
994.226	472
994.305	448
994.384	454
994.462	764
994.540	478
994.619	-249
994.697	409
994.776	18
994.854	1261
994.932	-1112
995.011	1165
995.089	-468
995.167	831
995.245	360
995.324	502
995.402	570
995.480	10
995.558	-404
995.636	-566
995.714	-367
995.792	1379
995.870	-1122
995.948	-17
996.026	-100
996.104	-804
996.182	215
996.260	15
996.338	-238
996.416	536
996.494	251
996.572	711
996.649	282
996.727	-170
996.805	24
996.883	-170
996.960	14
997.038	893
997.116	444
997.193	659
997.271	473
997.348	-235
997.426	472
997.504	-356
997.581	361
997.658	717
997.736	-656
997.813	-599
997.891	183
997.968	-720
998.046	-605
998.123	-118
998.200	305
998.277	-114
998.355	-45
998.432	-648
998.509	-276
998.586	221
998.663	-265
998.741	-1106
998.818	11
998.895	82
998.972	-337
999.049	966
999.126	-474
999.203	514
999.280	-649
999.357	-150
999.434	-853
999.511	-143
999.587	225
999.664	-395
999.741	251
999.818	434
999.895	-126
999.971	-202
1000.048	-838
1000.125	972
1000.202	-999
1000.278	83
1000.355	-78
1000.431	-35
1000.508	-817
1000.584	76
1000.661	-164
1000.738	-1342
1000.814	-373
1000.890	852
1000.967	-424
1001.043	153
1001.120	-1544
1001.196	691
1001.272	-2138
1001.349	141
1001.425	481
1001.501	508
1001.577	-1164
1001.654	536
1001.730	-505
1001.806	265
1001.882	-1402
1001.958	472
1002.034	-487
1002.110	-239
1002.186	-655
1002.262	-475
1002.338	-1056
1002.414	-240
1002.490	-22
1002.566	-333
1002.642	-97
1002.718	-17
1002.794	-385
1002.870	400
1002.945	-976
1003.021	-330
1003.097	-1369
1003.173	-23
1003.248	-1694
1003.324	-328
1003.400	-230
1003.475	-856
1003.551	-5
1003.626	-834
1003.702	-963
1003.777	-232
1003.853	-590
1003.928	-737
1004.004	-1002
1004.079	-44
1004.155	260
1004.230	-1092
1004.305	-120
1004.381	-712
1004.456	-463
1004.531	-1028
1004.607	-1256
1004.682	134
1004.757	-612
1004.832	-238
1004.907	-1273
1004.982	-562
1005.057	-1416
1005.133	-533
1005.208	-612
1005.283	-493
1005.358	-492
1005.433	-1026
1005.508	-617
1005.583	-1091
1005.657	-1207
1005.732	175
1005.807	-1450
1005.882	-341
1005.957	-793
1006.032	127
1006.106	-562
1006.181	-327
1006.256	-505
1006.331	-1144
1006.405	-1689
1006.480	-157
1006.554	-1196
1006.629	-107
1006.704	-943
1006.778	-297
1006.853	-615
1006.927	-182
1007.002	-1256
1007.076	-469
1007.150	-593
1007.225	-726
1007.299	-1120
1007.373	-1005
1007.448	-848
1007.522	-511
1007.596	-1085
1007.671	-848
1007.745	-752
1007.819	-1615
1007.893	-1091
1007.967	-689
1008.041	-2261
1008.115	599
1008.190	-1051
1008.264	-457
1008.338	-2081
1008.412	-822
1008.486	-527
1008.560	-340
1008.633	-1424
1008.707	-551
1008.781	-532
1008.855	-363
1008.929	-1642
1009.003	-779
1009.076	-873
1009.150	-100
1009.224	-827
1009.298	-731
1009.371	-1542
1009.445	-331
1009.519	-978
1009.592	-1644
1009.666	-1275
1009.739	-85
1009.813	-1477
1009.886	371
1009.960	-1703
1010.033	-376
1010.107	-797
1010.180	-1354
1010.253	-1451
1010.327	-1839
1010.400	-1203
1010.473	-1072
1010.547	304
1010.620	-616
1010.693	-681
1010.766	-1205
1010.840	-399
1010.913	-1125
1010.986	-1531
1011.059	-1227
1011.132	-1432
1011.205	-1015
1011.278	-713
1011.351	-724
1011.424	-800
1011.497	-1335
1011.570	-1287
1011.643	-126
1011.716	-1379
1011.789	-638
1011.862	-796
1011.934	-523
1012.007	-1890
1012.080	-792
1012.153	-1102
1012.225	-752
1012.298	-2258
1012.371	-898
1012.443	-1236
1012.516	-1249
1012.588	-1181
1012.661	-371
1012.733	-1196
1012.806	-737
1012.879	-1475
1012.951	-1163
1013.023	-758
1013.096	277
1013.168	-1410
1013.241	-1275
1013.313	-1143
1013.385	-788
1013.458	-1425
1013.530	-905
1013.602	-1779
1013.674	-937
1013.746	-1560
1013.819	-857
1013.891	-1071
1013.963	-1629
1014.035	-1467
1014.107	-910
1014.179	-710
1014.251	-1694
1014.323	-270
1014.395	-993
1014.467	-1555
1014.539	-1334
1014.611	-1310
1014.683	-931
1014.754	-1060
1014.826	-1232
1014.898	-1693
1014.970	-1753
1015.042	-825
1015.113	-871
1015.185	-544
1015.257	-1717
1015.328	-568
1015.400	-2059
1015.471	-1593
1015.543	-1714
1015.615	-415
1015.686	-1116
1015.757	-1184
1015.829	-736
1015.901	-1645
1015.972	-1144
1016.043	-1552
1016.115	-553
1016.186	-2076
1016.257	-1405
1016.328	-583
1016.400	-199
1016.471	-1729
1016.542	-1732
1016.613	-1754
1016.685	-1285
1016.756	-1242
1016.827	-889
1016.898	-2210
1016.969	-562
1017.040	-1979
1017.111	-1173
1017.182	-1303
1017.253	-910
1017.324	-1753
1017.395	-238
1017.466	-628
1017.537	-1407
1017.608	-1619
1017.678	-1025
1017.749	-2511
1017.820	-728
1017.891	-1141
1017.961	-1798
1018.032	-1789
1018.103	-732
1018.173	-1386
1018.244	-927
1018.315	-1437
1018.385	-604
1018.456	-1786
1018.526	-2061
1018.597	-1841
1018.667	-406
1018.738	-1750
1018.808	-546
1018.878	-1363
1018.949	-496
1019.019	-1343
1019.089	-223
1019.160	-2020
1019.230	-920
1019.300	-675
1019.371	-1386
1019.441	-1395
1019.511	-852
1019.581	-2382
1019.651	-1334
1019.721	-1099
1019.791	-875
1019.861	-1938
1019.931	-91
1020.001	-2042
1020.071	-697
1020.141	-2040
1020.211	-1575
1020.281	-1806
1020.351	-812
1020.421	-1364
1020.491	-957
1020.560	-2726
1020.630	-941
1020.700	-1745
1020.770	-1106
1020.839	-1877
1020.909	-567
1020.979	-1258
1021.048	-1258
1021.118	-1665
1021.187	-1398
1021.257	-2136
1021.326	-1440
1021.396	-1533
1021.465	-989
1021.535	-1614
1021.604	-2058
1021.674	-1076
1021.743	-550
1021.812	-1256
1021.882	-667
1021.951	-1792
1022.020	-1464
1022.089	-1427
1022.159	-956
1022.228	-1431
1022.297	-1869
1022.366	-2001
1022.435	-1115
1022.504	-2187
1022.573	-1442
1022.642	-1531
1022.711	-1655
1022.781	-1135
1022.849	-768
1022.918	-2358
1022.987	-932
1023.056	-1893
1023.125	-808
1023.194	-2140
1023.263	-895
1023.331	-845
1023.400	-1132
1023.469	-1875
1023.538	-51
1023.606	-1771
1023.675	-891
1023.744	-1792
1023.812	-1939
1023.881	-984
1023.949	-1141
1024.018	-1813
1024.086	-818
1024.155	-1665
1024.223	-987
1024.292	-982
1024.360	-1170
1024.429	-1398
1024.497	-1690
1024.565	-2044
1024.634	-703
1024.702	-647
1024.770	-879
1024.838	-1438
1024.907	-1659
1024.975	-2189
1025.043	-267
1025.111	-2386
1025.179	-1733
1025.247	-2120
1025.315	-491
1025.383	-1620
1025.451	-800
1025.519	-1463
1025.587	-1177
1025.655	-831
1025.723	-1027
1025.791	-1487
1025.859	-1388
1025.927	-1304
1025.995	-1557
1026.062	-1705
1026.130	-786
1026.198	-1762
1026.266	-1774
1026.333	-1516
1026.401	-401
1026.469	-1577
1026.536	-1176
1026.604	-1602
1026.671	-1285
1026.739	-1894
1026.806	-1414
1026.874	-1502
1026.941	-1387
1027.009	-1855
1027.076	-1548
1027.144	-1302
1027.211	-955
1027.278	-1965
1027.345	-880
1027.413	-1134
1027.480	-1329
1027.547	-2242
1027.614	-1883
1027.682	-1958
1027.749	-1692
1027.816	-1847
1027.883	-640
1027.950	-1224
1028.017	-1855
1028.084	-1642
1028.151	-2183
1028.218	-1177
1028.285	-1015
1028.352	-1480
1028.419	-2344
1028.486	-2096
1028.553	-743
1028.619	-2260
1028.686	-1483
1028.753	-1728
1028.820	-1373
1028.886	-1798
1028.953	-799
1029.020	-1037
1029.086	-1784
1029.153	-1882
1029.220	-1441
1029.286	-1865
1029.353	-741
1029.419	-1893
1029.486	-1757
1029.552	-2423
1029.619	-1736
1029.685	-2251
1029.751	-1694
1029.818	-760
1029.884	-1296
1029.951	-754
1030.017	-1280
1030.083	-2075
1030.149	-1414
1030.216	-1626
1030.282	-1710
1030.348	-2342
1030.414	-1864
1030.480	-1613
1030.546	-1473
1030.612	-1214
1030.678	-2099
1030.744	-768
1030.810	-1040
1030.876	-1657
1030.942	-1153
1031.008	-1627
1031.074	-1048
1031.140	-1791
1031.206	-464
1031.272	-1577
1031.337	-1116
1031.403	-1053
1031.469	-1177
1031.534	-1798
1031.600	13
1031.666	-2313
1031.731	-1744
1031.797	-1707
1031.863	-1579
1031.928	-1858
1031.994	-1600
1032.059	-1287
1032.125	-2197
1032.190	-1726
1032.256	-2423
1032.321	-2001
1032.386	-532
1032.452	-1464
1032.517	-1452
1032.582	-2187
1032.647	-1274
1032.713	-1804
1032.778	-866
1032.843	-2128
1032.908	-1721
1032.974	-2193
1033.039	-1613
1033.104	-775
1033.169	-965
1033.234	-2027
1033.299	-1563
1033.364	-1627
1033.429	-796
1033.494	-1161
1033.559	-1186
1033.624	-1493
1033.688	-877
1033.753	-2199
1033.818	-1179
1033.883	-1804
1033.948	-1422
1034.013	-1416
1034.077	-1421
1034.142	-1369
1034.207	-1526
1034.271	-559
1034.336	994
1034.400	-510
1034.465	-144
1034.530	-1713
1034.594	-1409
1034.658	-2115
1034.723	-1989
1034.787	-1711
1034.852	-1116
1034.916	-2277
1034.981	-1734
1035.045	-1418
1035.109	-1423
1035.173	-1856
1035.238	-1709
1035.302	-1094
1035.366	-1724
1035.430	-2100
1035.495	-1870
1035.559	-702
1035.623	-739
1035.687	-1469
1035.751	-1580
1035.815	-853
1035.879	-1140
1035.943	-1820
1036.007	-2460
1036.071	-1820
1036.135	-1335
1036.198	-1709
1036.262	-888
1036.326	-1847
1036.390	-1096
1036.454	-873
1036.517	-1639
1036.581	-2141
1036.645	-1456
1036.709	-1774
1036.772	-1857
1036.836	-1876
1036.900	-1125
1036.963	-2347
1037.026	-1718
1037.090	-2090
1037.154	-2549
1037.217	-1843
1037.280	-1718
1037.344	-1523
1037.407	-890
1037.471	-1737
1037.534	-1620
1037.597	-1172
1037.661	-849
1037.724	-1927
1037.787	-1062
1037.850	-2044
1037.913	-1453
1037.977	-1544
1038.040	-742
1038.103	-1738
1038.166	-1721
1038.229	-1691
1038.292	-1664
1038.355	-1521
1038.418	-1763
1038.481	-1370
1038.544	-953
1038.607	-1460
1038.670	-2177
1038.732	-1629
1038.795	-2412
1038.858	-1896
1038.921	-1654
1038.984	-1643
1039.046	-1791
1039.109	-2626
1039.172	-989
1039.234	-1874
1039.297	-1073
1039.360	-737
1039.422	-1469
1039.485	-1632
1039.547	-1916
1039.610	-2036
1039.672	-1293
1039.734	-1667
1039.797	-1195
1039.859	-1699
1039.922	-2307
1039.984	-2044
1040.046	-1136
1040.109	-2121
1040.171	-1581
1040.233	-1608
1040.295	-2164
1040.358	-2054
1040.420	-1676
1040.482	-1657
1040.544	-1545
1040.606	-322
1040.668	-1032
1040.730	-2457
1040.792	-1374
1040.854	-1216
1040.916	-1340
1040.978	-2012
1041.040	-652
1041.102	-2102
1041.164	-1640
1041.225	-2143
1041.287	-1345
1041.349	-1354
1041.411	-2026
1041.472	-2109
1041.534	-1654
1041.596	-2449
1041.657	-1670
1041.719	-2018
1041.781	-1851
1041.842	-1562
1041.904	-1914
1041.965	-2063
1042.027	-1400
1042.088	-1687
1042.150	-1239
1042.211	-1113
1042.272	-616
1042.334	-1325
1042.395	-1551
1042.456	-1971
1042.518	-1847
1042.579	-2082
1042.640	-1338
1042.701	-1659
1042.763	-870
1042.824	-2015
1042.885	-1791
1042.946	-2426
1043.007	-2434
1043.068	-2025
1043.129	-1559
1043.190	-1897
1043.251	-1489
1043.312	-1759
1043.373	-1397
1043.434	-2294
1043.495	-1181
1043.556	-1354
1043.616	-1154
1043.677	-1947
1043.738	-1617
1043.799	-1604
1043.859	-841
1043.920	-2278
1043.981	-1274
1044.041	-1619
1044.102	-771
1044.162	-2094
1044.223	-1791
1044.284	-1679
1044.344	-1660
1044.405	-1977
1044.465	-1762
1044.525	-1642
1044.586	-1521
1044.646	-921
1044.707	-925
1044.767	-1084
1044.827	-1477
1044.887	-2230
1044.948	-1193
1045.008	-1471
1045.068	-1226
1045.128	-2031
1045.188	-1587
1045.249	-1492
1045.309	-1477
1045.369	-1551
1045.429	-1846
1045.489	-1509
1045.549	-1429
1045.609	-1673
1045.669	-975
1045.729	-1697
1045.789	-1916
1045.848	-1765
1045.908	-1691
1045.968	-2016
1046.028	-1040
1046.088	-1008
1046.147	-313
1046.207	-1816
1046.267	-1836
1046.326	-1477
1046.386	-1755
1046.446	-1167
1046.505	-1253
1046.565	-673
1046.624	-803
1046.684	-1085
1046.743	-785
1046.803	-599
1046.862	-803
1046.922	0
