'Start Wavelength	183.907
'End Wavelength	1046.922
'Gate Delay	5.000
'Gate Width (ms)	1.050
'Laser Output Level	0.000
'X Position	0.000
'Y Position	0.000
'Z Position	0.000
'Grid Point Number	1.000
'Shot Number	100.000
183.907	966.000
183.977	5.000
184.047	1040
184.116	577
184.186	710
184.256	255
184.325	40
184.395	-470
184.465	1004
184.534	560
184.604	920
184.674	764
184.743	-272
184.813	327
184.883	939
184.952	-151
185.022	334
185.092	479
185.161	709
185.231	511
185.301	509
185.370	616
185.440	499
185.509	-42
185.579	360
185.649	620
185.718	1389
185.788	1148
185.857	-97
185.927	603
185.996	-195
186.066	95
186.136	364
186.205	833
186.275	-116
186.344	298
186.414	369
186.483	-298
186.553	1637
186.622	2103
186.692	490
186.761	300
186.831	78
186.900	500
186.970	1008
187.039	468
187.109	1480
187.178	738
187.248	1003
187.317	1655
187.387	587
187.456	1367
187.526	1081
187.595	1135
187.664	975
187.734	929
187.803	657
187.873	423
187.942	754
188.012	991
188.081	569
188.150	703
188.220	1114
188.289	1532
188.358	685
188.428	743
188.497	816
188.567	367
188.636	698
188.705	71
188.775	895
188.844	422
188.913	1379
188.983	841
189.052	1564
189.121	955
189.191	634
189.260	913
189.329	768
189.399	353
189.468	209
189.537	475
189.606	1072
189.676	500
189.745	863
189.814	966
189.883	456
189.953	-204
190.022	1552
190.091	489
190.161	621
190.230	798
190.299	416
190.368	329
190.437	1048
190.507	1103
190.576	1384
190.645	-43
190.714	763
190.783	284
190.853	835
190.922	1236
190.991	1272
191.060	634
191.129	641
191.198	824
191.268	152
191.337	785
191.406	1330
191.475	76
191.544	1038
191.613	1412
191.682	289
191.752	859
191.821	619
191.890	689
191.959	626
192.028	528
192.097	235
192.166	304
192.235	294
192.304	429
192.373	516
192.442	124
192.511	500
192.580	902
192.650	957
192.719	529
192.788	1472
192.857	1107
192.926	324
192.995	81
193.064	399
193.133	795
193.202	441
193.271	960
193.340	237
193.409	547
193.478	1337
193.547	836
193.615	24
193.684	587
193.753	584
193.822	209
193.891	382
193.960	765
194.029	1373
194.098	957
194.167	679
194.236	898
194.305	1020
194.374	1037
194.443	567
194.512	1350
194.580	350
194.649	1232
194.718	826
194.787	812
194.856	228
194.925	1033
194.994	831
195.062	814
195.131	255
195.200	643
195.269	820
195.338	-98
195.407	1083
195.475	462
195.544	696
195.613	-72
195.682	654
195.751	506
195.819	587
195.888	825
195.957	1585
196.026	851
196.094	1759
196.163	366
196.232	1190
196.301	107
196.369	404
196.438	278
196.507	1215
196.576	455
196.644	788
196.713	415
196.782	974
196.850	1190
196.919	1082
196.988	905
197.056	284
197.125	348
197.194	176
197.262	685
197.331	557
197.400	384
197.468	973
197.537	-313
197.606	594
197.674	366
197.743	-49
197.812	597
197.880	402
197.949	-503
198.017	722
198.086	-450
198.155	162
198.223	343
198.292	143
198.360	-533
198.429	219
198.497	446
198.566	722
198.635	663
198.703	351
198.772	276
198.840	747
198.909	831
198.977	584
199.046	727
199.114	798
199.183	112
199.251	226
199.320	234
199.388	-478
199.457	-59
199.525	427
199.594	391
199.662	583
199.731	812
199.799	881
199.867	1086
199.936	700
200.004	1386
200.073	1033
200.141	803
200.210	335
200.278	679
200.346	1974
200.415	1665
200.483	1048
200.552	993
200.620	853
200.688	849
200.757	745
200.825	701
200.893	626
200.962	1232
201.030	409
201.098	610
201.167	182
201.235	296
201.303	218
201.372	464
201.440	794
201.508	568
201.577	1183
201.645	1174
201.713	1047
201.781	485
201.850	709
201.918	437
201.986	1019
202.055	554
202.123	440
202.191	408
202.259	786
202.327	803
202.396	177
202.464	352
202.532	982
202.600	1361
202.669	716
202.737	886
202.805	774
202.873	1023
202.941	1302
203.009	417
203.078	547
203.146	1021
203.214	589
203.282	-31
203.350	833
203.418	-103
203.487	1178
203.555	506
203.623	177
203.691	478
203.759	534
203.827	378
203.895	1099
203.963	345
204.031	759
204.099	725
204.168	294
204.236	873
204.304	901
204.372	714
204.440	1022
204.508	142
204.576	28
204.644	166
204.712	182
204.780	411
204.848	444
204.916	797
204.984	225
205.052	552
205.120	258
205.188	905
205.256	602
205.324	-248
205.392	889
205.460	1126
205.528	1009
205.596	625
205.664	237
205.732	329
205.799	652
205.867	459
205.935	391
206.003	954
206.071	1142
206.139	51
206.207	690
206.275	354
206.343	528
206.411	398
206.478	554
206.546	1011
206.614	705
206.682	1085
206.750	926
206.818	1427
206.885	1372
206.953	-577
207.021	971
207.089	575
207.157	969
207.225	1203
207.292	341
207.360	263
207.428	-902
207.496	951
207.563	29
207.631	219
207.699	764
207.767	457
207.834	523
207.902	835
207.970	804
208.038	1126
208.105	1265
208.173	-298
208.241	493
208.309	635
208.376	351
208.444	1102
208.512	600
208.579	-202
208.647	1368
208.715	1387
208.782	704
208.850	973
208.918	707
208.985	669
209.053	794
209.120	890
209.188	277
209.256	1313
209.323	74
209.391	396
209.459	1077
209.526	496
209.594	1008
209.661	259
209.729	325
209.796	1349
209.864	1435
209.932	4
209.999	1987
210.067	1006
210.134	234
210.202	1158
210.269	720
210.337	2180
210.404	1912
210.472	624
210.539	483
210.607	702
210.674	1016
210.742	282
210.809	794
210.877	302
210.944	1236
211.012	31
211.079	2578
211.146	883
211.214	1255
211.281	1790
211.349	1688
211.416	1394
211.484	1230
211.551	472
211.618	262
211.686	940
211.753	538
211.821	743
211.888	706
211.955	1435
212.023	1403
212.090	1569
212.157	484
212.225	66
212.292	800
212.359	-103
212.427	822
212.494	712
212.561	132
212.629	-202
212.696	-350
212.763	899
212.831	59
212.898	1310
212.965	-114
213.032	1253
213.100	-10
213.167	573
213.234	730
213.301	500
213.369	302
213.436	168
213.503	566
213.570	798
213.638	225
213.705	96
213.772	-115
213.839	620
213.906	698
213.973	-57
214.041	-39
214.108	1137
214.175	1062
214.242	136
214.309	1137
214.376	957
214.444	839
214.511	527
214.578	344
214.645	1334
214.712	1385
214.779	1171
214.846	887
214.913	1107
214.980	1258
215.048	1913
215.115	3589
215.182	2109
215.249	1911
215.316	1084
215.383	1332
215.450	1031
215.517	943
215.584	678
215.651	587
215.718	394
215.785	1278
215.852	168
215.919	1211
215.986	1077
216.053	1007
216.120	320
216.187	668
216.254	592
216.321	225
216.388	-513
216.455	911
216.522	677
216.589	450
216.656	1634
216.722	828
216.789	708
216.856	603
216.923	-39
216.990	511
217.057	439
217.124	418
217.191	-218
217.258	1240
217.324	564
217.391	465
217.458	304
217.525	167
217.592	346
217.659	-593
217.725	978
217.792	145
217.859	996
217.926	181
217.993	473
218.059	1385
218.126	130
218.193	901
218.260	221
218.327	-219
218.393	814
218.460	199
218.527	55
218.594	701
218.660	56
218.727	1579
218.794	549
218.860	1477
218.927	309
218.994	163
219.061	-130
219.127	891
219.194	704
219.261	629
219.327	978
219.394	1649
219.461	55
219.527	381
219.594	166
219.661	1040
219.727	-235
219.794	2115
219.860	436
219.927	2720
219.994	4279
220.060	5393
220.127	6170
220.193	5170
220.260	2477
220.326	2241
220.393	871
220.460	1482
220.526	446
220.593	748
220.659	1938
220.726	79
220.792	866
220.859	375
220.925	1225
220.992	887
221.058	602
221.125	1103
221.191	-365
221.258	151
221.324	1293
221.391	923
221.457	263
221.524	1089
221.590	757
221.657	421
221.723	173
221.789	227
221.856	1052
221.922	-345
221.989	1372
222.055	697
222.121	513
222.188	2457
222.254	1225
222.321	395
222.387	633
222.453	1347
222.520	690
222.586	260
222.652	1291
222.719	215
222.785	1069
222.851	484
222.918	201
222.984	904
223.050	-187
223.116	-808
223.183	1219
223.249	-320
223.315	608
223.382	-100
223.448	604
223.514	-99
223.580	295
223.647	305
223.713	-331
223.779	310
223.845	133
223.911	616
223.978	58
224.044	393
224.110	-249
224.176	155
224.242	268
224.309	-253
224.375	353
224.441	835
224.507	106
224.573	-209
224.639	1410
224.705	569
224.772	911
224.838	273
224.904	1021
224.970	1021
225.036	0
225.102	-105
225.168	1347
225.234	1169
225.300	157
225.366	327
225.432	19
225.499	1718
225.565	1040
225.631	483
225.697	912
225.763	1292
225.829	849
225.895	89
225.961	592
226.027	704
226.093	1086
226.159	1199
226.225	1771
226.291	1011
226.357	657
226.423	890
226.489	1128
226.554	1020
226.620	185
226.686	371
226.752	649
226.818	706
226.884	675
226.950	1281
227.016	1238
227.082	1634
227.148	1073
227.214	1154
227.279	1841
227.345	1907
227.411	4105
227.477	7383
227.543	8938
227.609	12125
227.674	11128
227.740	6791
227.806	3431
227.872	3085
227.938	1740
228.003	1967
228.069	1304
228.135	589
228.201	1150
228.267	257
228.332	585
228.398	110
228.464	1523
228.530	773
228.595	1293
228.661	-182
228.727	550
228.792	1654
228.858	188
228.924	-740
228.990	2032
229.055	818
229.121	1544
229.187	559
229.252	789
229.318	517
229.384	206
229.449	384
229.515	-1114
229.581	-407
229.646	2564
229.712	477
229.777	747
229.843	1038
229.909	1223
229.974	1060
230.040	576
230.105	-303
230.171	-1164
230.236	833
230.302	87
230.368	-288
230.433	-259
230.499	614
230.564	563
230.630	-623
230.695	432
230.761	1943
230.826	-760
230.892	705
230.957	-852
231.023	583
231.088	27
231.154	-75
231.219	1031
231.284	-342
231.350	725
231.415	141
231.481	1321
231.546	816
231.612	169
231.677	-3
231.742	-567
231.808	1748
231.873	115
231.939	-1199
232.004	852
232.069	1060
232.135	391
232.200	216
232.265	1126
232.331	381
232.396	244
232.461	819
232.527	897
232.592	-525
232.657	1013
232.723	489
232.788	437
232.853	498
232.918	1012
232.984	37
233.049	497
233.114	-374
233.179	1576
233.245	2179
233.310	1299
233.375	-606
233.440	1037
233.506	43
233.571	29
233.636	360
233.701	-263
233.766	-34
233.832	-489
233.897	323
233.962	-1149
234.027	1371
234.092	711
234.157	916
234.222	-157
234.288	1561
234.353	192
234.418	714
234.483	696
234.548	1026
234.613	-200
234.678	390
234.743	364
234.808	1316
234.873	-449
234.938	1364
235.004	316
235.069	669
235.134	-253
235.199	887
235.264	154
235.329	-778
235.394	164
235.459	1622
235.524	-659
235.589	675
235.654	-3
235.719	-874
235.784	759
235.849	-355
235.913	354
235.978	56
236.043	355
236.108	730
236.173	-65
236.238	1130
236.303	274
236.368	-382
236.433	689
236.498	-118
236.563	-18
236.627	-635
236.692	734
236.757	1083
236.822	20
236.887	-54
236.952	500
237.017	-761
237.081	694
237.146	-361
237.211	297
237.276	234
237.341	1399
237.405	-63
237.470	65
237.535	-48
237.600	986
237.664	423
237.729	-727
237.794	-279
237.859	220
237.923	168
237.988	-675
238.053	686
238.118	199
238.182	1081
238.247	1702
238.312	-486
238.376	418
238.441	-1657
238.506	1753
238.570	-769
238.635	1411
238.700	894
238.764	543
238.829	958
238.893	260
238.958	1491
239.023	656
239.087	1580
239.152	734
239.216	867
239.281	1786
239.346	1405
239.410	1001
239.475	542
239.539	1500
239.604	1420
239.668	4491
239.733	5951
239.797	13684
239.862	20119
239.926	19960
239.991	11667
240.055	6371
240.120	2243
240.184	3391
240.249	1469
240.313	1243
240.378	1802
240.442	449
240.507	660
240.571	672
240.635	1161
240.700	1435
240.764	943
240.829	177
240.893	58
240.957	838
241.022	1525
241.086	1514
241.151	-225
241.215	-867
241.279	2170
241.344	-482
241.408	751
241.472	11
241.537	803
241.601	965
241.665	-342
241.730	427
241.794	713
241.858	-631
241.922	563
241.987	1099
242.051	-194
242.115	-542
242.179	393
242.244	121
242.308	1343
242.372	240
242.436	672
242.501	921
242.565	-721
242.629	-589
242.693	344
242.757	284
242.822	542
242.886	648
242.950	919
243.014	-381
243.078	1207
243.142	633
243.206	-124
243.271	344
243.335	-320
243.399	989
243.463	361
243.527	1198
243.591	-54
243.655	102
243.719	-17
243.783	906
243.847	-53
243.911	665
243.975	-227
244.040	-114
244.104	2455
244.168	-116
244.232	267
244.296	509
244.360	1053
244.424	-200
244.488	-31
244.552	311
244.615	-1067
244.679	836
244.743	365
244.807	-342
244.871	1203
244.935	937
244.999	-919
245.063	-6
245.127	1711
245.191	517
245.255	659
245.319	553
245.383	-1395
245.446	1918
245.510	-470
245.574	1384
245.638	613
245.702	-797
245.766	675
245.829	1732
245.893	-288
245.957	411
246.021	979
246.085	418
246.149	1236
246.212	1706
246.276	1991
246.340	801
246.404	779
246.467	1872
246.531	-1230
246.595	1677
246.659	1483
246.722	117
246.786	848
246.850	888
246.913	399
246.977	34
247.041	961
247.104	-10
247.168	499
247.232	1274
247.295	3109
247.359	1533
247.423	291
247.486	997
247.550	1317
247.614	330
247.677	793
247.741	1042
247.804	859
247.868	1780
247.932	1121
247.995	4001
248.059	1243
248.122	-124
248.186	1339
248.249	1162
248.313	5404
248.376	5591
248.440	3167
248.503	200
248.567	2301
248.630	-524
248.694	1271
248.757	1547
248.821	6059
248.884	4009
248.948	1566
249.011	4030
249.075	5698
249.138	6162
249.202	1227
249.265	946
249.328	1657
249.392	257
249.455	1103
249.519	1078
249.582	1316
249.645	1394
249.709	1526
249.772	1161
249.835	1183
249.899	755
249.962	1346
250.025	628
250.089	1863
250.152	3089
250.215	1097
250.279	617
250.342	1539
250.405	1372
250.468	151
250.532	899
250.595	1867
250.658	621
250.721	2583
250.785	999
250.848	1939
250.911	900
250.974	981
251.038	1632
251.101	3690
251.164	1198
251.227	977
251.290	342
251.354	1043
251.417	2132
251.480	2654
251.543	1596
251.606	3457
251.669	3177
251.732	2086
251.795	2126
251.859	2904
251.922	603
251.985	1871
252.048	971
252.111	538
252.174	5
252.237	1930
252.300	5954
252.363	1684
252.426	5626
252.489	1322
252.552	1140
252.615	207
252.678	1591
252.741	3995
252.804	1988
252.867	4102
252.930	4170
252.993	2133
253.056	1992
253.119	1036
253.182	434
253.245	1077
253.308	1474
253.371	-643
253.434	1168
253.497	2159
253.559	2729
253.622	1705
253.685	619
253.748	991
253.811	849
253.874	1942
253.937	721
254.000	1069
254.062	1632
254.125	2671
254.188	3056
254.251	1593
254.314	806
254.376	731
254.439	1339
254.502	1536
254.565	1486
254.628	4471
254.690	877
254.753	1059
254.816	764
254.878	1339
254.941	2331
255.004	2929
255.067	1363
255.129	346
255.192	413
255.255	365
255.317	1499
255.380	2102
255.443	667
255.505	2504
255.568	568
255.631	1051
255.693	2086
255.756	1703
255.819	3149
255.881	2754
255.944	1726
256.006	1084
256.069	1180
256.132	1575
256.194	694
256.257	616
256.319	577
256.382	3247
256.444	5677
256.507	4333
256.569	2767
256.632	1438
256.694	484
256.757	1487
256.819	1045
256.882	217
256.944	547
257.007	2392
257.069	933
257.132	227
257.194	1325
257.257	766
257.319	540
257.381	1041
257.444	1697
257.506	1043
257.569	1505
257.631	2462
257.693	1195
257.756	1493
257.818	-156
257.880	616
257.943	2237
258.005	377
258.067	1374
258.130	1080
258.192	468
258.254	1065
258.317	1325
258.379	1599
258.441	1835
258.503	2664
258.566	1264
258.628	2167
258.690	4
258.753	1148
258.815	1232
258.877	1115
258.939	1787
259.001	2697
259.064	1981
259.126	782
259.188	443
259.250	1701
259.312	1953
259.375	1351
259.437	1531
259.499	1487
259.561	996
259.623	2047
259.685	1456
259.747	1967
259.809	1379
259.872	1983
259.934	2326
259.996	3024
260.058	2283
260.120	1380
260.182	1770
260.244	1901
260.306	1114
260.368	1953
260.430	437
260.492	1425
260.554	2697
260.616	2060
260.678	2172
260.740	2670
260.802	1081
260.864	1748
260.926	24
260.988	2068
261.050	2176
261.112	1473
261.174	2587
261.236	1821
261.298	1990
261.359	1523
261.421	2685
261.483	634
261.545	2903
261.607	790
261.669	2075
261.731	1677
261.793	2307
261.854	1249
261.916	2771
261.978	1755
262.040	2162
262.102	2763
262.164	1836
262.225	1920
262.287	2011
262.349	1471
262.411	1827
262.472	3309
262.534	958
262.596	1083
262.658	2098
262.719	774
262.781	2073
262.843	296
262.904	1877
262.966	1751
263.028	1204
263.090	1728
263.151	1740
263.213	2808
263.275	1351
263.336	2102
263.398	2542
263.459	1540
263.521	1700
263.583	2408
263.644	2305
263.706	1645
263.767	1028
263.829	2186
263.891	782
263.952	1328
264.014	1618
264.075	1734
264.137	1373
264.198	2086
264.260	988
264.321	962
264.383	1929
264.444	1787
264.506	890
264.567	1714
264.629	2348
264.690	302
264.752	1959
264.813	1235
264.875	1091
264.936	2958
264.998	2060
265.059	3379
265.120	3191
265.182	2025
265.243	2082
265.305	2428
265.366	2221
265.427	1834
265.489	2734
265.550	1184
265.611	1809
265.673	2041
265.734	2160
265.795	2759
265.857	711
265.918	1565
265.979	1256
266.040	1386
266.102	2114
266.163	1815
266.224	1852
266.286	1975
266.347	1038
266.408	1952
266.469	1530
266.530	1773
266.592	1824
266.653	2339
266.714	2233
266.775	2204
266.836	2095
266.898	1689
266.959	1824
267.020	1235
267.081	2809
267.142	2204
267.203	1361
267.264	1377
267.326	2910
267.387	1511
267.448	820
267.509	2605
267.570	1721
267.631	1775
267.692	1336
267.753	2338
267.814	1126
267.875	2025
267.936	2357
267.997	1557
268.058	2117
268.119	1758
268.180	1611
268.241	906
268.302	2155
268.363	1998
268.424	2205
268.485	1980
268.546	1041
268.607	1818
268.668	1935
268.729	1300
268.790	2038
268.851	2337
268.912	2417
268.972	2437
269.033	2284
269.094	1693
269.155	2398
269.216	2301
269.277	2250
269.338	2107
269.398	1961
269.459	1735
269.520	2141
269.581	1919
269.642	1818
269.702	829
269.763	2666
269.824	2025
269.885	1772
269.945	2591
270.006	2536
270.067	2187
270.128	1843
270.188	2322
270.249	1416
270.310	1525
270.370	2526
270.431	1396
270.492	2100
270.553	2249
270.613	2152
270.674	2499
270.734	2677
270.795	1677
270.856	2061
270.916	1630
270.977	2332
271.038	2376
271.098	2356
271.159	2391
271.219	2104
271.280	1909
271.340	1746
271.401	1451
271.462	2445
271.522	1610
271.583	1554
271.643	2184
271.704	1443
271.764	2320
271.825	2806
271.885	6533
271.946	9865
272.006	4273
272.066	5411
272.127	11361
272.187	17167
272.248	10981
272.308	5132
272.369	5997
272.429	4785
272.489	2769
272.550	2815
272.610	2449
272.671	3012
272.731	3423
272.791	2927
272.852	3078
272.912	3104
272.972	3235
273.033	2408
273.093	1992
273.153	3249
273.214	3410
273.274	2750
273.334	2887
273.394	5317
273.455	3112
273.515	2917
273.575	4218
273.635	3534
273.696	3854
273.756	5949
273.816	3839
273.876	3033
273.936	3446
273.997	3324
274.057	2552
274.117	1943
274.177	4196
274.237	5476
274.297	6902
274.358	3815
274.418	5028
274.478	4019
274.538	2950
274.598	1707
274.658	3558
274.718	3664
274.778	2914
274.838	2961
274.898	2973
274.958	3611
275.018	5999
275.078	6114
275.138	3435
275.198	2426
275.258	2553
275.318	3212
275.378	3131
275.438	3748
275.498	3046
275.558	3075
275.618	4957
275.678	4580
275.738	4372
275.798	3876
275.858	3827
275.918	3816
275.978	3173
276.038	4309
276.098	4429
276.157	3770
276.217	4917
276.277	3764
276.337	3474
276.397	3262
276.457	4752
276.517	3238
276.576	3807
276.636	2970
276.696	4069
276.756	3410
276.815	3732
276.875	3671
276.935	3437
276.995	2877
277.055	3967
277.114	5958
277.174	4567
277.234	3989
277.293	2855
277.353	2679
277.413	3167
277.472	2086
277.532	3412
277.592	3214
277.651	6076
277.711	9318
277.771	5054
277.830	10161
277.890	8505
277.950	6301
278.009	19563
278.069	10580
278.128	7816
278.188	9703
278.248	6911
278.307	10270
278.367	9820
278.426	5130
278.486	4482
278.545	3673
278.605	3685
278.664	3177
278.724	3066
278.783	5026
278.843	7983
278.902	3406
278.962	3504
279.021	3551
279.081	2996
279.140	2838
279.199	3497
279.259	3400
279.318	4820
279.378	4626
279.437	5917
279.496	19455
279.556	34711
279.615	30385
279.675	8897
279.734	6092
279.793	7128
279.853	17842
279.912	9859
279.971	5564
280.031	5581
280.090	7798
280.149	15624
280.208	8101
280.268	19666
280.327	26421
280.386	8276
280.445	5485
280.505	5010
280.564	3491
280.623	3662
280.682	3968
280.742	4641
280.801	4202
280.860	3281
280.919	3287
280.978	3414
281.037	3870
281.097	3703
281.156	4316
281.215	3019
281.274	3961
281.333	5581
281.392	5762
281.451	4274
281.510	3773
281.569	4056
281.628	3968
281.688	4205
281.747	3826
281.806	3699
281.865	4172
281.924	4317
281.983	3507
282.042	3128
282.101	3183
282.160	3777
282.219	3399
282.278	3984
282.337	3614
282.396	4354
282.454	3831
282.513	3181
282.572	3751
282.631	3943
282.690	3490
282.749	3819
282.808	3255
282.867	4000
282.926	3601
282.985	4546
283.043	3247
283.102	3247
283.161	3436
283.220	3575
283.279	5417
283.338	3820
283.396	3495
283.455	3822
283.514	3944
283.573	4103
283.631	3540
283.690	4011
283.749	3646
283.808	4391
283.866	4878
283.925	4254
283.984	5064
284.043	3874
284.101	3891
284.160	4506
284.219	3981
284.277	4811
284.336	3720
284.395	5544
284.453	5671
284.512	3930
284.570	4659
284.629	5334
284.688	4621
284.746	4907
284.805	5073
284.863	6054
284.922	7139
284.981	7489
285.039	10982
285.098	15877
285.156	35472
285.215	81486
285.273	88032
285.332	46638
285.390	22414
285.449	14680
285.507	11778
285.566	9260
285.624	7339
285.683	6645
285.741	5587
285.799	5576
285.858	4152
285.916	5485
285.975	4554
286.033	4536
286.091	4052
286.150	4133
286.208	4539
286.267	4018
286.325	3803
286.383	4920
286.442	4918
286.500	4362
286.558	4448
286.616	4438
286.675	5635
286.733	4642
286.791	4565
286.850	5622
286.908	4482
286.966	5069
287.024	4894
287.083	3939
287.141	4856
287.199	4300
287.257	3917
287.315	4802
287.374	4998
287.432	4713
287.490	4552
287.548	3022
287.606	3789
287.664	5327
287.723	4559
287.781	5001
287.839	4551
287.897	4856
287.955	4546
288.013	4992
288.071	4982
288.129	5767
288.187	10675
288.245	7760
288.303	5741
288.361	4991
288.419	4228
288.477	3914
288.535	3985
288.593	4684
288.651	3567
288.709	4064
288.767	4327
288.825	4784
288.883	3925
288.941	4733
288.999	4408
289.057	4492
289.115	5003
289.173	5341
289.231	4340
289.289	4561
289.346	4319
289.404	5451
289.462	4972
289.520	5122
289.578	4985
289.636	4468
289.694	4309
289.751	5159
289.809	5023
289.867	5536
289.925	4518
289.983	4629
290.040	5016
290.098	4701
290.156	4556
290.214	3652
290.271	4491
290.329	5827
290.387	5803
290.444	5045
290.502	4715
290.560	4532
290.617	4337
290.675	4995
290.733	4728
290.790	4469
290.848	4613
290.906	4024
290.963	4520
291.021	4358
291.078	4746
291.136	4937
291.194	4808
291.251	5384
291.309	5169
291.366	5505
291.424	4712
291.481	4464
291.539	5531
291.596	4251
291.654	4282
291.711	4608
291.769	5153
291.826	4711
291.884	4369
291.941	3806
291.999	5363
292.056	4260
292.114	4741
292.171	5602
292.228	6188
292.286	6241
292.343	5263
292.401	4877
292.458	5429
292.515	5024
292.573	5599
292.630	5941
292.687	5737
292.745	4775
292.802	4805
292.859	5019
292.917	6101
292.974	5007
293.031	5179
293.089	5145
293.146	4438
293.203	4751
293.260	5399
293.318	4847
293.375	4836
293.432	4795
293.489	5611
293.546	5690
293.604	5328
293.661	6483
293.718	10891
293.775	6835
293.832	6909
293.889	6782
293.947	5392
294.004	5152
294.061	5151
294.118	4886
294.175	6457
294.232	5780
294.289	5587
294.346	6054
294.403	5936
294.460	6054
294.517	5915
294.574	5775
294.631	5562
294.688	5776
294.745	5963
294.802	10498
294.859	9084
294.916	5490
294.973	5110
295.030	5063
295.087	5127
295.144	5677
295.201	5506
295.258	4979
295.315	5278
295.372	6034
295.429	8586
295.486	6445
295.542	5186
295.599	5123
295.656	4785
295.713	5859
295.770	7246
295.827	5291
295.883	4723
295.940	5059
295.997	5651
296.054	4578
296.111	4407
296.167	5049
296.224	4737
296.281	4989
296.338	3846
296.394	4609
296.451	4632
296.508	5300
296.564	6422
296.621	6344
296.678	10302
296.734	14403
296.791	7341
296.848	6075
296.904	5095
296.961	6321
297.018	7776
297.074	7804
297.131	5589
297.187	6001
297.244	6555
297.301	8665
297.357	16397
297.414	8902
297.470	6072
297.527	5758
297.583	5756
297.640	5358
297.696	5042
297.753	5284
297.809	4942
297.866	4974
297.922	4989
297.979	4753
298.035	5620
298.092	4795
298.148	6677
298.204	7342
298.261	6002
298.317	6457
298.374	11733
298.430	9987
298.486	5936
298.543	5624
298.599	5679
298.656	5519
298.712	5492
298.768	5923
298.824	5729
298.881	5760
298.937	6027
298.993	5760
299.050	5899
299.106	5324
299.162	5282
299.218	6105
299.275	5937
299.331	6688
299.387	8499
299.443	16248
299.500	37226
299.556	35130
299.612	17330
299.668	13667
299.724	31018
299.780	44171
299.837	20041
299.893	14935
299.949	25631
300.005	42264
300.061	31751
300.117	46682
300.173	26065
300.229	12771
300.285	9406
300.341	9479
300.397	7833
300.453	8578
300.510	9026
300.566	10666
300.622	17079
300.678	46403
300.734	65921
300.790	34407
300.845	23291
300.901	28695
300.957	44711
301.013	25589
301.069	13091
301.125	9895
301.181	8491
301.237	7991
301.293	6417
301.349	6861
301.405	6016
301.461	5646
301.516	6227
301.572	5842
301.628	6409
301.684	5504
301.740	6592
301.796	6939
301.851	7096
301.907	7157
301.963	7650
302.019	9584
302.074	23129
302.130	26586
302.186	14707
302.242	8550
302.297	7083
302.353	7052
302.409	7563
302.464	6770
302.520	6423
302.576	8590
302.631	10564
302.687	8121
302.743	6451
302.798	6132
302.854	5602
302.910	5447
302.965	5345
303.021	5912
303.076	5573
303.132	5525
303.187	5492
303.243	5576
303.299	5603
303.354	5726
303.410	5424
303.465	4725
303.521	4694
303.576	5641
303.632	5028
303.687	5597
303.743	10336
303.798	10389
303.853	6779
303.909	5752
303.964	5218
304.020	5228
304.075	5042
304.130	4638
304.186	6114
304.241	6160
304.297	6705
304.352	5694
304.358	5640
304.407	5206
304.449	5558
304.463	5677
304.518	5068
304.539	5208
304.573	5423
304.629	6117
304.630	6096
304.684	5282
304.720	7517
304.739	8627
304.794	12763
304.811	11625
304.850	8744
304.902	6386
304.905	6244
304.960	6080
304.992	5644
305.015	5302
305.071	6001
305.083	5863
305.126	5461
305.173	5169
305.181	5108
305.236	5366
305.264	5347
305.292	5327
305.347	5259
305.354	5338
305.402	5777
305.445	5910
305.457	5977
305.512	5461
305.535	5563
305.567	5625
305.622	5522
305.626	5519
305.678	6189
305.716	7434
305.733	7721
305.788	9638
305.807	8862
305.843	7930
305.897	11382
305.898	11417
305.953	11424
305.988	8805
306.008	7467
306.063	5771
306.078	5773
306.118	5953
306.168	5079
306.173	5016
306.228	5554
306.259	5565
306.283	5540
306.338	5911
306.349	5811
306.393	5343
306.440	5016
306.448	4996
306.503	5935
306.530	6084
306.558	6227
306.613	6059
306.620	6125
306.668	7422
306.711	8325
306.723	8167
306.778	7705
306.801	7377
306.833	7282
306.888	6013
306.892	5979
306.943	5816
306.982	5297
306.997	5129
307.052	5049
307.072	5257
307.107	5715
307.162	5527
307.163	5521
307.217	5366
307.253	5368
307.272	5512
307.327	5532
307.343	5737
307.381	5834
307.434	5449
307.436	5489
307.491	5916
307.524	6516
307.546	6569
307.600	7502
307.614	7331
307.655	6336
307.704	4965
307.710	4908
307.765	5397
307.795	5306
307.819	5209
307.874	5090
307.885	5155
307.929	5581
307.975	6576
307.984	6742
308.038	6339
308.065	6210
308.093	6337
308.148	6762
308.156	6853
308.202	7557
308.246	8564
308.257	8543
308.312	7177
308.336	6770
308.366	6814
308.421	7038
308.426	6986
308.475	5798
308.517	4947
308.530	4971
308.585	5016
308.607	5197
308.639	5076
308.694	4932
308.697	4907
308.748	5317
308.787	5187
308.803	5057
308.857	5431
308.877	5495
308.912	5685
308.967	6051
308.967	6039
309.021	6179
309.058	6458
309.076	7004
309.130	8802
309.148	9397
309.185	11260
309.238	13993
309.239	14047
309.293	15333
309.328	15544
309.348	14564
309.402	11056
309.418	10143
309.457	9444
309.508	8406
309.511	8437
309.566	9236
309.598	9757
309.620	10650
309.674	12958
309.688	13546
309.729	13736
309.778	13267
309.783	13150
309.837	11852
309.868	10677
309.892	10864
309.946	11965
309.959	12226
310.001	13580
310.049	14865
310.055	14512
310.109	11086
310.139	8939
310.163	8602
310.218	8162
310.229	8037
310.272	8219
310.319	8636
310.326	8653
310.381	8588
310.409	8479
310.435	8267
310.489	7881
310.499	7762
310.543	8072
310.589	8388
310.598	8418
310.652	8707
310.679	8669
310.706	8534
310.760	8555
310.769	8485
310.814	8786
310.859	9316
310.868	9423
310.923	9581
310.948	9724
310.977	9821
311.031	9861
311.038	9831
311.085	9818
311.128	9696
311.139	9593
311.193	9306
311.218	9025
311.247	9484
311.301	10278
311.308	10367
311.356	10045
311.398	9606
311.410	9745
311.464	10278
311.488	10489
311.518	10602
311.572	10851
311.578	10844
311.626	11055
311.668	11133
311.680	11089
311.734	10791
311.758	10613
311.788	10824
311.842	11172
311.847	11179
311.896	11314
311.937	11367
311.950	11376
312.004	11278
312.027	11222
312.058	11373
312.112	11567
312.117	11552
312.165	11870
312.207	12082
312.297	12026
312.386	11233
312.476	11743
312.566	13021
312.656	11985
312.745	11699
312.835	13465
312.925	13866
313.015	14377
313.104	14554
313.194	15495
313.284	15557
313.374	16893
313.463	17643
313.553	18872
313.643	19182
313.732	20064
313.822	19905
313.912	22120
314.001	22265
314.091	22669
314.180	23543
314.270	24178
314.360	24432
314.449	23118
314.539	23405
314.628	24697
314.718	22982
314.808	24439
314.897	25577
314.987	27205
315.076	28023
315.166	27622
315.255	25936
315.345	26484
315.434	24552
315.524	24842
315.613	26195
315.703	31728
315.792	59575
315.881	171343
315.971	73335
316.060	30599
316.150	25451
316.239	25086
316.328	25971
316.418	28186
316.507	31003
316.597	34700
316.686	35928
316.775	32487
316.865	30248
316.954	25668
317.043	23938
317.133	22132
317.222	20553
317.311	18632
317.400	18506
317.490	20529
317.579	21143
317.668	25115
317.757	36079
317.847	86325
317.936	243469
318.025	96087
318.114	79374
318.203	47966
318.293	29366
318.382	41586
318.471	47595
318.560	39176
318.649	30422
318.738	23299
318.828	20164
318.917	16949
319.006	16919
319.095	16521
319.184	17557
319.273	17415
319.362	17994
319.451	17221
319.540	17313
319.629	18106
319.718	19726
319.807	18301
319.896	17868
319.985	20485
320.074	20737
320.163	20094
320.252	21781
320.341	22171
320.430	24641
320.519	25085
320.608	28242
320.697	32027
320.786	34494
320.875	39188
320.964	41868
321.053	45236
321.142	46544
321.230	51373
321.319	53443
321.408	57071
321.497	55444
321.586	51327
321.675	47279
321.764	47129
321.852	46324
321.941	49928
322.030	50868
322.119	53805
322.207	60302
322.296	64515
322.385	67089
322.474	73307
322.562	73081
322.651	59517
322.740	52859
322.829	49601
322.917	41871
323.006	37643
323.095	36600
323.183	33010
323.272	31351
323.361	30072
323.449	28511
323.538	26695
323.626	26788
323.715	27526
323.804	24849
323.892	24594
323.981	23155
324.069	22456
324.158	22422
324.246	21136
324.335	22332
324.424	22108
324.512	20746
324.601	20539
324.689	19312
324.778	20619
324.866	20188
324.954	18873
325.043	19083
325.131	17260
325.220	18804
325.308	18211
325.397	18061
325.485	17247
325.574	16800
325.662	17010
325.750	16890
325.839	16773
325.927	17471
326.015	16584
326.104	16608
326.192	16154
326.280	15948
326.369	15413
326.457	16360
326.545	16558
326.634	16606
326.722	17062
326.810	17751
326.898	19832
326.987	22176
327.075	20585
327.163	20291
327.251	19169
327.340	21337
327.428	25250
327.516	31495
327.604	28970
327.692	22675
327.781	19780
327.869	17171
327.957	14991
328.045	14567
328.133	14324
328.221	13176
328.309	13356
328.397	15268
328.485	17699
328.574	26769
328.662	37757
328.750	30765
328.838	22043
328.926	18006
329.014	14943
329.102	14541
329.190	15524
329.278	13498
329.366	13980
329.454	12680
329.542	13174
329.630	12655
329.718	13582
329.806	13645
329.893	13193
329.981	12703
330.069	13492
330.157	15795
330.245	13896
330.333	13502
330.421	12726
330.509	13831
330.597	16498
330.684	15354
330.772	14397
330.860	13505
330.948	13469
331.036	14046
331.123	13415
331.211	13563
331.299	13442
331.387	13626
331.475	14179
331.562	14733
331.650	14355
331.738	14761
331.825	14239
331.913	14875
332.001	14852
332.089	14278
332.176	14962
332.264	15774
332.352	15560
332.439	15589
332.527	15449
332.614	15612
332.702	16113
332.790	16357
332.877	17294
332.965	19481
333.052	19769
333.140	19196
333.228	21643
333.315	19895
333.403	20257
333.490	22197
333.578	23576
333.665	30022
333.753	30429
333.840	30696
333.928	34472
334.015	41137
334.103	49784
334.190	61156
334.278	78119
334.365	93289
334.452	94008
334.540	80818
334.627	84313
334.715	103338
334.802	130897
334.889	165392
334.977	180221
335.064	133134
335.151	89127
335.239	69988
335.326	61740
335.413	61834
335.501	62472
335.588	70441
335.675	80219
335.762	97912
335.850	124643
335.937	161642
336.024	211903
336.111	251978
336.199	215831
336.286	137529
336.373	92829
336.460	67831
336.547	54381
336.635	48690
336.722	40842
336.809	36907
336.896	32602
336.983	32607
337.070	29624
337.157	29311
337.245	29369
337.332	28977
337.419	29999
337.506	27823
337.593	27642
337.680	25554
337.767	25519
337.854	23043
337.941	23188
338.028	22973
338.115	22984
338.202	24342
338.289	23506
338.376	21396
338.463	20993
338.550	19849
338.637	18436
338.724	19524
338.811	18259
338.898	18917
338.984	18222
339.071	16929
339.158	17587
339.245	18989
339.332	17779
339.419	17824
339.506	18070
339.593	17569
339.679	18649
339.766	17869
339.853	17345
339.940	17978
340.027	16750
340.113	16578
340.200	16486
340.287	15892
340.374	16208
340.460	16555
340.547	14671
340.634	16273
340.720	18689
340.807	16567
340.894	16245
340.980	15692
341.067	15637
341.154	16639
341.240	16501
341.327	17877
341.414	16774
341.500	15730
341.587	16236
341.674	16183
341.760	16447
341.847	17241
341.933	15452
342.020	14411
342.106	15805
342.193	15648
342.279	15539
342.366	15589
342.452	15776
342.539	15391
342.625	16219
342.712	18468
342.798	16043
342.885	14851
342.971	13603
343.058	15278
343.144	14298
343.230	14870
343.317	14308
343.403	14497
343.490	15052
343.576	14537
343.662	14908
343.749	14931
343.835	15592
343.921	17148
344.008	37019
344.094	65400
344.180	23079
344.267	16110
344.353	21915
344.439	21386
344.525	14733
344.612	15044
344.698	14491
344.784	13730
344.870	14358
344.957	14263
345.043	15606
345.129	14653
345.215	15475
345.301	13915
345.387	14161
345.474	13889
345.560	14530
345.646	13663
345.732	14444
345.818	14800
345.904	15081
345.990	14324
346.076	14344
346.162	14287
346.249	14928
346.335	14573
346.421	16268
346.507	18677
346.593	29442
346.679	17293
346.765	20639
346.851	32582
346.937	30989
347.023	21667
347.108	18619
347.194	17109
347.280	19073
347.366	25122
347.452	58172
347.538	89886
347.624	49266
347.710	30464
347.796	20037
347.882	17214
347.967	16545
348.053	16164
348.139	16333
348.225	16119
348.311	16554
348.397	16655
348.482	18596
348.568	21373
348.654	30645
348.740	79996
348.825	107145
348.911	55500
348.997	36872
349.083	38858
349.168	20617
349.254	17765
349.340	17062
349.425	16149
349.511	17045
349.597	17536
349.682	17412
349.768	23156
349.854	18846
349.939	16687
350.025	15744
350.110	15418
350.196	16101
350.282	15092
350.367	16182
350.453	15969
350.538	14941
350.624	15336
350.709	15639
350.795	15581
350.880	14429
350.966	16399
351.051	15756
351.137	14999
351.222	15437
351.308	16774
351.393	19195
351.479	14998
351.564	14430
351.649	15183
351.735	15009
351.820	14989
351.906	14671
351.991	14498
352.076	17943
352.162	19122
352.247	15141
352.332	15108
352.418	15236
352.503	16104
352.588	22221
352.673	18368
352.759	14760
352.844	14748
352.929	13886
353.014	14572
353.100	15635
353.185	17472
353.270	16585
353.355	15485
353.441	15055
353.526	13910
353.611	14294
353.696	15003
353.781	15123
353.866	13219
353.952	14675
354.037	14129
354.122	15776
354.207	16233
354.292	14541
354.377	14087
354.462	14964
354.547	14756
354.632	15493
354.717	16843
354.802	17617
354.887	15604
354.972	15574
355.057	14496
355.142	14332
355.227	14520
355.312	14762
355.397	16137
355.482	18432
355.567	15796
355.652	16814
355.737	17101
355.822	22371
355.907	20678
355.991	16956
356.076	15176
356.161	15519
356.246	15083
356.331	16718
356.416	16841
356.501	36347
356.585	34643
356.670	18036
356.755	20143
356.840	19054
356.924	32029
357.009	67993
357.094	31460
357.179	17933
357.263	16685
357.348	17557
357.433	17290
357.517	17120
357.602	17343
357.687	17144
357.771	18862
357.856	18158
357.941	18835
358.025	28552
358.110	80021
358.195	41259
358.279	19226
358.364	17677
358.448	21645
358.533	30026
358.617	25394
358.702	25864
358.787	19715
358.871	18353
358.956	18382
359.040	18493
359.125	17472
359.209	19140
359.294	21965
359.378	35124
359.462	34616
359.547	20767
359.631	18032
359.716	17022
359.800	18193
359.885	18347
359.969	17215
360.053	18867
360.138	17300
360.222	18587
360.306	19106
360.391	19379
360.475	19759
360.559	21038
360.644	22723
360.728	21666
360.812	31218
360.896	50453
360.981	28689
361.065	23609
361.149	23574
361.233	22945
361.318	23474
361.402	24929
361.486	26838
361.570	27903
361.654	29840
361.739	33314
361.823	52651
361.907	72125
361.991	52023
362.075	62043
362.159	88699
362.243	147454
362.327	267114
362.411	301265
362.495	157148
362.580	102326
362.664	99306
362.748	124613
362.832	186515
362.916	320974
363.000	544071
363.084	566061
363.168	312837
363.252	149856
363.336	95527
363.420	75872
363.503	64757
363.587	60839
363.671	62452
363.755	64352
363.839	75419
363.923	85917
364.007	111332
364.091	153276
364.175	227333
364.258	385985
364.342	633872
364.426	725047
364.510	477477
364.594	242266
364.677	141025
364.761	113611
364.845	84072
364.929	56909
365.013	47669
365.096	41722
365.180	38408
365.264	35164
365.347	32999
365.431	30291
365.515	29540
365.598	28038
365.682	29820
365.766	27242
365.849	26984
365.933	27056
366.017	28544
366.100	27306
366.184	28240
366.267	28389
366.351	26662
366.435	25865
366.518	24748
366.602	25559
366.685	25594
366.769	25201
366.852	25254
366.936	25255
367.019	24745
367.103	24200
367.186	24967
367.270	23912
367.353	25852
367.436	29268
367.520	30239
367.603	29159
367.687	26684
367.770	28593
367.853	27978
367.937	31149
368.020	34694
368.104	24010
368.187	24510
368.270	24102
368.353	21895
368.437	21302
368.520	20995
368.603	21118
368.687	24029
368.770	30028
368.853	20322
368.936	21363
369.020	20394
369.103	19256
369.186	18896
369.269	18882
369.352	20699
369.436	18406
369.519	18644
369.602	16425
369.685	20143
369.768	18180
369.851	18835
369.934	17859
370.018	17807
370.101	18467
370.184	20753
370.267	19383
370.350	19671
370.433	22470
370.516	47627
370.599	111508
370.682	59750
370.765	28373
370.848	27310
370.931	32963
371.014	23909
371.097	17867
371.180	18715
371.263	18959
371.346	16330
371.429	18683
371.511	17773
371.594	18347
371.677	18998
371.760	19441
371.843	19439
371.926	40993
372.009	76822
372.091	33475
372.174	24414
372.257	36746
372.340	25652
372.423	21846
372.505	21798
372.588	19451
372.671	24538
372.754	32536
372.836	25762
372.919	21002
373.002	22114
373.085	19693
373.167	23557
373.250	26097
373.332	37254
373.415	51984
373.498	93227
373.580	60617
373.663	155610
373.746	169142
373.828	45975
373.911	29141
373.993	25581
374.076	25289
374.159	24985
374.241	27121
374.324	35132
374.406	31978
374.489	42512
374.571	76511
374.654	41625
374.736	33603
374.819	54602
374.901	70798
374.983	72971
375.066	34442
375.148	29837
375.231	29740
375.313	30464
375.395	30116
375.478	30508
375.560	30036
375.643	29856
375.725	35398
375.807	61931
375.890	48325
375.972	27504
376.054	26991
376.136	26631
376.219	24488
376.301	31429
376.383	48770
376.465	31463
376.548	23996
376.630	26075
376.712	40382
376.794	29218
376.877	21617
376.959	19511
377.041	20718
377.123	20016
377.205	19006
377.287	19070
377.369	20277
377.452	20208
377.534	20433
377.616	19935
377.698	19566
377.780	19114
377.862	19347
377.944	20052
378.026	18649
378.108	19958
378.190	18686
378.272	19347
378.354	18490
378.436	18275
378.518	17688
378.600	19034
378.682	20007
378.764	23441
378.846	22669
378.928	18473
379.010	18020
379.091	18526
379.173	18296
379.255	17532
379.337	17802
379.419	20390
379.501	28991
379.583	20511
379.664	17903
379.746	18278
379.828	24348
379.910	25565
379.991	26319
380.073	17918
380.155	17459
380.237	17433
380.318	17398
380.400	17486
380.482	17673
380.564	18611
380.645	20318
380.727	19514
380.809	19420
380.890	17365
380.972	17018
381.053	17570
381.135	18361
381.217	19278
381.298	24840
381.380	20755
381.461	20996
381.543	36687
381.624	41376
381.706	20802
381.787	19044
381.869	20048
381.951	28625
382.032	68674
382.113	47647
382.195	19921
382.276	22435
382.358	26433
382.439	39739
382.521	44923
382.602	63058
382.684	36115
382.765	44825
382.846	53436
382.928	71977
383.009	50460
383.090	49607
383.172	112502
383.253	141443
383.334	62371
383.416	58656
383.497	43100
383.578	35586
383.659	49544
383.741	114876
383.822	221618
383.903	117512
383.984	53598
384.066	60708
384.147	46874
384.228	38091
384.309	40000
384.390	42634
384.471	41868
384.553	38763
384.634	34344
384.715	32753
384.796	30447
384.877	29284
384.958	33939
385.039	34562
385.120	30542
385.201	29805
385.282	30223
385.363	32658
385.444	34540
385.525	38421
385.606	51384
385.687	50771
385.768	39202
385.849	38733
385.930	58392
386.011	81418
386.092	45416
386.173	41285
386.254	38365
386.335	38160
386.416	36570
386.496	40286
386.577	44026
386.658	39091
386.739	38202
386.820	39546
386.901	40888
386.981	44159
387.062	47429
387.143	51385
387.224	58931
387.304	61613
387.385	60232
387.466	58364
387.547	62977
387.627	63832
387.708	67047
387.789	76629
387.869	76817
387.950	60552
388.031	55547
388.111	49507
388.192	51487
388.273	49864
388.353	45984
388.434	41314
388.514	42102
388.595	59401
388.676	58821
388.756	41532
388.837	39697
388.917	36118
388.998	31936
389.078	34393
389.159	33109
389.239	31094
389.320	33784
389.400	30325
389.480	34105
389.561	38817
389.641	34547
389.722	30912
389.802	29968
389.883	34465
389.963	43205
390.043	36186
390.124	30357
390.204	32248
390.284	37274
390.365	33540
390.445	32205
390.525	31005
390.605	34322
390.686	33990
390.766	33986
390.846	33469
390.927	32495
391.007	33651
391.087	36257
391.167	34769
391.247	34807
391.328	37914
391.408	39272
391.488	40246
391.568	40243
391.648	41881
391.728	46781
391.808	48637
391.888	49258
391.969	54750
392.049	59356
392.129	60688
392.209	65393
392.289	77356
392.369	77280
392.449	80536
392.529	87695
392.609	100468
392.689	115393
392.769	141262
392.849	168202
392.929	206853
393.009	276222
393.089	384032
393.169	574283
393.248	853682
393.328	951629
393.408	914994
393.488	818575
393.568	554989
393.648	359501
393.728	248438
393.807	180667
393.887	141389
393.967	117359
394.047	99425
394.127	83954
394.206	75958
394.286	70209
394.366	68339
394.446	66155
394.525	57450
394.605	54294
394.685	55555
394.764	58648
394.844	101491
394.924	140462
395.003	81117
395.083	52509
395.163	47896
395.242	44965
395.322	47431
395.402	45921
395.481	52170
395.561	63714
395.640	140623
395.720	288363
395.799	177317
395.879	80525
395.958	66186
396.038	66860
396.117	82078
396.197	89959
396.276	90870
396.356	105809
396.435	136253
396.515	180510
396.594	265492
396.673	450545
396.753	751908
396.832	899276
396.912	824873
396.991	547248
397.070	313103
397.150	203353
397.229	166830
397.308	242539
397.388	409931
397.467	253387
397.546	108826
397.625	73066
397.705	63276
397.784	55231
397.863	48496
397.942	45239
398.022	42557
398.101	38377
398.180	37365
398.259	34428
398.338	34872
398.417	32518
398.497	31535
398.576	31008
398.655	28297
398.734	28448
398.813	26822
398.892	26420
398.971	25791
399.050	24920
399.129	22969
399.208	24757
399.287	23410
399.366	22103
399.445	22232
399.524	21425
399.603	20319
399.682	21675
399.761	22025
399.840	21497
399.919	20785
399.998	19599
400.077	18598
400.156	18743
400.235	21358
400.313	17992
400.392	17292
400.471	20953
400.550	23443
400.629	18445
400.708	18792
400.786	16692
400.865	16952
400.944	15102
401.023	18539
401.102	15090
401.180	16346
401.259	15589
401.338	16105
401.416	16339
401.495	14685
401.574	16176
401.652	15447
401.731	16694
401.810	15366
401.888	14814
401.967	14926
402.046	14742
402.124	14836
402.203	13663
402.281	15578
402.360	13745
402.438	14556
402.517	14331
402.596	15506
402.674	15336
402.753	15182
402.831	16420
402.910	18353
402.988	26520
403.066	59568
403.145	39629
403.223	28985
403.302	51197
403.380	42825
403.459	45021
403.537	28469
403.615	23267
403.694	19945
403.772	20326
403.850	18837
403.929	18739
404.007	18509
404.085	21151
404.164	21176
404.242	18705
404.320	20178
404.398	20074
404.477	22370
404.555	44904
404.633	39694
404.711	19962
404.789	17649
404.868	17406
404.946	15552
405.024	17011
405.102	15051
405.180	14642
405.258	13469
405.336	15460
405.415	13005
405.493	16415
405.571	17617
405.649	14616
405.727	15282
405.805	19256
405.883	19646
405.961	18462
406.039	16190
406.117	15320
406.195	16392
406.273	17966
406.351	33201
406.429	24148
406.507	15050
406.585	13554
406.663	14737
406.740	15760
406.818	14856
406.896	14754
406.974	16955
407.052	15507
407.130	24820
407.208	28876
407.285	19430
407.363	16407
407.441	17728
407.519	18923
407.596	24441
407.674	60282
407.752	199991
407.830	144628
407.907	35371
407.985	20120
408.063	17596
408.141	16646
408.218	17057
408.296	16159
408.373	18680
408.451	20010
408.529	20647
408.606	21413
408.684	22986
408.762	22965
408.839	24083
408.917	26405
408.994	30000
409.072	33917
409.149	40747
409.227	56841
409.304	77243
409.382	91932
409.459	104371
409.537	123787
409.614	124568
409.692	113537
409.769	112299
409.846	130485
409.924	148822
410.001	131701
410.079	110445
410.156	88869
410.233	73321
410.311	61045
410.388	53141
410.465	48312
410.543	42799
410.620	39501
410.697	35868
410.775	35268
410.852	32757
410.929	34267
411.006	33665
411.083	31971
411.161	29607
411.238	29206
411.315	26675
411.392	26142
411.469	24917
411.547	23603
411.624	22122
411.701	22498
411.778	21589
411.855	20783
411.932	19047
412.009	18640
412.086	18853
412.163	19017
412.240	16707
412.317	17934
412.394	17235
412.471	17193
412.548	16265
412.625	16105
412.702	16040
412.779	15352
412.856	16233
412.933	14543
413.010	14319
413.087	14565
413.164	15386
413.241	18656
413.318	13771
413.395	14167
413.471	14121
413.548	14917
413.625	13888
413.702	11693
413.779	12485
413.855	13366
413.932	12274
414.009	11745
414.086	13113
414.162	13160
414.239	13136
414.316	14670
414.393	19384
414.469	12725
414.546	12307
414.623	12455
414.699	11248
414.776	12014
414.853	11464
414.929	12289
415.006	11085
415.082	11691
415.159	11398
415.236	11254
415.312	11914
415.389	12268
415.465	11373
415.542	11932
415.618	10686
415.695	12514
415.771	11290
415.848	11988
415.924	12180
416.000	12295
416.077	13193
416.153	10423
416.230	11612
416.306	11077
416.383	11734
416.459	12543
416.535	11142
416.612	11651
416.688	11354
416.764	11273
416.841	11850
416.917	11731
416.993	11668
417.069	11732
417.146	11616
417.222	12244
417.298	12779
417.374	11115
417.451	12967
417.527	11394
417.603	11861
417.679	12947
417.755	13086
417.831	12283
417.908	13576
417.984	13396
418.060	12736
418.136	13769
418.212	13684
418.288	13767
418.364	13944
418.440	12997
418.516	14288
418.592	14821
418.668	15226
418.744	15142
418.820	16524
418.896	16308
418.972	15464
419.048	16621
419.124	16972
419.200	15517
419.276	17353
419.352	16832
419.428	19075
419.504	18622
419.579	19478
419.655	19996
419.731	20990
419.807	21703
419.883	23513
419.959	23587
420.034	24256
420.110	25449
420.186	27502
420.262	29933
420.337	27618
420.413	30336
420.489	31600
420.565	34970
420.640	35625
420.716	38693
420.792	38027
420.867	41987
420.943	44669
421.019	46408
421.094	50145
421.170	53977
421.245	60205
421.321	65595
421.397	74127
421.472	112147
421.548	201926
421.623	154055
421.699	112664
421.774	121924
421.850	137040
421.925	161031
422.001	187304
422.076	223592
422.152	274648
422.227	338264
422.302	422504
422.378	517987
422.453	602522
422.529	567586
422.604	359625
422.679	209103
422.755	353925
422.830	545124
422.905	582616
422.981	522962
423.056	437461
423.131	357680
423.207	288778
423.282	239374
423.357	202548
423.432	170376
423.508	150836
423.583	129857
423.658	114449
423.733	103728
423.808	94834
423.883	91074
423.959	92515
424.034	93813
424.109	88819
424.184	74102
424.259	63037
424.334	56557
424.409	50526
424.484	45595
424.559	44724
424.634	40609
424.709	37910
424.784	36204
424.859	33831
424.934	32953
425.009	33229
425.084	34156
425.159	29091
425.234	28373
425.309	27060
425.384	26728
425.459	24464
425.534	24243
425.609	22744
425.683	22257
425.758	21614
425.833	22195
425.908	21603
425.983	21266
426.058	24347
426.132	21072
426.207	19532
426.282	19953
426.357	17866
426.431	17542
426.506	18111
426.581	16947
426.655	17070
426.730	17147
426.805	15737
426.879	16528
426.954	15931
427.029	15683
427.103	19556
427.178	29473
427.253	20763
427.327	16137
427.402	14748
427.476	15273
427.551	15355
427.625	15390
427.700	15863
427.774	15381
427.849	17361
427.923	19450
427.998	22061
428.072	28336
428.147	52781
428.221	162977
428.296	363709
428.370	224278
428.444	64561
428.519	33250
428.593	26511
428.667	27564
428.742	35759
428.816	78306
428.890	249911
428.965	328207
429.039	117616
429.113	37764
429.188	24733
429.262	20324
429.336	20439
429.410	20566
429.485	21564
429.559	22127
429.633	25791
429.707	34087
429.781	73848
429.855	239132
429.930	305258
430.004	126309
430.078	99625
430.152	221615
430.226	465010
430.300	438031
430.374	184336
430.448	77109
430.522	49444
430.596	50680
430.670	108873
430.744	300775
430.818	296007
430.892	91806
430.966	32616
431.040	22401
431.114	18119
431.188	16134
431.262	15318
431.336	14977
431.410	16074
431.484	16815
431.557	19214
431.631	24759
431.705	45726
431.779	140233
431.853	354762
431.927	250072
432.000	67314
432.074	27233
432.148	17298
432.222	13400
432.295	12025
432.369	10707
432.443	10564
432.516	15107
432.590	23984
432.664	12450
432.737	9052
432.811	7466
432.885	7910
432.958	7956
433.032	7603
433.106	7463
433.179	8166
433.253	8563
433.326	7550
433.400	9301
433.473	8236
433.547	8694
433.620	9082
433.694	9893
433.767	9787
433.841	9800
433.914	10413
433.988	10287
434.061	11269
434.134	10548
434.208	9684
434.281	9482
434.355	9116
434.428	8786
434.501	9009
434.575	9144
434.648	9448
434.721	9791
434.795	10219
434.868	10682
434.941	11484
435.014	12067
435.088	13170
435.161	15018
435.234	16904
435.307	20097
435.381	24690
435.454	35200
435.527	51269
435.600	59632
435.673	57310
435.746	51765
435.819	43264
435.892	36455
435.966	30509
436.039	25634
436.112	22856
436.185	18626
436.258	17395
436.331	15340
436.404	13058
436.477	13860
436.550	13092
436.623	12320
436.696	11039
436.769	10482
436.842	10412
436.915	8917
436.987	9165
437.060	9480
437.133	9101
437.206	7706
437.279	8573
437.352	8484
437.425	7391
437.498	7461
437.570	7845
437.643	6946
437.716	6970
437.789	6785
437.861	7502
437.934	6762
438.007	6105
438.080	6829
438.152	8153
438.225	7542
438.298	15202
438.370	34684
438.443	16149
438.516	7894
438.588	6932
438.661	6112
438.734	7429
438.806	6921
438.879	7468
438.951	7041
439.024	6618
439.096	5574
439.169	7040
439.241	5663
439.314	6860
439.386	6168
439.459	6017
439.531	6138
439.604	7609
439.676	7467
439.749	6678
439.821	6511
439.893	6716
439.966	5867
440.038	6552
440.110	6696
440.183	6501
440.255	6585
440.327	8508
440.400	9183
440.472	19137
440.544	15082
440.617	7792
440.689	9326
440.761	7826
440.833	7215
440.905	8145
440.978	7268
441.050	8985
441.122	9088
441.194	8164
441.266	9246
441.338	8207
441.411	9680
441.483	12030
441.555	14727
441.627	11244
441.699	11140
441.771	11555
441.843	12813
441.915	13433
441.987	15114
442.059	17329
442.131	21666
442.203	27410
442.275	37705
442.347	60205
442.419	130971
442.491	351732
442.563	521726
442.635	298095
442.706	108799
442.778	56525
442.850	40257
442.922	36474
442.994	37192
443.066	42231
443.137	51710
443.209	69741
443.281	108130
443.353	201827
443.425	420825
443.496	654262
443.568	664127
443.640	420045
443.711	184183
443.783	93351
443.855	58106
443.926	42846
443.998	35213
444.070	28808
444.141	26027
444.213	23813
444.285	23271
444.356	21378
444.428	22092
444.499	21938
444.571	23191
444.642	23775
444.714	25936
444.785	27912
444.857	31527
444.928	35964
445.000	43058
445.071	55405
445.143	74356
445.214	112757
445.285	179641
445.357	342835
445.428	601115
445.500	686018
445.571	702288
445.642	568191
445.714	307091
445.785	137211
445.856	78549
445.928	55336
445.999	42005
446.070	32078
446.141	26535
446.213	24100
446.284	20230
446.355	17826
446.426	15520
446.497	15791
446.569	12772
446.640	12591
446.711	11884
446.782	11928
446.853	10080
446.924	10332
446.995	9418
447.066	8506
447.138	7405
447.209	8117
447.280	7029
447.351	7238
447.422	7020
447.493	7388
447.564	6470
447.635	6488
447.706	6169
447.777	6360
447.847	6100
447.918	5078
447.989	6046
448.060	5722
448.131	4756
448.202	5296
448.273	5817
448.344	5513
448.414	5247
448.485	5239
448.556	5522
448.627	5037
448.698	5965
448.768	4680
448.839	4281
448.910	4850
448.981	4837
449.051	4622
449.122	5048
449.193	4537
449.263	4567
449.334	5415
449.405	4978
449.475	6024
449.546	6578
449.616	7645
449.687	7852
449.758	6325
449.828	5435
449.899	4702
449.969	5249
450.040	4825
450.110	5269
450.181	4591
450.251	4902
450.322	5593
450.392	4548
450.463	5032
450.533	5275
450.604	5350
450.674	7110
450.744	8911
450.815	9371
450.885	10432
450.955	11189
451.026	10898
451.096	11005
451.166	10824
451.237	12468
451.307	14016
451.377	13308
451.447	10991
451.518	9492
451.588	8391
451.658	7119
451.728	6445
451.799	6783
451.869	6827
451.939	6707
452.009	7157
452.079	7600
452.149	7973
452.219	8398
452.289	9509
452.360	10911
452.430	13615
452.500	19142
452.570	30204
452.640	57615
452.710	117412
452.780	143010
452.850	101396
452.920	60590
452.990	36784
453.060	25838
453.129	18344
453.199	14440
453.269	12268
453.339	10385
453.409	8541
453.479	9178
453.549	8053
453.619	7331
453.688	6455
453.758	6219
453.828	5210
453.898	5832
453.968	5642
454.037	5701
454.087	5378
454.107	5221
454.168	5125
454.177	5078
454.247	4659
454.249	4684
454.316	4630
454.330	4647
454.386	4614
454.411	4536
454.456	4291
454.492	4616
454.525	4847
454.574	5277
454.595	5469
454.655	5452
454.665	5396
454.734	6335
454.736	6391
454.804	7178
454.817	7030
454.873	6265
454.898	6120
454.943	5862
454.979	5606
455.013	5244
455.060	5656
455.082	5819
455.141	5033
455.152	4841
455.221	5385
455.222	5414
455.291	5331
455.303	5435
455.360	5601
455.384	6150
455.430	6877
455.465	6457
455.499	5968
455.546	5585
455.569	5445
455.627	6101
455.638	6179
455.707	5378
455.708	5413
455.777	5520
455.789	5625
455.846	5988
455.869	5986
455.916	5781
455.950	5948
455.985	6185
456.031	5894
456.054	5615
456.112	6646
456.124	6842
456.193	6649
456.193	6610
456.262	7765
456.274	7886
456.332	8332
456.355	8003
456.401	7257
456.436	7819
456.470	8225
456.516	8075
456.540	7940
456.597	7963
456.609	7942
456.678	9068
456.678	9031
456.747	8303
456.759	8323
456.817	8630
456.840	8932
456.886	9259
456.920	9756
456.955	10315
457.001	11168
457.024	11365
457.082	11403
457.093	11448
457.162	11636
457.163	11685
457.232	12354
457.243	12627
457.301	14079
457.324	14425
457.370	15285
457.405	16474
457.439	17704
457.485	19807
457.508	21141
457.566	25229
457.577	26665
457.646	37237
457.647	37489
457.715	79868
457.727	90125
457.784	161786
457.808	210993
457.853	273539
457.889	327353
457.922	331110
457.969	247535
457.991	247670
458.050	263989
458.060	271081
458.129	428018
458.130	433079
458.198	460975
458.211	434796
458.267	291483
458.292	216365
458.336	149371
458.372	129191
458.405	146043
458.453	196139
458.474	241456
458.533	412776
458.543	427697
458.611	641635
458.614	646704
458.680	476613
458.694	407349
458.749	233542
458.775	168483
458.818	103580
458.855	77178
458.887	60823
458.936	47354
458.955	43023
459.016	34364
459.024	33372
459.093	29327
459.097	29083
459.162	24483
459.177	23734
459.230	21608
459.257	21085
459.299	20346
459.338	19654
459.368	19044
459.418	18267
459.437	18090
459.499	17641
459.505	17535
459.574	16775
459.579	16736
459.643	16070
459.659	16101
459.711	16399
459.740	16386
459.780	16291
459.820	16384
459.849	16355
459.900	15953
459.917	15735
459.981	15433
459.986	15417
460.054	14680
460.061	14726
460.123	14911
460.141	14958
460.191	15401
460.222	15492
460.260	15459
460.302	16113
460.328	16866
460.382	17928
460.397	18667
460.462	22109
460.465	22882
460.534	41916
460.543	44567
460.602	117965
460.623	146989
460.671	226118
460.703	300149
460.739	279389
460.783	222556
460.808	187182
460.864	53785
460.876	42330
460.944	20710
460.945	20502
461.013	17472
461.024	17076
461.081	15563
461.104	15303
461.150	15500
461.184	15458
461.218	15539
461.264	15764
461.286	15491
461.345	15120
461.355	15060
461.423	13952
461.425	13938
461.491	13799
461.505	13824
461.559	13823
461.585	13837
461.628	13903
461.665	14104
461.696	13908
461.745	13242
461.764	13350
461.825	13809
461.832	13870
461.901	14666
461.905	14722
461.969	13829
461.985	13487
462.037	14169
462.065	14607
462.105	14038
462.145	13707
462.173	13791
462.225	13569
462.241	13607
462.305	13847
462.310	13934
462.378	15477
462.385	15663
462.446	15525
462.465	15407
462.514	14981
462.545	14662
462.582	14489
462.625	14023
462.650	13669
462.705	13278
462.718	13359
462.785	13899
462.786	13895
462.854	12994
462.865	12853
462.922	13050
462.945	13335
462.990	13292
463.025	12774
463.058	13115
463.104	13983
463.126	14012
463.184	13985
463.194	13931
463.262	13255
463.264	13231
463.330	13960
463.344	14110
463.398	14390
463.424	14360
463.466	13600
463.504	13205
463.533	13655
463.583	14280
463.601	14160
463.663	13456
463.669	13409
463.737	12951
463.743	12913
463.805	14615
463.823	14971
463.873	14449
463.903	14359
463.940	14431
463.982	14281
464.008	14104
464.062	13710
464.076	13864
464.142	14487
464.144	14496
464.211	14486
464.221	14425
464.279	14515
464.301	14598
464.347	14432
464.381	14329
464.414	14090
464.461	13640
464.482	13726
464.540	13670
464.550	13656
464.617	13826
464.620	13816
464.685	14449
464.699	14538
464.753	14167
464.779	13890
464.820	13958
464.859	14047
464.888	13830
464.938	13514
464.956	13906
465.018	15201
465.023	15202
465.091	14825
465.098	14787
465.158	14923
465.177	14937
465.226	14679
465.257	14371
465.293	14688
465.336	15043
465.361	15144
465.416	15448
465.428	15395
465.495	14881
465.496	14901
465.563	14574
465.575	14547
465.631	15253
465.654	15513
465.698	15355
465.734	15110
465.765	15498
465.813	16015
465.833	15784
465.893	15013
465.900	15091
465.968	15694
465.972	15696
466.035	15383
466.052	15305
466.102	15507
466.131	15561
466.170	14945
466.210	14212
466.237	14758
466.290	15864
466.304	15884
466.369	15721
466.372	15751
466.439	15973
466.449	15962
466.506	15273
466.528	15006
466.573	15830
466.607	16357
466.641	16684
466.687	17142
466.708	17242
466.766	17329
466.775	17317
466.842	17041
466.845	16998
466.909	17807
466.925	17965
466.977	17847
467.004	17732
467.044	18276
467.083	18752
467.111	18625
467.163	18304
467.178	18567
467.242	19496
467.245	19537
467.312	19665
467.321	19649
467.379	19969
467.400	20024
467.446	20859
467.480	21393
467.559	21817
467.638	21873
467.717	23527
467.796	25515
467.875	26979
467.955	28447
468.034	33786
468.113	38427
468.192	48549
468.271	62385
468.350	85372
468.429	111422
468.508	114631
468.588	77271
468.667	49863
468.746	36899
468.825	31881
468.904	27718
468.983	25491
469.062	24399
469.141	22991
469.220	21458
469.299	21343
469.378	19798
469.456	20637
469.535	21081
469.614	19247
469.693	18223
469.772	20126
469.851	19429
469.930	19075
470.009	19476
470.088	19798
470.166	21648
470.245	23405
470.324	23444
470.403	22000
470.482	21171
470.560	20957
470.639	19812
470.718	19843
470.797	19489
470.875	19192
470.954	18500
471.033	18507
471.111	18270
471.190	18102
471.269	17709
471.347	18554
471.426	18823
471.505	18278
471.583	18489
471.662	18273
471.740	17531
471.819	18838
471.898	18304
471.976	18030
472.055	19455
472.133	26897
472.212	35707
472.290	21796
472.369	17453
472.447	17703
472.526	17109
472.604	18555
472.683	18590
472.761	19171
472.839	19069
472.918	19801
472.996	18913
473.075	19301
473.153	19122
473.231	20578
473.310	19752
473.388	20067
473.466	19956
473.545	20434
473.623	21132
473.701	20720
473.780	22160
473.858	20858
473.936	23192
474.014	21972
474.093	28249
474.171	36037
474.249	26024
474.327	20363
474.405	20286
474.484	21753
474.562	20603
474.640	19778
474.718	19311
474.796	19765
474.874	18872
474.952	19142
475.030	18372
475.108	18464
475.187	19171
475.265	20441
475.343	22824
475.421	23479
475.499	19667
475.577	18517
475.655	19665
475.733	19555
475.811	18034
475.889	17170
475.966	19101
476.044	18213
476.122	19846
476.200	21540
476.278	18839
476.356	16541
476.434	17487
476.512	19527
476.590	21131
476.667	20824
476.745	17388
476.823	17081
476.901	18014
476.979	17442
477.056	17853
477.134	17969
477.212	17257
477.290	17100
477.367	16633
477.445	18009
477.523	17424
477.601	16162
477.678	16999
477.756	17452
477.834	16969
477.911	16128
477.989	17399
478.066	17900
478.144	19388
478.222	19935
478.299	26261
478.377	34374
478.454	29328
478.532	18715
478.609	16491
478.687	18457
478.764	17779
478.842	18038
478.919	17962
478.997	18188
479.074	17387
479.152	17277
479.229	17911
479.307	16430
479.384	17363
479.461	18727
479.539	17962
479.616	18414
479.694	17444
479.771	18150
479.848	17819
479.926	17161
480.003	19812
480.080	18265
480.157	18454
480.235	19457
480.312	20670
480.389	20762
480.467	20911
480.544	22408
480.621	24756
480.698	24648
480.775	24572
480.853	23230
480.930	23072
481.007	24828
481.084	43659
481.161	77921
481.238	45687
481.315	22408
481.392	22448
481.470	24621
481.547	22922
481.624	23192
481.701	24355
481.778	25505
481.855	25936
481.932	27910
482.009	30422
482.086	32719
482.163	37855
482.240	43523
482.317	47403
482.393	42114
482.470	35607
482.547	34379
482.624	32617
482.701	31823
482.778	31200
482.855	31896
482.932	32064
483.009	36222
483.085	47964
483.162	71257
483.239	68093
483.316	46099
483.393	44581
483.469	38694
483.546	34837
483.623	31408
483.699	28420
483.776	26756
483.853	25902
483.930	26662
484.006	25657
484.083	27704
484.160	27183
484.236	28777
484.313	30088
484.389	32409
484.466	39508
484.543	49008
484.619	60102
484.696	62869
484.772	42937
484.849	31866
484.925	29252
485.002	26766
485.078	25553
485.155	22528
485.231	22759
485.308	22668
485.384	23377
485.461	24514
485.537	23597
485.614	21381
485.690	20258
485.766	20129
485.843	19292
485.919	19783
485.995	20461
486.072	19885
486.148	20230
486.224	20697
486.301	20822
486.377	20764
486.453	20028
486.530	22061
486.606	23460
486.682	23288
486.758	26022
486.835	31669
486.911	31830
486.987	32866
487.063	37292
487.139	51800
487.215	80124
487.292	75217
487.368	72515
487.444	93831
487.520	140484
487.596	227570
487.672	444079
487.748	1241320
487.824	1968418
487.900	934085
487.976	295706
488.052	143869
488.128	92214
488.204	64176
488.280	51471
488.356	42727
488.432	37990
488.508	34068
488.584	31057
488.660	28703
488.736	28196
488.812	24987
488.888	24799
488.964	23856
489.039	24784
489.115	30156
489.191	34126
489.267	26870
489.343	21965
489.418	20729
489.494	20827
489.570	19587
489.646	21131
489.722	21570
489.797	21052
489.873	22845
489.949	22407
490.024	21178
490.100	21899
490.176	21896
490.251	21425
490.327	22372
490.403	21363
490.478	21563
490.554	20963
490.629	21191
490.705	19838
490.781	20510
490.856	19649
490.932	19075
491.007	18668
491.083	18030
491.158	17232
491.234	18121
491.309	17921
491.385	16938
491.460	17420
491.536	17533
491.611	16206
491.686	17119
491.762	17539
491.837	18292
491.913	19218
491.988	19458
492.063	20532
492.139	16983
492.214	15660
492.289	14953
492.365	14714
492.440	15776
492.515	15513
492.590	15554
492.666	14655
492.741	15254
492.816	15298
492.891	14946
492.967	16270
493.042	15923
493.117	14826
493.192	15793
493.267	15809
493.342	18112
493.418	19599
493.493	14681
493.568	14142
493.643	13878
493.718	13451
493.793	14254
493.868	14515
493.943	14270
494.018	14934
494.093	14675
494.168	14237
494.243	13309
494.318	13628
494.393	15512
494.468	13797
494.543	13888
494.618	14427
494.693	13192
494.768	13319
494.842	13348
494.917	14679
494.992	14507
495.067	13677
495.142	14513
495.217	14037
495.292	13564
495.366	14839
495.441	13309
495.516	14618
495.591	14364
495.665	20001
495.740	26655
495.815	18694
495.890	15574
495.964	13968
496.039	20440
496.114	32369
496.188	71025
496.263	51892
496.338	17660
496.412	13948
496.487	15122
496.561	15164
496.636	14685
496.710	18076
496.785	23949
496.860	14843
496.934	13650
497.009	13941
497.083	14467
497.158	13621
497.232	13754
497.307	13611
497.381	14192
497.455	13213
497.530	12838
497.604	13856
497.679	12743
497.753	12692
497.827	12964
497.902	12397
497.976	13562
498.050	13692
498.125	14837
498.199	14161
498.273	15124
498.348	14053
498.422	14042
498.496	13883
498.570	14929
498.645	13775
498.719	12445
498.793	13626
498.867	12926
498.941	13993
499.016	13694
499.090	13906
499.164	13996
499.238	15271
499.312	15017
499.386	15519
499.460	15607
499.534	15141
499.609	15697
499.683	15479
499.757	15369
499.831	14280
499.905	15197
499.979	12991
500.053	14578
500.127	14442
500.201	15713
500.275	16200
500.349	15237
500.422	15044
500.496	16230
500.570	16271
500.644	17961
500.718	16227
500.792	17052
500.866	18332
500.940	16674
501.013	17184
501.087	16863
501.161	17829
501.235	16589
501.309	19355
501.382	18477
501.456	18074
501.530	16989
501.603	15549
501.677	15965
501.751	14920
501.825	18353
501.898	17647
501.972	17200
502.046	15718
502.119	15299
502.193	15105
502.266	14544
502.340	15200
502.413	16572
502.487	16348
502.561	15722
502.634	17951
502.708	17632
502.781	17972
502.855	19134
502.928	16943
503.002	18559
503.075	18408
503.149	18339
503.222	19963
503.295	20266
503.369	22860
503.442	25703
503.516	28911
503.589	34435
503.662	41896
503.736	52539
503.809	69882
503.882	94083
503.956	144682
504.029	289610
504.102	733321
504.175	1101625
504.249	554376
504.322	227153
504.395	119795
504.468	75594
504.542	53334
504.615	42796
504.688	34075
504.761	28727
504.834	26691
504.907	23175
504.980	21742
505.053	19531
505.127	15750
505.200	20284
505.273	15868
505.346	16389
505.419	15216
505.492	17200
505.565	16134
505.638	14913
505.711	13227
505.784	12860
505.857	13011
505.930	15033
506.003	11209
506.076	14891
506.149	11512
506.221	10692
506.294	13082
506.367	10168
506.440	11832
506.513	12211
506.586	11452
506.659	11323
506.731	11096
506.804	11339
506.877	10816
506.950	11612
507.022	11817
507.095	9641
507.168	11726
507.241	12076
507.313	10164
507.386	9595
507.459	11825
507.531	10537
507.604	10488
507.677	11807
507.749	10516
507.822	12124
507.894	10644
507.967	11235
508.040	9833
508.112	10886
508.185	10293
508.257	8500
508.330	11878
508.402	9478
508.475	9742
508.547	11259
508.620	9621
508.692	10448
508.765	9909
508.837	9080
508.909	11450
508.982	9626
509.054	9920
509.127	10100
509.199	9264
509.271	9711
509.344	10406
509.416	9747
509.488	10438
509.560	10170
509.633	10712
509.705	10555
509.777	10101
509.849	10358
509.922	9265
509.994	9690
510.066	10541
510.138	8372
510.210	11844
510.283	9757
510.355	9753
510.427	10498
510.499	9621
510.571	10020
510.643	9429
510.715	11387
510.787	8605
510.859	10832
510.931	9269
511.003	9972
511.076	10624
511.148	10041
511.219	8382
511.291	11636
511.363	10978
511.435	9975
511.507	8813
511.579	10958
511.651	10300
511.723	9094
511.795	9249
511.867	9837
511.939	9762
512.010	9391
512.082	11023
512.154	8894
512.226	9944
512.298	11215
512.369	10536
512.441	11046
512.513	10787
512.585	9806
512.656	11479
512.728	10355
512.800	9771
512.871	10417
512.943	10654
513.015	9522
513.086	11070
513.158	9593
513.230	9598
513.301	9878
513.373	11434
513.444	9844
513.516	10983
513.588	9919
513.659	11073
513.731	10299
513.802	9896
513.874	12515
513.945	11725
514.016	9397
514.088	10955
514.159	10451
514.231	11502
514.302	10929
514.374	10790
514.445	8975
514.516	12636
514.588	9960
514.659	9842
514.730	9410
514.802	11271
514.873	8891
514.944	12912
515.016	12047
515.087	10266
515.158	10748
515.229	11816
515.301	9581
515.372	11666
515.443	11283
515.514	12047
515.585	13346
515.656	16543
515.728	13427
515.799	11584
515.870	12323
515.941	12022
516.012	10572
516.083	12760
516.154	11889
516.225	13022
516.296	13659
516.367	12708
516.438	13466
516.509	14743
516.580	17709
516.651	32696
516.722	82125
516.793	44720
516.864	18026
516.935	18073
517.006	20342
517.077	20849
517.148	34441
517.219	116151
517.289	186941
517.360	38161
517.431	21401
517.502	17706
517.573	18539
517.643	18210
517.714	18340
517.785	20245
517.856	21518
517.926	26292
517.997	29975
518.068	34025
518.138	43252
518.209	53573
518.280	114407
518.350	343024
518.421	190011
518.492	103613
518.562	128087
518.633	181388
518.703	288547
518.774	605884
518.845	1312543
518.915	1258895
518.986	478771
519.056	205646
519.127	120425
519.197	84800
519.268	60289
519.338	47055
519.408	37049
519.479	33125
519.549	27389
519.620	27538
519.690	23115
519.760	21715
519.831	20209
519.901	18713
519.971	17879
520.042	16767
520.112	15202
520.182	16214
520.253	15323
520.323	15290
520.393	13760
520.463	15343
520.534	11300
520.604	16420
520.674	15043
520.744	13408
520.814	13332
520.885	14249
520.955	13578
521.025	12715
521.095	13057
521.165	15056
521.235	12709
521.305	13423
521.375	13644
521.445	13809
521.515	12783
521.585	15149
521.655	12492
521.725	14282
521.795	14313
521.865	11353
521.935	14747
522.005	12729
522.075	12975
522.145	15993
522.215	17115
522.285	16709
522.355	14271
522.424	15619
522.494	17949
522.564	18490
522.634	16107
522.704	20131
522.774	15649
522.843	16591
522.913	18689
522.983	17063
523.053	14301
523.122	15450
523.192	14920
523.262	15928
523.331	15545
523.401	15422
523.471	15434
523.540	16131
523.610	15985
523.680	16969
523.749	19111
523.819	25537
523.888	27329
523.958	20191
524.027	17839
524.097	17704
524.166	17127
524.236	16433
524.305	19688
524.375	17927
524.444	16527
524.514	19925
524.583	16817
524.653	17144
524.722	20626
524.791	18118
524.861	21674
524.930	20213
524.999	19809
525.069	23037
525.138	23630
525.207	22736
525.277	26601
525.346	27933
525.415	33119
525.484	38207
525.554	44699
525.623	60378
525.692	85439
525.761	90543
525.830	107923
525.900	144007
525.969	228325
526.038	446686
526.107	832327
526.176	2127060
526.245	1759384
526.314	630192
526.383	1125689
526.452	1556852
526.522	1838438
526.591	1743154
526.660	447946
526.729	241214
526.797	239229
526.867	338190
526.935	828214
527.004	2352109
527.073	1739059
527.142	413728
527.211	168765
527.280	102985
527.349	73856
527.418	54797
527.487	46737
527.555	37654
527.624	35279
527.693	30078
527.762	31745
527.831	26896
527.899	27652
527.968	22985
528.037	21969
528.106	23322
528.174	23183
528.243	21583
528.312	21060
528.380	20903
528.449	19801
528.518	21277
528.586	16454
528.655	19677
528.723	19335
528.792	18423
528.861	18573
528.929	17121
528.998	19049
529.066	17959
529.135	18327
529.203	17378
529.272	16932
529.340	18690
529.409	19633
529.477	16857
529.545	17348
529.614	20027
529.682	17035
529.751	18815
529.819	22851
529.887	19351
529.956	18257
530.024	20334
530.092	16882
530.161	18205
530.229	18859
530.297	17914
530.365	19661
530.434	19529
530.502	19529
530.570	19175
530.638	17745
530.707	19918
530.775	20234
530.843	19666
530.911	19190
530.979	20872
531.047	20215
531.115	20139
531.183	19361
531.252	19710
531.320	19505
531.388	17617
531.456	21487
531.524	17824
531.592	21682
531.660	22903
531.728	19088
531.796	20735
531.864	20265
531.932	20595
532.000	20248
532.067	20345
532.135	21937
532.203	24106
532.271	24244
532.339	28020
532.407	29501
532.475	27037
532.542	24536
532.610	26526
532.678	24552
532.746	31630
532.814	39441
532.881	28749
532.949	26866
533.017	25974
533.084	25070
533.152	23435
533.220	24085
533.287	23010
533.355	24135
533.423	24804
533.490	24494
533.558	25809
533.625	27487
533.693	26811
533.761	27094
533.828	27070
533.896	25806
533.963	28702
534.031	31893
534.098	39080
534.166	45040
534.233	42129
534.300	49368
534.368	50402
534.435	51127
534.503	55934
534.570	62466
534.637	73940
534.705	84272
534.772	107367
534.840	219599
534.907	890316
534.974	1141559
535.041	201369
535.109	78988
535.176	56994
535.243	50898
535.310	48324
535.378	44552
535.445	43245
535.512	45876
535.579	43049
535.646	42079
535.714	45623
535.781	47087
535.848	48743
535.915	44871
535.982	42751
536.049	43179
536.116	44580
536.183	42347
536.250	40482
536.317	42380
536.384	44703
536.451	45667
536.518	47491
536.585	44377
536.652	46732
536.719	46328
536.786	45033
536.853	42881
536.920	47132
536.987	46831
537.053	43974
537.120	50895
537.187	53450
537.254	50903
537.321	48973
537.388	51555
537.454	48407
537.521	48633
537.588	49788
537.654	50089
537.721	52368
537.788	52791
537.855	49245
537.921	50682
537.988	48382
538.055	46203
538.121	43670
538.188	43698
538.254	42007
538.321	43564
538.388	46803
538.454	55695
538.521	54848
538.587	54322
538.654	51866
538.720	51328
538.787	50733
538.853	51306
538.920	49451
538.986	45089
539.053	43418
539.119	46915
539.185	46720
539.252	48592
539.318	50935
539.385	56953
539.451	52968
539.517	51577
539.583	50547
539.650	51601
539.716	52631
539.782	47733
539.849	48426
539.915	49193
539.981	47889
540.047	47414
540.114	48590
540.180	50783
540.246	52968
540.312	56923
540.378	53214
540.444	53855
540.510	53323
540.576	57771
540.643	51712
540.709	49471
540.775	49933
540.841	49328
540.907	48279
540.973	47865
541.039	48593
541.105	51118
541.171	53743
541.237	56857
541.303	54328
541.369	54849
541.435	54931
541.500	52171
541.566	47954
541.632	48827
541.698	50679
541.764	53656
541.830	50782
541.896	49894
541.961	50239
542.027	50244
542.093	54412
542.159	56811
542.224	50669
542.290	53197
542.356	51203
542.421	49537
542.487	48744
542.553	47176
542.618	48009
542.684	49957
542.750	50759
542.815	52413
542.881	52403
542.947	56424
543.012	56714
543.078	50751
543.143	47221
543.209	50631
543.274	48802
543.340	49566
543.405	51906
543.471	53909
543.536	53689
543.602	52067
543.667	51004
543.732	53236
543.798	53411
543.863	55005
543.928	53470
543.994	54086
544.059	54499
544.124	56652
544.190	57426
544.255	57477
544.320	58103
544.386	57226
544.451	60032
544.516	57835
544.581	57538
544.646	60080
544.712	63316
544.777	60754
544.842	60602
544.907	59258
544.972	62360
545.037	65132
545.102	68416
545.168	66140
545.233	66223
545.298	66716
545.363	66619
545.428	70866
545.493	72151
545.558	72355
545.623	71765
545.688	70411
545.753	74646
545.818	77235
545.883	81486
545.947	84083
546.012	87467
546.077	87487
546.142	94794
546.207	97739
546.272	101263
546.337	105133
546.401	107935
546.466	112637
546.531	115745
546.596	125733
546.661	131252
546.725	136399
546.790	144284
546.855	157980
546.919	174002
546.984	194073
547.049	206082
547.113	233827
547.178	258954
547.243	292217
547.307	335898
547.372	370894
547.436	372693
547.501	391900
547.565	419756
547.630	385741
547.695	371747
547.759	373464
547.823	380213
547.888	387489
547.952	398337
548.017	417571
548.081	450326
548.146	424949
548.210	422298
548.274	456231
548.339	451698
548.403	411984
548.468	388641
548.532	383782
548.596	394512
548.660	397082
548.725	424460
548.789	457575
548.853	448121
548.917	430751
548.982	416115
549.046	378139
549.110	345492
549.174	353861
549.238	410165
549.303	451139
549.367	458386
549.431	440469
549.495	412146
549.559	411643
549.623	468982
549.687	515816
549.751	498392
549.815	591247
549.879	599023
549.943	577427
550.007	601679
550.071	598050
550.135	542145
550.199	516742
550.263	509566
550.327	483490
550.391	503091
550.455	559455
550.519	575442
550.582	603729
550.646	674695
550.710	688334
550.774	680540
550.838	694583
550.901	716074
550.965	756668
551.029	793814
551.093	862465
551.156	948786
551.220	1048016
551.284	1095922
551.347	894098
551.411	763521
551.475	715854
551.538	723891
551.602	684474
551.666	641935
551.729	612214
551.793	590518
551.856	581618
551.920	568921
551.983	570763
552.047	565493
552.110	571381
552.174	580020
552.237	588095
552.301	546603
552.364	522437
552.428	509268
552.491	524374
552.554	532089
552.618	527751
552.681	538884
552.745	515759
552.808	528464
552.871	553659
552.934	550038
552.998	537110
553.061	522832
553.124	503738
553.187	498643
553.251	517380
553.314	515758
553.377	518116
553.440	549160
553.503	561185
553.567	549590
553.630	547271
553.693	546327
553.756	546324
553.819	534564
553.882	514448
553.945	516837
554.008	523986
554.071	524953
554.134	526145
554.197	499314
554.260	484854
554.323	491218
554.386	500241
554.449	519386
554.512	520079
554.575	499934
554.638	495303
554.701	493465
554.764	490320
554.827	472527
554.889	458812
554.952	433157
555.015	423892
555.078	432115
555.141	438097
555.203	429580
555.266	426324
555.329	426810
555.391	410247
555.454	407324
555.517	394483
555.580	384991
555.642	371556
555.705	364000
555.768	362112
555.830	351311
555.893	333898
555.955	324340
556.018	321252
556.080	318771
556.143	330927
556.206	329973
556.268	319158
556.330	314310
556.393	304984
556.455	296406
556.518	293543
556.580	283085
556.643	273878
556.705	267496
556.767	264518
556.830	260407
556.892	254106
556.955	252311
557.017	245645
557.079	243096
557.142	240986
557.204	239550
557.266	239565
557.328	225879
557.391	209966
557.453	206494
557.515	205294
557.577	208728
557.639	212606
557.701	214846
557.764	213160
557.826	217063
557.888	224236
557.950	235394
558.012	256223
558.074	329260
558.136	639994
558.198	1356518
558.260	611603
558.322	266584
558.384	250487
558.446	256331
558.508	274590
558.570	304168
558.632	354534
558.694	448852
558.756	714735
558.818	1595526
558.880	2643892
558.942	1627359
559.003	1544763
559.065	856523
559.127	370419
559.189	328156
559.251	354503
559.312	480383
559.374	967969
559.436	2146579
559.498	1378391
559.559	466820
559.621	342674
559.683	365345
559.744	546374
559.806	1328405
559.868	1819953
559.929	638296
559.991	383604
560.052	547349
560.114	1315656
560.176	955987
560.237	822801
560.299	1239937
560.360	378306
560.422	155924
560.483	125537
560.545	113364
560.606	107771
560.667	101981
560.729	98016
560.790	91621
560.852	88443
560.913	86426
560.974	83136
561.036	82439
561.097	81671
561.158	80368
561.220	79365
561.281	76343
561.342	73570
561.403	74705
561.465	73371
561.526	73574
561.587	72495
561.648	68280
561.709	67762
561.771	67138
561.832	65891
561.893	64551
561.954	64112
562.015	63429
562.076	62753
562.137	60875
562.198	61259
562.259	61151
562.320	61286
562.381	61205
562.442	60564
562.503	59387
562.564	58417
562.625	57465
562.686	56745
562.747	55693
562.808	56403
562.869	54575
562.930	55553
562.991	52836
563.051	52767
563.112	52020
563.173	52772
563.234	51582
563.294	51319
563.355	50025
563.416	50499
563.477	51446
563.537	50681
563.598	48939
563.659	50140
563.720	48753
563.780	48954
563.841	49236
563.901	49949
563.962	49000
564.023	47731
564.083	47625
564.144	47423
564.204	47221
564.265	45845
564.325	46550
564.386	47083
564.446	46436
564.507	44749
564.567	43806
564.628	44812
564.688	44368
564.749	44806
564.809	44894
564.869	44779
564.930	44311
564.990	43577
565.050	43671
565.111	43568
565.171	43327
565.231	44059
565.292	44295
565.352	42792
565.412	43465
565.472	43614
565.532	44379
565.593	42743
565.653	43256
565.713	42381
565.773	43982
565.833	45492
565.893	44980
565.953	42431
566.013	39800
566.074	41399
566.134	40753
566.194	39570
566.254	39300
566.314	40214
566.374	40005
566.434	40372
566.494	40415
566.554	40501
566.614	41588
566.673	42904
566.733	44447
566.793	43562
566.853	42040
566.913	42555
566.973	41439
567.033	43607
567.092	41830
567.152	42107
567.212	42974
567.272	44416
567.331	44505
567.391	44604
567.451	45279
567.511	46809
567.570	45240
567.630	45524
567.690	43050
567.749	42845
567.809	41802
567.868	42879
567.928	41641
567.988	43306
568.047	44345
568.107	43359
568.166	43747
568.226	43023
568.285	43812
568.345	45404
568.404	44744
568.464	43321
568.523	43480
568.582	43661
568.642	43257
568.701	42503
568.761	40086
568.820	39835
568.879	40797
568.939	43336
568.998	42076
569.057	42380
569.116	42501
569.176	43456
569.235	42947
569.294	43579
569.353	42481
569.413	41839
569.472	40516
569.531	41017
569.590	39572
569.649	40418
569.708	41144
569.767	42020
569.827	41949
569.886	40130
569.945	40325
570.004	42184
570.063	41462
570.122	43995
570.181	42775
570.240	44231
570.299	44546
570.358	44064
570.417	43986
570.475	44927
570.534	45090
570.593	45235
570.652	46302
570.711	44995
570.770	44042
570.829	44011
570.887	43776
570.946	46487
571.005	45206
571.064	45653
571.122	45432
571.181	43857
571.240	45280
571.299	43448
571.357	42023
571.416	42677
571.475	42470
571.533	44788
571.592	49014
571.650	49138
571.709	49952
571.768	56694
571.826	60129
571.885	55186
571.943	49554
572.002	46780
572.060	43638
572.119	44878
572.177	43924
572.236	44140
572.294	44410
572.352	48486
572.411	48148
572.469	46558
572.528	43854
572.586	43179
572.644	42291
572.703	41826
572.761	40761
572.819	41350
572.877	39088
572.936	39953
572.994	37873
573.052	39659
573.110	41618
573.169	43685
573.227	43411
573.285	42488
573.343	42275
573.401	41743
573.459	42729
573.517	44179
573.576	46621
573.634	45727
573.692	44243
573.750	46903
573.808	43727
573.866	41306
573.924	41678
573.982	41645
574.040	40931
574.098	41882
574.155	41805
574.213	39689
574.271	41248
574.329	46440
574.387	46762
574.445	41845
574.503	37841
574.560	38847
574.618	38871
574.676	38793
574.734	40128
574.792	38093
574.849	36927
574.907	34529
574.965	32655
575.022	32523
575.080	31621
575.138	31822
575.195	29904
575.253	30871
575.311	31094
575.368	31039
575.426	29793
575.483	31977
575.541	33007
575.598	32556
575.656	32408
575.713	34346
575.771	38180
575.828	35116
575.886	33077
575.943	32217
576.001	30070
576.058	29777
576.115	28773
576.173	30648
576.230	32099
576.287	32273
576.345	31485
576.402	33058
576.459	34606
576.517	32135
576.574	29453
576.631	30758
576.688	28413
576.746	29284
576.803	28293
576.860	28140
576.917	29464
576.974	29630
577.031	31067
577.089	29445
577.146	28106
577.203	27510
577.260	26791
577.317	27335
577.374	27207
577.431	27547
577.488	27305
577.545	26475
577.602	27418
577.659	28002
577.716	28636
577.773	28021
577.830	27844
577.886	28201
577.943	27399
578.000	27618
578.057	26776
578.114	26284
578.171	27039
578.227	26950
578.284	26660
578.341	27792
578.398	27307
578.454	27608
578.511	27585
578.568	27864
578.625	27424
578.681	27615
578.738	27119
578.794	27437
578.851	27478
578.908	27738
578.964	27500
579.021	27972
579.077	28359
579.134	27708
579.190	28089
579.247	27695
579.303	27002
579.360	27292
579.416	27260
579.473	28293
579.529	27605
579.586	29254
579.642	28994
579.698	29139
579.755	28550
579.811	28474
579.867	30041
579.924	27933
579.980	29980
580.036	29246
580.093	29256
580.149	29252
580.205	29890
580.261	31081
580.317	31340
580.374	31973
580.430	32436
580.486	32503
580.542	31227
580.598	32054
580.619	31842
580.654	31504
580.692	31913
580.710	32163
580.765	33545
580.767	33623
580.823	32439
580.838	32433
580.879	32512
580.911	33210
580.935	33789
580.984	32131
580.991	31927
581.047	33037
581.057	32876
581.103	32305
581.130	32072
581.159	31865
581.203	30586
581.215	30279
581.270	31114
581.276	30977
581.326	29922
581.349	29958
581.382	30022
581.422	30123
581.438	30204
581.494	30600
581.494	30586
581.550	30785
581.567	30313
581.606	29304
581.640	29956
581.661	30413
581.713	30531
581.717	30543
581.773	30790
581.786	30860
581.829	31230
581.859	31397
581.885	31603
581.932	30715
581.940	30546
581.996	31251
582.004	31264
582.052	31330
582.077	31518
582.107	31846
582.150	31303
582.163	31117
582.219	29764
582.223	29733
582.274	29644
582.296	29762
582.330	29821
582.368	30413
582.386	30808
582.441	31049
582.441	31052
582.497	30656
582.514	30641
582.552	30826
582.587	30510
582.608	30271
582.659	30653
582.663	30690
582.719	31499
582.732	31374
582.774	31120
582.805	31128
582.830	31106
582.877	31869
582.885	31988
582.941	31646
582.950	31417
582.996	30201
583.023	30565
583.052	31128
583.095	31636
583.107	31724
583.162	31556
583.168	31496
583.218	30911
583.240	30771
583.273	30641
583.313	30905
583.328	30972
583.384	31181
583.385	31145
583.439	30267
583.458	30345
583.494	30459
583.531	31062
583.549	31433
583.603	31646
583.605	31647
583.660	31982
583.676	32165
583.715	32608
583.748	32892
583.770	33125
583.820	33390
583.825	33390
583.881	33299
583.893	32976
583.936	32230
583.965	32815
583.991	33178
584.038	33644
584.046	33709
584.101	33210
584.110	33383
584.156	34569
584.183	34303
584.211	33981
584.255	34710
584.266	34892
584.321	35807
584.328	35760
584.376	35457
584.400	36443
584.431	37746
584.472	38304
584.486	38564
584.541	39023
584.545	39121
584.596	40656
584.617	41205
584.651	42202
584.689	42948
584.706	43280
584.761	45267
584.762	45278
584.816	47002
584.834	48257
584.871	51072
584.906	52754
584.926	53661
584.978	57498
584.980	57701
585.035	64548
585.051	66648
585.090	72688
585.123	78328
585.145	82390
585.195	93124
585.200	94348
585.254	110126
585.267	115076
585.309	132618
585.340	145261
585.364	157164
585.412	185747
585.419	190993
585.473	242805
585.484	257118
585.528	339121
585.556	414426
585.583	534173
585.628	813400
585.637	894570
585.692	1567000
585.700	1672216
585.747	2052691
585.772	1880558
585.801	1453379
585.845	817574
585.856	692856
585.910	360639
585.917	330779
585.965	230297
585.989	190957
586.019	162807
586.061	134112
586.074	128141
586.128	108812
586.133	107438
586.183	98100
586.205	93590
586.237	89046
586.277	85282
586.292	84250
586.346	81352
586.349	81122
586.401	78687
586.421	78259
586.455	77691
586.493	76613
586.509	76925
586.564	78165
586.565	78192
586.618	83462
586.637	86044
586.672	96248
586.709	109889
586.727	116433
586.781	133411
586.781	133487
586.835	114542
586.853	108163
586.889	94383
586.925	84184
586.944	81112
586.996	75513
586.998	75506
587.052	73482
587.068	73273
587.106	73388
587.140	72580
587.161	72218
587.212	72221
587.215	72299
587.269	71957
587.284	72196
587.323	73875
587.356	74966
587.377	75610
587.427	77192
587.431	77342
587.485	78417
587.499	78537
587.539	79782
587.571	81207
587.593	82803
587.643	86728
587.648	87022
587.702	87244
587.715	87667
587.755	89051
587.786	88917
587.810	88438
587.858	88744
587.864	88960
587.917	88585
587.930	88704
587.971	89175
588.001	89210
588.025	89160
588.073	88475
588.079	88482
588.133	87595
588.145	87453
588.187	87296
588.217	87013
588.241	88057
588.288	90765
588.295	91058
588.348	91745
588.360	91817
588.402	91466
588.431	90804
588.456	90660
588.503	91230
588.510	91781
588.564	95805
588.575	96578
588.617	99426
588.646	101210
588.671	102844
588.718	105837
588.725	106522
588.778	112172
588.789	113631
588.832	134606
588.861	151919
588.886	198277
588.932	298624
588.939	309384
588.993	397455
589.004	396594
589.047	230586
589.075	137723
589.100	119998
589.147	100724
589.154	100382
589.207	97454
589.218	96975
589.261	99039
589.290	100600
589.314	101462
589.361	102848
589.368	104150
589.421	115264
589.433	118081
589.475	156419
589.504	186253
589.528	229610
589.576	325129
589.582	317478
589.635	195808
589.647	171244
589.689	126615
589.718	102430
589.742	101372
589.790	98993
589.795	99182
589.849	100042
589.861	100113
589.902	100209
589.932	100023
589.955	99720
590.004	98675
590.009	98827
590.062	99052
590.075	98952
590.115	98905
590.146	98745
590.168	99101
590.218	99240
590.222	99599
590.275	103139
590.289	103853
590.328	105748
590.360	106660
590.381	106683
590.431	106690
590.435	106969
590.488	109111
590.503	109557
590.541	111139
590.574	112198
590.594	113497
590.645	116403
590.647	116724
590.700	120531
590.716	121582
590.753	125270
590.787	128357
590.806	129452
590.859	131683
590.859	131902
590.912	132746
590.930	133036
590.965	135058
591.001	136363
591.018	135808
591.071	133432
591.072	133203
591.124	132268
591.143	131737
591.177	133429
591.214	135090
591.230	135859
591.283	137606
591.285	137439
591.336	136794
591.356	136264
591.389	136182
591.427	135500
591.442	135324
591.495	133946
591.498	133628
591.547	135838
591.569	136612
591.600	138429
591.640	140138
591.653	140909
591.706	143218
591.711	143228
591.759	145282
591.782	146068
591.811	149991
591.853	154988
591.864	155240
591.917	154982
591.924	154675
591.969	154896
591.995	154636
592.022	155859
592.066	157235
592.075	158414
592.127	164102
592.137	164855
592.180	166828
592.208	167606
592.233	169494
592.279	172249
592.285	173070
592.338	177454
592.350	178106
592.390	177218
592.421	176016
592.443	178494
592.491	182978
592.495	183497
592.548	185984
592.562	186321
592.600	185063
592.633	183361
592.653	184225
592.704	184573
592.705	185689
592.775	188599
592.846	197785
592.916	196899
592.987	198112
593.058	200889
593.128	204872
593.199	204260
593.270	206203
593.341	209312
593.411	215782
593.482	224255
593.553	229390
593.623	232946
593.694	242289
593.764	244991
593.835	242983
593.906	247735
593.976	250403
594.047	261078
594.117	271606
594.188	276210
594.258	276870
594.329	277394
594.399	284714
594.470	292010
594.540	302761
594.611	307452
594.681	306203
594.751	307642
594.822	319914
594.892	331360
594.963	340204
595.033	347596
595.103	358000
595.174	359600
595.244	367704
595.314	380365
595.384	387797
595.455	402446
595.525	410518
595.595	429703
595.665	425885
595.736	415817
595.806	425870
595.876	432298
595.946	436916
596.016	453442
596.087	464955
596.157	465716
596.227	469239
596.297	491837
596.367	522676
596.437	551191
596.507	547344
596.577	544290
596.647	563522
596.717	588250
596.787	595726
596.857	601029
596.927	604041
596.997	608206
597.067	612733
597.137	620428
597.207	625219
597.277	629341
597.347	604809
597.417	585511
597.487	583257
597.557	598748
597.626	612319
597.696	620052
597.766	612759
597.836	578464
597.906	553970
597.975	545658
598.045	553207
598.115	572646
598.185	614421
598.254	682432
598.324	733102
598.394	744229
598.464	722945
598.533	708062
598.603	665306
598.672	646781
598.742	663605
598.812	663628
598.881	685243
598.951	678628
599.020	688524
599.090	710903
599.159	721222
599.229	693765
599.299	681593
599.368	701247
599.437	688406
599.507	637759
599.576	615911
599.646	603284
599.715	601445
599.785	591373
599.854	577632
599.924	566354
599.993	564709
600.062	580180
600.132	591155
600.201	627374
600.270	716245
600.340	752762
600.409	737130
600.478	730483
600.547	746660
600.617	673808
600.686	549780
600.755	498143
600.824	474332
600.894	462407
600.963	462649
601.032	455414
601.101	441198
601.170	421042
601.239	407114
601.308	403742
601.378	403690
601.447	405775
601.516	408582
601.585	413332
601.654	420055
601.723	418231
601.792	431967
601.861	444443
601.930	455824
601.999	462538
602.068	459494
602.137	466112
602.206	471947
602.275	479275
602.343	485724
602.412	488889
602.481	494304
602.550	498426
602.619	512371
602.688	517375
602.756	520328
602.825	525244
602.894	539016
602.963	549881
603.032	556084
603.100	559584
603.169	559758
603.238	561809
603.307	567005
603.375	572714
603.444	584037
603.513	595963
603.581	604791
603.650	611184
603.719	607467
603.787	623561
603.856	642034
603.924	652886
603.993	676055
604.061	703198
604.130	728928
604.198	738503
604.267	752470
604.335	763749
604.404	773995
604.472	783941
604.541	791492
604.609	797674
604.678	797225
604.746	802635
604.815	825877
604.883	837684
604.951	834982
605.020	851560
605.088	866033
605.156	883577
605.225	896794
605.293	896378
605.361	899970
605.429	905925
605.498	928994
605.566	946180
605.634	984408
605.702	1013408
605.771	1041258
605.839	1037067
605.907	1020694
605.975	988701
606.043	975155
606.111	974537
606.180	971126
606.248	964119
606.316	955697
606.384	952733
606.452	958013
606.520	989049
606.588	1020207
606.656	1024253
606.724	1002662
606.792	954159
606.860	875961
606.928	810539
606.996	777602
607.064	768068
607.132	793077
607.200	829136
607.267	856422
607.335	873037
607.403	886896
607.471	855681
607.539	835244
607.607	837141
607.674	756223
607.742	755674
607.810	748650
607.878	752293
607.946	767838
608.013	801188
608.081	814064
608.149	815756
608.216	846005
608.284	866570
608.352	866092
608.419	860895
608.487	837405
608.555	829805
608.622	853350
608.690	903234
608.757	980960
608.825	996820
608.893	971668
608.960	921309
609.028	888869
609.095	889521
609.163	886130
609.230	801556
609.298	742835
609.365	783500
609.432	838174
609.500	899596
609.567	1006899
609.635	1117894
609.702	1160547
609.769	1102670
609.837	900678
609.904	819666
609.971	847669
610.039	926265
610.106	1126675
610.173	1699422
610.241	2633083
610.308	2113477
610.375	1202526
610.442	955969
610.509	877925
610.577	855457
610.644	862487
610.711	885397
610.778	894024
610.845	928356
610.912	973128
610.980	1004327
611.047	997519
611.114	984920
611.181	960559
611.248	956841
611.315	998856
611.382	1023241
611.449	1060819
611.516	1070817
611.583	1060657
611.650	1072412
611.717	1088416
611.784	1110713
611.851	1158459
611.918	1220706
611.984	1380961
612.051	1710675
612.118	2366638
612.185	3111010
612.252	2870319
612.319	1954152
612.386	1543953
612.452	1347093
612.519	1241807
612.586	1196940
612.653	1197446
612.719	1218648
612.786	1174378
612.853	1098462
612.919	1083654
612.986	1091333
613.053	1041430
613.120	988855
613.186	959275
613.253	960138
613.319	965437
613.386	968640
613.453	979722
613.519	981944
613.586	964466
613.652	973895
613.719	962738
613.785	982221
613.852	989179
613.918	980228
613.985	987684
614.051	1022935
614.118	1006995
614.184	974373
614.250	978720
614.317	996382
614.383	983778
614.449	1008257
614.516	993292
614.582	998593
614.648	977892
614.715	974050
614.781	956894
614.847	958161
614.914	952178
614.980	930771
615.046	936842
615.112	961931
615.179	963294
615.245	977775
615.311	967314
615.377	979496
615.443	992693
615.509	1008348
615.575	1044525
615.642	1051287
615.708	1070563
615.774	1119425
615.840	1183435
615.906	1265219
615.972	1466508
616.038	1886058
616.104	2663268
616.170	3234549
616.236	3125330
616.302	2470986
616.368	2038377
616.434	1616574
616.500	1414269
616.565	1488815
616.631	1774156
616.697	1603615
616.763	1545961
616.829	1971553
616.895	2787022
616.961	2775492
617.026	1890706
617.092	1353658
617.158	1163841
617.224	1073642
617.289	981508
617.355	925906
617.421	907223
617.487	896428
617.552	850968
617.618	839376
617.684	837466
617.749	837156
617.815	802844
617.880	791646
617.946	786420
618.012	799685
618.077	812412
618.143	775398
618.208	784082
618.274	830863
618.339	829769
618.405	705537
618.470	706267
618.536	702898
618.601	687403
618.667	647549
618.732	614714
618.798	609987
618.863	604089
618.928	598332
618.994	607638
619.059	597925
619.124	609336
619.190	597254
619.255	595632
619.320	595390
619.386	601632
619.451	595765
619.516	572936
619.581	585218
619.647	604271
619.712	597913
619.777	575037
619.842	579805
619.907	588206
619.972	599633
620.038	595082
620.103	576596
620.168	578486
620.233	586930
620.298	588786
620.363	598660
620.428	612111
620.493	623008
620.558	632652
620.623	640600
620.688	635639
620.753	633516
620.818	643982
620.883	648359
620.948	645030
621.013	635324
621.078	628742
621.143	636549
621.207	644335
621.272	633770
621.337	610769
621.402	608836
621.467	599385
621.532	598928
621.596	602451
621.661	584874
621.726	582150
621.791	587774
621.855	585013
621.920	579788
621.985	594140
622.049	598953
622.114	603953
622.179	613950
622.243	621912
622.308	644078
622.373	660608
622.437	650156
622.502	617563
622.566	610083
622.631	613489
622.695	622300
622.760	616182
622.824	613923
622.889	621055
622.953	619721
623.018	656225
623.082	664121
623.147	657016
623.211	642601
623.276	639887
623.340	618682
623.404	603152
623.469	600510
623.533	611587
623.597	596688
623.662	595125
623.726	555233
623.790	525520
623.854	512044
623.919	518189
623.983	530779
624.047	538143
624.111	541475
624.176	551515
624.240	554100
624.304	569447
624.368	551385
624.432	552414
624.496	564860
624.560	594777
624.625	600896
624.689	593160
624.753	621032
624.817	592413
624.881	580025
624.945	527999
625.009	507126
625.073	526017
625.137	540952
625.201	560440
625.265	561401
625.329	538554
625.393	547549
625.456	553427
625.520	570330
625.584	575186
625.648	589325
625.712	602136
625.776	591708
625.839	558950
625.903	485653
625.967	457424
626.031	484208
626.095	569836
626.158	530939
626.222	429525
626.286	399869
626.349	387111
626.413	362465
626.477	359270
626.540	367405
626.604	365506
626.668	357232
626.731	354006
626.795	353167
626.858	355790
626.922	352428
626.986	346581
627.049	350918
627.113	363336
627.176	349972
627.240	344361
627.303	345759
627.366	340774
627.430	346542
627.493	342487
627.557	337571
627.620	342383
627.684	361337
627.747	362968
627.810	334008
627.874	301609
627.937	292908
628.000	300813
628.064	290678
628.127	265401
628.190	257789
628.253	253200
628.317	242208
628.380	231796
628.443	225018
628.506	226600
628.569	216895
628.632	206407
628.696	207151
628.759	206142
628.822	197639
628.885	195408
628.948	189129
629.011	188029
629.074	183098
629.137	176697
629.200	174925
629.263	171102
629.326	169476
629.389	173203
629.452	168623
629.515	166087
629.578	165492
629.641	169278
629.704	168531
629.767	166399
629.830	160718
629.892	158640
629.955	155785
630.018	160987
630.081	160737
630.144	160165
630.207	155948
630.269	158721
630.332	150773
630.395	153632
630.458	147632
630.520	144002
630.583	145476
630.646	148568
630.708	149777
630.771	154678
630.834	162693
630.896	158921
630.959	157497
631.021	154955
631.084	154764
631.146	157307
631.209	160056
631.272	159439
631.334	165054
631.397	166391
631.459	170799
631.522	178918
631.584	187289
631.646	199670
631.709	204852
631.771	204862
631.834	195991
631.896	186931
631.958	175734
632.021	170528
632.083	159723
632.145	158812
632.208	152839
632.270	154066
632.332	151389
632.395	148876
632.457	150095
632.519	145216
632.581	145167
632.643	144959
632.706	145391
632.768	140701
632.830	144412
632.892	150004
632.954	151160
633.016	152495
633.078	149482
633.141	150267
633.203	148659
633.265	148161
633.327	148932
633.389	150689
633.451	152234
633.513	152672
633.575	158797
633.637	156709
633.698	161837
633.760	169527
633.822	177559
633.884	183239
633.946	190533
634.008	197586
634.070	205343
634.132	219766
634.193	237351
634.255	254827
634.317	260405
634.379	253911
634.441	229956
634.502	212153
634.564	191314
634.626	176787
634.687	167547
634.749	159458
634.811	158469
634.873	153142
634.934	155378
634.996	155021
635.057	154553
635.119	157758
635.181	162542
635.242	163274
635.304	161442
635.365	164971
635.427	161206
635.488	163085
635.550	162405
635.611	167184
635.673	170341
635.734	182600
635.796	197497
635.857	213620
635.918	231705
635.980	250601
636.041	268314
636.102	281302
636.164	284622
636.225	269805
636.286	240656
636.348	215032
636.409	193909
636.470	180364
636.531	170727
636.593	162587
636.654	153494
636.715	145371
636.776	142984
636.838	137503
636.899	135034
636.960	131050
637.021	130600
637.082	126885
637.143	123199
637.204	120607
637.265	120471
637.326	122066
637.387	126170
637.448	124443
637.509	122805
637.570	121867
637.631	119858
637.692	114360
637.753	112472
637.814	112048
637.875	110737
637.936	112534
637.997	110788
638.058	112320
638.119	110915
638.179	109333
638.240	109637
638.301	109774
638.362	105233
638.423	101877
638.483	103403
638.544	100159
638.605	103970
638.666	103401
638.726	103301
638.787	101918
638.848	102973
638.908	99549
638.969	94235
639.030	94151
639.090	93781
639.151	96546
639.211	98811
639.272	101016
639.332	101388
639.393	106017
639.453	114949
639.514	117365
639.574	102505
639.635	92937
639.695	90932
639.756	90248
639.816	88551
639.877	88216
639.937	91143
639.997	92270
640.058	88336
640.118	90210
640.178	92760
640.239	91130
640.299	91367
640.359	94604
640.420	104076
640.480	115163
640.540	133860
640.600	139847
640.661	129906
640.721	129536
640.781	147657
640.841	149221
640.901	102046
640.961	97470
641.021	102841
641.082	112013
641.142	100650
641.202	91024
641.262	85767
641.322	86743
641.382	84048
641.442	84229
641.502	83758
641.562	88302
641.622	91101
641.682	98954
641.742	116352
641.802	111136
641.861	92846
641.921	83975
641.981	82193
642.041	78946
642.101	78172
642.161	77021
642.221	78038
642.280	79087
642.340	79062
642.400	81447
642.460	82682
642.519	83931
642.579	83494
642.639	85555
642.698	85362
642.758	90384
642.818	87361
642.877	87082
642.937	88050
642.997	87704
643.056	88722
643.116	86603
643.175	90278
643.235	91913
643.294	97435
643.354	104006
643.414	110997
643.473	129538
643.532	153776
643.592	201183
643.651	286411
643.711	450403
643.770	782055
643.830	1454763
643.889	1910973
643.948	1029779
644.008	399339
644.067	229098
644.126	164234
644.186	136218
644.245	117326
644.304	105071
644.363	102308
644.423	95441
644.482	95654
644.541	101871
644.600	106288
644.659	126740
644.719	155612
644.778	217089
644.837	349090
644.896	652778
644.955	1157313
645.014	507395
645.073	183552
645.132	134694
645.191	116588
645.250	111398
645.309	112832
645.368	126977
645.427	171397
645.486	302337
645.545	481616
645.604	162229
645.663	99548
645.722	98305
645.781	104897
645.840	115193
645.898	137581
645.957	181256
646.016	259109
646.075	415499
646.134	733146
646.192	1421326
646.251	1603115
646.310	653247
646.369	281156
646.427	209437
646.486	152643
646.545	113372
646.603	99872
646.662	92315
646.721	86259
646.779	86873
646.838	91475
646.896	106670
646.955	141061
647.014	216719
647.072	403734
647.131	887117
647.189	470246
647.248	122963
647.306	84746
647.365	75748
647.423	66236
647.481	68025
647.540	63103
647.598	62273
647.657	63812
647.715	62923
647.773	59720
647.832	58060
647.890	55245
647.948	53632
648.007	52383
648.065	51649
648.123	51778
648.181	50797
648.240	50318
648.298	48834
648.356	50302
648.414	51152
648.472	48797
648.531	49131
648.589	47243
648.647	48142
648.705	49145
648.763	50583
648.821	54163
648.879	54821
648.937	61861
648.995	72590
649.053	91421
649.111	126802
649.169	195326
649.227	330666
649.285	653091
649.343	1273406
649.401	755248
649.459	209988
649.516	113877
649.574	87010
649.632	81461
649.690	87592
649.748	107787
649.806	160057
649.863	289245
649.921	697313
649.979	466710
650.037	101086
650.094	60601
650.152	52392
650.210	49724
650.268	51175
650.325	58114
650.383	72893
650.440	43872
650.498	39433
650.556	37807
650.613	36860
650.671	37988
650.728	40683
650.786	45351
650.843	69702
650.901	51325
650.958	35301
651.016	32867
651.073	31692
651.131	31565
651.188	30798
651.246	30957
651.303	29339
651.360	30658
651.418	30624
651.475	31040
651.532	28520
651.590	30090
651.647	28729
651.704	28021
651.762	28955
651.819	28130
651.876	27610
651.933	27587
651.990	26656
652.048	26135
652.105	26786
652.162	26736
652.219	25802
652.276	27169
652.333	26861
652.390	25958
652.448	25601
652.505	25921
652.562	25984
652.619	25662
652.676	25325
652.733	26177
652.790	24552
652.847	23358
652.904	25025
652.961	23175
653.017	22595
653.074	23827
653.131	24039
653.188	22638
653.245	24466
653.302	23057
653.359	24087
653.415	24598
653.472	23455
653.529	23181
653.586	23289
653.642	24098
653.699	24992
653.756	23470
653.813	24188
653.869	26335
653.926	25478
653.983	24671
654.039	24506
654.096	24233
654.152	23064
654.209	21783
654.266	23389
654.322	20536
654.379	23064
654.435	22723
654.492	22645
654.548	23286
654.605	23399
654.661	27718
654.717	23200
654.774	23324
654.830	24282
654.887	25289
654.943	28103
655.000	36311
655.056	29352
655.112	24411
655.168	22812
655.225	23901
655.281	25291
655.337	22685
655.394	22051
655.450	20999
655.506	21506
655.562	21002
655.618	22911
655.675	20624
655.731	21749
655.787	21396
655.843	22598
655.899	20575
655.955	22330
656.011	22717
656.067	21507
656.123	21561
656.179	21643
656.235	22784
656.291	22063
656.347	24058
656.403	22917
656.459	22231
656.515	21666
656.571	20581
656.627	21442
656.683	21666
656.739	20773
656.795	20081
656.850	21400
656.906	22212
656.962	23755
657.018	24473
657.074	32746
657.129	43576
657.185	70296
657.241	157573
657.297	84678
657.352	26615
657.408	21540
657.464	21617
657.519	20068
657.575	18413
657.630	19021
657.686	19496
657.742	19720
657.797	18754
657.853	19501
657.908	21208
657.964	18492
658.019	18817
658.075	19860
658.130	19263
658.186	18418
658.241	18703
658.297	18168
658.352	18551
658.407	19117
658.463	17185
658.518	18734
658.573	18315
658.629	17429
658.684	18201
658.739	17469
658.795	16933
658.850	18354
658.905	18170
658.960	18381
659.016	16937
659.071	17543
659.126	17702
659.181	16584
659.236	17786
659.291	17534
659.346	16865
659.401	17591
659.457	17155
659.512	16729
659.567	17753
659.622	17376
659.677	15947
659.732	16297
659.787	16938
659.842	16912
659.897	16143
659.952	16768
660.007	17040
660.061	18429
660.116	15573
660.171	17038
660.226	16397
660.281	16789
660.336	15751
660.391	17135
660.445	14651
660.500	16650
660.555	16463
660.610	16219
660.664	16089
660.719	15732
660.774	15874
660.828	15811
660.883	15204
660.938	15894
660.992	15210
661.047	15577
661.101	15612
661.156	15192
661.211	15072
661.265	15060
661.320	15215
661.374	15854
661.429	15258
661.483	16432
661.538	15595
661.592	18010
661.647	22112
661.701	32485
661.755	20386
661.810	16578
661.864	15623
661.919	14251
661.973	15611
662.027	15954
662.081	15068
662.136	14950
662.190	16327
662.244	15507
662.299	15034
662.353	15462
662.407	15141
662.461	14976
662.515	15027
662.569	14172
662.624	14938
662.678	14633
662.732	14083
662.786	15522
662.840	15186
662.894	15050
662.948	14864
663.002	15334
663.056	14390
663.110	14879
663.164	14947
663.218	15963
663.272	16291
663.326	15911
663.380	14333
663.434	15129
663.488	14402
663.542	14769
663.595	15120
663.649	15314
663.703	15641
663.757	15467
663.811	14120
663.864	15234
663.918	14829
663.972	15104
664.026	15519
664.079	15413
664.133	16498
664.187	16886
664.240	16878
664.294	18497
664.348	19305
664.401	16129
664.455	15868
664.508	14494
664.562	15992
664.615	15394
664.669	14599
664.722	15654
664.776	14657
664.829	15272
664.883	15092
664.936	14483
664.990	15968
665.043	15717
665.097	15130
665.150	16466
665.203	15473
665.257	15900
665.310	17930
665.363	16293
665.417	16815
665.470	17089
665.523	16875
665.576	17693
665.630	16959
665.683	17223
665.736	17343
665.789	16820
665.842	15817
665.895	15910
665.949	16445
666.002	16757
666.055	17340
666.108	17710
666.161	17280
666.214	17523
666.267	16499
666.320	17816
666.373	17570
666.426	19220
666.479	18072
666.532	19808
666.585	19507
666.638	19475
666.691	18594
666.744	18676
666.796	17698
666.849	18116
666.902	18238
666.955	16803
667.008	17112
667.060	16595
667.113	18381
667.166	18378
667.219	18824
667.271	19913
667.324	18967
667.377	16811
667.430	17491
667.482	17524
667.535	17353
667.587	16855
667.640	17472
667.693	17066
667.745	17779
667.798	17417
667.850	16510
667.903	18471
667.955	17765
668.008	18124
668.060	17876
668.113	18209
668.165	16896
668.218	17365
668.270	16634
668.322	17002
668.375	16623
668.427	16826
668.479	16559
668.532	17877
668.584	15910
668.636	16579
668.689	16500
668.741	17326
668.793	17104
668.845	16815
668.898	16210
668.950	16337
669.002	17108
669.054	16164
669.106	16380
669.158	15430
669.211	15617
669.263	15596
669.315	16250
669.367	15363
669.419	14875
669.471	15990
669.523	14872
669.575	15414
669.627	14829
669.679	14856
669.731	15768
669.783	15914
669.835	15273
669.886	14546
669.938	14979
669.990	15505
670.042	15058
670.094	15399
670.146	14665
670.197	14602
670.249	14867
670.301	14868
670.353	14695
670.404	15852
670.456	14434
670.508	15658
670.560	16749
670.611	17114
670.663	15735
670.715	19807
670.766	20109
670.818	17450
670.869	17654
670.921	20391
670.972	21603
671.024	18566
671.075	18695
671.127	19916
671.178	21614
671.230	23542
671.281	27176
671.333	31368
671.384	36980
671.436	48687
671.487	66523
671.538	94275
671.590	143686
671.641	227443
671.692	378583
671.744	613094
671.795	521835
671.846	272736
671.897	150099
671.949	95339
672.000	68443
672.051	50474
672.102	41295
672.153	33814
672.204	30100
672.256	25993
672.307	24120
672.358	22849
672.409	19746
672.460	20160
672.511	17714
672.562	16845
672.613	15839
672.664	15153
672.715	15933
672.766	13674
672.817	12546
672.868	13970
672.919	13698
672.970	12715
673.021	13615
673.071	13208
673.122	11937
673.173	12455
673.224	12486
673.275	13249
673.326	11312
673.376	11670
673.427	12320
673.478	11643
673.528	13387
673.579	12772
673.630	12057
673.680	14065
673.731	11755
673.782	12349
673.832	12456
673.883	12013
673.934	11995
673.984	11381
674.035	12890
674.085	12369
674.136	12291
674.186	12916
674.237	12564
674.287	13214
674.338	14004
674.388	14532
674.438	14789
674.489	15786
674.539	16653
674.589	17081
674.640	14821
674.690	15244
674.740	14214
674.791	13976
674.841	14009
674.891	12234
674.942	10853
674.992	10968
675.042	10254
675.092	9945
675.142	9637
675.193	10048
675.243	10302
675.293	11282
675.343	11471
675.393	13193
675.443	10534
675.493	11678
675.543	10185
675.593	11538
675.643	10917
675.693	11250
675.743	10735
675.793	10103
675.843	8939
675.893	9447
675.943	9249
675.993	8848
676.043	7955
676.093	10031
676.142	9540
676.192	9190
676.242	9065
676.292	10260
676.341	9147
676.391	9399
676.441	8779
676.491	8401
676.540	7734
676.590	8963
676.640	8226
676.689	8802
676.739	6645
676.789	8079
676.838	7699
676.888	8052
676.937	7605
676.987	8586
677.037	8084
677.086	8211
677.136	8130
677.185	7766
677.235	8778
677.284	8127
677.333	8628
677.383	8202
677.432	8529
677.482	7218
677.531	6687
677.580	7288
677.630	7675
677.679	7078
677.728	7641
677.778	7986
677.827	6896
677.876	8575
677.925	7971
677.975	9081
678.024	9278
678.073	9347
678.122	9530
678.171	10320
678.220	12532
678.269	13474
678.319	14731
678.368	14979
678.417	12364
678.466	10830
678.515	8904
678.564	7422
678.613	7071
678.662	7273
678.711	7451
678.760	8271
678.809	8319
678.857	9173
678.906	10642
678.955	8900
679.004	9253
679.053	12347
679.102	11525
679.151	8740
679.199	7331
679.248	7464
679.297	7457
679.346	7002
679.394	5941
679.443	7267
679.492	7932
679.540	7341
679.589	7563
679.638	8098
679.686	8331
679.735	10465
679.784	11659
679.832	14482
679.881	11656
679.929	9456
679.978	8245
680.026	7997
680.075	7646
680.123	7199
680.172	6241
680.220	6973
680.268	7016
680.317	6531
680.365	6263
680.414	5379
680.462	6997
680.510	7030
680.559	6556
680.607	6460
680.655	6414
680.703	6982
680.752	6770
680.800	6562
680.848	5885
680.896	5915
680.945	6511
680.993	5779
681.041	5901
681.089	5779
681.137	6440
681.185	5798
681.233	6420
681.258	6085
681.281	5719
681.329	5489
681.377	6300
681.380	6349
681.425	6328
681.473	7774
681.502	7672
681.521	7505
681.569	8935
681.617	7979
681.624	7909
681.665	7044
681.713	7392
681.745	7705
681.761	7786
681.809	7872
681.857	8558
681.867	8671
681.904	8837
681.952	7812
681.989	7767
682.000	7679
682.048	7558
682.096	7612
682.111	7765
682.143	7961
682.191	7873
682.233	8957
682.239	9065
682.286	9000
682.334	8698
682.354	8446
682.382	8034
682.430	9140
682.476	8910
682.477	8854
682.525	9170
682.572	9662
682.598	9426
682.620	9157
682.667	9317
682.715	8907
682.720	8984
682.763	9261
682.810	9567
682.841	10486
682.857	10876
682.905	9065
682.952	9123
682.963	9126
683.000	8996
683.047	9612
683.085	10466
683.095	10650
683.142	10275
683.190	10636
683.206	10410
683.237	9846
683.284	10127
683.328	10490
683.332	10482
683.379	10445
683.426	10412
683.449	10579
683.473	10727
683.521	10664
683.568	11055
683.571	11122
683.615	11355
683.662	11491
683.693	11087
683.709	10783
683.757	10669
683.804	10429
683.814	10632
683.851	11256
683.898	11263
683.936	11041
683.945	10966
683.992	11731
684.039	11572
684.057	11850
684.086	12157
684.133	11372
684.179	10915
684.180	10868
684.227	12412
684.274	11733
684.300	11999
684.321	12222
684.368	11282
684.415	12317
684.422	12296
684.462	11875
684.509	11903
684.543	11824
684.556	11795
684.603	12735
684.649	12447
684.665	12558
684.696	12680
684.743	13323
684.786	14012
684.790	14024
684.837	12361
684.883	12397
684.908	12762
684.930	13217
684.977	14127
685.023	14113
685.029	14178
685.070	14313
685.117	12919
685.150	13833
685.164	14184
685.210	13532
685.257	14626
685.272	14417
685.303	13958
685.350	14827
685.393	14730
685.396	14667
685.443	14004
685.490	14058
685.514	13780
685.536	13684
685.583	13147
685.629	13515
685.636	13520
685.675	13472
685.722	14279
685.757	13747
685.768	13552
685.815	13730
685.861	13881
685.878	13977
685.908	14170
685.954	13877
686.000	14307
686.000	14304
686.047	15025
686.093	15643
686.121	15899
686.139	15979
686.185	16265
686.232	16479
686.242	16480
686.278	16245
686.324	15814
686.363	15446
686.370	15396
686.416	15769
686.463	16037
686.484	15766
686.509	15434
686.555	16109
686.601	15998
686.606	15976
686.647	15688
686.693	16036
686.727	15837
686.739	15817
686.785	15912
686.831	16264
686.848	16327
686.877	16255
686.923	15915
686.969	16593
686.969	16598
687.015	16796
687.061	17238
687.090	18467
687.107	18895
687.153	18472
687.199	18113
687.211	17886
687.245	17367
687.291	17376
687.332	17262
687.336	17288
687.382	18697
687.428	18319
687.453	18903
687.474	19473
687.520	20434
687.565	20855
687.574	21114
687.611	24033
687.657	27813
687.695	30608
687.702	31669
687.748	41708
687.794	51606
687.816	52806
687.839	47227
687.885	36833
687.931	29676
687.937	28626
687.976	26188
688.022	23242
688.058	20338
688.067	20150
688.113	20045
688.158	19624
688.179	19523
688.204	19673
688.249	20148
688.295	20041
688.300	20054
688.340	20187
688.386	20563
688.421	19997
688.431	19908
688.477	20323
688.522	20974
688.542	21116
688.567	21362
688.613	22145
688.658	22191
688.663	22214
688.703	21949
688.749	21579
688.784	21448
688.794	21485
688.839	21826
688.884	21824
688.905	21650
688.930	21500
688.975	21149
689.020	21402
689.026	21418
689.065	22148
689.110	22775
689.146	23568
689.155	23853
689.201	25187
689.246	26074
689.267	26072
689.291	24761
689.336	23109
689.381	21221
689.388	20947
689.426	21122
689.471	21558
689.509	21718
689.516	21768
689.561	21762
689.606	21316
689.630	21586
689.651	21872
689.696	21448
689.741	22326
689.750	22284
689.785	22327
689.830	22286
689.871	22502
689.875	22518
689.920	22449
689.965	22105
689.992	21862
690.010	21743
690.054	21342
690.099	21236
690.112	21263
690.144	21513
690.189	21378
690.233	21405
690.233	21433
690.278	22126
690.323	22365
690.354	22836
690.367	22904
690.412	22622
690.457	22156
690.474	22017
690.501	21877
690.546	21975
690.590	21515
690.595	21434
690.635	21027
690.680	21110
690.716	20780
690.724	20802
690.769	21257
690.813	21545
690.836	21432
690.857	21587
690.902	22491
690.946	22435
690.957	22603
690.991	22843
691.035	22465
691.077	23058
691.080	23138
691.124	23118
691.168	23706
691.198	23581
691.213	23416
691.257	23184
691.301	22944
691.318	22928
691.346	23153
691.390	22967
691.434	22853
691.439	22824
691.478	22962
691.522	23548
691.559	23733
691.567	23882
691.611	24243
691.655	24686
691.680	24965
691.699	25004
691.743	25036
691.787	25108
691.800	25003
691.831	24929
691.875	25103
691.919	24995
691.921	24962
691.964	24883
692.008	24298
692.041	23926
692.052	24008
692.096	24004
692.139	24718
692.162	24664
692.183	24452
692.227	24646
692.271	23865
692.282	23789
692.315	23665
692.359	23194
692.402	23013
692.403	23057
692.447	23247
692.490	23580
692.523	23675
692.534	23761
692.578	24123
692.622	24078
692.643	24322
692.666	24450
692.709	23988
692.753	23922
692.763	23870
692.797	24408
692.840	24703
692.884	25118
692.884	25162
692.928	25096
692.971	24352
693.004	24366
693.015	24511
693.059	24256
693.102	24316
693.124	24391
693.146	24588
693.189	24496
693.233	24746
693.245	24729
693.276	24907
693.320	25230
693.363	25170
693.365	25126
693.407	25043
693.450	25102
693.485	24797
693.493	24832
693.537	25062
693.580	24950
693.605	25188
693.624	25149
693.667	24547
693.710	24002
693.725	23708
693.753	24062
693.797	24871
693.840	25427
693.845	25414
693.883	25051
693.926	25164
693.966	25035
693.970	25126
694.013	25346
694.056	25730
694.086	25972
694.099	26026
694.142	25763
694.185	25941
694.206	25757
694.229	26022
694.272	26625
694.315	27406
694.326	27450
694.358	27241
694.401	27184
694.444	26954
694.446	26883
694.487	26868
694.530	27005
694.566	27112
694.573	27185
694.616	26735
694.659	27077
694.686	26989
694.702	27186
694.745	27673
694.787	27887
694.806	28116
694.830	28245
694.873	27951
694.916	27880
694.926	27782
694.959	28521
695.002	29479
695.044	30545
695.046	30511
695.087	30546
695.130	30712
695.166	30792
695.172	30900
695.215	31029
695.258	31363
695.286	31433
695.301	31854
695.343	33119
695.386	34207
695.406	34570
695.428	35827
695.471	38462
695.514	41121
695.526	41755
695.556	43963
695.599	47238
695.641	49714
695.646	49936
695.684	47513
695.726	44481
695.766	41750
695.769	41779
695.811	40598
695.854	39564
695.886	38741
695.896	39026
695.938	39764
695.981	40619
696.005	40985
696.023	42067
696.065	44524
696.108	47180
696.125	48084
696.150	48954
696.192	50039
696.235	51345
696.245	51540
696.277	51533
696.319	51488
696.361	51234
696.365	51100
696.404	50373
696.446	49488
696.485	48588
696.488	48676
696.530	48359
696.572	47992
696.604	47714
696.614	47877
696.656	47905
696.698	47997
696.724	48005
696.740	48413
696.783	49162
696.825	49945
696.844	50113
696.867	50219
696.909	50325
696.951	50381
696.964	50300
696.992	50792
697.034	51252
697.076	51771
697.083	51755
697.118	53291
697.160	54838
697.202	56448
697.203	56359
697.244	55713
697.286	54956
697.323	54034
697.327	54146
697.369	54188
697.411	54056
697.442	53868
697.453	54136
697.494	54732
697.536	55341
697.562	55552
697.578	55568
697.620	55321
697.661	55091
697.682	54831
697.703	56002
697.744	58031
697.786	60226
697.801	60791
697.828	60500
697.869	59948
697.911	59298
697.921	59028
697.952	58820
697.994	58243
698.035	57736
698.040	57536
698.077	58312
698.118	58998
698.160	59741
698.160	59602
698.201	61303
698.243	62883
698.279	64153
698.284	64433
698.325	65559
698.367	66776
698.399	67468
698.408	67815
698.449	68735
698.491	69584
698.518	70012
698.532	70042
698.573	69626
698.614	69160
698.638	68750
698.656	69003
698.697	69176
698.738	69345
698.757	69257
698.779	69267
698.820	68978
698.862	68664
698.877	68381
698.903	68714
698.944	68981
698.985	69242
698.996	69145
699.026	68997
699.067	68552
699.116	67853
699.235	69162
699.354	68550
699.474	63251
699.593	62135
699.713	62577
699.832	63385
699.951	68460
700.070	65587
700.190	61251
700.309	59630
700.428	58253
700.547	56585
700.667	57616
700.786	57698
700.905	54684
701.024	56981
701.143	54988
701.262	59794
701.381	60105
701.500	60876
701.619	58321
701.738	60772
701.857	58741
701.976	53457
702.095	57049
702.214	58737
702.333	57104
702.452	59736
702.571	60852
702.690	60056
702.809	59337
702.928	55980
703.047	51761
703.165	54358
703.284	52873
703.403	53749
703.522	52738
703.640	50725
703.759	50261
703.878	48632
703.997	51153
704.115	53272
704.234	52954
704.353	53549
704.471	48044
704.590	47632
704.708	47426
704.827	47118
704.946	45986
705.064	47765
705.183	44858
705.301	47834
705.420	44898
705.538	44324
705.656	40584
705.775	41025
705.893	43954
706.012	44134
706.130	43203
706.249	45058
706.367	40539
706.485	41754
706.604	41611
706.722	45993
706.840	63959
706.958	123066
707.077	75189
707.195	43542
707.313	40100
707.431	38080
707.549	37487
707.668	35705
707.786	40779
707.904	37942
708.022	40574
708.140	38220
708.258	37125
708.376	40201
708.494	36411
708.612	42356
708.730	40651
708.848	39810
708.966	40368
709.084	39329
709.202	38324
709.320	33792
709.438	35740
709.556	35559
709.674	31919
709.791	33707
709.909	32521
710.027	32179
710.145	31504
710.263	31867
710.380	33298
710.498	30123
710.616	31360
710.733	29655
710.851	30042
710.969	30993
711.086	29246
711.204	32647
711.322	30453
711.439	31839
711.557	28597
711.674	29784
711.792	30055
711.909	28604
712.027	28378
712.144	28477
712.262	29452
712.379	31283
712.497	29603
712.614	29104
712.732	29842
712.849	28206
712.966	30642
713.084	31839
713.201	27588
713.318	31909
713.436	35306
713.553	34671
713.670	39994
713.787	37509
713.905	35931
714.022	39291
714.139	45573
714.256	61885
714.373	99457
714.490	198515
714.608	534641
714.725	1716166
714.842	1428343
714.959	245237
715.076	95047
715.193	64566
715.310	50780
715.427	36641
715.544	37027
715.661	35215
715.778	31283
715.895	32075
716.011	30922
716.128	29655
716.245	29620
716.362	27057
716.479	24255
716.596	27295
716.713	28593
716.829	26054
716.946	23489
717.063	22950
717.180	22693
717.296	23061
717.413	22349
717.530	21880
717.646	21162
717.763	21097
717.880	21710
717.996	20334
718.113	20426
718.229	20083
718.346	20465
718.462	20666
718.579	21420
718.695	21306
718.812	20846
718.928	21491
719.045	20257
719.161	21073
719.277	23717
719.394	24775
719.510	24117
719.626	31097
719.743	43690
719.859	79232
719.975	185178
720.092	716171
720.208	1215738
720.324	192152
720.440	53831
720.557	35228
720.673	29096
720.789	24477
720.905	22516
721.021	23166
721.137	19224
721.253	18375
721.369	18959
721.486	20309
721.602	18106
721.718	17815
721.834	18089
721.950	17076
722.066	17099
722.181	17340
722.297	17898
722.413	16867
722.529	17152
722.645	17733
722.761	18629
722.877	19114
722.993	25615
723.108	37598
723.224	30143
723.340	21002
723.456	16957
723.571	16014
723.687	15370
723.803	16929
723.918	15950
724.034	15795
724.150	15702
724.265	15232
724.381	14939
724.497	14512
724.612	15857
724.728	16019
724.843	13553
724.959	15646
725.074	14867
725.190	14831
725.305	14695
725.421	14316
725.536	15001
725.651	16733
725.767	15362
725.882	14421
725.997	14310
726.113	15429
726.228	15093
726.343	14700
726.459	14911
726.574	14569
726.689	13906
726.804	15024
726.920	13113
727.035	15332
727.150	14486
727.265	13890
727.380	14928
727.495	14559
727.610	13731
727.725	13604
727.841	14146
727.956	15309
728.071	14213
728.186	14056
728.301	13693
728.416	15690
728.531	14250
728.645	13889
728.760	14437
728.875	14892
728.990	13833
729.105	14958
729.220	14161
729.335	15363
729.449	14581
729.564	14128
729.679	13099
729.794	16471
729.908	14557
730.023	15387
730.138	15846
730.253	16606
730.367	15674
730.482	15672
730.596	16630
730.711	22326
730.826	40227
730.940	47837
731.055	25105
731.169	24098
731.284	26042
731.398	26082
731.513	28411
731.627	34109
731.742	45092
731.856	56012
731.970	65682
732.085	94107
732.199	148195
732.313	282322
732.428	698278
732.542	1466106
732.656	791676
732.771	216089
732.885	109788
732.999	83250
733.113	75001
733.227	65826
733.342	59448
733.456	57167
733.570	52858
733.684	50491
733.798	47658
733.912	48379
734.026	47166
734.140	45777
734.254	43947
734.368	42821
734.482	43784
734.596	44635
734.710	41198
734.824	40656
734.938	41150
735.052	40317
735.166	39585
735.280	39129
735.393	38555
735.507	39856
735.621	37943
735.735	35802
735.849	37387
735.962	36608
736.076	37973
736.190	35721
736.303	36578
736.417	36127
736.531	34206
736.644	35173
736.758	35335
736.872	34185
736.985	34922
737.099	32830
737.212	34126
737.326	31372
737.439	35028
737.553	31367
737.666	33086
737.780	31481
737.893	33755
738.007	31945
738.120	32421
738.233	29293
738.347	32738
738.460	29345
738.573	33876
738.687	30474
738.800	31649
738.913	32828
739.026	30090
739.140	28797
739.253	29561
739.366	29171
739.479	29992
739.592	30001
739.705	26754
739.818	31874
739.932	26489
740.045	29963
740.158	27545
740.271	30599
740.384	28681
740.497	26033
740.610	30341
740.723	26206
740.836	26614
740.949	27372
741.062	30428
741.174	25288
741.287	27509
741.400	27618
741.513	24363
741.626	27726
741.739	25948
741.851	25427
741.964	27856
742.077	24988
742.189	23580
742.302	26176
742.415	24087
742.527	25791
742.640	25018
742.753	20926
742.865	25691
742.978	23650
743.090	22951
743.203	25331
743.316	22522
743.428	23403
743.541	23365
743.653	21604
743.766	23554
743.878	23748
743.990	20118
744.103	23861
744.215	21787
744.327	21236
744.440	28209
744.552	21392
744.664	20132
744.777	24764
744.889	20654
745.001	21499
745.113	23501
745.226	20461
745.338	19963
745.450	24624
745.562	20784
745.674	20084
745.786	24765
745.898	20950
746.010	20765
746.122	22724
746.234	21432
746.347	21741
746.459	20439
746.570	17271
746.682	22438
746.794	23784
746.906	18135
747.018	20153
747.130	20223
747.242	17429
747.354	18545
747.466	20497
747.577	17422
747.689	19785
747.801	20279
747.913	16955
748.024	17806
748.136	18695
748.248	18096
748.359	18660
748.471	19896
748.583	16493
748.694	15675
748.806	18114
748.918	16066
749.029	15943
749.141	17794
749.252	18395
749.364	15051
749.475	16115
749.587	16050
749.698	15428
749.809	17033
749.921	16170
750.032	15232
750.144	15898
750.255	14911
750.366	15977
750.478	14902
750.589	16298
750.700	13642
750.811	16042
750.923	14892
751.034	15125
751.145	16858
751.256	15834
751.367	13546
751.479	14802
751.590	14605
751.701	13853
751.812	13871
751.923	14991
752.034	18220
752.145	16653
752.256	15695
752.367	14916
752.478	14605
752.589	16663
752.700	15462
752.811	14803
752.922	14709
753.032	16813
753.143	16490
753.254	15512
753.365	18915
753.476	18533
753.586	14609
753.697	14608
753.808	14232
753.919	14156
754.029	13896
754.140	13051
754.251	13800
754.361	15026
754.472	15266
754.582	14066
754.693	15015
754.804	15974
754.914	13639
755.025	12056
755.135	13037
755.246	15408
755.356	12079
755.466	12179
755.577	12092
755.687	12941
755.798	12871
755.908	13039
756.018	13480
756.129	13745
756.239	13728
756.349	14811
756.460	17219
756.570	18555
756.680	13757
756.790	14494
756.900	13848
757.011	13106
757.121	11766
757.231	12830
757.341	13204
757.451	11043
757.561	11136
757.671	14081
757.781	13558
757.891	12034
758.001	12067
758.111	14262
758.221	16587
758.331	16619
758.441	15092
758.551	17076
758.661	18414
758.771	18549
758.880	17045
758.990	16075
759.100	15871
759.210	16273
759.320	15626
759.429	17659
759.539	19631
759.649	22136
759.758	27213
759.868	26483
759.978	27473
760.087	29467
760.197	29778
760.307	29624
760.416	25361
760.526	24038
760.635	25722
760.745	27468
760.854	30793
760.964	36493
761.073	34974
761.182	33455
761.292	27690
761.401	22131
761.511	18021
761.620	17574
761.729	15828
761.839	13708
761.948	13703
762.057	14244
762.166	15865
762.276	13298
762.385	14982
762.494	12526
762.603	12680
762.712	12915
762.822	12073
762.931	10388
763.040	9543
763.149	10981
763.258	9188
763.367	11081
763.476	9557
763.585	9610
763.694	10404
763.803	9285
763.912	10271
764.021	10372
764.130	10542
764.238	12013
764.347	11748
764.456	13264
764.565	11424
764.674	10447
764.783	9103
764.891	9819
765.000	9963
765.109	8665
765.217	8580
765.326	9082
765.435	9043
765.543	9138
765.652	8325
765.761	8998
765.869	8203
765.978	9480
766.086	10534
766.195	10848
766.303	15814
766.412	42272
766.520	30088
766.629	9310
766.737	9467
766.846	9216
766.954	7442
767.062	9617
767.171	9148
767.279	11501
767.387	8867
767.496	8158
767.604	8278
767.712	8159
767.820	7715
767.928	8984
768.037	6702
768.145	8087
768.253	7678
768.361	7905
768.469	7345
768.577	6649
768.685	8285
768.793	8888
768.901	7959
769.009	8530
769.117	7808
769.225	9170
769.333	9145
769.441	11028
769.549	9939
769.657	10507
769.765	16789
769.873	31164
769.981	12634
770.088	9640
770.196	8628
770.304	11328
770.412	11210
770.519	11100
770.627	11563
770.735	11371
770.842	11631
770.950	13353
771.058	13259
771.165	17385
771.273	18089
771.380	19043
771.488	28333
771.595	30961
771.703	26916
771.810	25002
771.918	26194
772.025	33202
772.133	37264
772.240	34501
772.348	39726
772.455	36867
772.562	34243
772.670	32220
772.777	35787
772.884	33706
772.991	31600
773.099	34015
773.206	30648
773.313	30610
773.420	31765
773.528	32622
773.635	29993
773.742	33062
773.849	29785
773.956	31656
774.063	30004
774.170	30209
774.277	30900
774.384	29532
774.491	28443
774.598	29733
774.705	28949
774.812	29059
774.919	27801
775.026	28602
775.133	29211
775.239	27989
775.346	26997
775.453	27840
775.560	26215
775.667	29434
775.773	25293
775.880	27028
775.987	24908
776.093	27621
776.200	28306
776.307	21695
776.413	22707
776.520	30086
776.627	23907
776.733	22998
776.840	22957
776.946	31177
777.053	22920
777.159	24022
777.266	22433
777.372	22457
777.478	26511
777.585	25044
777.691	20734
777.798	26211
777.904	21715
778.010	22003
778.117	23270
778.223	22939
778.329	23643
778.435	20592
778.542	25449
778.648	20629
778.754	19593
778.860	22530
778.966	21305
779.072	20689
779.178	20922
779.284	18008
779.391	21949
779.497	21777
779.603	22979
779.708	19397
779.815	17336
779.920	21549
780.026	17452
780.132	21418
780.238	18558
780.344	17729
780.450	23714
780.556	16238
780.661	19459
780.767	21464
780.873	13819
780.979	17608
781.085	20468
781.190	17863
781.296	17203
781.402	19168
781.507	18007
781.613	14333
781.719	18661
781.824	20641
781.930	17072
782.035	18886
782.141	19712
782.246	13504
782.352	15602
782.457	17732
782.563	17406
782.668	18469
782.773	14337
782.879	15094
782.984	16659
783.090	16284
783.195	16996
783.300	18931
783.405	14609
783.511	13738
783.616	15706
783.721	16976
783.826	14229
783.932	14780
784.037	15932
784.142	16762
784.247	14762
784.352	15127
784.457	12100
784.562	16404
784.667	15285
784.772	11808
784.877	11517
784.982	16783
785.087	15190
785.192	12948
785.297	12603
785.402	16241
785.507	14529
785.611	14150
785.716	11820
785.821	14936
785.926	14068
786.031	13479
786.135	13422
786.240	14440
786.345	11015
786.450	12341
786.554	13081
786.659	12325
786.763	12117
786.868	12908
786.973	14493
787.077	11614
787.182	10592
787.286	14488
787.391	15217
787.495	10479
787.600	9099
787.704	12551
787.809	12764
787.913	11619
788.017	11716
788.122	14175
788.226	10943
788.330	9563
788.435	12557
788.539	14580
788.643	10797
788.747	8993
788.852	11896
788.956	11432
789.060	12431
789.164	12261
789.268	10739
789.372	12005
789.476	11113
789.580	8279
789.684	10122
789.788	12691
789.892	10770
789.996	8738
790.100	9164
790.204	11418
790.308	13798
790.412	7985
790.516	6859
790.620	11091
790.724	12267
790.828	9241
790.931	6659
791.035	9402
791.139	9235
791.242	10977
791.346	10061
791.450	11207
791.554	8284
791.657	7424
791.761	10169
791.864	10450
791.968	11230
792.072	9888
792.175	8414
792.279	8832
792.382	8150
792.486	7770
792.589	9835
792.693	10813
792.796	7792
792.899	9427
793.003	10055
793.106	8488
793.209	8449
793.313	8161
793.416	5611
793.519	7860
793.623	11844
793.726	10002
793.829	6656
793.932	5565
794.035	6827
794.138	11000
794.242	12243
794.345	6659
794.448	6597
794.551	7038
794.654	9281
794.757	9448
794.860	7024
794.963	8473
795.066	6247
795.169	9692
795.272	7459
795.375	9656
795.477	6587
795.580	6974
795.683	6688
795.786	10325
795.889	6840
795.991	8605
796.094	8407
796.197	8003
796.300	10488
796.402	9240
796.505	6559
796.608	6762
796.710	8014
796.813	10523
796.915	10399
797.018	10605
797.120	9983
797.223	8914
797.326	9510
797.428	7446
797.530	7601
797.633	8699
797.735	10032
797.838	10087
797.940	10349
798.042	8146
798.145	7439
798.247	6313
798.349	6133
798.452	8823
798.554	9438
798.656	10549
798.758	11937
798.860	9840
798.962	8249
799.065	7098
799.167	6982
799.269	9127
799.371	11135
799.473	14535
799.575	11958
799.677	8371
799.779	8068
799.881	7065
799.983	9809
800.085	7242
800.187	7499
800.289	5846
800.390	6357
800.492	10212
800.594	7742
800.696	5786
800.798	6344
800.899	7236
801.001	6593
801.103	6930
801.205	8181
801.306	8471
801.408	7739
801.509	7504
801.611	7800
801.713	7155
801.814	5346
801.916	6148
802.017	5182
802.119	5621
802.220	5593
802.322	5842
802.423	6873
802.525	4729
802.626	6106
802.727	8293
802.829	6791
802.930	3805
803.031	6195
803.133	6362
803.234	7002
803.335	6038
803.436	5416
803.538	5812
803.639	5456
803.740	6379
803.841	6054
803.942	7876
804.043	5729
804.144	5636
804.245	6798
804.346	6333
804.447	4848
804.548	6088
804.649	6457
804.750	5486
804.851	5561
804.952	6028
805.053	4729
805.154	4211
805.255	6589
805.355	5833
805.456	5610
805.557	4993
805.658	4381
805.758	5288
805.859	4685
805.960	6227
806.061	4261
806.161	5234
806.262	4175
806.362	4492
806.463	4495
806.564	7324
806.664	5421
806.765	3956
806.865	4547
806.966	3652
807.066	4394
807.166	6323
807.267	4686
807.367	4842
807.468	5236
807.568	2976
807.668	5310
807.769	6486
807.869	4563
807.969	5500
808.069	4897
808.170	4760
808.270	4166
808.370	5341
808.470	5495
808.570	4731
808.670	4364
808.770	5227
808.870	3932
808.970	4881
809.070	4738
809.170	4061
809.271	5207
809.370	4560
809.470	4287
809.570	3814
809.670	3670
809.770	5426
809.870	4937
809.970	6224
810.070	5758
810.169	5088
810.269	3776
810.369	6405
810.469	4671
810.568	4878
810.668	4086
810.768	4177
810.867	4120
810.967	4002
811.066	4360
811.166	3693
811.265	5470
811.365	4301
811.464	4283
811.564	4886
811.663	5013
811.763	4747
811.862	4777
811.962	6343
812.061	5132
812.160	4992
812.260	3957
812.359	4847
812.458	4067
812.557	5359
812.657	3512
812.756	4960
812.855	4992
812.954	3404
813.053	4191
813.153	4814
813.252	3780
813.351	5395
813.450	5531
813.549	4161
813.648	4827
813.747	4054
813.846	5463
813.945	5480
814.044	4878
814.143	6016
814.242	5918
814.341	6055
814.439	6591
814.538	6517
814.637	6990
814.736	6924
814.835	7688
814.933	7911
815.032	10326
815.131	13736
815.229	23238
815.328	29448
815.427	21261
815.525	19652
815.624	19288
815.722	19697
815.821	21229
815.919	21507
816.018	19447
816.116	20257
816.215	20573
816.313	22427
816.412	26541
816.510	26189
816.609	28480
816.707	30879
816.805	26470
816.904	27919
817.002	28504
817.100	28981
817.198	30297
817.296	26782
817.395	27828
817.493	25858
817.591	24250
817.689	25056
817.787	25219
817.885	23500
817.983	21838
818.081	23713
818.179	22177
818.277	26426
818.375	22015
818.473	21456
818.571	19447
818.669	22920
818.767	24244
818.865	20142
818.963	17710
819.061	22353
819.158	20800
819.256	24067
819.354	20045
819.452	23354
819.549	21408
819.647	23439
819.745	17627
819.842	20300
819.940	20904
820.038	19412
820.135	17897
820.233	21448
820.330	19100
820.428	18724
820.525	20453
820.623	17865
820.720	17350
820.818	20013
820.915	19741
821.012	17621
821.110	16969
821.207	19099
821.304	15701
821.402	19339
821.499	18403
821.596	14490
821.693	17482
821.791	19250
821.888	17688
821.985	19450
822.082	14768
822.179	18477
822.276	18044
822.373	14912
822.470	16241
822.567	17685
822.664	15326
822.761	17089
822.858	17379
822.955	14608
823.052	13679
823.149	17603
823.246	16641
823.343	13348
823.440	13455
823.536	17068
823.633	15627
823.730	13881
823.827	15762
823.923	15675
824.020	13519
824.117	17624
824.213	15551
824.310	13167
824.407	12349
824.503	16418
824.600	14491
824.696	12669
824.793	16695
824.889	16840
824.986	12741
825.082	11720
825.179	12607
825.275	17548
825.371	16522
825.468	12259
825.564	8413
825.660	16569
825.757	18022
825.853	13400
825.949	11335
826.045	11942
826.142	14561
826.238	14616
826.334	13733
826.430	12856
826.526	8700
826.622	9985
826.718	14721
826.814	16806
826.910	12282
827.006	8051
827.102	8935
827.198	14509
827.294	15324
827.390	14417
827.486	10169
827.582	9086
827.678	11182
827.774	15663
827.869	9750
827.965	10875
828.061	10475
828.157	15308
828.252	13418
828.348	10753
828.444	9704
828.539	10857
828.635	13037
828.731	12664
828.826	11046
828.922	13206
829.017	14640
829.113	15084
829.208	11580
829.304	13359
829.399	17048
829.495	12980
829.590	11777
829.685	12920
829.781	14126
829.876	13270
829.971	6491
830.066	7823
830.162	12039
830.257	16658
830.352	11474
830.447	8940
830.543	10189
830.638	12795
830.733	15025
830.828	11044
830.923	13396
831.018	12865
831.113	14851
831.208	8886
831.303	7291
831.398	7759
831.493	11439
831.588	17014
831.683	10603
831.778	7396
831.873	8901
831.967	13095
832.062	13044
832.157	10215
832.252	10684
832.346	10359
832.441	12790
832.536	10293
832.631	9988
832.725	8347
832.820	10378
832.914	9137
833.009	8050
833.104	7572
833.198	7810
833.293	9852
833.387	11351
833.482	10070
833.576	10496
833.670	11743
833.765	13885
833.859	13349
833.954	11264
834.048	9932
834.142	7879
834.237	7834
834.331	8888
834.425	10129
834.519	7862
834.613	8429
834.708	7020
834.802	8213
834.896	9452
834.990	9165
835.084	6272
835.178	8130
835.272	8228
835.366	10894
835.460	11588
835.554	9104
835.648	7061
835.742	4698
835.836	6204
835.930	8011
836.024	8982
836.117	8015
836.211	7553
836.305	5766
836.399	5859
836.493	7534
836.586	8845
836.680	7667
836.774	6200
836.867	6247
836.961	5450
837.055	5855
837.148	5392
837.242	7718
837.335	7726
837.429	6452
837.522	5997
837.616	6300
837.709	6168
837.803	7312
837.896	8955
837.989	8190
838.083	4719
838.176	4825
838.269	4345
838.363	6742
838.456	5191
838.549	8313
838.642	5830
838.735	7306
838.829	7359
838.922	5836
839.015	6078
839.108	4773
839.201	6812
839.294	7638
839.387	5402
839.480	4600
839.573	4738
839.666	4160
839.759	6007
839.852	6007
839.945	7560
840.038	5636
840.131	4830
840.223	5308
840.316	6618
840.409	7275
840.502	7685
840.594	7794
840.687	3109
840.780	3507
840.873	3229
840.965	4700
841.058	7359
841.150	7706
841.243	3873
841.336	6170
841.428	4692
841.521	4380
841.613	5273
841.706	5864
841.798	5138
841.890	6323
841.983	3899
842.075	4221
842.167	5538
842.260	6194
842.352	6813
842.444	5763
842.537	3912
842.629	3524
842.721	4117
842.813	5474
842.905	4068
842.997	5239
843.090	5927
843.182	4371
843.274	2264
843.366	4531
843.458	5383
843.550	7149
843.642	5380
843.734	6104
843.826	4009
843.918	3546
844.009	5770
844.101	4695
844.193	5598
844.285	5457
844.377	5927
844.469	4319
844.560	1959
844.652	4157
844.744	4111
844.835	4578
844.927	5343
845.019	5768
845.110	3790
845.202	5965
845.293	3622
845.385	3834
845.476	5027
845.568	5917
845.659	4164
845.751	4801
845.842	4457
845.934	5212
846.025	4591
846.116	4486
846.208	3907
846.299	3537
846.390	3377
846.482	3609
846.573	4763
846.664	4696
846.755	4201
846.846	5439
846.937	2541
847.029	2901
847.120	3755
847.211	4504
847.302	5937
847.393	4334
847.484	4141
847.575	2319
847.666	3523
847.757	3200
847.847	5167
847.938	5628
848.029	5271
848.120	5535
848.211	3776
848.302	3332
848.392	3874
848.483	4960
848.574	4079
848.664	6121
848.755	4315
848.846	4794
848.936	4902
849.027	4870
849.118	6357
849.208	6551
849.299	10183
849.389	17557
849.480	29508
849.570	54398
849.661	100732
849.751	144229
849.841	58447
849.932	16079
850.022	8868
850.112	6800
850.203	6877
850.293	4931
850.383	4642
850.474	5208
850.564	4738
850.654	3865
850.744	3224
850.834	4101
850.924	4548
851.014	7385
851.104	5162
851.194	4431
851.284	3400
851.374	4340
851.464	3458
851.554	4775
851.644	4446
851.734	5315
851.824	5508
851.914	4983
852.004	6178
852.094	4763
852.183	3661
852.273	4499
852.363	4007
852.452	5625
852.542	5196
852.632	4367
852.721	5171
852.811	4933
852.901	7336
852.990	7535
853.080	8088
853.169	7595
853.259	8638
853.348	10348
853.438	12498
853.527	16529
853.617	21857
853.706	37355
853.795	61234
853.885	112607
853.974	186810
854.063	301015
854.152	351909
854.242	189749
854.331	74199
854.420	37362
854.509	24680
854.598	17816
854.687	14759
854.777	11431
854.866	9044
854.955	8500
855.044	7466
855.133	7799
855.222	7478
855.311	6262
855.400	6028
855.488	5175
855.577	5502
855.666	5341
855.755	5104
855.844	5032
855.933	5086
856.021	4797
856.110	4531
856.199	3469
856.288	3409
856.376	4603
856.465	3276
856.554	4985
856.642	5802
856.731	6323
856.819	5389
856.908	4557
856.996	4080
857.085	4227
857.173	3463
857.262	3422
857.350	2724
857.438	3291
857.527	4059
857.615	4333
857.703	4090
857.792	3826
857.880	3656
857.968	3455
858.056	3654
858.145	4245
858.233	3539
858.321	3846
858.409	4162
858.497	3216
858.585	2672
858.673	3451
858.761	2439
858.849	3129
858.937	2612
859.025	3162
859.113	3339
859.201	3714
859.289	4792
859.377	4954
859.465	3078
859.552	3201
859.640	3006
859.728	3731
859.816	3484
859.903	4299
859.991	2499
860.079	3831
860.166	3359
860.254	4274
860.342	3648
860.429	3731
860.517	3207
860.604	3973
860.692	2610
860.779	2567
860.867	3208
860.954	3721
861.042	4615
861.129	5152
861.216	4659
861.304	4691
861.391	4199
861.478	3183
861.565	3279
861.653	3859
861.740	2698
861.827	3085
861.914	3627
862.001	4079
862.089	4115
862.176	4773
862.263	3012
862.350	3336
862.437	4084
862.524	3383
862.611	2132
862.698	4324
862.785	4424
862.871	5215
862.958	5483
863.045	5008
863.132	4465
863.219	5530
863.306	3394
863.392	4450
863.479	3829
863.566	4564
863.652	4620
863.739	5002
863.826	5233
863.912	5221
863.999	4689
864.086	6032
864.172	6034
864.259	7129
864.345	6184
864.432	6317
864.518	5801
864.604	6944
864.691	5840
864.777	8071
864.863	9410
864.950	13518
865.036	18673
865.122	29863
865.209	30837
865.295	28587
865.381	27276
865.467	27360
865.553	30471
865.639	35681
865.726	48194
865.812	76183
865.898	118950
865.984	167779
866.070	253474
866.156	242298
866.242	109065
866.328	52473
866.414	35467
866.499	28632
866.585	27426
866.671	25164
866.757	24533
866.843	22948
866.928	21835
867.014	20623
867.100	21376
867.186	21028
867.271	20226
867.357	19981
867.442	18535
867.528	18723
867.614	18615
867.699	19326
867.785	18836
867.870	17993
867.956	18880
868.041	18918
868.127	17623
868.212	17451
868.297	16988
868.383	17729
868.468	17184
868.553	18587
868.639	17316
868.724	17630
868.809	17148
868.894	16030
868.979	17331
869.065	16571
869.150	14422
869.235	17763
869.320	16076
869.405	14483
869.490	17629
869.575	15527
869.660	13206
869.745	18636
869.830	18467
869.915	15448
870.000	15817
870.085	14785
870.169	19369
870.254	18816
870.339	12188
870.424	14145
870.509	16032
870.593	18822
870.678	16924
870.763	15034
870.847	13520
870.932	17201
871.016	15977
871.101	10936
871.186	16868
871.270	17947
871.355	12135
871.439	13427
871.523	15724
871.608	12567
871.692	12565
871.777	16398
871.861	16098
871.945	12864
872.030	15750
872.114	14021
872.198	12358
872.282	13096
872.367	12467
872.451	13254
872.535	12728
872.619	14308
872.703	13209
872.787	15023
872.871	13874
872.955	11124
873.039	9442
873.123	14318
873.207	12934
873.291	9373
873.375	12852
873.459	14942
873.543	12793
873.627	11630
873.711	10364
873.794	14279
873.878	11965
873.962	10411
874.045	10611
874.129	11208
874.137	11321
874.213	12450
874.245	11994
874.296	11274
874.352	10432
874.380	10020
874.460	11631
874.464	11698
874.547	10213
874.568	10726
874.631	12253
874.676	11507
874.714	10872
874.784	12401
874.798	12715
874.881	9183
874.892	9133
874.965	8836
874.999	10427
875.048	12555
875.107	11504
875.131	11083
875.215	7549
875.215	7549
875.298	8562
875.323	9485
875.381	11731
875.430	13126
875.465	14046
875.538	11058
875.548	10634
875.631	8119
875.646	8044
875.714	7845
875.753	8304
875.798	8901
875.861	10904
875.881	11465
875.964	9867
875.968	9804
876.047	8828
876.076	9047
876.130	9569
876.183	10375
876.213	10781
876.291	11656
876.296	11701
876.379	9706
876.398	9414
876.462	8407
876.506	7696
876.545	7235
876.613	8295
876.628	8516
876.711	9101
876.721	9308
876.794	10889
876.828	10813
876.877	10397
876.935	8459
876.960	7802
877.043	7724
877.043	7734
877.125	10153
877.150	10460
877.208	10804
877.258	9487
877.291	8683
877.365	7611
877.374	7487
877.456	7364
877.472	7383
877.539	7673
877.579	9191
877.622	10646
877.687	9576
877.704	9322
877.787	8992
877.794	9058
877.869	9693
877.901	9431
877.952	8653
878.008	6978
878.034	6337
878.115	6636
878.117	6649
878.199	7949
878.222	8267
878.282	9052
878.329	9944
878.364	10472
878.437	9685
878.447	9491
878.529	7302
878.544	7118
878.611	6684
878.651	7325
878.694	8521
878.758	9114
878.776	9097
878.858	9565
878.865	9442
878.941	7111
878.972	6398
879.023	6063
879.078	7214
879.105	7823
879.185	8773
879.187	8784
879.269	9001
879.292	9175
879.351	9215
879.399	7914
879.433	7052
879.506	6931
879.516	6976
879.598	7556
879.613	7382
879.680	6441
879.720	7541
879.762	8686
879.827	7641
879.844	7298
879.926	6940
879.933	6970
880.007	7609
880.040	7109
880.089	6207
880.147	7188
880.171	7869
880.253	8909
880.254	8909
880.335	7753
880.360	7807
880.417	8627
880.467	8865
880.499	8742
880.574	8813
880.580	8869
880.662	9903
880.680	9542
880.744	6934
880.787	6187
880.825	6331
880.893	7105
880.907	7142
880.989	6030
881.000	6224
881.070	8583
881.106	8750
881.152	7787
881.213	6164
881.233	5893
881.315	6619
881.319	6643
881.396	7483
881.426	7450
881.478	7468
881.532	8640
881.559	9012
881.639	7692
881.641	7636
881.722	6529
881.745	6399
881.803	7595
881.852	7857
881.885	7450
881.958	6290
881.966	6224
882.047	6966
882.064	6916
882.129	6161
882.171	5458
882.210	4912
882.277	4889
882.291	5175
882.372	7655
882.383	7851
882.454	8755
882.489	8790
882.535	8215
882.596	8396
882.616	8500
882.697	7929
882.702	7865
882.778	6007
882.808	5612
882.859	5576
882.914	5644
882.940	5735
883.020	5903
883.021	5914
883.102	7439
883.127	8206
883.183	9812
883.233	9355
883.264	7887
883.339	5567
883.345	5456
883.426	4196
883.445	4189
883.507	5726
883.551	6187
883.587	6628
883.657	8028
883.668	8207
883.749	8632
883.763	8605
883.830	6377
883.869	5542
883.910	5414
883.975	5526
883.991	5716
884.072	6238
884.081	6362
884.152	8615
884.187	9309
884.233	9627
884.292	9519
884.314	8435
884.394	4165
884.398	4005
884.475	3628
884.504	3508
884.555	4147
884.610	4718
884.636	5070
884.716	6572
884.716	6587
884.797	8746
884.821	8933
884.877	7920
884.927	7358
884.958	6652
885.033	4624
885.038	4550
885.118	3900
885.139	3701
885.199	4151
885.244	4820
885.279	5769
885.350	7788
885.359	8044
885.439	9545
885.456	9637
885.520	7112
885.561	6045
885.600	5587
885.667	5073
885.680	5401
885.760	7112
885.773	7266
885.840	4678
885.878	3703
885.920	4167
885.984	4635
886.000	4931
886.080	6419
886.089	6584
886.160	7400
886.195	7596
886.240	6919
886.300	6048
886.320	6091
886.400	6511
886.406	6508
886.480	5423
886.511	5196
886.560	5537
886.616	5569
886.640	5492
886.720	5596
886.722	5592
886.800	5830
886.827	5918
886.879	6129
886.932	6493
886.959	6990
887.038	7948
887.039	7938
887.119	6696
887.143	6338
887.198	6388
887.248	6340
887.278	6083
887.354	5508
887.358	5527
887.437	5664
887.459	5821
887.517	6567
887.564	6888
887.596	6187
887.669	4594
887.676	4500
887.755	3519
887.774	3280
887.835	3996
887.880	4659
887.914	5354
887.985	6465
887.994	6618
888.073	8305
888.090	8543
888.153	9193
888.195	9560
888.232	8120
888.300	5802
888.311	5798
888.391	5469
888.405	5429
888.470	4810
888.510	4444
888.549	4795
888.615	5416
888.628	5705
888.708	7361
888.720	7602
888.787	7197
888.825	6916
888.866	5459
888.930	3266
888.945	3636
889.024	5756
889.035	6010
889.103	6971
889.140	7484
889.182	6495
889.245	5115
889.261	5475
889.340	7113
889.349	7297
889.419	5829
889.454	5084
889.498	5025
889.559	4977
889.577	5230
889.656	6317
889.664	6422
889.735	6292
889.768	6216
889.814	6178
889.873	6099
889.978	6029
890.083	5352
890.187	6004
890.292	7404
890.397	5854
890.501	5310
890.606	4445
890.710	5700
890.815	8012
890.919	5462
891.024	5793
891.128	4667
891.233	4436
891.337	7464
891.442	6697
891.546	5527
891.650	4213
891.755	4205
891.859	6916
891.963	7161
892.068	5287
892.172	5211
892.276	3022
892.380	4668
892.484	7449
892.589	7143
892.693	6378
892.797	2694
892.901	2827
893.005	4428
893.109	8282
893.213	7645
893.317	5071
893.421	3331
893.525	3146
893.629	4167
893.733	7580
893.837	5949
893.941	4675
894.045	3528
894.148	3041
894.252	4278
894.356	7268
894.460	7875
894.564	4659
894.667	4663
894.771	2670
894.875	2937
894.978	4568
895.082	6027
895.186	6378
895.289	5328
895.393	3898
895.496	6842
895.600	3609
895.703	3255
895.807	4523
895.910	4910
896.014	4833
896.117	4133
896.221	5238
896.324	5348
896.427	4012
896.531	3903
896.634	4868
896.737	3562
896.840	5831
896.944	5927
897.047	6461
897.150	4482
897.253	3165
897.356	3343
897.460	3211
897.563	4046
897.666	6127
897.769	5288
897.872	3995
897.975	3771
898.078	3965
898.181	3467
898.284	4186
898.387	6322
898.490	5960
898.593	4313
898.695	3567
898.798	4163
898.901	3634
899.004	4100
899.107	3792
899.209	3939
899.312	6769
899.415	3541
899.518	2066
899.620	2288
899.723	3289
899.826	3399
899.928	3212
900.031	3751
900.133	6169
900.236	4280
900.338	3201
900.441	3790
900.543	4653
900.646	3959
900.748	4267
900.851	4691
900.953	3293
901.055	3483
901.158	3913
901.260	3127
901.362	2331
901.465	3267
901.567	4613
901.669	4777
901.771	3705
901.873	4123
901.976	3760
902.078	4023
902.180	2012
902.282	2138
902.384	3484
902.486	5812
902.588	4656
902.690	1611
902.792	1571
902.894	3682
902.996	5677
903.098	4990
903.200	2494
903.302	2830
903.404	2974
903.505	2648
903.607	3620
903.709	5914
903.811	5638
903.913	3280
904.014	2630
904.116	2838
904.218	2017
904.319	4030
904.421	6793
904.523	4546
904.624	3605
904.726	2450
904.827	2426
904.929	1427
905.030	3479
905.132	5968
905.233	4698
905.335	2109
905.436	2338
905.537	2643
905.639	3484
905.740	3754
905.841	4566
905.943	3108
906.044	3288
906.145	3030
906.247	2456
906.348	3194
906.449	3821
906.550	4246
906.651	3421
906.752	2851
906.854	2235
906.955	2493
907.056	3312
907.157	4988
907.258	5259
907.359	2446
907.460	2587
907.561	1532
907.662	2438
907.762	2687
907.863	3879
907.964	4562
908.065	3803
908.166	2838
908.267	2934
908.367	2630
908.468	2216
908.569	3792
908.670	4545
908.770	3656
908.871	3913
908.971	3266
909.072	2713
909.173	2928
909.273	2893
909.374	4653
909.474	2782
909.575	2342
909.675	3491
909.776	3871
909.876	3334
909.977	3486
910.077	3799
910.177	4578
910.278	3610
910.378	3115
910.478	2914
910.579	4575
910.679	4996
910.779	4362
910.879	3599
910.980	4156
911.080	4187
911.180	1471
911.280	1845
911.380	1335
911.480	2547
911.580	2610
911.680	4040
911.780	4549
911.880	3860
911.980	2117
912.080	2938
912.180	3191
912.280	2700
912.380	2726
912.480	1592
912.580	2578
912.679	2686
912.779	4649
912.879	4551
912.979	3248
913.078	2388
913.178	1844
913.278	2397
913.377	2072
913.477	2411
913.577	2914
913.676	5512
913.776	5399
913.875	3337
913.975	2352
914.074	3074
914.174	3279
914.273	2071
914.373	3959
914.472	2583
914.572	1762
914.671	2629
914.770	2730
914.870	2542
914.969	3081
915.068	3699
915.167	3832
915.267	2259
915.366	2635
915.465	2655
915.564	2708
915.663	3337
915.763	4261
915.862	5366
915.961	4580
916.060	3337
916.159	2712
916.258	1613
916.357	1752
916.456	4161
916.555	3959
916.654	3400
916.752	4549
916.851	4052
916.950	2533
917.049	2550
917.148	2160
917.247	2541
917.345	2620
917.444	2662
917.543	3782
917.642	3277
917.740	3909
917.839	5224
917.937	6202
918.036	5740
918.135	2775
918.233	3066
918.332	3232
918.430	3739
918.529	2985
918.627	3595
918.726	4542
918.824	3486
918.923	2976
919.021	2393
919.119	3737
919.218	2737
919.316	3718
919.414	3692
919.512	4760
919.611	3810
919.709	4469
919.807	5661
919.905	5717
920.003	5258
920.102	4271
920.200	5107
920.298	6989
920.396	5800
920.494	4856
920.592	4510
920.690	5291
920.788	5089
920.886	6375
920.984	7185
921.082	7309
921.180	7111
921.277	6307
921.375	8451
921.473	12083
921.571	10809
921.669	10163
921.766	9956
921.864	10703
921.962	9893
922.060	9707
922.157	9971
922.255	11004
922.352	10232
922.450	11747
922.548	12329
922.645	14149
922.743	18271
922.840	29087
922.938	31813
923.035	28769
923.133	27032
923.230	32682
923.327	38994
923.425	34628
923.522	33268
923.619	32106
923.717	28468
923.814	26996
923.911	27585
924.008	27850
924.106	25250
924.203	26255
924.300	28578
924.397	27305
924.494	26987
924.591	25702
924.688	25783
924.786	26533
924.883	26920
924.979	27426
925.077	24882
925.173	25714
925.270	25337
925.367	26587
925.464	27971
925.561	28764
925.658	29130
925.755	23296
925.852	29142
925.948	25568
926.045	24279
926.142	26330
926.239	27056
926.335	21384
926.432	25238
926.529	27301
926.625	27834
926.722	22216
926.818	23080
926.915	26624
927.011	23910
927.108	23315
927.204	24437
927.301	22002
927.397	26383
927.494	27403
927.590	18499
927.687	20921
927.783	27581
927.879	26567
927.976	23092
928.072	19746
928.168	25051
928.264	24090
928.361	22704
928.457	26181
928.553	21156
928.649	21181
928.745	23304
928.841	20892
928.937	22149
929.033	22156
929.129	22586
929.225	25227
929.321	21237
929.417	19644
929.513	23958
929.609	19476
929.705	19831
929.801	22350
929.897	18490
929.993	19902
930.089	21129
930.184	18733
930.280	21994
930.376	25564
930.471	18600
930.567	17130
930.663	18908
930.758	17735
930.854	18901
930.950	19260
931.045	17482
931.141	18528
931.236	23974
931.332	19458
931.427	15219
931.523	22342
931.618	19847
931.714	13805
931.809	17009
931.905	20012
932.000	14050
932.095	13483
932.191	21693
932.286	23649
932.381	18434
932.476	15061
932.572	17803
932.667	16224
932.762	15608
932.857	18457
932.952	21343
933.047	16370
933.142	14537
933.237	17485
933.332	19230
933.427	19730
933.522	16303
933.617	14660
933.712	15581
933.807	20672
933.902	21557
933.997	21151
934.092	14419
934.187	16030
934.282	16857
934.376	18035
934.471	19563
934.566	14626
934.661	14366
934.755	18164
934.850	19405
934.945	15654
935.039	13845
935.134	11316
935.228	15682
935.323	23918
935.417	13540
935.512	10027
935.606	12352
935.701	17244
935.795	17629
935.890	16417
935.984	12045
936.079	11694
936.173	15267
936.267	13555
936.362	11914
936.456	15696
936.550	19907
936.644	15573
936.738	11423
936.833	11505
936.927	9579
937.021	13198
937.115	15367
937.209	16407
937.303	13032
937.397	10585
937.491	13898
937.585	15513
937.679	14630
937.773	11824
937.867	10702
937.961	11917
938.055	17931
938.149	14321
938.243	9896
938.337	9250
938.430	11866
938.524	16587
938.618	12126
938.712	10783
938.805	12437
938.899	15434
938.993	17736
939.086	9965
939.180	7606
939.274	10132
939.367	13742
939.461	16194
939.554	10599
939.648	9347
939.741	9745
939.835	13836
939.928	17557
940.022	15207
940.115	12193
940.208	15057
940.302	16431
940.395	16955
940.488	11139
940.582	10235
940.675	9688
940.768	11077
940.861	14334
940.954	15378
941.048	8889
941.141	9070
941.234	10078
941.327	11418
941.420	12673
941.513	13024
941.606	10241
941.699	10491
941.792	14495
941.885	11377
941.978	12982
942.071	12390
942.164	8579
942.257	8618
942.349	11030
942.442	11928
942.535	8508
942.628	9670
942.721	11217
942.813	10786
942.906	11655
942.999	10700
943.091	8028
943.184	10674
943.277	9944
943.369	7689
943.462	6039
943.554	10168
943.647	10227
943.739	13340
943.832	13329
943.924	6512
944.017	7467
944.109	8223
944.201	9030
944.294	8800
944.386	10084
944.478	9061
944.571	8224
944.663	7962
944.755	9715
944.847	11036
944.940	8955
945.032	6087
945.124	6992
945.216	9335
945.308	9658
945.400	9363
945.492	8497
945.584	11180
945.676	12646
945.768	9455
945.860	10991
945.952	12785
946.044	9893
946.136	8290
946.228	9502
946.320	7931
946.412	9011
946.503	11643
946.595	10864
946.687	6802
946.779	5544
946.870	6992
946.962	8031
947.054	8634
947.145	10016
947.237	7968
947.329	8311
947.420	9273
947.512	8448
947.603	5414
947.695	6035
947.786	5762
947.878	8269
947.969	9501
948.061	9904
948.152	8421
948.243	4531
948.335	5656
948.426	5965
948.517	8583
948.609	10073
948.700	9203
948.791	7207
948.882	4616
948.973	5863
949.065	8542
949.156	7152
949.247	5125
949.338	7053
949.429	4785
949.520	6176
949.611	8255
949.702	9314
949.793	6922
949.884	7477
949.975	6066
950.066	4704
950.157	5556
950.247	6084
950.338	6236
950.429	6016
950.520	7000
950.611	4945
950.701	6838
950.792	9270
950.883	8631
950.973	6354
951.064	7587
951.155	8854
951.245	9018
951.336	8611
951.427	9097
951.517	10447
951.608	7290
951.698	6401
951.788	5530
951.879	4662
951.969	5310
952.060	5620
952.150	6827
952.240	9464
952.331	7578
952.421	7908
952.511	4728
952.602	3831
952.692	4252
952.782	5428
952.872	5364
952.962	6862
953.052	5835
953.143	5191
953.233	6028
953.323	6438
953.413	7641
953.503	7349
953.593	6195
953.683	5654
953.773	4219
953.863	3816
953.953	4987
954.042	6508
954.132	7805
954.222	7486
954.312	5648
954.402	5803
954.492	5530
954.581	6547
954.671	6338
954.761	4630
954.850	6235
954.940	3364
955.030	3465
955.119	4027
955.209	5056
955.298	5831
955.388	6764
955.477	6815
955.567	3375
955.656	4459
955.746	5764
955.835	4327
955.925	4315
956.014	6175
956.103	7825
956.193	9035
956.282	7448
956.371	5240
956.461	6152
956.550	6087
956.639	5063
956.728	4284
956.817	5388
956.906	5510
956.995	6347
957.085	4578
957.174	5022
957.263	4210
957.352	4593
957.441	5413
957.530	4766
957.619	3623
957.708	5023
957.796	4952
957.885	5300
957.974	4443
958.063	4912
958.152	3154
958.241	3849
958.329	4029
958.418	4563
958.507	4209
958.596	7495
958.684	3746
958.773	5169
958.861	3053
958.950	3077
959.039	3226
959.127	4458
959.216	5151
959.304	3113
959.393	4365
959.481	5358
959.570	3562
959.658	2694
959.746	2902
959.835	4365
959.923	3862
960.011	3348
960.100	5076
960.188	6058
960.276	4319
960.365	3275
960.453	2526
960.541	1710
960.629	3641
960.717	2600
960.805	2300
960.893	4019
960.981	5619
961.069	7117
961.158	7640
961.245	7693
961.333	6815
961.421	4707
961.509	4345
961.597	4893
961.685	3964
961.773	4817
961.861	4358
961.949	6228
962.036	4277
962.124	4070
962.212	3105
962.299	3871
962.387	3546
962.475	3439
962.562	3524
962.650	4812
962.738	4370
962.825	2550
962.913	2905
963.000	3291
963.088	4753
963.175	4024
963.263	3392
963.350	3741
963.438	3750
963.525	2514
963.612	4353
963.700	3070
963.787	4901
963.874	4230
963.962	3262
964.049	3090
964.136	2933
964.223	1888
964.310	3106
964.398	3634
964.485	3077
964.572	5182
964.659	3621
964.746	3052
964.833	2051
964.920	3051
965.007	3227
965.094	2379
965.181	4119
965.268	5504
965.355	3694
965.441	4170
965.528	2918
965.615	4444
965.702	4181
965.789	3245
965.875	4390
965.962	5523
966.049	3879
966.136	5194
966.222	5678
966.309	6581
966.395	5491
966.482	4882
966.569	4993
966.655	4493
966.742	4183
966.828	3262
966.915	2513
967.001	2820
967.087	1704
967.174	2373
967.260	2931
967.347	3843
967.433	3228
967.519	3964
967.605	3893
967.692	4079
967.778	4424
967.864	2676
967.950	4004
968.036	3196
968.123	3601
968.209	3282
968.295	1925
968.381	3866
968.467	3126
968.553	2792
968.639	4839
968.725	3619
968.811	5894
968.897	6077
968.983	3698
969.069	1992
969.154	3545
969.240	2453
969.326	2003
969.412	3181
969.497	2216
969.583	2477
969.669	4444
969.755	3921
969.840	4051
969.926	7636
970.012	9687
970.097	13036
970.183	9743
970.268	6203
970.354	4830
970.439	3099
970.525	4185
970.610	3035
970.696	5198
970.781	3148
970.866	1873
970.952	3516
971.037	2986
971.122	3699
971.208	3391
971.293	3298
971.378	2905
971.463	3352
971.549	3101
971.634	2553
971.719	3358
971.804	3268
971.889	3258
971.974	2915
972.059	4019
972.144	2484
972.229	1890
972.314	2922
972.399	2652
972.484	1711
972.569	3135
972.654	1695
972.739	3340
972.824	2524
972.908	2004
972.993	2250
973.078	2243
973.163	2950
973.247	3508
973.332	1307
973.417	4491
973.501	2650
973.586	3230
973.671	4009
973.755	3347
973.840	4247
973.924	5557
974.009	5768
974.093	4929
974.178	5877
974.262	5422
974.346	3211
974.431	4461
974.515	3371
974.600	3669
974.684	4087
974.768	3013
974.852	4010
974.937	2031
975.021	4152
975.105	3394
975.189	3270
975.273	3915
975.358	2648
975.442	2575
975.526	4048
975.610	3265
975.694	2495
975.778	4094
975.862	2597
975.946	1454
976.030	3966
976.114	2448
976.198	2690
976.281	2924
976.365	4253
976.449	2366
976.533	3216
976.617	2162
976.700	2375
976.784	2836
976.868	2235
976.951	2848
977.035	2143
977.119	3057
977.202	2942
977.286	4545
977.369	5679
977.453	8359
977.536	7242
977.620	4874
977.703	4806
977.787	4027
977.870	5878
977.953	5037
978.037	3012
978.120	4284
978.203	2803
978.287	4572
978.370	3722
978.453	3463
978.536	3189
978.620	3798
978.703	4385
978.786	2895
978.869	2293
978.952	2872
979.035	4780
979.118	4472
979.201	3194
979.284	4723
979.367	2723
979.450	3103
979.533	3059
979.616	3335
979.699	2782
979.782	2389
979.865	4465
979.948	3284
980.030	2798
980.113	2588
980.196	3160
980.279	3864
980.361	2783
980.444	3684
980.526	4876
980.609	7396
980.692	9569
980.774	6601
980.857	4717
980.939	5263
981.022	5062
981.104	4489
981.187	3461
981.269	3609
981.352	4390
981.434	3568
981.516	3867
981.599	4830
981.681	4676
981.763	4160
981.846	3847
981.928	3917
982.010	4358
982.092	3410
982.174	4709
982.256	4826
982.339	4016
982.421	4139
982.503	3863
982.585	3841
982.667	4579
982.749	5136
982.831	3883
982.913	3836
982.995	4826
983.077	3195
983.158	6759
983.240	4729
983.322	7166
983.404	10086
983.486	9282
983.568	8333
983.649	7109
983.731	7455
983.813	6124
983.894	5877
983.976	6382
984.058	5362
984.139	6400
984.221	4144
984.302	6289
984.384	4947
984.465	5094
984.547	5849
984.628	5000
984.710	6279
984.791	5946
984.872	5768
984.954	5461
985.035	6193
985.116	5539
985.198	5327
985.279	6301
985.360	6311
985.441	5595
985.522	6205
985.604	6055
985.685	3766
985.766	5595
985.847	7272
985.928	5191
986.009	5902
986.090	6301
986.171	6567
986.252	6490
986.333	5914
986.414	5575
986.495	5981
986.576	7233
986.656	6792
986.737	8038
986.818	7033
986.899	6039
986.980	6340
987.060	7340
987.141	7758
987.222	8814
987.302	8816
987.383	10302
987.464	8529
987.544	9146
987.625	8123
987.705	9263
987.786	9973
987.866	7903
987.947	8216
988.027	8496
988.108	7573
988.188	8332
988.268	7915
988.349	8295
988.429	8259
988.509	7937
988.589	7158
988.670	6555
988.750	7556
988.830	7139
988.910	7905
988.990	7856
989.070	6960
989.151	6406
989.231	6561
989.311	7356
989.391	6559
989.471	6808
989.551	6375
989.631	7186
989.711	7795
989.791	6505
989.870	5892
989.950	7762
990.030	6223
990.110	6590
990.190	4335
990.269	5674
990.349	6611
990.429	6860
990.509	5481
990.588	5223
990.668	5958
990.747	5614
990.827	5153
990.907	6013
990.986	6753
991.066	5706
991.145	4373
991.225	7169
991.304	6617
991.383	6039
991.463	5095
991.542	5694
991.622	4254
991.701	4243
991.780	4744
991.859	4238
991.939	4389
992.018	5525
992.097	5371
992.176	4685
992.256	4709
992.335	4594
992.414	5530
992.493	4025
992.572	3220
992.651	6037
992.730	4491
992.809	4357
992.888	3888
992.967	4716
993.046	4683
993.125	2826
993.203	4558
993.282	4489
993.361	4113
993.440	4402
993.519	3684
993.597	4786
993.676	3510
993.755	5807
993.834	4693
993.912	3022
993.991	3632
994.069	3865
994.148	4303
994.226	2956
994.305	3804
994.384	3799
994.462	5298
994.540	2009
994.619	2325
994.697	4209
994.776	3166
994.854	4906
994.932	2324
995.011	3314
995.089	2541
995.167	2566
995.245	3255
995.324	3271
995.402	3202
995.480	2257
995.558	2537
995.636	2172
995.714	3015
995.792	4298
995.870	2571
995.948	2496
996.026	2521
996.104	2580
996.182	3946
996.260	1827
996.338	2452
996.416	2281
996.494	2247
996.572	3361
996.649	1705
996.727	2194
996.805	2717
996.883	2862
996.960	1787
997.038	2834
997.116	3150
997.193	2154
997.271	1692
997.348	1424
997.426	1988
997.504	3159
997.581	3179
997.658	2235
997.736	547
997.813	1783
997.891	3136
997.968	1706
998.046	2004
998.123	2711
998.200	3098
998.277	2249
998.355	2640
998.432	1223
998.509	952
998.586	2641
998.663	1827
998.741	1147
998.818	1844
998.895	1443
998.972	2148
999.049	2462
999.126	1766
999.203	2357
999.280	1551
999.357	1643
999.434	2098
999.511	1792
999.587	1791
999.664	1019
999.741	1647
999.818	2671
999.895	1162
999.971	1275
1000.048	825
1000.125	1741
1000.202	525
1000.278	1645
1000.355	2506
1000.431	303
1000.508	-249
1000.584	708
1000.661	1681
1000.738	1242
1000.814	959
1000.890	1561
1000.967	1373
1001.043	1183
1001.120	-105
1001.196	1017
1001.272	-36
1001.349	-9
1001.425	1845
1001.501	1260
1001.577	531
1001.654	1972
1001.730	798
1001.806	861
1001.882	482
1001.958	1100
1002.034	1295
1002.110	906
1002.186	164
1002.262	50
1002.338	102
1002.414	1773
1002.490	1093
1002.566	738
1002.642	-133
1002.718	1498
1002.794	574
1002.870	404
1002.945	461
1003.021	138
1003.097	100
1003.173	1304
1003.248	300
1003.324	221
1003.400	270
1003.475	-502
1003.551	546
1003.626	290
1003.702	50
1003.777	448
1003.853	-1046
1003.928	-543
1004.004	-774
1004.079	867
1004.155	729
1004.230	-170
1004.305	1752
1004.381	783
1004.456	-146
1004.531	-253
1004.607	-117
1004.682	-416
1004.757	136
1004.832	289
1004.907	26
1004.982	109
1005.057	348
1005.133	258
1005.208	-567
1005.283	128
1005.358	-744
1005.433	-328
1005.508	-178
1005.583	-669
1005.657	-368
1005.732	567
1005.807	-998
1005.882	-404
1005.957	-909
1006.032	152
1006.106	-390
1006.181	203
1006.256	22
1006.331	246
1006.405	-537
1006.480	-762
1006.554	-868
1006.629	315
1006.704	-1339
1006.778	-122
1006.853	586
1006.927	-806
1007.002	-1046
1007.076	-475
1007.150	-780
1007.225	165
1007.299	-466
1007.373	-1443
1007.448	-649
1007.522	150
1007.596	-794
1007.671	-952
1007.745	-242
1007.819	-894
1007.893	168
1007.967	-180
1008.041	-276
1008.115	-190
1008.190	-1024
1008.264	-588
1008.338	-1165
1008.412	-60
1008.486	-1015
1008.560	-799
1008.633	-206
1008.707	-315
1008.781	-364
1008.855	-375
1008.929	-399
1009.003	-1427
1009.076	-1420
1009.150	-882
1009.224	-1181
1009.298	-69
1009.371	-1738
1009.445	112
1009.519	-414
1009.592	-898
1009.666	-1040
1009.739	-544
1009.813	-992
1009.886	336
1009.960	-1567
1010.033	200
1010.107	239
1010.180	-1414
1010.253	-1826
1010.327	-1550
1010.400	-989
1010.473	-763
1010.547	66
1010.620	-1583
1010.693	-755
1010.766	-1373
1010.840	-184
1010.913	-1399
1010.986	-1760
1011.059	-1373
1011.132	-1965
1011.205	-254
1011.278	-1422
1011.351	-1840
1011.424	-598
1011.497	-1184
1011.570	-629
1011.643	-662
1011.716	-1511
1011.789	-1621
1011.862	-1540
1011.934	-429
1012.007	-1965
1012.080	-811
1012.153	-1480
1012.225	-1340
1012.298	-1854
1012.371	-1929
1012.443	-1039
1012.516	-2044
1012.588	-653
1012.661	-1585
1012.733	-2204
1012.806	-1272
1012.879	-1973
1012.951	-1197
1013.023	-1876
1013.096	-1260
1013.168	-1657
1013.241	-576
1013.313	-1027
1013.385	-1278
1013.458	-2098
1013.530	-908
1013.602	-2456
1013.674	-205
1013.746	-2355
1013.819	-2079
1013.891	-1201
1013.963	-1009
1014.035	-969
1014.107	-848
1014.179	-1460
1014.251	-1660
1014.323	-940
1014.395	-1331
1014.467	-1404
1014.539	-1449
1014.611	-1804
1014.683	-1361
1014.754	-2048
1014.826	-1632
1014.898	-1633
1014.970	-2147
1015.042	-496
1015.113	-1027
1015.185	-1216
1015.257	-2695
1015.328	-975
1015.400	-945
1015.471	-996
1015.543	-2654
1015.615	-1018
1015.686	-775
1015.757	-1821
1015.829	-1109
1015.901	-1376
1015.972	-1511
1016.043	-1832
1016.115	-1031
1016.186	-2073
1016.257	-2151
1016.328	-1571
1016.400	-1380
1016.471	-2640
1016.542	-1869
1016.613	-1850
1016.685	-1414
1016.756	-1483
1016.827	-1353
1016.898	-2080
1016.969	-579
1017.040	-1907
1017.111	-1641
1017.182	-2135
1017.253	-1501
1017.324	-1837
1017.395	-2073
1017.466	-1907
1017.537	-2344
1017.608	-1777
1017.678	-1891
1017.749	-1910
1017.820	-2521
1017.891	-2814
1017.961	-1195
1018.032	-1711
1018.103	-1950
1018.173	-1692
1018.244	-1936
1018.315	-1762
1018.385	-1391
1018.456	-1542
1018.526	-1770
1018.597	-2248
1018.667	-1521
1018.738	-1796
1018.808	-2022
1018.878	-1714
1018.949	-1694
1019.019	-2282
1019.089	-2255
1019.160	-1282
1019.230	-2612
1019.300	-1728
1019.371	-2168
1019.441	-1857
1019.511	-1107
1019.581	-1920
1019.651	-2130
1019.721	-1631
1019.791	-2065
1019.861	-1704
1019.931	-1319
1020.001	-1684
1020.071	-1890
1020.141	-1923
1020.211	-2317
1020.281	-2258
1020.351	-2432
1020.421	-1707
1020.491	-2396
1020.560	-3068
1020.630	-1859
1020.700	-2712
1020.770	-2596
1020.839	-2581
1020.909	-2242
1020.979	-3029
1021.048	-2633
1021.118	-2294
1021.187	-2381
1021.257	-2220
1021.326	-1505
1021.396	-2514
1021.465	-2658
1021.535	-2261
1021.604	-2778
1021.674	-1860
1021.743	-2147
1021.812	-2768
1021.882	-2425
1021.951	-1684
1022.020	-2300
1022.089	-868
1022.159	-2160
1022.228	-1798
1022.297	-1864
1022.366	-2316
1022.435	-2142
1022.504	-1531
1022.573	-2744
1022.642	-2454
1022.711	-2368
1022.781	-2079
1022.849	-1981
1022.918	-2291
1022.987	-2208
1023.056	-2458
1023.125	-2290
1023.194	-1676
1023.263	-2130
1023.331	-2814
1023.400	-2607
1023.469	-1881
1023.538	-1954
1023.606	-2361
1023.675	-2728
1023.744	-2578
1023.812	-2780
1023.881	-2802
1023.949	-2468
1024.018	-1933
1024.086	-2372
1024.155	-2442
1024.223	-2223
1024.292	-2301
1024.360	-2507
1024.429	-2211
1024.497	-2835
1024.565	-1461
1024.634	-2511
1024.702	-2406
1024.770	-2010
1024.838	-2084
1024.907	-2043
1024.975	-2213
1025.043	-1984
1025.111	-2202
1025.179	-2117
1025.247	-2130
1025.315	-2045
1025.383	-2580
1025.451	-2750
1025.519	-2255
1025.587	-2458
1025.655	-3062
1025.723	-2294
1025.791	-3009
1025.859	-2243
1025.927	-2038
1025.995	-2394
1026.062	-3332
1026.130	-2624
1026.198	-2647
1026.266	-2573
1026.333	-2123
1026.401	-1463
1026.469	-2359
1026.536	-2088
1026.604	-2361
1026.671	-2894
1026.739	-2454
1026.806	-2297
1026.874	-3071
1026.941	-2216
1027.009	-1222
1027.076	-2704
1027.144	-1694
1027.211	-2227
1027.278	-2797
1027.345	-1411
1027.413	-2098
1027.480	-2413
1027.547	-2643
1027.614	-2310
1027.682	-2073
1027.749	-2625
1027.816	-2629
1027.883	-2000
1027.950	-1612
1028.017	-2417
1028.084	-2368
1028.151	-2781
1028.218	-2088
1028.285	-2814
1028.352	-2521
1028.419	-1792
1028.486	-2059
1028.553	-1061
1028.619	-2524
1028.686	-1973
1028.753	-2447
1028.820	-2267
1028.886	-2733
1028.953	-1818
1029.020	-2486
1029.086	-2554
1029.153	-2108
1029.220	-2770
1029.286	-2725
1029.353	-1663
1029.419	-2665
1029.486	-2688
1029.552	-2686
1029.619	-2187
1029.685	-2539
1029.751	-2666
1029.818	-1694
1029.884	-2730
1029.951	-1745
1030.017	-2178
1030.083	-2508
1030.149	-2728
1030.216	-2448
1030.282	-1587
1030.348	-2638
1030.414	-2395
1030.480	-2277
1030.546	-2653
1030.612	-2296
1030.678	-2476
1030.744	-3039
1030.810	-2177
1030.876	-2453
1030.942	-1791
1031.008	-2473
1031.074	-3370
1031.140	-2377
1031.206	-2016
1031.272	-2827
1031.337	-2009
1031.403	-2195
1031.469	-2836
1031.534	-2740
1031.600	-3063
1031.666	-2792
1031.731	-2295
1031.797	-2766
1031.863	-3383
1031.928	-2732
1031.994	-2757
1032.059	-2759
1032.125	-2045
1032.190	-2286
1032.256	-2995
1032.321	-2397
1032.386	-2482
1032.452	-2676
1032.517	-1805
1032.582	-2680
1032.647	-2175
1032.713	-2979
1032.778	-1984
1032.843	-2201
1032.908	-2781
1032.974	-2841
1033.039	-2474
1033.104	-1596
1033.169	-2499
1033.234	-2437
1033.299	-1849
1033.364	-2033
1033.429	-2629
1033.494	-1502
1033.559	-2347
1033.624	-2473
1033.688	-2302
1033.753	-1610
1033.818	-2092
1033.883	-1487
1033.948	-324
1034.013	-704
1034.077	517
1034.142	864
1034.207	2104
1034.271	5560
1034.336	6132
1034.400	3425
1034.465	1025
1034.530	-967
1034.594	-2582
1034.658	-1725
1034.723	-2277
1034.787	-1798
1034.852	-2534
1034.916	-2073
1034.981	-2654
1035.045	-2046
1035.109	-2674
1035.173	-1661
1035.238	-3161
1035.302	-1793
1035.366	-2892
1035.430	-2958
1035.495	-1770
1035.559	-2352
1035.623	-2194
1035.687	-1937
1035.751	-2682
1035.815	-2083
1035.879	-2549
1035.943	-1909
1036.007	-1679
1036.071	-2614
1036.135	-2740
1036.198	-2338
1036.262	-2143
1036.326	-2556
1036.390	-2778
1036.454	-2534
1036.517	-2565
1036.581	-2143
1036.645	-1921
1036.709	-2087
1036.772	-2605
1036.836	-2131
1036.900	-1941
1036.963	-2380
1037.026	-2186
1037.090	-2549
1037.154	-2732
1037.217	-2267
1037.280	-2342
1037.344	-2035
1037.407	-2804
1037.471	-2183
1037.534	-1749
1037.597	-1955
1037.661	-2167
1037.724	-2136
1037.787	-2264
1037.850	-1761
1037.913	-2001
1037.977	-2359
1038.040	-2071
1038.103	-2590
1038.166	-2774
1038.229	-1676
1038.292	-2284
1038.355	-2021
1038.418	-2805
1038.481	-1966
1038.544	-2766
1038.607	-2979
1038.670	-2363
1038.732	-2201
1038.795	-2703
1038.858	-2129
1038.921	-2184
1038.984	-1925
1039.046	-2554
1039.109	-2567
1039.172	-1393
1039.234	-2484
1039.297	-1739
1039.360	-2277
1039.422	-2608
1039.485	-2305
1039.547	-2635
1039.610	-1925
1039.672	-1972
1039.734	-2535
1039.797	-2071
1039.859	-2160
1039.922	-3281
1039.984	-2290
1040.046	-2819
1040.109	-3137
1040.171	-2884
1040.233	-2826
1040.295	-2451
1040.358	-2480
1040.420	-2029
1040.482	-2669
1040.544	-2000
1040.606	-2156
1040.668	-2498
1040.730	-2096
1040.792	-2706
1040.854	-3288
1040.916	-2604
1040.978	-2367
1041.040	-1295
1041.102	-1356
1041.164	-2404
1041.225	-2664
1041.287	-2764
1041.349	-2293
1041.411	-2219
1041.472	-2682
1041.534	-2450
1041.596	-2687
1041.657	-2602
1041.719	-2306
1041.781	-2599
1041.842	-2304
1041.904	-2526
1041.965	-2493
1042.027	-1991
1042.088	-1576
1042.150	-1902
1042.211	-2268
1042.272	-1862
1042.334	-2663
1042.395	-1835
1042.456	-3110
1042.518	-2189
1042.579	-2107
1042.640	-2134
1042.701	-1847
1042.763	-2001
1042.824	-2382
1042.885	-1521
1042.946	-2162
1043.007	-1690
1043.068	-2684
1043.129	-2330
1043.190	-2710
1043.251	-2336
1043.312	-2496
1043.373	-1817
1043.434	-1046
1043.495	-1963
1043.556	-2477
1043.616	-1922
1043.677	-2447
1043.738	-2871
1043.799	-2514
1043.859	-1948
1043.920	-2528
1043.981	-1202
1044.041	-2266
1044.102	-2000
1044.162	-2458
1044.223	-3406
1044.284	-1505
1044.344	-2444
1044.405	-2139
1044.465	-1876
1044.525	-2428
1044.586	-2350
1044.646	-2266
1044.707	-1599
1044.767	-2028
1044.827	-2643
1044.887	-1784
1044.948	-2396
1045.008	-2150
1045.068	-2298
1045.128	-2508
1045.188	-1865
1045.249	-1445
1045.309	-1970
1045.369	-2016
1045.429	-1974
1045.489	-1780
1045.549	-1698
1045.609	-2861
1045.669	-2130
1045.729	-2225
1045.789	-1763
1045.848	-2616
1045.908	-2037
1045.968	-2350
1046.028	-993
1046.088	-776
1046.147	-1859
1046.207	-1711
1046.267	-1764
1046.326	-1941
1046.386	-1652
1046.446	-1728
1046.505	-1665
1046.565	-1151
1046.624	-1374
1046.684	-1169
1046.743	-1011
1046.803	-1618
1046.862	-1014
1046.922	0
