'Start Wavelength	183.907
'End Wavelength	1046.922
'Gate Delay	5.000
'Gate Width (ms)	1.050
'Laser Output Level	0.000
'X Position	0.000
'Y Position	0.000
'Z Position	0.000
'Grid Point Number	1.000
'Shot Number	100.000
183.907	617.000
183.977	-181.000
184.047	443
184.116	832
184.186	302
184.256	590
184.325	458
184.395	-546
184.465	1359
184.534	-358
184.604	-135
184.674	796
184.743	108
184.813	469
184.883	249
184.952	-227
185.022	872
185.092	35
185.161	246
185.231	549
185.301	1006
185.370	949
185.440	270
185.509	-1093
185.579	498
185.649	1349
185.718	1338
185.788	1191
185.857	323
185.927	404
185.996	804
186.066	380
186.136	442
186.205	-101
186.275	555
186.344	864
186.414	454
186.483	-273
186.553	1196
186.622	876
186.692	-222
186.761	197
186.831	624
186.900	-165
186.970	848
187.039	983
187.109	748
187.178	427
187.248	78
187.317	491
187.387	201
187.456	500
187.526	68
187.595	-29
187.664	259
187.734	479
187.803	828
187.873	370
187.942	724
188.012	566
188.081	29
188.150	154
188.220	200
188.289	289
188.358	785
188.428	241
188.497	520
188.567	185
188.636	340
188.705	515
188.775	860
188.844	-109
188.913	1191
188.983	-328
189.052	574
189.121	-404
189.191	280
189.260	513
189.329	852
189.399	-9
189.468	548
189.537	54
189.606	212
189.676	-10
189.745	1121
189.814	450
189.883	350
189.953	561
190.022	318
190.091	908
190.161	-90
190.230	127
190.299	630
190.368	-97
190.437	689
190.507	-144
190.576	-260
190.645	-57
190.714	611
190.783	373
190.853	23
190.922	719
190.991	392
191.060	-244
191.129	-396
191.198	302
191.268	942
191.337	504
191.406	891
191.475	242
191.544	575
191.613	978
191.682	328
191.752	491
191.821	109
191.890	995
191.959	731
192.028	350
192.097	660
192.166	-108
192.235	424
192.304	-195
192.373	1329
192.442	222
192.511	474
192.580	293
192.650	1162
192.719	-294
192.788	381
192.857	342
192.926	338
192.995	220
193.064	1356
193.133	473
193.202	341
193.271	524
193.340	666
193.409	165
193.478	997
193.547	333
193.615	1214
193.684	1201
193.753	975
193.822	573
193.891	950
193.960	744
194.029	-300
194.098	-320
194.167	-89
194.236	454
194.305	997
194.374	152
194.443	319
194.512	-313
194.580	357
194.649	679
194.718	-94
194.787	204
194.856	664
194.925	928
194.994	292
195.062	973
195.131	1048
195.200	348
195.269	601
195.338	409
195.407	1110
195.475	681
195.544	954
195.613	198
195.682	662
195.751	566
195.819	114
195.888	531
195.957	2494
196.026	488
196.094	474
196.163	90
196.232	100
196.301	889
196.369	318
196.438	176
196.507	909
196.576	33
196.644	367
196.713	792
196.782	609
196.850	89
196.919	803
196.988	834
197.056	560
197.125	992
197.194	196
197.262	-64
197.331	367
197.400	-95
197.468	927
197.537	-360
197.606	1170
197.674	420
197.743	1035
197.812	677
197.880	1413
197.949	856
198.017	343
198.086	-99
198.155	1072
198.223	631
198.292	1199
198.360	748
198.429	890
198.497	453
198.566	1178
198.635	2013
198.703	701
198.772	844
198.840	1530
198.909	525
198.977	454
199.046	-13
199.114	644
199.183	367
199.251	976
199.320	239
199.388	120
199.457	29
199.525	433
199.594	684
199.662	587
199.731	408
199.799	727
199.867	1052
199.936	500
200.004	1234
200.073	1323
200.141	-309
200.210	-213
200.278	434
200.346	1100
200.415	356
200.483	1169
200.552	803
200.620	600
200.688	759
200.757	644
200.825	649
200.893	1300
200.962	969
201.030	771
201.098	192
201.167	1109
201.235	441
201.303	812
201.372	1607
201.440	909
201.508	1157
201.577	708
201.645	1183
201.713	756
201.781	581
201.850	996
201.918	793
201.986	454
202.055	889
202.123	527
202.191	866
202.259	1192
202.327	1223
202.396	64
202.464	451
202.532	1067
202.600	1322
202.669	881
202.737	1022
202.805	479
202.873	1340
202.941	583
203.009	-341
203.078	886
203.146	148
203.214	418
203.282	-317
203.350	952
203.418	113
203.487	1434
203.555	705
203.623	1121
203.691	458
203.759	572
203.827	106
203.895	563
203.963	645
204.031	1061
204.099	580
204.168	521
204.236	1071
204.304	838
204.372	901
204.440	346
204.508	800
204.576	1361
204.644	447
204.712	318
204.780	-517
204.848	703
204.916	479
204.984	386
205.052	5
205.120	155
205.188	466
205.256	286
205.324	-275
205.392	108
205.460	519
205.528	856
205.596	619
205.664	281
205.732	-62
205.799	1303
205.867	1478
205.935	756
206.003	1586
206.071	725
206.139	849
206.207	1409
206.275	104
206.343	769
206.411	901
206.478	1314
206.546	134
206.614	117
206.682	602
206.750	592
206.818	1218
206.885	1583
206.953	-121
207.021	1482
207.089	483
207.157	-9
207.225	264
207.292	593
207.360	1131
207.428	945
207.496	181
207.563	518
207.631	1029
207.699	320
207.767	-199
207.834	41
207.902	290
207.970	287
208.038	-29
208.105	1013
208.173	330
208.241	927
208.309	513
208.376	1090
208.444	1053
208.512	287
208.579	-290
208.647	883
208.715	770
208.782	381
208.850	612
208.918	666
208.985	460
209.053	748
209.120	110
209.188	-2
209.256	843
209.323	247
209.391	-310
209.459	2039
209.526	540
209.594	590
209.661	633
209.729	1125
209.796	722
209.864	309
209.932	282
209.999	1901
210.067	324
210.134	1055
210.202	1139
210.269	1460
210.337	2367
210.404	753
210.472	527
210.539	763
210.607	698
210.674	517
210.742	223
210.809	1084
210.877	84
210.944	703
211.012	93
211.079	1131
211.146	314
211.214	670
211.281	758
211.349	369
211.416	1179
211.484	1322
211.551	-13
211.618	602
211.686	1746
211.753	87
211.821	510
211.888	1185
211.955	223
212.023	987
212.090	455
212.157	751
212.225	606
212.292	1639
212.359	2065
212.427	3519
212.494	2153
212.561	1244
212.629	923
212.696	532
212.763	1087
212.831	328
212.898	1521
212.965	773
213.032	1134
213.100	770
213.167	694
213.234	1887
213.301	1250
213.369	952
213.436	428
213.503	376
213.570	1100
213.638	931
213.705	449
213.772	-191
213.839	182
213.906	1050
213.973	634
214.041	154
214.108	156
214.175	1562
214.242	853
214.309	1376
214.376	1285
214.444	1111
214.511	852
214.578	996
214.645	1469
214.712	946
214.779	782
214.846	19
214.913	1387
214.980	1649
215.048	766
215.115	1866
215.182	1121
215.249	1398
215.316	451
215.383	1920
215.450	1059
215.517	1205
215.584	1148
215.651	1143
215.718	1149
215.785	1047
215.852	129
215.919	2255
215.986	972
216.053	1110
216.120	692
216.187	713
216.254	1172
216.321	201
216.388	453
216.455	980
216.522	1339
216.589	1062
216.656	966
216.722	1349
216.789	1001
216.856	2474
216.923	1179
216.990	845
217.057	1062
217.124	1459
217.191	402
217.258	1856
217.324	1630
217.391	2045
217.458	1445
217.525	1378
217.592	1321
217.659	530
217.725	2016
217.792	784
217.859	1094
217.926	627
217.993	824
218.059	1620
218.126	224
218.193	639
218.260	917
218.327	995
218.393	850
218.460	689
218.527	-560
218.594	1085
218.660	107
218.727	1703
218.794	1027
218.860	1740
218.927	-123
218.994	469
219.061	242
219.127	784
219.194	1286
219.261	210
219.327	250
219.394	896
219.461	398
219.527	1025
219.594	595
219.661	314
219.727	43
219.794	1792
219.860	-227
219.927	2047
219.994	1693
220.060	2470
220.127	2964
220.193	1624
220.260	1168
220.326	1970
220.393	2452
220.460	3271
220.526	2442
220.593	1870
220.659	2951
220.726	2277
220.792	2934
220.859	3879
220.925	4328
220.992	5590
221.058	4107
221.125	3737
221.191	3970
221.258	1124
221.324	1449
221.391	1865
221.457	741
221.524	1214
221.590	1617
221.657	2326
221.723	644
221.789	1381
221.856	2052
221.922	1388
221.989	838
222.055	1389
222.121	-452
222.188	2262
222.254	822
222.321	1015
222.387	857
222.453	1409
222.520	-22
222.586	554
222.652	1274
222.719	250
222.785	620
222.851	274
222.918	1075
222.984	500
223.050	-546
223.116	-604
223.183	1252
223.249	669
223.315	-200
223.382	465
223.448	-135
223.514	704
223.580	1262
223.647	265
223.713	-205
223.779	770
223.845	233
223.911	1334
223.978	475
224.044	656
224.110	375
224.176	251
224.242	44
224.309	-229
224.375	119
224.441	-25
224.507	256
224.573	102
224.639	522
224.705	298
224.772	-198
224.838	50
224.904	1372
224.970	783
225.036	583
225.102	-519
225.168	931
225.234	1545
225.300	-452
225.366	514
225.432	873
225.499	714
225.565	703
225.631	353
225.697	668
225.763	1099
225.829	986
225.895	1662
225.961	1239
226.027	1468
226.093	1243
226.159	1905
226.225	2752
226.291	5635
226.357	8520
226.423	5080
226.489	2707
226.554	2050
226.620	1180
226.686	1959
226.752	3213
226.818	5920
226.884	9154
226.950	9449
227.016	4245
227.082	3327
227.148	1690
227.214	1605
227.279	907
227.345	1463
227.411	564
227.477	1941
227.543	3461
227.609	3155
227.674	3250
227.740	1063
227.806	1241
227.872	1089
227.938	788
228.003	1223
228.069	-6
228.135	415
228.201	375
228.267	939
228.332	993
228.398	-459
228.464	781
228.530	1062
228.595	611
228.661	161
228.727	318
228.792	1852
228.858	-109
228.924	-907
228.990	1322
229.055	-508
229.121	723
229.187	685
229.252	-504
229.318	434
229.384	263
229.449	273
229.515	-1457
229.581	468
229.646	2500
229.712	1468
229.777	1094
229.843	329
229.909	722
229.974	1616
230.040	1182
230.105	1181
230.171	314
230.236	2168
230.302	2168
230.368	1354
230.433	192
230.499	842
230.564	1904
230.630	-64
230.695	1316
230.761	1796
230.826	-1742
230.892	2242
230.957	553
231.023	590
231.088	649
231.154	518
231.219	266
231.284	228
231.350	1832
231.415	1
231.481	1301
231.546	280
231.612	814
231.677	599
231.742	-425
231.808	2055
231.873	-152
231.939	-423
232.004	1596
232.069	2249
232.135	378
232.200	225
232.265	432
232.331	-163
232.396	607
232.461	517
232.527	121
232.592	-188
232.657	570
232.723	906
232.788	652
232.853	1200
232.918	963
232.984	319
233.049	-265
233.114	-357
233.179	1287
233.245	2012
233.310	1105
233.375	327
233.440	1037
233.506	-192
233.571	-227
233.636	616
233.701	69
233.766	990
233.832	416
233.897	426
233.962	-676
234.027	1696
234.092	121
234.157	1006
234.222	944
234.288	1021
234.353	1849
234.418	2546
234.483	1359
234.548	905
234.613	346
234.678	1448
234.743	142
234.808	2989
234.873	405
234.938	1822
235.004	36
235.069	1468
235.134	449
235.199	1518
235.264	1154
235.329	-442
235.394	1192
235.459	1437
235.524	-259
235.589	1655
235.654	384
235.719	-227
235.784	1261
235.849	1427
235.913	568
235.978	1425
236.043	1290
236.108	902
236.173	209
236.238	1282
236.303	263
236.368	529
236.433	1047
236.498	1954
236.563	1685
236.627	4623
236.692	13348
236.757	12144
236.822	4576
236.887	3342
236.952	2701
237.017	1110
237.081	3295
237.146	2929
237.211	7302
237.276	12082
237.341	19329
237.405	10197
237.470	4947
237.535	3511
237.600	2302
237.664	2313
237.729	1235
237.794	1527
237.859	4921
237.923	3550
237.988	602
238.053	2321
238.118	1388
238.182	2898
238.247	4079
238.312	621
238.376	1877
238.441	-51
238.506	1533
238.570	25
238.635	1934
238.700	1080
238.764	390
238.829	1896
238.893	1087
238.958	1785
239.023	1607
239.087	311
239.152	1244
239.216	484
239.281	1366
239.346	1348
239.410	229
239.475	619
239.539	3096
239.604	1595
239.668	1916
239.733	2416
239.797	4121
239.862	8129
239.926	7444
239.991	3637
240.055	1751
240.120	1212
240.184	1761
240.249	697
240.313	679
240.378	1114
240.442	1711
240.507	2895
240.571	1473
240.635	952
240.700	1629
240.764	1289
240.829	1573
240.893	-474
240.957	1068
241.022	1869
241.086	3433
241.151	1495
241.215	462
241.279	2152
241.344	596
241.408	1547
241.472	-316
241.537	3135
241.601	1524
241.665	451
241.730	43
241.794	2128
241.858	840
241.922	1541
241.987	263
242.051	1256
242.115	-176
242.179	1423
242.244	181
242.308	2166
242.372	843
242.436	1025
242.501	755
242.565	746
242.629	-47
242.693	2190
242.757	437
242.822	974
242.886	1046
242.950	1764
243.014	-207
243.078	1162
243.142	684
243.206	115
243.271	1289
243.335	825
243.399	1529
243.463	4771
243.527	14787
243.591	4863
243.655	2073
243.719	731
243.783	1664
243.847	2017
243.911	3013
243.975	2772
244.040	128
244.104	2520
244.168	1269
244.232	1038
244.296	1166
244.360	2954
244.424	477
244.488	1457
244.552	1060
244.615	-101
244.679	799
244.743	694
244.807	-138
244.871	1175
244.935	1194
244.999	-415
245.063	682
245.127	2007
245.191	1307
245.255	1391
245.319	1108
245.383	307
245.446	1825
245.510	582
245.574	765
245.638	1673
245.702	98
245.766	2808
245.829	2513
245.893	504
245.957	440
246.021	2131
246.085	758
246.149	167
246.212	3051
246.276	3105
246.340	1136
246.404	1846
246.467	1939
246.531	750
246.595	1900
246.659	2294
246.722	609
246.786	975
246.850	1558
246.913	2273
246.977	-258
247.041	1537
247.104	340
247.168	1084
247.232	2662
247.295	4967
247.359	2620
247.423	1039
247.486	2228
247.550	3214
247.614	84
247.677	1614
247.741	303
247.804	870
247.868	1560
247.932	1497
247.995	5168
248.059	2048
248.122	327
248.186	2282
248.249	1940
248.313	6995
248.376	7955
248.440	4870
248.503	593
248.567	3079
248.630	1377
248.694	3238
248.757	5126
248.821	8900
248.884	5763
248.948	4255
249.011	5727
249.075	10061
249.138	9253
249.202	3611
249.265	2998
249.328	3051
249.392	1346
249.455	2851
249.519	1926
249.582	2695
249.645	3508
249.709	2795
249.772	669
249.835	1821
249.899	2294
249.962	2301
250.025	1405
250.089	3066
250.152	4969
250.215	2210
250.279	1901
250.342	2168
250.405	957
250.468	1713
250.532	2942
250.595	4239
250.658	11417
250.721	24321
250.785	8631
250.848	5680
250.911	2189
250.974	3386
251.038	2373
251.101	5810
251.164	3072
251.227	3882
251.290	3673
251.354	5647
251.417	17794
251.480	20209
251.543	13952
251.606	33312
251.669	28599
251.732	11380
251.795	9613
251.859	9459
251.922	21568
251.985	15183
252.048	6948
252.111	4042
252.174	2418
252.237	5584
252.300	9624
252.363	12976
252.426	27775
252.489	12352
252.552	6168
252.615	3502
252.678	4533
252.741	8890
252.804	11526
252.867	29161
252.930	16361
252.993	8023
253.056	5984
253.119	4279
253.182	2369
253.245	4917
253.308	4986
253.371	2503
253.434	2913
253.497	2811
253.559	5043
253.622	3293
253.685	4154
253.748	4991
253.811	2341
253.874	3497
253.937	2172
254.000	2760
254.062	3475
254.125	5025
254.188	5782
254.251	5531
254.314	2067
254.376	4000
254.439	5027
254.502	3339
254.565	2960
254.628	6982
254.690	3447
254.753	2203
254.816	1156
254.878	2166
254.941	3336
255.004	4125
255.067	1759
255.129	2037
255.192	754
255.255	-252
255.317	1525
255.380	1866
255.443	916
255.505	850
255.568	-114
255.631	501
255.693	1486
255.756	1503
255.819	1550
255.881	775
255.944	1132
256.006	1106
256.069	8
256.132	468
256.194	350
256.257	2542
256.319	1743
256.382	1880
256.444	2267
256.507	1568
256.569	1241
256.632	1576
256.694	1704
256.757	8905
256.819	26726
256.882	10846
256.944	5366
257.007	3176
257.069	2324
257.132	2190
257.194	2519
257.257	1430
257.319	1159
257.381	2397
257.444	6647
257.506	26379
257.569	31228
257.631	11339
257.693	5919
257.756	2813
257.818	1779
257.880	1524
257.943	1943
258.005	1236
258.067	1178
258.130	2005
258.192	1616
258.254	2181
258.317	1363
258.379	2415
258.441	2082
258.503	2985
258.566	2297
258.628	4727
258.690	501
258.753	1673
258.815	2845
258.877	1381
258.939	529
259.001	2065
259.064	1448
259.126	256
259.188	1392
259.250	1980
259.312	852
259.375	1992
259.437	760
259.499	771
259.561	466
259.623	1156
259.685	896
259.747	1178
259.809	3313
259.872	5551
259.934	8324
259.996	10608
260.058	4032
260.120	457
260.182	1410
260.244	1735
260.306	208
260.368	1311
260.430	519
260.492	2524
260.554	5103
260.616	2133
260.678	4048
260.740	6239
260.802	932
260.864	2220
260.926	430
260.988	2127
261.050	1027
261.112	3809
261.174	9169
261.236	5442
261.298	2150
261.359	2076
261.421	4435
261.483	556
261.545	1362
261.607	70
261.669	853
261.731	1972
261.793	3914
261.854	1837
261.916	2130
261.978	1899
262.040	2320
262.102	1405
262.164	761
262.225	1233
262.287	863
262.349	2084
262.411	2863
262.472	1792
262.534	1192
262.596	3550
262.658	1861
262.719	402
262.781	1535
262.843	2495
262.904	2436
262.966	1832
263.028	1915
263.090	6539
263.151	21166
263.213	8727
263.275	3636
263.336	1838
263.398	1553
263.459	1062
263.521	564
263.583	3738
263.644	2498
263.706	1334
263.767	-8
263.829	364
263.891	1074
263.952	330
264.014	519
264.075	1767
264.137	5681
264.198	3129
264.260	-58
264.321	762
264.383	1416
264.444	9230
264.506	3152
264.567	1783
264.629	3235
264.690	7107
264.752	2622
264.813	1607
264.875	396
264.936	2410
264.998	804
265.059	931
265.120	1366
265.182	1585
265.243	12956
265.305	16303
265.366	4497
265.427	2110
265.489	2199
265.550	721
265.611	1099
265.673	984
265.734	1241
265.795	1123
265.857	728
265.918	1326
265.979	3427
266.040	21468
266.102	20697
266.163	5865
266.224	3449
266.286	1999
266.347	641
266.408	1074
266.469	1604
266.530	932
266.592	669
266.653	2286
266.714	3372
266.775	1573
266.836	1112
266.898	-51
266.959	1169
267.020	2102
267.081	1794
267.142	1817
267.203	148
267.264	-2
267.326	1478
267.387	527
267.448	483
267.509	983
267.570	1155
267.631	-119
267.692	-412
267.753	1440
267.814	-237
267.875	1644
267.936	4035
267.997	1985
268.058	2026
268.119	681
268.180	436
268.241	252
268.302	996
268.363	513
268.424	93
268.485	1591
268.546	98
268.607	385
268.668	-65
268.729	-298
268.790	677
268.851	970
268.912	1952
268.972	3129
269.033	1253
269.094	-34
269.155	954
269.216	773
269.277	715
269.338	629
269.398	1296
269.459	665
269.520	579
269.581	1497
269.642	2213
269.702	730
269.763	1051
269.824	620
269.885	523
269.945	2649
270.006	280
270.067	1053
270.128	80
270.188	174
270.249	-154
270.310	137
270.370	857
270.431	-9
270.492	827
270.553	1005
270.613	1085
270.674	3336
270.734	1023
270.795	1297
270.856	1508
270.916	1684
270.977	502
271.038	1100
271.098	1360
271.159	1056
271.219	1961
271.280	1641
271.340	252
271.401	519
271.462	1611
271.522	1633
271.583	983
271.643	1076
271.704	61
271.764	1262
271.825	2452
271.885	9207
271.946	10656
272.006	4192
272.066	5050
272.127	9469
272.187	5946
272.248	3078
272.308	1637
272.369	6357
272.429	3726
272.489	2259
272.550	2959
272.610	3874
272.671	2170
272.731	1933
272.791	3036
272.852	1804
272.912	2278
272.972	1406
273.033	1258
273.093	1870
273.153	2582
273.214	2299
273.274	1234
273.334	5735
273.394	10369
273.455	4766
273.515	3924
273.575	9711
273.635	5086
273.696	4344
273.756	7962
273.816	4503
273.876	3104
273.936	4399
273.997	6963
274.057	2535
274.117	2114
274.177	2779
274.237	11051
274.297	9951
274.358	5764
274.418	6695
274.478	6284
274.538	1936
274.598	1362
274.658	4806
274.718	5124
274.778	3707
274.838	1001
274.898	2575
274.958	7036
275.018	7263
275.078	6063
275.138	2092
275.198	1142
275.258	1348
275.318	1586
275.378	3590
275.438	2773
275.498	2255
275.558	2818
275.618	8002
275.678	5797
275.738	4769
275.798	3175
275.858	2307
275.918	1371
275.978	1477
276.038	1498
276.098	1596
276.157	1761
276.217	7194
276.277	3541
276.337	2921
276.397	1554
276.457	2087
276.517	1667
276.576	1762
276.636	1026
276.696	1731
276.756	4555
276.815	3464
276.875	1558
276.935	1956
276.995	1630
277.055	1542
277.114	2589
277.174	2095
277.234	5552
277.293	2505
277.353	1543
277.413	1794
277.472	2092
277.532	1863
277.592	2471
277.651	7601
277.711	18060
277.771	6397
277.830	17340
277.890	16723
277.950	9689
278.009	28687
278.069	13335
278.128	12523
278.188	18517
278.248	8800
278.307	19528
278.367	13747
278.426	3717
278.486	2328
278.545	1732
278.605	1853
278.664	1624
278.724	1637
278.783	4001
278.843	11189
278.902	4395
278.962	2242
279.021	2837
279.081	4215
279.140	4103
279.199	3362
279.259	3698
279.318	4670
279.378	5920
279.437	7853
279.496	19726
279.556	70936
279.615	65549
279.675	18863
279.734	10091
279.793	10791
279.853	13045
279.912	6465
279.971	5434
280.031	4988
280.090	5796
280.149	9784
280.208	11680
280.268	49398
280.327	59010
280.386	15265
280.445	8535
280.505	8278
280.564	3969
280.623	3640
280.682	4304
280.742	7006
280.801	2380
280.860	2247
280.919	1364
280.978	2212
281.037	1923
281.097	2081
281.156	2326
281.215	1423
281.274	993
281.333	6992
281.392	5315
281.451	2237
281.510	1584
281.569	1823
281.628	1012
281.688	2240
281.747	2609
281.806	1817
281.865	2192
281.924	350
281.983	1512
282.042	966
282.101	972
282.160	2532
282.219	914
282.278	719
282.337	4384
282.396	3434
282.454	1930
282.513	2039
282.572	5396
282.631	4655
282.690	676
282.749	1553
282.808	1674
282.867	1987
282.926	2051
282.985	1219
283.043	1848
283.102	1672
283.161	2042
283.220	3786
283.279	7485
283.338	3133
283.396	2018
283.455	2101
283.514	2298
283.573	3480
283.631	2284
283.690	2387
283.749	2253
283.808	3318
283.866	4470
283.925	1728
283.984	2669
284.043	3060
284.101	2851
284.160	2458
284.219	3872
284.277	3432
284.336	4387
284.395	9706
284.453	10737
284.512	6281
284.570	7347
284.629	8234
284.688	7996
284.746	9757
284.805	11905
284.863	15255
284.922	18917
284.981	22854
285.039	31233
285.098	42959
285.156	54369
285.215	45036
285.273	40459
285.332	54933
285.390	49009
285.449	36024
285.507	26734
285.566	20178
285.624	15667
285.683	14315
285.741	11115
285.799	9865
285.858	7979
285.916	7580
285.975	5863
286.033	5037
286.091	4741
286.150	4058
286.208	4426
286.267	4214
286.325	4108
286.383	4361
286.442	4123
286.500	3476
286.558	2734
286.616	2759
286.675	2875
286.733	3392
286.791	2209
286.850	2562
286.908	2719
286.966	4688
287.024	2729
287.083	2265
287.141	2580
287.199	2374
287.257	3044
287.315	2441
287.374	2231
287.432	4838
287.490	4813
287.548	1958
287.606	2094
287.664	2564
287.723	2069
287.781	3989
287.839	2237
287.897	2879
287.955	2801
288.013	4207
288.071	8522
288.129	29006
288.187	86345
288.245	46728
288.303	14713
288.361	8433
288.419	5066
288.477	3920
288.535	3197
288.593	3004
288.651	1989
288.709	2337
288.767	2524
288.825	1752
288.883	804
288.941	1874
288.999	1181
289.057	1262
289.115	381
289.173	2231
289.231	1014
289.289	1555
289.346	1271
289.404	1970
289.462	2486
289.520	3407
289.578	1927
289.636	1561
289.694	1486
289.751	1074
289.809	1216
289.867	1363
289.925	1751
289.983	2317
290.040	1728
290.098	308
290.156	645
290.214	1581
290.271	449
290.329	1711
290.387	2189
290.444	1387
290.502	440
290.560	1437
290.617	1172
290.675	1329
290.733	1555
290.790	1817
290.848	951
290.906	426
290.963	1839
291.021	1224
291.078	531
291.136	1394
291.194	3791
291.251	9092
291.309	2753
291.366	1486
291.424	1124
291.481	478
291.539	1477
291.596	1963
291.654	564
291.711	1093
291.769	613
291.826	1801
291.884	1515
291.941	948
291.999	1062
292.056	2040
292.114	1300
292.171	926
292.228	1648
292.286	2426
292.343	1835
292.401	2560
292.458	1787
292.515	2062
292.573	1883
292.630	2342
292.687	1848
292.745	978
292.802	1631
292.859	5876
292.917	8282
292.974	5221
293.031	2256
293.089	1524
293.146	1160
293.203	1586
293.260	581
293.318	1702
293.375	2820
293.432	1893
293.489	1328
293.546	1315
293.604	1917
293.661	4733
293.718	11615
293.775	7732
293.832	4161
293.889	4044
293.947	3042
294.004	2460
294.061	1541
294.118	3751
294.175	9006
294.232	16043
294.289	7776
294.346	3775
294.403	4271
294.460	2081
294.517	1689
294.574	1747
294.631	1890
294.688	2353
294.745	3430
294.802	13076
294.859	20036
294.916	7970
294.973	2692
295.030	2552
295.087	2676
295.144	1884
295.201	1570
295.258	1848
295.315	2367
295.372	4282
295.429	9158
295.486	4995
295.542	2367
295.599	8690
295.656	17114
295.713	9730
295.770	8974
295.827	5043
295.883	2747
295.940	3037
295.997	2413
296.054	3913
296.111	2075
296.167	1771
296.224	766
296.281	1159
296.338	1432
296.394	1473
296.451	1688
296.508	3535
296.564	7797
296.621	5793
296.678	9086
296.734	15051
296.791	6153
296.848	3283
296.904	3165
296.961	6834
297.018	9938
297.074	8998
297.131	4095
297.187	2366
297.244	3324
297.301	8335
297.357	16656
297.414	7615
297.470	3129
297.527	2219
297.583	1233
297.640	2242
297.696	1229
297.753	1926
297.809	960
297.866	1284
297.922	1113
297.979	539
298.035	1422
298.092	1998
298.148	5684
298.204	6212
298.261	2597
298.317	5656
298.374	12537
298.430	7469
298.486	3250
298.543	2615
298.599	1908
298.656	2926
298.712	4436
298.768	11624
298.824	10146
298.881	3814
298.937	2208
298.993	2712
299.050	2004
299.106	2154
299.162	1327
299.218	2204
299.275	1300
299.331	2188
299.387	2823
299.443	10903
299.500	18567
299.556	13401
299.612	5281
299.668	3903
299.724	10232
299.780	14017
299.837	5813
299.893	4259
299.949	13403
300.005	20145
300.061	14108
300.117	23411
300.173	12400
300.229	5071
300.285	5146
300.341	6533
300.397	3813
300.453	2971
300.510	2348
300.566	2828
300.622	4423
300.678	18052
300.734	27207
300.790	15055
300.845	13974
300.901	13479
300.957	19879
301.013	12965
301.069	4902
301.125	3352
301.181	3106
301.237	2607
301.293	2187
301.349	2117
301.405	1271
301.461	2184
301.516	2657
301.572	2722
301.628	3080
301.684	3226
301.740	3975
301.796	6944
301.851	4978
301.907	8559
301.963	7775
302.019	9937
302.074	26606
302.130	28215
302.186	16318
302.242	6442
302.297	3999
302.353	4780
302.409	6205
302.464	6774
302.520	4037
302.576	10588
302.631	13304
302.687	8898
302.743	3894
302.798	2386
302.854	1820
302.910	2542
302.965	2643
303.021	4619
303.076	4818
303.132	5045
303.187	5715
303.243	3466
303.299	1353
303.354	2187
303.410	2343
303.465	1491
303.521	2762
303.576	1611
303.632	1821
303.687	3792
303.743	9499
303.798	8746
303.853	4882
303.909	3208
303.964	2126
304.020	3025
304.075	4352
304.130	4181
304.186	6085
304.241	8240
304.297	6394
304.352	3775
304.358	3634
304.407	2483
304.449	2719
304.463	2803
304.518	2091
304.539	2200
304.573	2352
304.629	2369
304.630	2398
304.684	3835
304.720	5843
304.739	6815
304.794	10828
304.811	9747
304.850	7076
304.902	3309
304.905	3070
304.960	2095
304.992	2474
305.015	2731
305.071	2623
305.083	2680
305.126	2863
305.173	1812
305.181	1655
305.236	1533
305.264	1556
305.292	1552
305.347	3039
305.354	3021
305.402	2929
305.445	2694
305.457	2605
305.512	2889
305.535	2892
305.567	2993
305.622	3167
305.626	3252
305.678	5547
305.716	10735
305.733	12438
305.788	14935
305.807	12719
305.843	9035
305.897	10526
305.898	10534
305.953	11285
305.988	8306
306.008	6684
306.063	3667
306.078	3464
306.118	3348
306.168	2934
306.173	2876
306.228	2014
306.259	1981
306.283	2004
306.338	2019
306.349	2094
306.393	2498
306.440	2908
306.448	2974
306.503	3319
306.530	3367
306.558	4000
306.613	6918
306.620	7317
306.668	9739
306.711	12422
306.723	12564
306.778	10262
306.801	8198
306.833	6075
306.888	3671
306.892	3537
306.943	2347
306.982	2520
306.997	2624
307.052	1725
307.072	2030
307.107	2955
307.162	3706
307.163	3722
307.217	5392
307.253	6021
307.272	6023
307.327	6371
307.343	5767
307.381	4711
307.434	4479
307.436	4599
307.491	8033
307.524	11785
307.546	12631
307.600	11700
307.614	10795
307.655	8060
307.704	5249
307.710	5181
307.765	5758
307.795	6503
307.819	7256
307.874	11815
307.885	11872
307.929	10515
307.975	9836
307.984	10340
308.038	14168
308.065	17104
308.093	28142
308.148	56518
308.156	62625
308.202	90575
308.246	109667
308.257	107027
308.312	63687
308.336	44930
308.366	33397
308.421	19976
308.426	18829
308.475	12402
308.517	9840
308.530	9455
308.585	8254
308.607	8106
308.639	8303
308.694	8331
308.697	8393
308.748	12397
308.787	16366
308.803	16374
308.857	14126
308.877	12934
308.912	12630
308.967	13324
308.967	13338
309.021	19113
309.058	24169
309.076	29588
309.130	48242
309.148	54996
309.185	85060
309.238	136001
309.239	136421
309.293	145670
309.328	140273
309.348	126061
309.402	73881
309.418	59739
309.457	44441
309.508	29627
309.511	29347
309.566	27978
309.598	28558
309.620	33013
309.674	47013
309.688	50858
309.729	49877
309.778	43420
309.783	42454
309.837	29536
309.868	22438
309.892	21869
309.946	22601
309.959	23184
310.001	25077
310.049	26820
310.055	26026
310.109	16793
310.139	11759
310.163	10093
310.218	7226
310.229	6758
310.272	6222
310.319	5596
310.326	5416
310.381	4468
310.409	3951
310.435	3914
310.489	3793
310.499	3799
310.543	3957
310.589	4010
310.598	4043
310.652	4533
310.679	4685
310.706	4443
310.760	3706
310.769	3623
310.814	3458
310.859	3089
310.868	3045
310.923	3061
310.948	3000
310.977	3199
311.031	3680
311.038	3731
311.085	3693
311.128	3713
311.139	3790
311.193	4004
311.218	4097
311.247	3760
311.301	3099
311.308	3016
311.356	3135
311.398	3251
311.410	3260
311.464	3343
311.488	3267
311.518	3175
311.572	3157
311.578	3147
311.626	3886
311.668	4532
311.680	4583
311.734	4730
311.758	4776
311.788	4821
311.842	4864
311.847	4862
311.896	5960
311.937	6852
311.950	6641
312.004	5675
312.027	5220
312.058	4639
312.112	3609
312.117	3504
312.165	3840
312.207	4126
312.297	5356
312.386	3821
312.476	4105
312.566	6143
312.656	3929
312.745	4492
312.835	3998
312.925	4775
313.015	3934
313.104	4231
313.194	4107
313.284	4589
313.374	4715
313.463	5119
313.553	3858
313.643	3980
313.732	4127
313.822	4083
313.912	5108
314.001	5367
314.091	6270
314.180	6639
314.270	6148
314.360	5974
314.449	4905
314.539	3758
314.628	4546
314.718	5762
314.808	6005
314.897	5387
314.987	6038
315.076	5896
315.166	6546
315.255	7232
315.345	6292
315.434	5963
315.524	5341
315.613	6432
315.703	7288
315.792	14152
315.881	40428
315.971	14479
316.060	8455
316.150	10326
316.239	9911
316.328	5313
316.418	5232
316.507	4567
316.597	6524
316.686	5972
316.775	7317
316.865	10876
316.954	4932
317.043	4624
317.133	4573
317.222	4067
317.311	3948
317.400	3172
317.490	4895
317.579	5667
317.668	5249
317.757	7814
317.847	22754
317.936	66330
318.025	22337
318.114	15793
318.203	9266
318.293	8829
318.382	16464
318.471	13321
318.560	19213
318.649	35343
318.738	8134
318.828	5837
318.917	6198
319.006	7054
319.095	14781
319.184	42732
319.273	18534
319.362	7924
319.451	4422
319.540	5020
319.629	7681
319.718	10230
319.807	6617
319.896	15642
319.985	49829
320.074	15268
320.163	5508
320.252	7515
320.341	8059
320.430	7694
320.519	6826
320.608	6060
320.697	6075
320.786	5875
320.875	7413
320.964	8749
321.053	10162
321.142	13313
321.230	13550
321.319	14198
321.408	22382
321.497	13199
321.586	11605
321.675	14065
321.764	13809
321.852	11040
321.941	13887
322.030	11198
322.119	13158
322.207	22325
322.296	19575
322.385	14263
322.474	15189
322.562	27314
322.651	15627
322.740	12118
322.829	13189
322.917	14009
323.006	10457
323.095	9187
323.183	7551
323.272	10027
323.361	15833
323.449	35400
323.538	12199
323.626	25168
323.715	15062
323.804	8678
323.892	22920
323.981	11622
324.069	6082
324.158	13655
324.246	11579
324.335	6780
324.424	7872
324.512	5098
324.601	6506
324.689	12036
324.778	17317
324.866	10041
324.954	5057
325.043	4739
325.131	6948
325.220	10939
325.308	10212
325.397	9146
325.485	5934
325.574	4352
325.662	3452
325.750	4038
325.839	4004
325.927	3925
326.015	4342
326.104	5854
326.192	7183
326.280	4313
326.369	4311
326.457	4748
326.545	7052
326.634	3457
326.722	3259
326.810	4138
326.898	5039
326.987	6299
327.075	6889
327.163	7501
327.251	4725
327.340	9769
327.428	11891
327.516	5627
327.604	4852
327.692	5057
327.781	4474
327.869	5740
327.957	5082
328.045	4939
328.133	4050
328.221	3244
328.309	3185
328.397	4624
328.485	5439
328.574	7153
328.662	15117
328.750	8913
328.838	5010
328.926	4019
329.014	4237
329.102	5277
329.190	10822
329.278	7037
329.366	4868
329.454	2865
329.542	3407
329.630	2923
329.718	3581
329.806	4003
329.893	4461
329.981	3534
330.069	4304
330.157	6657
330.245	12472
330.333	7255
330.421	3445
330.509	5619
330.597	14079
330.684	9387
330.772	5627
330.860	7663
330.948	10346
331.036	5568
331.123	3943
331.211	4299
331.299	4819
331.387	9438
331.475	13754
331.562	5446
331.650	4498
331.738	4257
331.825	5834
331.913	4238
332.001	3845
332.089	4955
332.176	7164
332.264	13240
332.352	10616
332.439	5524
332.527	4484
332.614	3875
332.702	5028
332.790	4443
332.877	8541
332.965	14934
333.052	8470
333.140	9274
333.228	20411
333.315	7710
333.403	5519
333.490	9972
333.578	12098
333.665	28966
333.753	12728
333.840	5831
333.928	6936
334.015	11320
334.103	19704
334.190	51498
334.278	17401
334.365	13697
334.452	12316
334.540	10112
334.627	11200
334.715	13908
334.802	21572
334.889	59669
334.977	57325
335.064	20048
335.151	11663
335.239	10109
335.326	10297
335.413	32876
335.501	36812
335.588	10678
335.675	9804
335.762	13174
335.850	18072
335.937	19997
336.024	37861
336.111	77479
336.199	43827
336.286	19364
336.373	12456
336.460	7690
336.547	6703
336.635	6707
336.722	6026
336.809	5604
336.896	6865
336.983	18655
337.070	40380
337.157	51599
337.245	31187
337.332	19418
337.419	5827
337.506	5474
337.593	5442
337.680	16341
337.767	39964
337.854	12172
337.941	12507
338.028	11590
338.115	5632
338.202	8662
338.289	11231
338.376	27322
338.463	11089
338.550	26106
338.637	23348
338.724	8348
338.811	10186
338.898	4252
338.984	4578
339.071	4907
339.158	4478
339.245	9201
339.332	6560
339.419	7400
339.506	7292
339.593	3283
339.679	3964
339.766	3521
339.853	5682
339.940	6679
340.027	4316
340.113	4416
340.200	4747
340.287	3829
340.374	4637
340.460	6292
340.547	3220
340.634	5324
340.720	14882
340.807	8205
340.894	4376
340.980	3564
341.067	3926
341.154	4338
341.240	5135
341.327	8741
341.414	5641
341.500	4904
341.587	4242
341.674	4030
341.760	6347
341.847	6644
341.933	3327
342.020	2611
342.106	3080
342.193	4342
342.279	5531
342.366	4688
342.452	6077
342.539	3838
342.625	7378
342.712	14010
342.798	6848
342.885	4117
342.971	2395
343.058	3231
343.144	2865
343.230	3292
343.317	4123
343.403	3354
343.490	2741
343.576	2100
343.662	3437
343.749	2969
343.835	4109
343.921	6983
344.008	31468
344.094	55782
344.180	12830
344.267	8045
344.353	20077
344.439	18376
344.525	9660
344.612	14084
344.698	14738
344.784	8326
344.870	5309
344.957	3254
345.043	4452
345.129	3542
345.215	6060
345.301	3902
345.387	3443
345.474	2738
345.560	3079
345.646	3457
345.732	3703
345.818	3917
345.904	3085
345.990	3672
346.076	3271
346.162	5168
346.249	4693
346.335	2985
346.421	4161
346.507	9260
346.593	24602
346.679	6099
346.765	5371
346.851	5675
346.937	4826
347.023	4884
347.108	3444
347.194	3921
347.280	3781
347.366	5913
347.452	15387
347.538	35111
347.624	25171
347.710	16969
347.796	5174
347.882	4528
347.967	4902
348.053	5136
348.139	4279
348.225	3545
348.311	3661
348.397	3580
348.482	5113
348.568	4435
348.654	5553
348.740	11624
348.825	13089
348.911	9624
348.997	17639
349.083	26502
349.168	6369
349.254	3722
349.340	4606
349.425	3365
349.511	4652
349.597	4601
349.682	7265
349.768	18732
349.854	8639
349.939	3947
350.025	3935
350.110	4156
350.196	3051
350.282	2608
350.367	3788
350.453	4563
350.538	4227
350.624	3894
350.709	4860
350.795	2532
350.880	2799
350.966	4462
351.051	4413
351.137	3610
351.222	3444
351.308	7885
351.393	15564
351.479	5180
351.564	3144
351.649	3903
351.735	3260
351.820	2683
351.906	3061
351.991	4972
352.076	11900
352.162	14580
352.247	4776
352.332	3813
352.418	5433
352.503	7197
352.588	22233
352.673	14900
352.759	4401
352.844	3441
352.929	3275
353.014	3448
353.100	4136
353.185	4505
353.270	5468
353.355	5899
353.441	3503
353.526	3942
353.611	5970
353.696	5628
353.781	6236
353.866	3007
353.952	4335
354.037	5960
354.122	10194
354.207	8672
354.292	5343
354.377	3546
354.462	3874
354.547	3054
354.632	4758
354.717	5395
354.802	4663
354.887	3088
354.972	3847
355.057	3967
355.142	3620
355.227	4274
355.312	5230
355.397	8715
355.482	15963
355.567	8382
355.652	8694
355.737	9078
355.822	22807
355.907	17217
355.991	5787
356.076	4126
356.161	4265
356.246	4699
356.331	4026
356.416	7826
356.501	36700
356.585	32274
356.670	7533
356.755	7655
356.840	7846
356.924	25623
357.009	71502
357.094	26558
357.179	8781
357.263	7114
357.348	7853
357.433	8461
357.517	8251
357.602	7386
357.687	6559
357.771	9180
357.856	21713
357.941	14210
358.025	23506
358.110	73239
358.195	32970
358.279	9586
358.364	8185
358.448	18161
358.533	38235
358.617	27722
358.702	28646
358.787	12605
358.871	8865
358.956	7151
359.040	5220
359.125	4931
359.209	5345
359.294	12459
359.378	18471
359.462	7578
359.547	5132
359.631	4096
359.716	3517
359.800	3900
359.885	6640
359.969	3257
360.053	4542
360.138	3913
360.222	4642
360.306	6376
360.391	5917
360.475	11352
360.559	18947
360.644	14887
360.728	10009
360.812	22320
360.896	48589
360.981	21399
361.065	11876
361.149	5242
361.233	5186
361.318	4324
361.402	5083
361.486	4808
361.570	4121
361.654	5341
361.739	9720
361.823	35689
361.907	47154
361.991	11390
362.075	9739
362.159	14725
362.243	20938
362.327	37557
362.411	46463
362.495	20987
362.580	12055
362.664	11200
362.748	12324
362.832	18105
362.916	37142
363.000	97508
363.084	134553
363.168	85103
363.252	24025
363.336	13779
363.420	15787
363.503	42427
363.587	44368
363.671	11293
363.755	9077
363.839	12209
363.923	9548
364.007	14576
364.091	19172
364.175	33557
364.258	97478
364.342	131332
364.426	181240
364.510	89444
364.594	33999
364.677	24563
364.761	50338
364.845	31771
364.929	13398
365.013	10058
365.096	10169
365.180	9883
365.264	20274
365.347	61383
365.431	25937
365.515	7931
365.598	4736
365.682	6180
365.766	8813
365.849	10918
365.933	5741
366.017	8558
366.100	6780
366.184	4969
366.267	6017
366.351	5055
366.435	3523
366.518	3866
366.602	3940
366.685	4483
366.769	4675
366.852	8361
366.936	10236
367.019	6454
367.103	6410
367.186	12087
367.270	5450
367.353	3728
367.436	4743
367.520	4296
367.603	4826
367.687	4921
367.770	7809
367.853	6850
367.937	16540
368.020	23207
368.104	5449
368.187	6798
368.270	8480
368.353	7228
368.437	9597
368.520	19341
368.603	12715
368.687	17428
368.770	27769
368.853	7888
368.936	9763
369.020	9626
369.103	4782
369.186	3945
369.269	3542
369.352	6351
369.436	7382
369.519	5157
369.602	2667
369.685	6333
369.768	3387
369.851	5093
369.934	3679
370.018	3809
370.101	5763
370.184	8170
370.267	6403
370.350	8348
370.433	11313
370.516	28068
370.599	38498
370.682	13402
370.765	17795
370.848	22040
370.931	36004
371.014	15413
371.097	4438
371.180	5742
371.263	4243
371.346	3138
371.429	5230
371.511	4682
371.594	6714
371.677	9351
371.760	13354
371.843	10543
371.926	34076
372.009	61598
372.091	24900
372.174	18840
372.257	36721
372.340	16626
372.423	15990
372.505	19110
372.588	8975
372.671	16163
372.754	34856
372.836	18525
372.919	22098
373.002	36539
373.085	12088
373.167	10489
373.250	18898
373.332	34528
373.415	47090
373.498	80382
373.580	32418
373.663	58434
373.746	62245
373.828	14419
373.911	10039
373.993	10225
374.076	36615
374.159	30389
374.241	14438
374.324	29834
374.406	20489
374.489	28822
374.571	68258
374.654	27089
374.736	16993
374.819	45588
374.901	63557
374.983	58472
375.066	12751
375.148	9085
375.231	32837
375.313	53669
375.395	19156
375.478	6437
375.560	6271
375.643	6314
375.725	18589
375.807	56319
375.890	41134
375.972	16907
376.054	11531
376.136	15030
376.219	9266
376.301	20391
376.383	46968
376.465	17667
376.548	11623
376.630	15989
376.712	41292
376.794	18016
376.877	4967
376.959	3321
377.041	4607
377.123	9687
377.205	10707
377.287	3083
377.369	4256
377.452	3907
377.534	3874
377.616	3695
377.698	4346
377.780	3029
377.862	3432
377.944	5165
378.026	2751
378.108	4047
378.190	3932
378.272	4006
378.354	3274
378.436	3542
378.518	5547
378.600	15344
378.682	13192
378.764	21906
378.846	15649
378.928	6159
379.010	7624
379.091	6543
379.173	4105
379.255	3079
379.337	4637
379.419	11692
379.501	30707
379.583	12140
379.664	5473
379.746	8778
379.828	22284
379.910	27280
379.991	22703
380.073	6370
380.155	4811
380.237	3929
380.318	4363
380.400	4879
380.482	7474
380.564	8598
380.645	7129
380.727	7008
380.809	7134
380.890	4643
380.972	4058
381.053	4802
381.135	6366
381.217	10072
381.298	22930
381.380	11634
381.461	13077
381.543	42794
381.624	46440
381.706	10914
381.787	8551
381.869	9493
381.951	24615
382.032	64923
382.113	41179
382.195	12089
382.276	12471
382.358	18376
382.439	40414
382.521	47081
382.602	66232
382.684	38135
382.765	70994
382.846	118721
382.928	206415
383.009	117377
383.090	102412
383.172	283019
383.253	344939
383.334	125927
383.416	82890
383.497	51140
383.578	45973
383.659	90852
383.741	258507
383.822	463345
383.903	243222
383.984	87379
384.066	85832
384.147	50802
384.228	20085
384.309	15829
384.390	12936
384.471	12204
384.553	12561
384.634	12782
384.715	12340
384.796	10006
384.877	11445
384.958	25915
385.039	25428
385.120	12698
385.201	9681
385.282	10696
385.363	13154
385.444	12417
385.525	17501
385.606	35235
385.687	27862
385.768	12307
385.849	14255
385.930	38003
386.011	53484
386.092	17578
386.173	9682
386.254	8700
386.335	8564
386.416	8297
386.496	17558
386.577	24056
386.658	11141
386.739	9330
386.820	10600
386.901	8966
386.981	9458
387.062	9039
387.143	11824
387.224	25739
387.304	23717
387.385	13006
387.466	10865
387.547	13611
387.627	10734
387.708	16702
387.789	41895
387.869	43988
387.950	16947
388.031	8757
388.111	7508
388.192	14928
388.273	19480
388.353	12871
388.434	6858
388.514	12281
388.595	36844
388.676	41280
388.756	20800
388.837	20464
388.917	13022
388.998	4450
389.078	6638
389.159	6029
389.239	4248
389.320	8385
389.400	5042
389.480	12760
389.561	24952
389.641	13827
389.722	7265
389.802	8959
389.883	13898
389.963	28676
390.043	17205
390.124	8240
390.204	10978
390.284	23978
390.365	16031
390.445	26723
390.525	53023
390.605	41125
390.686	12732
390.766	7961
390.846	6422
390.927	5064
391.007	4640
391.087	6686
391.167	6787
391.247	5657
391.328	8511
391.408	11050
391.488	9913
391.568	5686
391.648	6813
391.728	9226
391.808	9016
391.888	8997
391.969	18206
392.049	21932
392.129	14597
392.209	17584
392.289	30853
392.369	20497
392.449	20763
392.529	15761
392.609	15789
392.689	19831
392.769	36217
392.849	33187
392.929	37841
393.009	62464
393.089	64775
393.169	101158
393.248	257652
393.328	560356
393.408	540105
393.488	233532
393.568	90534
393.648	47909
393.728	30164
393.807	21685
393.887	20016
393.967	16545
394.047	15899
394.127	15903
394.206	22861
394.286	70841
394.366	236414
394.446	232631
394.525	64060
394.605	22043
394.685	17596
394.764	29094
394.844	48538
394.924	38096
395.003	14674
395.083	9380
395.163	8939
395.242	8021
395.322	8326
395.402	7735
395.481	11168
395.561	23568
395.640	56305
395.720	65550
395.799	64772
395.879	43366
395.958	33764
396.038	101319
396.117	297015
396.197	301139
396.276	108251
396.356	44232
396.435	35815
396.515	31789
396.594	40987
396.673	81619
396.753	242104
396.832	506083
396.912	366661
396.991	116272
397.070	44962
397.150	25539
397.229	22519
397.308	40121
397.388	69450
397.467	34409
397.546	13526
397.625	8610
397.705	9576
397.784	8654
397.863	6631
397.942	6138
398.022	7000
398.101	17826
398.180	42748
398.259	22315
398.338	8529
398.417	5627
398.497	6095
398.576	5457
398.655	3794
398.734	4685
398.813	5391
398.892	16471
398.971	45527
399.050	20668
399.129	3845
399.208	4471
399.287	4525
399.366	3013
399.445	3647
399.524	3205
399.603	2417
399.682	5883
399.761	13758
399.840	46564
399.919	34136
399.998	6550
400.077	2831
400.156	2394
400.235	5528
400.313	2915
400.392	3991
400.471	12529
400.550	16792
400.629	4982
400.708	4494
400.786	4056
400.865	11230
400.944	9909
401.023	7213
401.102	2827
401.180	3212
401.259	2389
401.338	3086
401.416	3661
401.495	2615
401.574	4146
401.652	2567
401.731	4005
401.810	2681
401.888	2411
401.967	1382
402.046	2403
402.124	4485
402.203	3674
402.281	4073
402.360	4228
402.438	13187
402.517	7979
402.596	4542
402.674	3432
402.753	2561
402.831	2688
402.910	4097
402.988	6657
403.066	15971
403.145	9658
403.223	7166
403.302	13595
403.380	11034
403.459	9627
403.537	5285
403.615	4005
403.694	2401
403.772	3863
403.850	3398
403.929	2281
404.007	2790
404.085	6260
404.164	4913
404.242	6727
404.320	26976
404.398	64182
404.477	57874
404.555	67261
404.633	57199
404.711	48767
404.789	29929
404.868	8144
404.946	3845
405.024	3425
405.102	3432
405.180	1942
405.258	778
405.336	3886
405.415	2106
405.493	5073
405.571	4037
405.649	1865
405.727	2125
405.805	4639
405.883	4218
405.961	3894
406.039	4492
406.117	2220
406.195	3833
406.273	13828
406.351	43203
406.429	25034
406.507	4950
406.585	2476
406.663	2690
406.740	2285
406.818	1904
406.896	1774
406.974	3243
407.052	4317
407.130	27236
407.208	33518
407.285	7377
407.363	2634
407.441	3006
407.519	2107
407.596	2753
407.674	6564
407.752	17461
407.830	17305
407.907	7055
407.985	2001
408.063	2513
408.141	2148
408.218	4490
408.296	2500
408.373	1572
408.451	2966
408.529	2934
408.606	2311
408.684	2714
408.762	2308
408.839	2478
408.917	2956
408.994	2790
409.072	3027
409.149	4578
409.227	8013
409.304	9799
409.382	11583
409.459	12232
409.537	16199
409.614	16253
409.692	12569
409.769	12506
409.846	16440
409.924	21197
410.001	15924
410.079	11814
410.156	10319
410.233	6910
410.311	5094
410.388	5170
410.465	5367
410.543	4551
410.620	5541
410.697	4542
410.775	4216
410.852	3590
410.929	4488
411.006	5918
411.083	3646
411.161	5433
411.238	7073
411.315	5016
411.392	2940
411.469	4953
411.547	4232
411.624	2034
411.701	2039
411.778	3220
411.855	4547
411.932	3106
412.009	1981
412.086	2985
412.163	2838
412.240	3217
412.317	3422
412.394	3571
412.471	2800
412.548	1983
412.625	1879
412.702	2816
412.779	4109
412.856	3093
412.933	1104
413.010	2184
413.087	3110
413.164	10762
413.241	11683
413.318	3832
413.395	3375
413.471	3350
413.548	1666
413.625	2809
413.702	2386
413.779	2382
413.855	2023
413.932	1090
414.009	382
414.086	1669
414.162	1932
414.239	3483
414.316	11167
414.393	20224
414.469	6411
414.546	1258
414.623	1459
414.699	1363
414.776	1894
414.853	1586
414.929	1468
415.006	1676
415.082	2224
415.159	2173
415.236	1453
415.312	2698
415.389	2637
415.465	2508
415.542	1831
415.618	704
415.695	3069
415.771	1782
415.848	1859
415.924	2141
416.000	1479
416.077	1600
416.153	185
416.230	209
416.306	1684
416.383	1422
416.459	1165
416.535	1447
416.612	696
416.688	1134
416.764	1919
416.841	1395
416.917	1956
416.993	2254
417.069	2725
417.146	2887
417.222	4040
417.298	2161
417.374	1078
417.451	1969
417.527	1058
417.603	1186
417.679	1548
417.755	1135
417.831	789
417.908	1044
417.984	993
418.060	727
418.136	3701
418.212	2535
418.288	1603
418.364	1713
418.440	1325
418.516	2181
418.592	4071
418.668	5595
418.744	5871
418.820	4955
418.896	1861
418.972	1296
419.048	1210
419.124	3787
419.200	1906
419.276	2034
419.352	926
419.428	2357
419.504	2088
419.579	1576
419.655	1367
419.731	1884
419.807	5180
419.883	6860
419.959	5075
420.034	3610
420.110	4713
420.186	14266
420.262	10483
420.337	4066
420.413	3771
420.489	2988
420.565	4079
420.640	3651
420.716	4008
420.792	3028
420.867	4669
420.943	3666
421.019	5346
421.094	4759
421.170	4705
421.245	4852
421.321	6175
421.397	6636
421.472	9265
421.548	15009
421.623	13082
421.699	10332
421.774	10312
421.850	10881
421.925	15200
422.001	17139
422.076	21418
422.152	25377
422.227	36438
422.302	50830
422.378	76097
422.453	132271
422.529	242753
422.604	335638
422.679	308525
422.755	321074
422.830	236052
422.905	132476
422.981	80859
423.056	54419
423.131	39510
423.207	29130
423.282	24255
423.357	20877
423.432	17212
423.508	15547
423.583	15049
423.658	13049
423.733	9980
423.808	10505
423.883	9816
423.959	10080
424.034	10041
424.109	9871
424.184	7122
424.259	5551
424.334	5229
424.409	4627
424.484	3817
424.559	3805
424.634	3644
424.709	4297
424.784	4231
424.859	3817
424.934	3683
425.009	11307
425.084	16563
425.159	5926
425.234	3841
425.309	2319
425.384	7358
425.459	9844
425.534	3942
425.609	2826
425.683	1875
425.758	1647
425.833	2153
425.908	3454
425.983	6725
426.058	13937
426.132	7125
426.207	2454
426.282	4650
426.357	2716
426.431	2327
426.506	1597
426.581	2123
426.655	2698
426.730	1751
426.805	1099
426.879	2533
426.954	1892
427.029	4555
427.103	16961
427.178	36298
427.253	14318
427.327	3712
427.402	5167
427.476	11228
427.551	4869
427.625	1925
427.700	2442
427.774	1308
427.849	2229
427.923	2056
427.998	2719
428.072	3624
428.147	10001
428.221	44336
428.296	118675
428.370	56847
428.444	9240
428.519	6420
428.593	10045
428.667	8965
428.742	12614
428.816	20019
428.890	80825
428.965	112210
429.039	29639
429.113	12443
429.188	5179
429.262	2963
429.336	4352
429.410	7906
429.485	5878
429.559	8659
429.633	7313
429.707	4366
429.781	16543
429.855	81970
429.930	103149
430.004	40143
430.078	48220
430.152	67706
430.226	155338
430.300	136186
430.374	27866
430.448	9765
430.522	18966
430.596	43259
430.670	38304
430.744	105493
430.818	111023
430.892	20161
430.966	4309
431.040	2542
431.114	1337
431.188	1032
431.262	1407
431.336	1589
431.410	5666
431.484	10418
431.557	6585
431.631	2809
431.705	5734
431.779	32546
431.853	110615
431.927	67055
432.000	9300
432.074	2896
432.148	2924
432.222	1912
432.295	877
432.369	926
432.443	2280
432.516	16958
432.590	36038
432.664	11836
432.737	1606
432.811	156
432.885	519
432.958	1363
433.032	64
433.106	556
433.179	282
433.253	1202
433.326	592
433.400	582
433.473	1096
433.547	266
433.620	596
433.694	1334
433.767	1777
433.841	653
433.914	275
433.988	1081
434.061	1614
434.134	746
434.208	548
434.281	871
434.355	86
434.428	1175
434.501	939
434.575	1136
434.648	750
434.721	546
434.795	147
434.868	365
434.941	458
435.014	927
435.088	1564
435.161	1839
435.234	3638
435.307	3889
435.381	3357
435.454	5236
435.527	6595
435.600	6921
435.673	6941
435.746	5814
435.819	4021
435.892	4134
435.966	2690
436.039	1660
436.112	2798
436.185	1005
436.258	389
436.331	350
436.404	383
436.477	354
436.550	488
436.623	623
436.696	327
436.769	950
436.842	243
436.915	456
436.987	1018
437.060	815
437.133	356
437.206	869
437.279	967
437.352	176
437.425	1012
437.498	1016
437.570	2502
437.643	1452
437.716	652
437.789	352
437.861	1977
437.934	4985
438.007	1486
438.080	366
438.152	906
438.225	3901
438.298	22961
438.370	51573
438.443	17142
438.516	4016
438.588	724
438.661	-189
438.734	332
438.806	1576
438.879	1054
438.951	1135
439.024	2591
439.096	180
439.169	604
439.241	265
439.314	-366
439.386	1195
439.459	2473
439.531	2554
439.604	1038
439.676	510
439.749	441
439.821	328
439.893	449
439.966	1188
440.038	711
440.110	1350
440.183	847
440.255	140
440.327	2294
440.400	9031
440.472	32723
440.544	17550
440.617	2565
440.689	3395
440.761	1987
440.833	4011
440.905	2672
440.978	-222
441.050	284
441.122	1017
441.194	223
441.266	760
441.338	797
441.411	2093
441.483	10489
441.555	12454
441.627	3093
441.699	3136
441.771	2561
441.843	906
441.915	706
441.987	519
442.059	1577
442.131	2839
442.203	3780
442.275	4195
442.347	7467
442.419	18185
442.491	88395
442.563	168174
442.635	62709
442.706	19314
442.778	10583
442.850	4303
442.922	3416
442.994	3499
443.066	5095
443.137	5582
443.209	6716
443.281	11754
443.353	27515
443.425	103198
443.496	273790
443.568	256549
443.640	96289
443.711	20538
443.783	9553
443.855	5485
443.926	4208
443.998	3624
444.070	3342
444.141	3406
444.213	3002
444.285	3564
444.356	2693
444.428	3071
444.499	1934
444.571	1157
444.642	2694
444.714	2323
444.785	2865
444.857	4604
444.928	9493
445.000	6915
445.071	9872
445.143	9809
445.214	12437
445.285	21909
445.357	60632
445.428	190525
445.500	317954
445.571	237278
445.642	140249
445.714	47151
445.785	22550
445.856	9307
445.928	6047
445.999	4820
446.070	3008
446.141	3029
446.213	3363
446.284	2272
446.355	2246
446.426	1051
446.497	1212
446.569	3175
446.640	3110
446.711	1199
446.782	1142
446.853	1212
446.924	1611
446.995	807
447.066	1707
447.138	2655
447.209	1174
447.280	32
447.351	178
447.422	427
447.493	1308
447.564	1215
447.635	1061
447.706	-55
447.777	109
447.847	253
447.918	259
447.989	783
448.060	1946
448.131	4168
448.202	2807
448.273	938
448.344	1311
448.414	705
448.485	344
448.556	-280
448.627	-11
448.698	787
448.768	485
448.839	-392
448.910	1367
448.981	1602
449.051	324
449.122	462
449.193	564
449.263	26
449.334	614
449.405	753
449.475	1448
449.546	2053
449.616	2791
449.687	2376
449.758	824
449.828	515
449.899	-341
449.969	-711
450.040	316
450.110	518
450.181	172
450.251	620
450.322	-21
450.392	592
450.463	1104
450.533	-26
450.604	292
450.674	212
450.744	224
450.815	107
450.885	864
450.955	1622
451.026	850
451.096	408
451.166	1232
451.237	3895
451.307	7837
451.377	2823
451.447	393
451.518	1522
451.588	673
451.658	580
451.728	1629
451.799	8529
451.869	7805
451.939	1437
452.009	400
452.079	150
452.149	534
452.219	2399
452.289	10950
452.360	5712
452.430	1692
452.500	2515
452.570	2807
452.640	8107
452.710	19066
452.780	22280
452.850	12205
452.920	6342
452.990	2636
453.060	2688
453.129	2008
453.199	1910
453.269	13097
453.339	21487
453.409	29925
453.479	35675
453.549	47825
453.619	48050
453.688	14085
453.758	2376
453.828	1784
453.898	-171
453.968	1105
454.037	874
454.087	164
454.107	-146
454.168	298
454.177	341
454.247	687
454.249	669
454.316	-371
454.330	-21
454.386	1179
454.411	2605
454.456	4695
454.492	5378
454.525	5981
454.574	2422
454.595	881
454.655	820
454.665	823
454.734	1651
454.736	1745
454.804	3271
454.817	4542
454.873	8855
454.898	8730
454.943	8277
454.979	4521
455.013	1271
455.060	1162
455.082	1349
455.141	2675
455.152	2811
455.221	8661
455.222	8807
455.291	12678
455.303	12635
455.360	11584
455.384	15114
455.430	20111
455.465	14959
455.499	10215
455.546	9392
455.569	8750
455.627	5141
455.638	4601
455.707	1720
455.708	1739
455.777	1381
455.789	1340
455.846	1054
455.869	971
455.916	803
455.950	1309
455.985	1729
456.031	1145
456.054	820
456.112	917
456.124	933
456.193	1272
456.193	1250
456.262	1654
456.274	1962
456.332	3193
456.355	2974
456.401	2323
456.436	1973
456.470	1579
456.516	1186
456.540	1109
456.597	1790
456.609	1834
456.678	1342
456.678	1321
456.747	1436
456.759	1390
456.817	1374
456.840	1676
456.886	2094
456.920	2048
456.955	2007
457.001	2186
457.024	2380
457.082	2551
457.093	2494
457.162	3515
457.163	3541
457.232	3234
457.243	3189
457.301	2656
457.324	2426
457.370	2415
457.405	2609
457.439	2730
457.485	2903
457.508	3109
457.566	4276
457.577	4610
457.646	6684
457.647	6738
457.715	13825
457.727	15650
457.784	27636
457.808	35696
457.853	44770
457.889	50906
457.922	49003
457.969	33328
457.991	33926
458.050	43682
458.060	45754
458.129	75844
458.130	76736
458.198	71647
458.211	64799
458.267	34872
458.292	23806
458.336	17176
458.372	16521
458.405	23245
458.453	35188
458.474	44509
458.533	79371
458.543	81789
458.611	119349
458.614	119908
458.680	69540
458.694	54978
458.749	25771
458.775	17750
458.818	11183
458.855	9203
458.887	8154
458.936	6265
458.955	5605
459.016	4976
459.024	5014
459.093	5347
459.097	5381
459.162	4886
459.177	4749
459.230	4670
459.257	4931
459.299	5190
459.338	4848
459.368	4456
459.418	4583
459.437	4614
459.499	4496
459.505	4463
459.574	4183
459.579	4154
459.643	3929
459.659	3961
459.711	4172
459.740	4117
459.780	4061
459.820	4659
459.849	5076
459.900	5262
459.917	5178
459.981	5254
459.986	5273
460.054	5414
460.061	5469
460.123	5933
460.141	5918
460.191	5726
460.222	5738
460.260	6314
460.302	7373
460.328	7285
460.382	6412
460.397	6340
460.462	6181
460.465	6267
460.534	8939
460.543	9215
460.602	21413
460.623	26440
460.671	39274
460.703	50960
460.739	45570
460.783	32791
460.808	26667
460.864	7679
460.876	6506
460.944	6018
460.945	5987
461.013	5226
461.024	5050
461.081	4634
461.104	4532
461.150	4644
461.184	4723
461.218	4631
461.264	4693
461.286	4625
461.345	4213
461.355	4232
461.423	4677
461.425	4676
461.491	4976
461.505	5201
461.559	8726
461.585	10176
461.628	14291
461.665	18784
461.696	20222
461.745	22961
461.764	20102
461.825	7025
461.832	6788
461.901	6038
461.905	6069
461.969	5749
461.985	5548
462.037	5763
462.065	5841
462.105	5781
462.145	6218
462.173	8411
462.225	12170
462.241	12920
462.305	16664
462.310	16248
462.378	8733
462.385	7781
462.446	5865
462.465	5586
462.514	5741
462.545	5831
462.582	5679
462.625	5361
462.650	5385
462.705	5716
462.718	5887
462.785	6522
462.786	6543
462.854	7591
462.865	7840
462.922	9287
462.945	9814
462.990	7893
463.025	6030
463.058	5641
463.104	5406
463.126	5320
463.184	5230
463.194	5340
463.262	5601
463.264	5623
463.330	5983
463.344	6016
463.398	6949
463.424	7262
463.466	6604
463.504	6354
463.533	6720
463.583	7004
463.601	6865
463.663	6540
463.669	6697
463.737	8381
463.743	8517
463.805	12247
463.823	13391
463.873	19480
463.903	23323
463.940	23563
463.982	23963
464.008	19552
464.062	8829
464.076	8442
464.142	6925
464.144	6905
464.211	6148
464.221	6081
464.279	6803
464.301	7001
464.347	7113
464.381	7180
464.414	7746
464.461	8677
464.482	8821
464.540	9217
464.550	9170
464.617	8306
464.620	8271
464.685	8490
464.699	8521
464.753	9547
464.779	10109
464.820	10658
464.859	11121
464.888	11101
464.938	10728
464.956	10897
465.018	11791
465.023	11695
465.091	10000
465.098	9810
465.158	9447
465.177	9384
465.226	9446
465.257	9333
465.293	9324
465.336	9371
465.361	9898
465.416	10930
465.428	11697
465.495	15928
465.496	16004
465.563	23496
465.575	24793
465.631	29071
465.654	30944
465.698	20455
465.734	11123
465.765	10257
465.813	9186
465.833	9148
465.893	9289
465.900	9287
465.968	8960
465.972	8924
466.035	8873
466.052	8844
466.102	8868
466.131	8858
466.170	8650
466.210	8358
466.237	8675
466.290	9248
466.304	9201
466.369	8903
466.372	8964
466.439	10234
466.449	10396
466.506	10426
466.528	10402
466.573	14256
466.607	17129
466.641	23732
466.687	32860
466.708	35446
466.766	42547
466.775	39404
466.842	14925
466.845	13738
466.909	10996
466.925	10340
466.977	10613
467.004	10767
467.044	11328
467.083	11853
467.111	12580
467.163	13867
467.178	14372
467.242	16327
467.245	16295
467.312	14953
467.321	14744
467.379	14735
467.400	14687
467.446	15766
467.480	16491
467.559	15676
467.638	13232
467.717	12846
467.796	15074
467.875	16111
467.955	16040
468.034	22835
468.113	44467
468.192	61424
468.271	24346
468.350	23755
468.429	28423
468.508	28483
468.588	21027
468.667	17791
468.746	17196
468.825	15231
468.904	14367
468.983	15037
469.062	20256
469.141	21863
469.220	12924
469.299	12414
469.378	13834
469.456	16554
469.535	14468
469.614	14156
469.693	14784
469.772	17848
469.851	23034
469.930	16415
470.009	13837
470.088	14547
470.166	18067
470.245	27134
470.324	31272
470.403	23697
470.482	17401
470.560	14169
470.639	14008
470.718	14404
470.797	12761
470.875	14243
470.954	18077
471.033	19523
471.111	11991
471.190	11263
471.269	10724
471.347	10651
471.426	12062
471.505	13767
471.583	14546
471.662	13588
471.740	11913
471.819	12742
471.898	12508
471.976	13218
472.055	11875
472.133	13303
472.212	15973
472.290	15870
472.369	11939
472.447	12156
472.526	11066
472.604	12266
472.683	11829
472.761	11569
472.839	11758
472.918	12415
472.996	11923
473.075	13703
473.153	13299
473.231	12116
473.310	12693
473.388	13203
473.466	12598
473.545	14185
473.623	15276
473.701	14492
473.780	13235
473.858	11830
473.936	13945
474.014	11698
474.093	13558
474.171	18118
474.249	22996
474.327	15402
474.405	11561
474.484	11870
474.562	11446
474.640	11455
474.718	12112
474.796	11008
474.874	11458
474.952	11440
475.030	10008
475.108	10257
475.187	11080
475.265	11413
475.343	12203
475.421	13703
475.499	11162
475.577	11831
475.655	14595
475.733	25452
475.811	38702
475.889	35054
475.966	23598
476.044	11081
476.122	11357
476.200	12457
476.278	11556
476.356	11023
476.434	11464
476.512	11531
476.590	14193
476.667	13259
476.745	10754
476.823	10876
476.901	11340
476.979	11978
477.056	11206
477.134	11612
477.212	12529
477.290	11903
477.367	10652
477.445	10409
477.523	9881
477.601	10902
477.678	10546
477.756	12418
477.834	13583
477.911	10434
477.989	10023
478.066	10383
478.144	11137
478.222	11010
478.299	12914
478.377	12448
478.454	10225
478.532	10766
478.609	11025
478.687	11281
478.764	10648
478.842	10315
478.919	10325
478.997	10980
479.074	10336
479.152	11561
479.229	13902
479.307	10985
479.384	9973
479.461	10076
479.539	10565
479.616	12737
479.694	10723
479.771	12291
479.848	11685
479.926	14212
480.003	15295
480.080	10862
480.157	9983
480.235	9785
480.312	10097
480.389	11203
480.467	15548
480.544	19435
480.621	13834
480.698	11761
480.775	13287
480.853	12615
480.930	10730
481.007	11118
481.084	12422
481.161	14051
481.238	13466
481.315	10807
481.392	10093
481.470	10023
481.547	10534
481.624	10576
481.701	11418
481.778	10986
481.855	12303
481.932	16095
482.009	24837
482.086	18171
482.163	13141
482.240	14007
482.317	16521
482.393	14532
482.470	13068
482.547	12328
482.624	11469
482.701	12082
482.778	11835
482.855	10324
482.932	11200
483.009	11948
483.085	13664
483.162	14576
483.239	15869
483.316	12876
483.393	14361
483.469	11919
483.546	14253
483.623	13568
483.699	11683
483.776	11771
483.853	12498
483.930	16655
484.006	34600
484.083	55224
484.160	31411
484.236	42734
484.313	34639
484.389	27517
484.466	26491
484.543	26170
484.619	28192
484.696	29486
484.772	28062
484.849	27219
484.925	23435
485.002	23511
485.078	23181
485.155	23365
485.231	21303
485.308	20676
485.384	20628
485.461	26183
485.537	36070
485.614	42289
485.690	21161
485.766	20679
485.843	20952
485.919	24765
485.995	24413
486.072	19667
486.148	18973
486.224	17866
486.301	19777
486.377	22014
486.453	22040
486.530	21624
486.606	28145
486.682	30302
486.758	33602
486.835	37541
486.911	30834
486.987	45956
487.063	42345
487.139	46033
487.215	38272
487.292	29188
487.368	28398
487.444	33448
487.520	40661
487.596	50807
487.672	104828
487.748	287666
487.824	439274
487.900	170978
487.976	57918
488.052	37176
488.128	33410
488.204	26396
488.280	23765
488.356	26777
488.432	43716
488.508	60115
488.584	24038
488.660	18925
488.736	19544
488.812	18636
488.888	23346
488.964	26270
489.039	40541
489.115	55733
489.191	35281
489.267	20382
489.343	18308
489.418	17070
489.494	17305
489.570	15301
489.646	18686
489.722	17259
489.797	16932
489.873	24971
489.949	46337
490.024	37220
490.100	16402
490.176	16131
490.251	18069
490.327	20670
490.403	16417
490.478	16779
490.554	14061
490.629	15267
490.705	14847
490.781	16282
490.856	16015
490.932	16856
491.007	16299
491.083	15700
491.158	15333
491.234	20764
491.309	36808
491.385	34133
491.460	15575
491.536	16346
491.611	14568
491.686	15833
491.762	17219
491.837	27839
491.913	43701
491.988	56071
492.063	64414
492.139	26781
492.214	19787
492.289	13807
492.365	13462
492.440	14488
492.515	15026
492.590	15064
492.666	13223
492.741	16616
492.816	22965
492.891	14632
492.967	13628
493.042	12379
493.117	13017
493.192	13821
493.267	23293
493.342	57473
493.418	72065
493.493	17054
493.568	12682
493.643	12737
493.718	14763
493.793	19163
493.868	19700
493.943	13098
494.018	13047
494.093	12420
494.168	13227
494.243	10939
494.318	12095
494.393	12473
494.468	12071
494.543	11060
494.618	13676
494.693	11755
494.768	12791
494.842	12888
494.917	12770
494.992	12315
495.067	12078
495.142	12062
495.217	13249
495.292	12227
495.366	13677
495.441	14778
495.516	17503
495.591	22330
495.665	52954
495.740	107891
495.815	44135
495.890	16969
495.964	12851
496.039	17341
496.114	14982
496.188	17192
496.263	16599
496.338	13569
496.412	16119
496.487	16977
496.561	16915
496.636	16915
496.710	15446
496.785	17137
496.860	17752
496.934	14548
497.009	15235
497.083	15176
497.158	16664
497.232	17662
497.307	19064
497.381	16885
497.455	19321
497.530	21904
497.604	16602
497.679	16937
497.753	22953
497.827	25878
497.902	20780
497.976	28248
498.050	78005
498.125	289449
498.199	253436
498.273	31191
498.348	20423
498.422	18749
498.496	20603
498.570	20607
498.645	16176
498.719	14929
498.793	19340
498.867	27870
498.941	41068
499.016	122480
499.090	307605
499.164	91597
499.238	16141
499.312	16007
499.386	18025
499.460	17343
499.534	17921
499.609	21316
499.683	27057
499.757	24668
499.831	56528
499.905	211549
499.979	173758
500.053	30014
500.127	27350
500.201	19229
500.275	15859
500.349	15963
500.422	18275
500.496	23705
500.570	43945
500.644	117943
500.718	207869
500.792	41326
500.866	16769
500.940	18633
501.013	16626
501.087	15153
501.161	22332
501.235	28394
501.309	69680
501.382	185530
501.456	142454
501.530	35203
501.603	59354
501.677	23809
501.751	12129
501.825	16504
501.898	28625
501.972	73338
502.046	42960
502.119	15259
502.193	34440
502.266	77917
502.340	36440
502.413	36708
502.487	66318
502.561	37051
502.634	14926
502.708	12095
502.781	10491
502.855	11533
502.928	9661
503.002	10791
503.075	11002
503.149	11216
503.222	12056
503.295	12218
503.369	14892
503.442	20887
503.516	57980
503.589	134202
503.662	83794
503.736	34229
503.809	70312
503.882	60378
503.956	93265
504.029	104741
504.102	157841
504.175	218474
504.249	96362
504.322	43374
504.395	27092
504.468	18752
504.542	15656
504.615	12137
504.688	11811
504.761	9394
504.834	13637
504.907	12815
504.980	15548
505.053	10808
505.127	10782
505.200	15815
505.273	14219
505.346	10744
505.419	8922
505.492	8859
505.565	7636
505.638	8456
505.711	8413
505.784	8408
505.857	8019
505.930	9314
506.003	7414
506.076	10775
506.149	10886
506.221	12020
506.294	14039
506.367	31083
506.440	98028
506.513	46363
506.586	14688
506.659	9862
506.731	8797
506.804	9644
506.877	12447
506.950	10669
507.022	9425
507.095	9505
507.168	11938
507.241	9637
507.313	8124
507.386	6969
507.459	10677
507.531	7652
507.604	7610
507.677	8693
507.749	6800
507.822	11125
507.894	14848
507.967	19710
508.040	12742
508.112	12361
508.185	11561
508.257	10233
508.330	15948
508.402	11543
508.475	11707
508.547	12871
508.620	12529
508.692	16779
508.765	12085
508.837	9791
508.909	9953
508.982	9632
509.054	11198
509.127	10087
509.199	10063
509.271	8745
509.344	9992
509.416	9850
509.488	10279
509.560	11035
509.633	10111
509.705	11902
509.777	13063
509.849	15440
509.922	12823
509.994	12205
510.066	14596
510.138	13586
510.210	22540
510.283	18347
510.355	16642
510.427	15311
510.499	13000
510.571	12902
510.643	13127
510.715	16435
510.787	14081
510.859	14498
510.931	14545
511.003	16160
511.076	15816
511.148	11588
511.219	13847
511.291	20332
511.363	21242
511.435	13840
511.507	13137
511.579	13575
511.651	13146
511.723	12104
511.795	12309
511.867	12014
511.939	13454
512.010	21750
512.082	18539
512.154	11315
512.226	12756
512.298	15304
512.369	20063
512.441	17092
512.513	15432
512.585	12158
512.656	14264
512.728	13274
512.800	12059
512.871	12447
512.943	12156
513.015	10462
513.086	12153
513.158	11750
513.230	12120
513.301	13838
513.373	16244
513.444	11405
513.516	11038
513.588	10386
513.659	12069
513.731	12456
513.802	11092
513.874	20428
513.945	24840
514.016	12047
514.088	11208
514.159	10476
514.231	13860
514.302	17905
514.374	16215
514.445	14414
514.516	26682
514.588	18458
514.659	15386
514.730	21967
514.802	17280
514.873	10210
514.944	13268
515.016	13208
515.087	13556
515.158	17109
515.229	23498
515.301	12385
515.372	14956
515.443	10816
515.514	12432
515.585	10790
515.656	12686
515.728	12179
515.799	12005
515.870	14166
515.941	14559
516.012	15019
516.083	18831
516.154	18912
516.225	20880
516.296	22188
516.367	21640
516.438	24727
516.509	30415
516.580	49717
516.651	160578
516.722	490762
516.793	187564
516.864	43288
516.935	39993
517.006	46183
517.077	62299
517.148	148461
517.219	604736
517.289	830390
517.360	198783
517.431	59469
517.502	28384
517.573	25745
517.643	23535
517.714	25374
517.785	26743
517.856	30164
517.926	37722
517.997	42004
518.068	48695
518.138	64122
518.209	111005
518.280	404650
518.350	1221715
518.421	458529
518.492	81359
518.562	53334
518.633	57003
518.703	67993
518.774	133927
518.845	295212
518.915	259148
518.986	91234
519.056	49100
519.127	44961
519.197	55762
519.268	112059
519.338	72592
519.408	26084
519.479	24908
519.549	19756
519.620	18411
519.690	15613
519.760	15051
519.831	15176
519.901	14339
519.971	14929
520.042	16637
520.112	16862
520.182	17846
520.253	17087
520.323	16001
520.393	18360
520.463	25315
520.534	18036
520.604	33306
520.674	19560
520.744	19706
520.814	35262
520.885	31293
520.955	41787
521.025	126775
521.095	46637
521.165	16111
521.235	14232
521.305	12443
521.375	13930
521.445	15100
521.515	16629
521.585	17943
521.655	14770
521.725	16055
521.795	15297
521.865	12049
521.935	18889
522.005	15224
522.075	12424
522.145	13910
522.215	15186
522.285	18828
522.355	22209
522.424	37169
522.494	28740
522.564	17205
522.634	25737
522.704	56290
522.774	23680
522.843	14280
522.913	12892
522.983	16532
523.053	14401
523.122	14163
523.192	15187
523.262	33286
523.331	28489
523.401	14471
523.471	11957
523.540	12537
523.610	11260
523.680	11179
523.749	13711
523.819	15220
523.888	14078
523.958	10577
524.027	12321
524.097	13888
524.166	11983
524.236	10702
524.305	13744
524.375	10645
524.444	10547
524.514	15544
524.583	13434
524.653	14859
524.722	16532
524.791	11399
524.861	14549
524.930	11152
524.999	11930
525.069	15926
525.138	14128
525.207	16482
525.277	15585
525.346	14816
525.415	16026
525.484	16528
525.554	18364
525.623	21366
525.692	22471
525.761	25877
525.830	31211
525.900	37960
525.969	58724
526.038	104894
526.107	227962
526.176	615620
526.245	472371
526.314	149949
526.383	317363
526.452	425026
526.522	646414
526.591	568373
526.660	112391
526.729	63622
526.797	68974
526.867	118718
526.935	386709
527.004	1040311
527.073	603491
527.142	83366
527.211	37546
527.280	27549
527.349	23954
527.418	17211
527.487	16926
527.555	13961
527.624	13149
527.693	13760
527.762	14898
527.831	12377
527.899	12676
527.968	12005
528.037	11016
528.106	12400
528.174	16656
528.243	16106
528.312	19596
528.380	20153
528.449	12164
528.518	13957
528.586	10398
528.655	12135
528.723	11294
528.792	11380
528.861	11631
528.929	12153
528.998	15470
529.066	25137
529.135	44809
529.203	41968
529.272	58200
529.340	73428
529.409	65753
529.477	58893
529.545	59368
529.614	66258
529.682	77886
529.751	87372
529.819	88071
529.887	104063
529.956	94803
530.024	89485
530.092	81140
530.161	80743
530.229	83666
530.297	93128
530.365	89509
530.434	95841
530.502	99989
530.570	86750
530.638	76387
530.707	72912
530.775	69290
530.843	71561
530.911	81640
530.979	79463
531.047	93875
531.115	89911
531.183	78810
531.252	74912
531.320	73062
531.388	72327
531.456	83420
531.524	89732
531.592	92226
531.660	105542
531.728	95198
531.796	88902
531.864	88031
531.932	87315
532.000	87972
532.067	98007
532.135	103353
532.203	105859
532.271	114793
532.339	113970
532.407	120047
532.475	107949
532.542	100373
532.610	100407
532.678	110034
532.746	145449
532.814	198568
532.881	128503
532.949	105991
533.017	100402
533.084	96602
533.152	92216
533.220	90227
533.287	95192
533.355	98852
533.423	98905
533.490	104149
533.558	96136
533.625	91859
533.693	89355
533.761	86369
533.828	84327
533.896	85711
533.963	101730
534.031	103194
534.098	110548
534.166	96468
534.233	88672
534.300	87234
534.368	85523
534.435	80631
534.503	80322
534.570	86080
534.637	86691
534.705	91264
534.772	95502
534.840	121333
534.907	329512
534.974	367772
535.041	94358
535.109	68983
535.176	63806
535.243	67888
535.310	67042
535.378	66545
535.445	62625
535.512	57796
535.579	56529
535.646	54019
535.714	52842
535.781	55029
535.848	59045
535.915	62936
535.982	63852
536.049	63690
536.116	60500
536.183	53817
536.250	50182
536.317	49749
536.384	47828
536.451	48083
536.518	51603
536.585	48550
536.652	52962
536.719	51629
536.786	45359
536.853	42490
536.920	44887
536.987	47559
537.053	46010
537.120	84785
537.187	74094
537.254	40925
537.321	40922
537.388	40315
537.454	36475
537.521	34488
537.588	33544
537.654	34616
537.721	35390
537.788	33956
537.855	33849
537.921	34790
537.988	34906
538.055	34095
538.121	31619
538.188	31023
538.254	30713
538.321	35793
538.388	31792
538.454	29493
538.521	30346
538.587	29211
538.654	30953
538.720	30344
538.787	29609
538.853	27724
538.920	28218
538.986	28197
539.053	26249
539.119	26404
539.185	24992
539.252	28205
539.318	30481
539.385	31753
539.451	28432
539.517	27911
539.583	28641
539.650	34984
539.716	55542
539.782	28139
539.849	22637
539.915	23751
539.981	24571
540.047	24710
540.114	24906
540.180	24341
540.246	23482
540.312	25334
540.378	30056
540.444	31021
540.510	32817
540.576	57271
540.643	29639
540.709	21853
540.775	22865
540.841	22502
540.907	24537
540.973	28691
541.039	25684
541.105	24599
541.171	21727
541.237	20379
541.303	21921
541.369	23632
541.435	24534
541.500	27986
541.566	21527
541.632	19303
541.698	19302
541.764	20315
541.830	18567
541.896	18014
541.961	19107
542.027	18874
542.093	19854
542.159	21619
542.224	21444
542.290	24436
542.356	26028
542.421	25603
542.487	19568
542.553	18803
542.618	19208
542.684	17534
542.750	18886
542.815	20326
542.881	25979
542.947	51490
543.012	37465
543.078	18362
543.143	17760
543.209	18451
543.274	17294
543.340	18601
543.405	26858
543.471	33220
543.536	19508
543.602	19263
543.667	17430
543.732	19767
543.798	17597
543.863	18578
543.928	17622
543.994	16642
544.059	17873
544.124	17237
544.190	17651
544.255	17957
544.320	18641
544.386	18233
544.451	20491
544.516	21604
544.581	21122
544.646	37575
544.712	46750
544.777	22932
544.842	20749
544.907	20701
544.972	19739
545.037	19714
545.102	20882
545.168	20712
545.233	21936
545.298	22719
545.363	22533
545.428	24354
545.493	29899
545.558	42532
545.623	28009
545.688	21593
545.753	22592
545.818	23051
545.883	23928
545.947	24076
546.012	25647
546.077	24725
546.142	26330
546.207	25385
546.272	28248
546.337	28466
546.401	29049
546.466	29270
546.531	29177
546.596	32430
546.661	31816
546.725	34540
546.790	33489
546.855	36495
546.919	38400
546.984	42700
547.049	46069
547.113	53217
547.178	56176
547.243	63757
547.307	71515
547.372	80281
547.436	82218
547.501	81238
547.565	87910
547.630	82487
547.695	79921
547.759	81103
547.823	81104
547.888	80109
547.952	83089
548.017	85196
548.081	88694
548.146	91458
548.210	91575
548.274	94172
548.339	93766
548.403	84060
548.468	79404
548.532	80418
548.596	80938
548.660	80373
548.725	90908
548.789	98152
548.853	95813
548.917	90960
548.982	92163
549.046	83808
549.110	73175
549.174	74232
549.238	85335
549.303	92925
549.367	97008
549.431	91703
549.495	85641
549.559	86454
549.623	99205
549.687	110029
549.751	110758
549.815	126304
549.879	129014
549.943	123131
550.007	129356
550.071	129056
550.135	118494
550.199	110007
550.263	108508
550.327	103939
550.391	107107
550.455	116688
550.519	122719
550.582	130626
550.646	150645
550.710	153315
550.774	147974
550.838	150305
550.901	155286
550.965	161465
551.029	172976
551.093	186707
551.156	209336
551.220	245390
551.284	251889
551.347	194994
551.411	189430
551.475	180155
551.538	161109
551.602	148100
551.666	139664
551.729	133396
551.793	128302
551.856	127523
551.920	126518
551.983	125644
552.047	123563
552.110	124685
552.174	124814
552.237	127353
552.301	119249
552.364	114030
552.428	111315
552.491	114380
552.554	118177
552.618	115803
552.681	120972
552.745	119215
552.808	134946
552.871	153295
552.934	133819
552.998	119433
553.061	116667
553.124	111492
553.187	111252
553.251	115336
553.314	115926
553.377	118483
553.440	131390
553.503	173242
553.567	203612
553.630	131083
553.693	122650
553.756	123111
553.819	120540
553.882	115410
553.945	115955
554.008	116213
554.071	116118
554.134	119439
554.197	111833
554.260	108416
554.323	112104
554.386	112872
554.449	118554
554.512	117408
554.575	110657
554.638	110682
554.701	109646
554.764	109980
554.827	104504
554.889	101671
554.952	94949
555.015	94604
555.078	95734
555.141	97716
555.203	95373
555.266	94229
555.329	95314
555.391	90968
555.454	90604
555.517	86323
555.580	84692
555.642	80871
555.705	80555
555.768	79730
555.830	77842
555.893	73735
555.955	72307
556.018	71037
556.080	71246
556.143	73412
556.206	72774
556.268	71058
556.330	69653
556.393	67557
556.455	67335
556.518	68536
556.580	66083
556.643	60818
556.705	59252
556.767	59394
556.830	58461
556.892	57856
556.955	58848
557.017	56930
557.079	55014
557.142	53905
557.204	54381
557.266	60315
557.328	54263
557.391	47522
557.453	46575
557.515	47474
557.577	48655
557.639	49475
557.701	48743
557.764	47976
557.826	49865
557.888	51828
557.950	54036
558.012	61700
558.074	83392
558.136	185554
558.198	411829
558.260	150081
558.322	62486
558.384	60254
558.446	63930
558.508	70646
558.570	80677
558.632	98290
558.694	133298
558.756	217600
558.818	614304
558.880	1202982
558.942	479303
559.003	446637
559.065	211803
559.127	84938
559.189	79720
559.251	91550
559.312	138484
559.374	330216
559.436	915364
559.498	443131
559.559	101321
559.621	82086
559.683	96152
559.744	165654
559.806	496603
559.868	670663
559.929	150809
559.991	91369
560.052	151114
560.114	404048
560.176	254818
560.237	237691
560.299	361233
560.360	83546
560.422	36269
560.483	31374
560.545	29111
560.606	27450
560.667	27112
560.729	25489
560.790	24776
560.852	24230
560.913	23507
560.974	23217
561.036	23095
561.097	23154
561.158	22067
561.220	22046
561.281	22399
561.342	21883
561.403	22977
561.465	23920
561.526	32965
561.587	36066
561.648	21785
561.709	19969
561.771	21170
561.832	18700
561.893	19787
561.954	19524
562.015	18980
562.076	19551
562.137	19260
562.198	18445
562.259	19058
562.320	18696
562.381	19997
562.442	21220
562.503	19938
562.564	18246
562.625	17483
562.686	17647
562.747	19043
562.808	19346
562.869	17650
562.930	18888
562.991	19703
563.051	18273
563.112	17870
563.173	17756
563.234	17462
563.294	17131
563.355	16882
563.416	17267
563.477	17788
563.537	17668
563.598	17157
563.659	17535
563.720	16228
563.780	17393
563.841	17404
563.901	17224
563.962	16695
564.023	16020
564.083	16801
564.144	16244
564.204	16391
564.265	16082
564.325	18541
564.386	24782
564.446	23224
564.507	16252
564.567	16689
564.628	16426
564.688	15868
564.749	15922
564.809	17293
564.869	17355
564.930	15770
564.990	15974
565.050	14922
565.111	15503
565.171	15805
565.231	15787
565.292	16824
565.352	14585
565.412	15263
565.472	15620
565.532	16811
565.593	14580
565.653	14971
565.713	15926
565.773	16546
565.833	16298
565.893	17445
565.953	15389
566.013	14592
566.074	15146
566.134	17649
566.194	21902
566.254	21660
566.314	17544
566.374	15049
566.434	15104
566.494	14721
566.554	14466
566.614	14929
566.673	15777
566.733	16638
566.793	15791
566.853	15756
566.913	15554
566.973	15063
567.033	16172
567.092	16308
567.152	15968
567.212	15115
567.272	16438
567.331	16716
567.391	16676
567.451	16806
567.511	19953
567.570	19266
567.630	15584
567.690	15745
567.749	15593
567.809	15257
567.868	16120
567.928	15683
567.988	16249
568.047	15288
568.107	15001
568.166	16213
568.226	16343
568.285	18668
568.345	17633
568.404	17306
568.464	16920
568.523	16029
568.582	17461
568.642	17658
568.701	16354
568.761	16862
568.820	19252
568.879	20034
568.939	21861
568.998	18786
569.057	16452
569.116	17287
569.176	15970
569.235	15396
569.294	14565
569.353	14832
569.413	15753
569.472	14304
569.531	13550
569.590	14135
569.649	13789
569.708	14455
569.767	14879
569.827	15838
569.886	14714
569.945	14680
570.004	14984
570.063	14071
570.122	15159
570.181	15844
570.240	16076
570.299	16092
570.358	16465
570.417	14798
570.475	14209
570.534	14460
570.593	15197
570.652	15446
570.711	15592
570.770	14575
570.829	15107
570.887	15704
570.946	16232
571.005	14539
571.064	14695
571.122	16591
571.181	16152
571.240	14673
571.299	14245
571.357	14979
571.416	15546
571.475	16100
571.533	16318
571.592	15627
571.650	14886
571.709	15890
571.768	15640
571.826	16789
571.885	15098
571.943	14473
572.002	14069
572.060	14080
572.119	13546
572.177	13462
572.236	13712
572.294	12948
572.352	15222
572.411	14939
572.469	13446
572.528	13438
572.586	14251
572.644	14423
572.703	15540
572.761	14011
572.819	13212
572.877	14313
572.936	12097
572.994	12536
573.052	13692
573.110	12437
573.169	13447
573.227	12543
573.285	13527
573.343	12814
573.401	13362
573.459	13223
573.517	12823
573.576	14174
573.634	13063
573.692	13427
573.750	13555
573.808	13258
573.866	13535
573.924	15325
573.982	14907
574.040	12942
574.098	12416
574.155	12585
574.213	12813
574.271	12706
574.329	12382
574.387	12574
574.445	11298
574.503	12293
574.560	10851
574.618	11869
574.676	11216
574.734	12636
574.792	12236
574.849	11708
574.907	10363
574.965	10728
575.022	9418
575.080	10473
575.138	9655
575.195	11268
575.253	10814
575.311	10761
575.368	10720
575.426	10242
575.483	12076
575.541	11238
575.598	10992
575.656	11585
575.713	10225
575.771	10833
575.828	11276
575.886	10793
575.943	10472
576.001	10411
576.058	10316
576.115	10930
576.173	11732
576.230	12250
576.287	12087
576.345	12188
576.402	11228
576.459	11918
576.517	10678
576.574	11316
576.631	11049
576.688	10336
576.746	10092
576.803	10736
576.860	9603
576.917	11555
576.974	10766
577.031	10927
577.089	9740
577.146	9930
577.203	11382
577.260	11419
577.317	10918
577.374	10896
577.431	11070
577.488	10128
577.545	9714
577.602	11346
577.659	11295
577.716	11975
577.773	11807
577.830	11742
577.886	12266
577.943	12994
578.000	12807
578.057	13657
578.114	15860
578.171	18623
578.227	26985
578.284	27528
578.341	22354
578.398	17656
578.454	15242
578.511	15621
578.568	13523
578.625	13394
578.681	12886
578.738	11512
578.794	11775
578.851	12678
578.908	11560
578.964	12369
579.021	12470
579.077	12095
579.134	11746
579.190	11611
579.247	11564
579.303	12169
579.360	11759
579.416	12418
579.473	13057
579.529	12762
579.586	12960
579.642	14001
579.698	13959
579.755	14977
579.811	15110
579.867	15950
579.924	16620
579.980	18279
580.036	22214
580.093	28698
580.149	41185
580.205	48958
580.261	39397
580.317	31337
580.374	25212
580.430	22809
580.486	21328
580.542	19591
580.598	19559
580.619	19227
580.654	18676
580.692	18589
580.710	18582
580.765	18096
580.767	18101
580.823	18536
580.838	18486
580.879	18436
580.911	18669
580.935	18877
580.984	18787
580.991	18799
581.047	20162
581.057	20422
581.103	21741
581.130	22155
581.159	22605
581.203	25169
581.215	25876
581.270	26659
581.276	26362
581.326	23737
581.349	23374
581.382	22912
581.422	22845
581.438	22822
581.494	21764
581.494	21750
581.550	22299
581.567	22025
581.606	21346
581.640	21660
581.661	21923
581.713	22761
581.717	22849
581.773	22154
581.786	22116
581.829	22014
581.859	22769
581.885	23403
581.932	23038
581.940	23007
581.996	24890
582.004	24861
582.052	24739
582.077	24417
582.107	24070
582.150	24684
582.163	24898
582.219	25651
582.223	25611
582.274	25210
582.296	25310
582.330	25460
582.368	26283
582.386	26766
582.441	26916
582.441	26925
582.497	27866
582.514	28170
582.552	29018
582.587	29172
582.608	29129
582.659	29935
582.663	30035
582.719	30500
582.732	30875
582.774	32018
582.805	32599
582.830	33197
582.877	35894
582.885	36348
582.941	40202
582.950	41089
582.996	46150
583.023	49852
583.052	53622
583.095	55690
583.107	56250
583.162	54942
583.168	54937
583.218	54214
583.240	51642
583.273	47788
583.313	43252
583.328	41631
583.384	37771
583.385	37689
583.439	34928
583.458	34238
583.494	33182
583.531	31814
583.549	31251
583.603	31185
583.605	31168
583.660	29500
583.676	29596
583.715	30053
583.748	29582
583.770	29173
583.820	28379
583.825	28325
583.881	29626
583.893	29187
583.936	27502
583.965	28164
583.991	28843
584.038	28752
584.046	28684
584.101	28674
584.110	28854
584.156	29948
584.183	30308
584.211	30516
584.255	29884
584.266	29842
584.321	31237
584.328	31382
584.376	31998
584.400	31788
584.431	31466
584.472	31389
584.486	31503
584.541	33329
584.545	33404
584.596	33988
584.617	33907
584.651	33892
584.689	33867
584.706	33775
584.761	35478
584.762	35493
584.816	35920
584.834	35747
584.871	35275
584.906	35428
584.926	35506
584.978	36021
584.980	36033
585.035	36523
585.051	36810
585.090	37461
585.123	37386
585.145	37336
585.195	37976
585.200	38111
585.254	40237
585.267	41079
585.309	43887
585.340	46236
585.364	47966
585.412	51702
585.419	52371
585.473	61305
585.484	63770
585.528	77211
585.556	92271
585.583	118737
585.628	182189
585.637	203918
585.692	396736
585.700	430224
585.747	555905
585.772	481781
585.801	320931
585.845	134726
585.856	108417
585.910	64615
585.917	60787
585.965	51326
585.989	48219
586.019	45875
586.061	43014
586.074	42273
586.128	40732
586.133	40551
586.183	38275
586.205	37326
586.237	35750
586.277	33801
586.292	33362
586.346	31983
586.349	31966
586.401	31189
586.421	30811
586.455	30281
586.493	30269
586.509	30821
586.564	32500
586.565	32625
586.618	38469
586.637	38451
586.672	35472
586.709	32859
586.727	32345
586.781	32671
586.781	32660
586.835	28181
586.853	27201
586.889	25702
586.925	24261
586.944	23785
586.996	23437
586.998	23433
587.052	23086
587.068	22992
587.106	22574
587.140	22375
587.161	22455
587.212	22568
587.215	22555
587.269	22275
587.284	22317
587.323	22467
587.356	22401
587.377	22370
587.427	22285
587.431	22303
587.485	22359
587.499	22568
587.539	23067
587.571	23356
587.593	23807
587.643	24957
587.648	24952
587.702	23989
587.715	23963
587.755	24410
587.786	24616
587.810	24672
587.858	24428
587.864	24553
587.917	26608
587.930	26966
587.971	26912
588.001	27023
588.025	27262
588.073	27108
588.079	27219
588.133	28835
588.145	29291
588.187	30502
588.217	31099
588.241	31604
588.288	32868
588.295	33160
588.348	35585
588.360	36195
588.402	39095
588.431	41131
588.456	42633
588.503	46182
588.510	46832
588.564	52417
588.575	53752
588.617	60079
588.646	65166
588.671	70685
588.718	83826
588.725	87382
588.778	120887
588.789	129868
588.832	206486
588.861	268252
588.886	367441
588.932	580630
588.939	597322
588.993	672530
589.004	668895
589.047	422934
589.075	261439
589.100	193732
589.147	102922
589.154	98787
589.207	78991
589.218	75879
589.261	72948
589.290	72479
589.314	75934
589.361	85938
589.368	90240
589.421	132059
589.433	142829
589.475	246834
589.504	332708
589.528	422802
589.576	593287
589.582	577174
589.635	338184
589.647	287197
589.689	153366
589.718	77363
589.742	64740
589.790	46385
589.795	45701
589.849	41409
589.861	40723
589.902	39199
589.932	37485
589.955	34689
590.004	28959
590.009	28796
590.062	27804
590.075	27493
590.115	26680
590.146	26196
590.168	26142
590.218	26140
590.222	26092
590.275	25520
590.289	25240
590.328	25670
590.360	26052
590.381	25645
590.431	24692
590.435	24727
590.488	25160
590.503	25283
590.541	24808
590.574	24545
590.594	25120
590.645	26162
590.647	26148
590.700	25546
590.716	25297
590.753	25589
590.787	25861
590.806	26101
590.859	26838
590.859	26865
590.912	27238
590.930	27396
590.965	27127
591.001	26762
591.018	26996
591.071	27661
591.072	27644
591.124	26771
591.143	26373
591.177	26286
591.214	26234
591.230	26716
591.283	28455
591.285	28492
591.336	27651
591.356	27288
591.389	27627
591.427	27989
591.442	27928
591.495	27535
591.498	27493
591.547	26863
591.569	26534
591.600	27243
591.640	28061
591.653	28134
591.706	28499
591.711	28507
591.759	29534
591.782	30051
591.811	30699
591.853	31536
591.864	31421
591.917	30646
591.924	30500
591.969	29803
591.995	29425
592.022	29665
592.066	30007
592.075	30362
592.127	32380
592.137	32744
592.180	33886
592.208	34536
592.233	33700
592.279	32015
592.285	32092
592.338	32601
592.350	32689
592.390	32351
592.421	32073
592.443	32633
592.491	33798
592.495	33846
592.548	34141
592.562	34203
592.600	34111
592.633	33979
592.653	33805
592.704	33110
592.705	33323
592.775	34574
592.846	35119
592.916	35506
592.987	36064
593.058	36262
593.128	36157
593.199	36100
593.270	35712
593.341	36180
593.411	38160
593.482	39338
593.553	41334
593.623	40851
593.694	41366
593.764	43871
593.835	41254
593.906	42885
593.976	44377
594.047	44331
594.117	47754
594.188	49245
594.258	46571
594.329	46761
594.399	47776
594.470	48178
594.540	50142
594.611	51930
594.681	51095
594.751	52399
594.822	53108
594.892	56832
594.963	57282
595.033	59099
595.103	59118
595.174	62156
595.244	66302
595.314	70942
595.384	66449
595.455	65924
595.525	68594
595.595	71028
595.665	71449
595.736	70095
595.806	72368
595.876	72356
595.946	73605
596.016	75984
596.087	78839
596.157	79799
596.227	79675
596.297	83450
596.367	88496
596.437	93028
596.507	95961
596.577	98938
596.647	97190
596.717	99961
596.787	103385
596.857	101785
596.927	104327
596.997	106281
597.067	107018
597.137	109488
597.207	110997
597.277	111042
597.347	107324
597.417	106260
597.487	107416
597.557	110211
597.626	111811
597.696	113885
597.766	116569
597.836	114414
597.906	107941
597.975	107442
598.045	108461
598.115	112797
598.185	118840
598.254	131807
598.324	139485
598.394	140728
598.464	139828
598.533	139985
598.603	133611
598.672	132148
598.742	135196
598.812	138197
598.881	142910
598.951	140504
599.020	144642
599.090	150338
599.159	152517
599.229	150304
599.299	149142
599.368	154764
599.437	153138
599.507	149216
599.576	147897
599.646	148055
599.715	151336
599.785	151077
599.854	150078
599.924	152525
599.993	153187
600.062	157725
600.132	162283
600.201	169407
600.270	183573
600.340	190323
600.409	190256
600.478	193213
600.547	198221
600.617	192763
600.686	176711
600.755	172683
600.824	171128
600.894	175886
600.963	177856
601.032	179975
601.101	181655
601.170	183450
601.239	181644
601.308	188445
601.378	191677
601.447	198478
601.516	200424
601.585	204962
601.654	211754
601.723	216615
601.792	224016
601.861	230909
601.930	241669
601.999	249745
602.068	247906
602.137	246786
602.206	249938
602.275	254479
602.343	254599
602.412	257890
602.481	261541
602.550	259686
602.619	266299
602.688	265329
602.756	272035
602.825	267413
602.894	274177
602.963	272439
603.032	278063
603.100	278078
603.169	271008
603.238	284960
603.307	267830
603.375	270942
603.444	281886
603.513	261106
603.581	271781
603.650	284432
603.719	236323
603.787	226068
603.856	229905
603.924	233707
603.993	239290
604.061	248020
604.130	255375
604.198	261125
604.267	263877
604.335	271439
604.404	269422
604.472	278961
604.541	277070
604.609	288602
604.678	296883
604.746	301246
604.815	317540
604.883	300511
604.951	294220
605.020	303061
605.088	277745
605.156	264425
605.225	263673
605.293	260538
605.361	264237
605.429	258461
605.498	265438
605.566	260950
605.634	278456
605.702	271740
605.771	276493
605.839	283335
605.907	262217
605.975	276255
606.043	260729
606.111	252051
606.180	278840
606.248	246765
606.316	243646
606.384	265319
606.452	203650
606.520	168544
606.588	169734
606.656	169464
606.724	166832
606.792	158496
606.860	144296
606.928	133783
606.996	128460
607.064	126812
607.132	130017
607.200	136861
607.267	141311
607.335	145394
607.403	148685
607.471	143551
607.539	139580
607.607	140739
607.674	123831
607.742	125853
607.810	124053
607.878	124436
607.946	125185
608.013	129967
608.081	133117
608.149	133669
608.216	134962
608.284	139943
608.352	138508
608.419	136792
608.487	136836
608.555	131025
608.622	134340
608.690	141532
608.757	149627
608.825	153226
608.893	148818
608.960	140893
609.028	135762
609.095	138443
609.163	132328
609.230	119064
609.298	109690
609.365	116486
609.432	125442
609.500	136707
609.567	156379
609.635	175885
609.702	186307
609.769	177339
609.837	139957
609.904	123587
609.971	129545
610.039	148312
610.106	197804
610.173	381369
610.241	833300
610.308	546239
610.375	228908
610.442	147327
610.509	131098
610.577	128492
610.644	128231
610.711	133263
610.778	136037
610.845	141105
610.912	149294
610.980	155120
611.047	157353
611.114	153020
611.181	144832
611.248	143645
611.315	156398
611.382	156273
611.449	164646
611.516	166630
611.583	163099
611.650	164239
611.717	168542
611.784	172298
611.851	180069
611.918	194788
611.984	230611
612.051	327649
612.118	630732
612.185	1368144
612.252	904415
612.319	297401
612.386	230471
612.452	203696
612.519	193386
612.586	190175
612.653	189258
612.719	194975
612.786	185348
612.853	172830
612.919	168521
612.986	170459
613.053	161644
613.120	150968
613.186	146022
613.253	149158
613.319	147116
613.386	149213
613.453	152029
613.519	152741
613.586	149568
613.652	154714
613.719	152152
613.785	154530
613.852	153693
613.918	152298
613.985	156629
614.051	164943
614.118	172478
614.184	165064
614.250	154145
614.317	155499
614.383	154984
614.449	156990
614.516	156428
614.582	157044
614.648	153721
614.715	151075
614.781	147866
614.847	149422
614.914	148959
614.980	146578
615.046	145299
615.112	150556
615.179	150097
615.245	151043
615.311	149475
615.377	151969
615.443	156183
615.509	156273
615.575	162548
615.642	161286
615.708	166974
615.774	175192
615.840	187894
615.906	202436
615.972	249179
616.038	372229
616.104	738443
616.170	1533256
616.236	1286386
616.302	430168
616.368	309106
616.434	229723
616.500	206383
616.565	224542
616.631	277739
616.697	235063
616.763	238771
616.829	350439
616.895	605186
616.961	582319
617.026	270321
617.092	184448
617.158	169483
617.224	161625
617.289	149894
617.355	145379
617.421	139879
617.487	141836
617.552	133775
617.618	132804
617.684	129719
617.749	135648
617.815	128436
617.880	125874
617.946	124611
618.012	129317
618.077	130522
618.143	125559
618.208	127939
618.274	134785
618.339	136197
618.405	114647
618.470	115096
618.536	115809
618.601	115124
618.667	107305
618.732	102206
618.798	101247
618.863	102008
618.928	101707
618.994	102570
619.059	104030
619.124	105047
619.190	101596
619.255	99084
619.320	101418
619.386	102949
619.451	100784
619.516	98100
619.581	100625
619.647	101970
619.712	102076
619.777	98192
619.842	100267
619.907	102209
619.972	102399
620.038	103025
620.103	99776
620.168	98945
620.233	101918
620.298	100457
620.363	103276
620.428	106803
620.493	108099
620.558	108026
620.623	110759
620.688	110484
620.753	109598
620.818	111825
620.883	112731
620.948	111460
621.013	110283
621.078	110648
621.143	111205
621.207	114161
621.272	109552
621.337	108421
621.402	108806
621.467	109660
621.532	111266
621.596	109036
621.661	106450
621.726	103903
621.791	105750
621.855	105609
621.920	105515
621.985	107088
622.049	110353
622.114	108479
622.179	112387
622.243	114058
622.308	115516
622.373	118836
622.437	118051
622.502	112649
622.566	111108
622.631	108876
622.695	113713
622.760	111428
622.824	112416
622.889	112976
622.953	111518
623.018	120612
623.082	120353
623.147	118029
623.211	114821
623.276	114339
623.340	108681
623.404	107428
623.469	108879
623.533	110054
623.597	107038
623.662	105283
623.726	100386
623.790	94745
623.854	92756
623.919	95557
623.983	94845
624.047	96115
624.111	96679
624.176	99198
624.240	99627
624.304	102425
624.368	97717
624.432	96796
624.496	99342
624.560	104731
624.625	105722
624.689	102994
624.753	107777
624.817	102223
624.881	99799
624.945	93067
625.009	91117
625.073	90654
625.137	93243
625.201	97611
625.265	96204
625.329	92875
625.393	94477
625.456	94583
625.520	94779
625.584	96993
625.648	101607
625.712	108958
625.776	126560
625.839	125399
625.903	89240
625.967	79256
626.031	92087
626.095	108164
626.158	87971
626.222	71473
626.286	68250
626.349	65386
626.413	61159
626.477	61943
626.540	60875
626.604	59268
626.668	60751
626.731	59384
626.795	59753
626.858	57311
626.922	55799
626.986	55936
627.049	55671
627.113	58757
627.176	58488
627.240	54784
627.303	53901
627.366	52726
627.430	53837
627.493	52750
627.557	53856
627.620	56792
627.684	54727
627.747	55663
627.810	50107
627.874	47529
627.937	45042
628.000	50543
628.064	46621
628.127	39567
628.190	40888
628.253	39844
628.317	37842
628.380	36833
628.443	35861
628.506	35862
628.569	33775
628.632	31931
628.696	33175
628.759	31616
628.822	30456
628.885	29259
628.948	29485
629.011	29477
629.074	29688
629.137	27463
629.200	27302
629.263	28564
629.326	25832
629.389	26728
629.452	27255
629.515	26529
629.578	26840
629.641	27825
629.704	26294
629.767	24743
629.830	24922
629.892	24134
629.955	23997
630.018	25536
630.081	25144
630.144	25881
630.207	22724
630.269	25212
630.332	24048
630.395	23371
630.458	23196
630.520	22130
630.583	23302
630.646	22888
630.708	23984
630.771	23156
630.834	24718
630.896	22653
630.959	24057
631.021	22832
631.084	23860
631.146	24447
631.209	24984
631.272	22460
631.334	24069
631.397	23512
631.459	23723
631.522	26502
631.584	25795
631.646	28780
631.709	29424
631.771	30069
631.834	28583
631.896	26724
631.958	23844
632.021	24306
632.083	23165
632.145	23714
632.208	22335
632.270	23085
632.332	21612
632.395	21134
632.457	23470
632.519	22032
632.581	22875
632.643	20020
632.706	21295
632.768	19898
632.830	22178
632.892	22223
632.954	21946
633.016	22741
633.078	22439
633.141	21786
633.203	22580
633.265	22700
633.327	21422
633.389	21031
633.451	23176
633.513	22488
633.575	23942
633.637	22310
633.698	22713
633.760	24277
633.822	24472
633.884	24610
633.946	26096
634.008	26070
634.070	27320
634.132	29995
634.193	31905
634.255	34282
634.317	34809
634.379	34049
634.441	31917
634.502	27400
634.564	26030
634.626	23747
634.687	23511
634.749	23265
634.811	22537
634.873	20586
634.934	22136
634.996	23170
635.057	21490
635.119	21449
635.181	22727
635.242	23379
635.304	20130
635.365	25054
635.427	21139
635.488	22385
635.550	21812
635.611	23872
635.673	22147
635.734	24398
635.796	25412
635.857	28753
635.918	28968
635.980	33590
636.041	34280
636.102	36163
636.164	37211
636.225	34901
636.286	30762
636.348	27613
636.409	26131
636.470	22995
636.531	23438
636.593	22465
636.654	22512
636.715	20297
636.776	20455
636.838	19141
636.899	19831
636.960	18933
637.021	18943
637.082	18438
637.143	19089
637.204	17322
637.265	18501
637.326	18574
637.387	18514
637.448	16871
637.509	17980
637.570	18383
637.631	19204
637.692	16286
637.753	16919
637.814	18233
637.875	17718
637.936	16064
637.997	17198
638.058	16677
638.119	18449
638.179	16605
638.240	16711
638.301	16598
638.362	16379
638.423	15913
638.483	17247
638.544	14317
638.605	15790
638.666	15549
638.726	16969
638.787	16910
638.848	16605
638.908	15271
638.969	15860
639.030	15316
639.090	14791
639.151	14707
639.211	17319
639.272	16743
639.332	18298
639.393	17483
639.453	17062
639.514	18179
639.574	16801
639.635	15181
639.695	15757
639.756	13464
639.816	15230
639.877	14344
639.937	17092
639.997	16902
640.058	13677
640.118	13808
640.178	15413
640.239	14542
640.299	14793
640.359	14395
640.420	16707
640.480	17319
640.540	19680
640.600	19272
640.661	18384
640.721	15754
640.781	20110
640.841	14439
640.901	16453
640.961	15635
641.021	16151
641.082	16623
641.142	15612
641.202	15337
641.262	11687
641.322	13890
641.382	13382
641.442	14758
641.502	14030
641.562	14329
641.622	14218
641.682	16688
641.742	17958
641.802	16306
641.861	15806
641.921	13123
641.981	14646
642.041	13390
642.101	14659
642.161	11389
642.221	12892
642.280	12977
642.340	12799
642.400	12870
642.460	15170
642.519	13654
642.579	14559
642.639	14230
642.698	12024
642.758	16117
642.818	14337
642.877	13609
642.937	14809
642.997	14468
643.056	15162
643.116	13314
643.175	15763
643.235	14021
643.294	15753
643.354	16648
643.414	18743
643.473	21829
643.532	25831
643.592	35968
643.651	56235
643.711	97270
643.770	189658
643.830	447715
643.889	826438
643.948	220022
644.008	48839
644.067	29640
644.126	22726
644.186	19795
644.245	17831
644.304	14851
644.363	17808
644.423	14431
644.482	14840
644.541	16105
644.600	16014
644.659	21017
644.719	26605
644.778	39376
644.837	68624
644.896	143053
644.955	313725
645.014	98993
645.073	26137
645.132	18738
645.191	17667
645.250	15980
645.309	17647
645.368	19370
645.427	25051
645.486	41896
645.545	70976
645.604	21693
645.663	15352
645.722	14240
645.781	17022
645.840	19247
645.898	23858
645.957	33591
646.016	51589
646.075	93778
646.134	182724
646.192	475016
646.251	625596
646.310	108505
646.369	35375
646.427	28179
646.486	20667
646.545	17235
646.603	14720
646.662	14585
646.721	14778
646.779	13647
646.838	13723
646.896	18918
646.955	25595
647.014	41882
647.072	79834
647.131	213797
647.189	95323
647.248	17267
647.306	14081
647.365	12668
647.423	9192
647.481	11795
647.540	9027
647.598	10329
647.657	10006
647.715	10225
647.773	8923
647.832	10120
647.890	8452
647.948	7810
648.007	9746
648.065	7457
648.123	8023
648.181	9908
648.240	9949
648.298	8259
648.356	8835
648.414	7852
648.472	8468
648.531	8381
648.589	7681
648.647	8175
648.705	8530
648.763	7540
648.821	8276
648.879	8581
648.937	11200
648.995	13146
649.053	17565
649.111	26146
649.169	44878
649.227	79851
649.285	169033
649.343	453859
649.401	200602
649.459	31604
649.516	19701
649.574	14592
649.632	20932
649.690	22865
649.748	22010
649.806	31014
649.863	59420
649.921	154351
649.979	92954
650.037	14515
650.094	9232
650.152	8905
650.210	6821
650.268	7950
650.325	7073
650.383	6234
650.440	5755
650.498	6610
650.556	6462
650.613	5301
650.671	7294
650.728	6307
650.786	6679
650.843	9440
650.901	6695
650.958	6048
651.016	5341
651.073	5188
651.131	5124
651.188	4345
651.246	6309
651.303	4443
651.360	5410
651.418	3883
651.475	5681
651.532	4560
651.590	6281
651.647	4055
651.704	4788
651.762	3989
651.819	4787
651.876	4656
651.933	4803
651.990	4837
652.048	3055
652.105	3760
652.162	4685
652.219	3863
652.276	5058
652.333	3839
652.390	3155
652.448	3940
652.505	4694
652.562	4345
652.619	5062
652.676	5060
652.733	6821
652.790	4104
652.847	3365
652.904	3878
652.961	2947
653.017	3358
653.074	4369
653.131	4198
653.188	3469
653.245	4036
653.302	4340
653.359	4317
653.415	3949
653.472	3154
653.529	3845
653.586	3222
653.642	3983
653.699	4262
653.756	4214
653.813	3584
653.869	4025
653.926	3848
653.983	3765
654.039	4160
654.096	3972
654.152	4239
654.209	3336
654.266	3085
654.322	2908
654.379	4595
654.435	4608
654.492	3767
654.548	4521
654.605	5028
654.661	4330
654.717	3374
654.774	4129
654.830	4157
654.887	4220
654.943	2969
655.000	3863
655.056	4103
655.112	4238
655.168	3664
655.225	4086
655.281	4503
655.337	5203
655.394	5374
655.450	4363
655.506	5759
655.562	5518
655.618	6163
655.675	2766
655.731	3399
655.787	3319
655.843	3326
655.899	3152
655.955	3529
656.011	3956
656.067	2885
656.123	3767
656.179	2412
656.235	4533
656.291	2367
656.347	4880
656.403	2937
656.459	3282
656.515	3583
656.571	3650
656.627	4256
656.683	3307
656.739	3646
656.795	3729
656.850	3268
656.906	4528
656.962	4203
657.018	3803
657.074	4700
657.129	6284
657.185	9200
657.241	21233
657.297	11291
657.352	4865
657.408	3326
657.464	4159
657.519	2756
657.575	2655
657.630	3278
657.686	3100
657.742	1815
657.797	2728
657.853	2674
657.908	4363
657.964	2236
658.019	2900
658.075	3733
658.130	3905
658.186	2550
658.241	3512
658.297	2054
658.352	3252
658.407	3225
658.463	2780
658.518	3469
658.573	3682
658.629	2399
658.684	2993
658.739	3321
658.795	2232
658.850	3401
658.905	2633
658.960	3272
659.016	2687
659.071	3276
659.126	3575
659.181	2666
659.236	4115
659.291	4104
659.346	3452
659.401	3660
659.457	4594
659.512	3979
659.567	4301
659.622	2975
659.677	2993
659.732	1833
659.787	3252
659.842	2889
659.897	4005
659.952	3125
660.007	3240
660.061	2280
660.116	2379
660.171	2336
660.226	2255
660.281	3399
660.336	2442
660.391	3549
660.445	2518
660.500	2681
660.555	2659
660.610	2391
660.664	3103
660.719	2737
660.774	3286
660.828	2317
660.883	3723
660.938	3198
660.992	2674
661.047	2792
661.101	2967
661.156	1591
661.211	2568
661.265	2983
661.320	2595
661.374	3018
661.429	2622
661.483	2742
661.538	2351
661.592	2012
661.647	3338
661.701	2719
661.755	2707
661.810	2861
661.864	2357
661.919	2578
661.973	2948
662.027	2490
662.081	1663
662.136	2900
662.190	3746
662.244	2419
662.299	2016
662.353	2987
662.407	2695
662.461	2078
662.515	3245
662.569	2312
662.624	3538
662.678	1723
662.732	2602
662.786	3152
662.840	2849
662.894	2290
662.948	2530
663.002	2571
663.056	3191
663.110	1901
663.164	2658
663.218	2673
663.272	3026
663.326	2420
663.380	2729
663.434	2992
663.488	2511
663.542	2663
663.595	2855
663.649	1654
663.703	2859
663.757	3175
663.811	1741
663.864	2128
663.918	3589
663.972	2260
664.026	3259
664.079	2420
664.133	3321
664.187	2658
664.240	2616
664.294	2431
664.348	3216
664.401	2116
664.455	2852
664.508	2180
664.562	2263
664.615	1726
664.669	2220
664.722	2748
664.776	2030
664.829	2499
664.883	3153
664.936	2436
664.990	3148
665.043	2495
665.097	2381
665.150	3577
665.203	2662
665.257	2789
665.310	3866
665.363	2841
665.417	3979
665.470	3022
665.523	2521
665.576	2248
665.630	3006
665.683	3172
665.736	2446
665.789	2614
665.842	3177
665.895	2671
665.949	1899
666.002	3235
666.055	2354
666.108	3532
666.161	3390
666.214	3288
666.267	3486
666.320	3163
666.373	3868
666.426	3248
666.479	2620
666.532	2535
666.585	3125
666.638	2806
666.691	3283
666.744	3257
666.796	3627
666.849	2993
666.902	3899
666.955	2758
667.008	2148
667.060	2397
667.113	3044
667.166	2344
667.219	3468
667.271	2941
667.324	3228
667.377	3430
667.430	2505
667.482	3493
667.535	3663
667.587	3600
667.640	2722
667.693	2715
667.745	2932
667.798	3376
667.850	3449
667.903	2592
667.955	3174
668.008	2620
668.060	3411
668.113	3293
668.165	2934
668.218	3544
668.270	2631
668.322	2106
668.375	2998
668.427	2841
668.479	3065
668.532	2778
668.584	2943
668.636	2503
668.689	3444
668.741	2775
668.793	2726
668.845	2370
668.898	3887
668.950	2146
669.002	2993
669.054	2226
669.106	3601
669.158	3117
669.211	2778
669.263	2737
669.315	4007
669.367	2997
669.419	2771
669.471	3650
669.523	3865
669.575	3782
669.627	3384
669.679	2700
669.731	3351
669.783	3424
669.835	4463
669.886	3212
669.938	4120
669.990	3440
670.042	3927
670.094	4406
670.146	4996
670.197	5447
670.249	6764
670.301	8316
670.353	12389
670.404	16646
670.456	23295
670.508	35963
670.560	56937
670.611	93655
670.663	162919
670.715	350477
670.766	482805
670.818	196785
670.869	46834
670.921	23030
670.972	15888
671.024	11075
671.075	9145
671.127	7303
671.178	5976
671.230	5920
671.281	5765
671.333	5906
671.384	5909
671.436	7336
671.487	10495
671.538	13932
671.590	19984
671.641	31242
671.692	54788
671.744	100830
671.795	73749
671.846	27598
671.897	13561
671.949	8958
672.000	7458
672.051	5519
672.102	5462
672.153	3513
672.204	3732
672.256	4173
672.307	3724
672.358	3919
672.409	3841
672.460	2874
672.511	3280
672.562	2507
672.613	2250
672.664	2963
672.715	3427
672.766	1413
672.817	3123
672.868	1998
672.919	2902
672.970	2188
673.021	2064
673.071	1677
673.122	2783
673.173	2860
673.224	2637
673.275	2169
673.326	2056
673.376	1565
673.427	2132
673.478	1625
673.528	3335
673.579	1846
673.630	2268
673.680	2694
673.731	2031
673.782	1723
673.832	2761
673.883	1761
673.934	1897
673.984	1169
674.035	2714
674.085	2645
674.136	2351
674.186	1759
674.237	3012
674.287	3304
674.338	2891
674.388	2386
674.438	2453
674.489	2318
674.539	2618
674.589	2811
674.640	3009
674.690	2980
674.740	1794
674.791	2675
674.841	2550
674.891	2189
674.942	2760
674.992	1918
675.042	1073
675.092	1878
675.142	1456
675.193	1348
675.243	2363
675.293	1711
675.343	2092
675.393	1415
675.443	1937
675.493	2032
675.543	1766
675.593	2049
675.643	2563
675.693	1940
675.743	2234
675.793	1568
675.843	1822
675.893	2346
675.943	1673
675.993	1293
676.043	2036
676.093	1798
676.142	1979
676.192	1732
676.242	1813
676.292	1495
676.341	1618
676.391	1983
676.441	2053
676.491	2470
676.540	1383
676.590	1984
676.640	1210
676.689	946
676.739	1644
676.789	1270
676.838	1844
676.888	1297
676.937	2097
676.987	884
677.037	346
677.086	759
677.136	2193
677.185	1177
677.235	863
677.284	760
677.333	2184
677.383	1086
677.432	823
677.482	1338
677.531	2575
677.580	864
677.630	913
677.679	1093
677.728	1677
677.778	1447
677.827	1127
677.876	1002
677.925	1069
677.975	1433
678.024	1974
678.073	1462
678.122	2426
678.171	1422
678.220	1196
678.269	2407
678.319	2803
678.368	2089
678.417	1482
678.466	1961
678.515	2282
678.564	976
678.613	1670
678.662	813
678.711	1660
678.760	1510
678.809	1318
678.857	908
678.906	1703
678.955	1081
679.004	1857
679.053	890
679.102	1523
679.151	969
679.199	1170
679.248	1378
679.297	1901
679.346	1399
679.394	992
679.443	1913
679.492	1408
679.540	1060
679.589	1270
679.638	540
679.686	1210
679.735	1635
679.784	1323
679.832	1256
679.881	1844
679.929	634
679.978	1092
680.026	1691
680.075	1310
680.123	695
680.172	819
680.220	948
680.268	2063
680.317	515
680.365	329
680.414	441
680.462	1083
680.510	1236
680.559	1218
680.607	94
680.655	860
680.703	1090
680.752	1323
680.800	567
680.848	828
680.896	930
680.945	1348
680.993	881
681.041	1133
681.089	605
681.137	747
681.185	-25
681.233	1289
681.258	876
681.281	472
681.329	996
681.377	-87
681.380	-41
681.425	575
681.473	610
681.502	551
681.521	484
681.569	1441
681.617	1074
681.624	972
681.665	234
681.713	1031
681.745	943
681.761	885
681.809	1415
681.857	2317
681.867	2220
681.904	1830
681.952	1907
681.989	1823
682.000	1785
682.048	1200
682.096	1118
682.111	1112
682.143	1051
682.191	1264
682.233	1527
682.239	1555
682.286	1918
682.334	758
682.354	953
682.382	1194
682.430	1074
682.476	1114
682.477	1104
682.525	1082
682.572	890
682.598	892
682.620	912
682.667	1306
682.715	1348
682.720	1403
682.763	1744
682.810	946
682.841	1085
682.857	1147
682.905	1831
682.952	1691
682.963	1612
683.000	1277
683.047	1492
683.085	1385
683.095	1355
683.142	1519
683.190	1111
683.206	1322
683.237	1663
683.284	1608
683.328	1614
683.332	1603
683.379	1960
683.426	2109
683.449	1849
683.473	1584
683.521	1502
683.568	1815
683.571	1809
683.615	1573
683.662	1353
683.693	1398
683.709	1413
683.757	1768
683.804	1820
683.814	1694
683.851	1235
683.898	2696
683.936	1637
683.945	1359
683.992	1824
684.039	1498
684.057	1544
684.086	1627
684.133	2152
684.179	1908
684.180	1891
684.227	2411
684.274	2146
684.300	2223
684.321	2271
684.368	2361
684.415	1706
684.422	1764
684.462	2020
684.509	1590
684.543	2103
684.556	2297
684.603	2009
684.649	2493
684.665	2369
684.696	2108
684.743	2630
684.786	2737
684.790	2738
684.837	2108
684.883	2110
684.908	2190
684.930	2239
684.977	2675
685.023	2663
685.029	2657
685.070	2612
685.117	3128
685.150	2073
685.164	1630
685.210	3071
685.257	2519
685.272	2543
685.303	2623
685.350	3076
685.393	2518
685.396	2463
685.443	2150
685.490	2628
685.514	2739
685.536	2867
685.583	2499
685.629	3310
685.636	3282
685.675	3006
685.722	2819
685.757	2780
685.768	2782
685.815	2672
685.861	2883
685.878	2869
685.908	2890
685.954	2840
686.000	3433
686.000	3439
686.047	3573
686.093	3582
686.121	3446
686.139	3329
686.185	3378
686.232	3147
686.242	3207
686.278	3400
686.324	3052
686.363	2730
686.370	2669
686.416	3515
686.463	3466
686.484	3292
686.509	3061
686.555	3298
686.601	2750
686.606	2796
686.647	3332
686.693	2949
686.727	2643
686.739	2531
686.785	3330
686.831	3153
686.848	3389
686.877	3686
686.923	3438
686.969	2975
686.969	2973
687.015	3343
687.061	3561
687.090	3666
687.107	3639
687.153	3801
687.199	3723
687.211	3586
687.245	3282
687.291	3190
687.332	3031
687.336	3028
687.382	3201
687.428	4272
687.453	4012
687.474	3669
687.520	4271
687.565	3462
687.574	3400
687.611	3497
687.657	3592
687.695	3679
687.702	3663
687.748	3426
687.794	4461
687.816	4296
687.839	4105
687.885	4011
687.931	3464
687.937	3579
687.976	4267
688.022	4299
688.058	4212
688.067	4172
688.113	3710
688.158	3677
688.179	3692
688.204	3805
688.249	4129
688.295	3393
688.300	3490
688.340	4230
688.386	4272
688.421	4097
688.431	4042
688.477	3997
688.522	4416
688.542	4432
688.567	4490
688.613	5004
688.658	4228
688.663	4294
688.703	4735
688.749	4606
688.784	4283
688.794	4210
688.839	4516
688.884	4267
688.905	4334
688.930	4424
688.975	4374
689.020	4570
689.026	4537
689.065	4303
689.110	4457
689.146	4612
689.155	4674
689.201	4222
689.246	4501
689.267	4480
689.291	4497
689.336	4894
689.381	5144
689.388	5095
689.426	4761
689.471	4756
689.509	4718
689.516	4699
689.561	4431
689.606	4764
689.630	4379
689.651	4160
689.696	4161
689.741	4641
689.750	4671
689.785	4682
689.830	4491
689.871	4836
689.875	4884
689.920	4487
689.965	4870
689.992	4511
690.010	4328
690.054	4980
690.099	4697
690.112	4777
690.144	4926
690.189	5044
690.233	4863
690.233	4869
690.278	4988
690.323	5470
690.354	5507
690.367	5595
690.412	5722
690.457	5837
690.474	6111
690.501	6407
690.546	6329
690.590	6516
690.595	6497
690.635	6768
690.680	7494
690.716	7610
690.724	7743
690.769	9113
690.813	10625
690.836	11086
690.857	12809
690.902	16963
690.946	21555
690.957	22624
690.991	31103
691.035	44124
691.077	57278
691.080	57336
691.124	50606
691.168	43615
691.198	39574
691.213	36187
691.257	27214
691.301	18353
691.318	14905
691.346	13278
691.390	11344
691.434	8967
691.439	8692
691.478	8083
691.522	7497
691.559	6779
691.567	6731
691.611	7020
691.655	6747
691.680	6580
691.699	6418
691.743	6793
691.787	6119
691.800	6011
691.831	5982
691.875	6011
691.919	6111
691.921	6088
691.964	5799
692.008	6168
692.041	6135
692.052	6088
692.096	6189
692.139	5979
692.162	6024
692.183	6106
692.227	5962
692.271	5760
692.282	5690
692.315	5748
692.359	6267
692.402	6523
692.403	6534
692.447	5889
692.490	5606
692.523	5652
692.534	5762
692.578	5824
692.622	6292
692.643	6126
692.666	5909
692.709	6016
692.753	5772
692.763	5715
692.797	5903
692.840	6464
692.884	6886
692.884	6900
692.928	6799
692.971	7021
693.004	6699
693.015	6688
693.059	7022
693.102	7289
693.124	7357
693.146	7413
693.189	7370
693.233	7650
693.245	7705
693.276	8271
693.320	8837
693.363	9265
693.365	9271
693.407	10741
693.450	12645
693.485	13724
693.493	14295
693.537	17322
693.580	20632
693.605	22379
693.624	26191
693.667	35328
693.710	44928
693.725	48523
693.753	65259
693.797	92615
693.840	120383
693.845	122936
693.883	112169
693.926	97826
693.966	86288
693.970	84311
694.013	62927
694.056	42097
694.086	27886
694.099	26412
694.142	21497
694.185	16761
694.206	14543
694.229	13805
694.272	12133
694.315	10520
694.326	10081
694.358	9739
694.401	9374
694.444	8957
694.446	8919
694.487	8907
694.530	8767
694.566	8504
694.573	8437
694.616	7991
694.659	7721
694.686	7509
694.702	7555
694.745	7505
694.787	7517
694.806	7504
694.830	7410
694.873	7085
694.916	6788
694.926	6773
694.959	6911
695.002	6649
695.044	6695
695.046	6678
695.087	6853
695.130	6757
695.166	6963
695.172	7021
695.215	7087
695.258	7052
695.286	7196
695.301	7244
695.343	7091
695.386	7160
695.406	7060
695.428	7167
695.471	7392
695.514	7735
695.526	7776
695.556	7769
695.599	7928
695.641	7828
695.646	7819
695.684	7747
695.726	7569
695.766	7300
695.769	7313
695.811	7251
695.854	7238
695.886	7278
695.896	7368
695.938	7385
695.981	7693
696.005	7774
696.023	7856
696.065	8083
696.108	8284
696.125	8321
696.150	8392
696.192	8408
696.235	8592
696.245	8592
696.277	8445
696.319	8323
696.361	8119
696.365	8066
696.404	8501
696.446	9106
696.485	9842
696.488	9845
696.530	9246
696.572	8811
696.604	8459
696.614	8454
696.656	8164
696.698	8072
696.724	7905
696.740	7986
696.783	8267
696.825	8495
696.844	8593
696.867	8695
696.909	8775
696.951	8915
696.964	8906
696.992	8822
697.034	8645
697.076	8690
697.083	8629
697.118	8611
697.160	8738
697.202	8763
697.203	8741
697.244	8531
697.286	8288
697.323	8046
697.327	8075
697.369	8001
697.411	8165
697.442	8125
697.453	8196
697.494	8450
697.536	8694
697.562	8858
697.578	8953
697.620	9096
697.661	9243
697.682	9264
697.703	9274
697.744	9316
697.786	9410
697.801	9373
697.828	9499
697.869	9708
697.911	9858
697.921	9881
697.952	9668
697.994	9430
698.035	9017
698.040	8954
698.077	8878
698.118	8712
698.160	8617
698.160	8592
698.201	8923
698.243	9200
698.279	9450
698.284	9483
698.325	9582
698.367	9629
698.399	9644
698.408	9722
698.449	9952
698.491	10206
698.518	10326
698.532	10285
698.573	10096
698.614	9902
698.638	9768
698.656	9978
698.697	10394
698.738	10819
698.757	10993
698.779	10771
698.820	10289
698.862	9806
698.877	9603
698.903	10015
698.944	10627
698.985	11246
698.996	11389
699.026	11054
699.067	10553
699.116	9930
699.235	9697
699.354	10550
699.474	9063
699.593	9998
699.713	9879
699.832	9851
699.951	9980
700.070	10850
700.190	8649
700.309	9052
700.428	8643
700.547	9432
700.667	9456
700.786	9749
700.905	8161
701.024	9099
701.143	8727
701.262	9353
701.381	7842
701.500	8634
701.619	9323
701.738	9157
701.857	8886
701.976	8168
702.095	9560
702.214	8866
702.333	9014
702.452	8975
702.571	8533
702.690	9718
702.809	8601
702.928	8807
703.047	8404
703.165	9838
703.284	8755
703.403	8053
703.522	8486
703.640	8878
703.759	9619
703.878	9305
703.997	8510
704.115	8440
704.234	8125
704.353	7716
704.471	7381
704.590	7462
704.708	7318
704.827	7263
704.946	7499
705.064	7896
705.183	8060
705.301	8131
705.420	8851
705.538	8937
705.656	8173
705.775	8516
705.893	12609
706.012	12354
706.130	8983
706.249	7628
706.367	8219
706.485	8836
706.604	7099
706.722	8088
706.840	8927
706.958	9685
707.077	7800
707.195	7526
707.313	7817
707.431	7359
707.549	7620
707.668	6965
707.786	7558
707.904	7639
708.022	7346
708.140	7980
708.258	6531
708.376	8332
708.494	6667
708.612	8144
708.730	9372
708.848	9414
708.966	7648
709.084	7688
709.202	8514
709.320	7944
709.438	7516
709.556	7665
709.674	8021
709.791	7600
709.909	7807
710.027	7468
710.145	7621
710.263	8533
710.380	7902
710.498	8206
710.616	7922
710.733	6989
710.851	7509
710.969	7847
711.086	7738
711.204	7952
711.322	7641
711.439	7468
711.557	6947
711.674	7777
711.792	6715
711.909	7913
712.027	7157
712.144	6510
712.262	7638
712.379	7543
712.497	9393
712.614	8470
712.732	8064
712.849	7867
712.966	8541
713.084	8240
713.201	8174
713.318	7820
713.436	8676
713.553	8858
713.670	8008
713.787	8444
713.905	8929
714.022	8849
714.139	8438
714.256	10829
714.373	16032
714.490	29437
714.608	83881
714.725	352416
714.842	287508
714.959	23947
715.076	11806
715.193	9715
715.310	9370
715.427	8345
715.544	7894
715.661	7625
715.778	7286
715.895	7510
716.011	7907
716.128	7859
716.245	6459
716.362	7989
716.479	6838
716.596	7506
716.713	7929
716.829	6859
716.946	6662
717.063	7058
717.180	6803
717.296	7265
717.413	6566
717.530	7183
717.646	6043
717.763	6788
717.880	7150
717.996	6128
718.113	6072
718.229	6348
718.346	5680
718.462	6805
718.579	6943
718.695	7960
718.812	7414
718.928	7281
719.045	5890
719.161	6536
719.277	6483
719.394	6670
719.510	6697
719.626	7350
719.743	9523
719.859	14180
719.975	28397
720.092	118089
720.208	218421
720.324	23143
720.440	8594
720.557	7988
720.673	8245
720.789	9143
720.905	14697
721.021	7542
721.137	6184
721.253	6031
721.369	6412
721.486	6045
721.602	7157
721.718	5827
721.834	5121
721.950	5885
722.066	4818
722.181	5120
722.297	5520
722.413	5880
722.529	5252
722.645	5209
722.761	4822
722.877	5733
722.993	6282
723.108	6658
723.224	5169
723.340	5252
723.456	4820
723.571	4924
723.687	5320
723.803	4843
723.918	4675
724.034	4794
724.150	4801
724.265	5558
724.381	7383
724.497	7849
724.612	4366
724.728	4292
724.843	5250
724.959	5341
725.074	7195
725.190	6512
725.305	5201
725.421	5002
725.536	5006
725.651	5153
725.767	5303
725.882	5429
725.997	4697
726.113	4830
726.228	3823
726.343	5052
726.459	4298
726.574	4877
726.689	4661
726.804	4484
726.920	4584
727.035	4673
727.150	4583
727.265	4362
727.380	4456
727.495	5084
727.610	3838
727.725	4503
727.841	4861
727.956	6892
728.071	5901
728.186	4385
728.301	3588
728.416	4728
728.531	4233
728.645	3910
728.760	4533
728.875	3740
728.990	3247
729.105	3889
729.220	3938
729.335	4195
729.449	4108
729.564	4247
729.679	3932
729.794	4059
729.908	4136
730.023	3938
730.138	4113
730.253	4582
730.367	3550
730.482	4143
730.596	4265
730.711	4235
730.826	5721
730.940	4684
731.055	4063
731.169	3919
731.284	4664
731.398	5020
731.513	5060
731.627	5939
731.742	6551
731.856	7143
731.970	6882
732.085	8818
732.199	11510
732.313	20096
732.428	56068
732.542	151011
732.656	69811
732.771	14995
732.885	9483
732.999	7973
733.113	7630
733.227	7610
733.342	7669
733.456	7192
733.570	5581
733.684	6239
733.798	5751
733.912	6428
734.026	5416
734.140	6044
734.254	5936
734.368	7438
734.482	7686
734.596	5744
734.710	5432
734.824	5769
734.938	6169
735.052	5806
735.166	5860
735.280	5770
735.393	5969
735.507	4453
735.621	5666
735.735	6704
735.849	5493
735.962	5607
736.076	4928
736.190	5851
736.303	6704
736.417	6576
736.531	5282
736.644	5408
736.758	5819
736.872	5315
736.985	5537
737.099	5201
737.212	4267
737.326	5414
737.439	5354
737.553	4693
737.666	5642
737.780	4588
737.893	4930
738.007	5652
738.120	4499
738.233	4772
738.347	4953
738.460	5042
738.573	5275
738.687	5237
738.800	5378
738.913	4957
739.026	4654
739.140	5215
739.253	5398
739.366	4402
739.479	4788
739.592	4537
739.705	4857
739.818	6214
739.932	4460
740.045	4561
740.158	4777
740.271	5179
740.384	4356
740.497	5573
740.610	4934
740.723	5369
740.836	4670
740.949	4644
741.062	4646
741.174	3857
741.287	4633
741.400	4787
741.513	4098
741.626	4574
741.739	4442
741.851	4411
741.964	5042
742.077	4790
742.189	4422
742.302	5455
742.415	4826
742.527	4189
742.640	4688
742.753	4628
742.865	3984
742.978	4259
743.090	4890
743.203	4912
743.316	4738
743.428	4105
743.541	3404
743.653	5134
743.766	4550
743.878	4780
743.990	4656
744.103	5288
744.215	3330
744.327	4460
744.440	4373
744.552	3923
744.664	4340
744.777	4580
744.889	3873
745.001	5484
745.113	4444
745.226	3661
745.338	4818
745.450	4878
745.562	2995
745.674	3901
745.786	3956
745.898	4152
746.010	4375
746.122	4005
746.234	3900
746.347	5363
746.459	4387
746.570	3657
746.682	5211
746.794	4493
746.906	4826
747.018	3886
747.130	3577
747.242	4676
747.354	3895
747.466	5391
747.577	3571
747.689	4167
747.801	4071
747.913	3767
748.024	4371
748.136	3950
748.248	4039
748.359	4778
748.471	4439
748.583	3654
748.694	4229
748.806	4641
748.918	3887
749.029	3800
749.141	3707
749.252	4581
749.364	3522
749.475	4504
749.587	4829
749.698	3323
749.809	4196
749.921	4657
750.032	3974
750.144	4123
750.255	3843
750.366	3707
750.478	3981
750.589	4710
750.700	4143
750.811	3858
750.923	4370
751.034	5292
751.145	5244
751.256	3853
751.367	4628
751.479	3984
751.590	3173
751.701	3557
751.812	3819
751.923	4728
752.034	3981
752.145	4236
752.256	4281
752.367	4697
752.478	4624
752.589	5088
752.700	4103
752.811	4020
752.922	4911
753.032	4704
753.143	4641
753.254	4010
753.365	4249
753.476	4360
753.586	3957
753.697	4152
753.808	4741
753.919	4001
754.029	4211
754.140	3836
754.251	4350
754.361	4716
754.472	4905
754.582	4850
754.693	4306
754.804	4287
754.914	4529
755.025	4238
755.135	3647
755.246	4179
755.356	3842
755.466	5476
755.577	4696
755.687	4664
755.798	4038
755.908	4874
756.018	5068
756.129	5050
756.239	5120
756.349	5283
756.460	5178
756.570	6068
756.680	5142
756.790	5216
756.900	5010
757.011	4665
757.121	5169
757.231	4923
757.341	5016
757.451	5337
757.561	5771
757.671	5717
757.781	4937
757.891	5776
758.001	5170
758.111	6041
758.221	5995
758.331	6741
758.441	5815
758.551	6123
758.661	5761
758.771	7036
758.880	6237
758.990	6273
759.100	6510
759.210	7069
759.320	6441
759.429	7090
759.539	7412
759.649	7554
759.758	7634
759.868	8467
759.978	7729
760.087	8318
760.197	8935
760.307	8814
760.416	8652
760.526	7857
760.635	9862
760.745	9264
760.854	10239
760.964	9897
761.073	10383
761.182	9994
761.292	9089
761.401	10023
761.511	10425
761.620	10649
761.729	9477
761.839	10301
761.948	10502
762.057	11014
762.166	11057
762.276	11118
762.385	12412
762.494	12885
762.603	12483
762.712	13268
762.822	13725
762.931	13957
763.040	14929
763.149	15705
763.258	16609
763.367	17582
763.476	17886
763.585	19866
763.694	19813
763.803	21209
763.912	22180
764.021	24295
764.130	25503
764.238	27845
764.347	29584
764.456	32092
764.565	34129
764.674	37483
764.783	41601
764.891	46279
765.000	53196
765.109	60311
765.217	68347
765.326	80639
765.435	96872
765.543	116299
765.652	141337
765.761	181134
765.869	235938
765.978	310718
766.086	414572
766.195	532320
766.303	570815
766.412	387403
766.520	473411
766.629	572070
766.737	474120
766.846	357582
766.954	262659
767.062	203180
767.171	157820
767.279	125297
767.387	101884
767.496	85851
767.604	74275
767.712	65710
767.820	57472
767.928	53255
768.037	49359
768.145	47113
768.253	45564
768.361	43032
768.469	42599
768.577	44723
768.685	47220
768.793	51022
768.901	55526
769.009	66198
769.117	79978
769.225	100556
769.333	138608
769.441	202457
769.549	303641
769.657	450599
769.765	505513
769.873	407546
769.981	497887
770.088	387639
770.196	261072
770.304	183541
770.412	135860
770.519	105736
770.627	84194
770.735	69242
770.842	58865
770.950	50762
771.058	45607
771.165	40838
771.273	35370
771.380	32711
771.488	30569
771.595	28921
771.703	25437
771.810	24104
771.918	22950
772.025	21956
772.133	20591
772.240	19120
772.348	18947
772.455	19193
772.562	17537
772.670	15975
772.777	15684
772.884	16351
772.991	14758
773.099	14001
773.206	13578
773.313	13605
773.420	13228
773.528	11820
773.635	12251
773.742	12419
773.849	11302
773.956	10688
774.063	10577
774.170	10168
774.277	10468
774.384	9904
774.491	8868
774.598	10087
774.705	9232
774.812	9773
774.919	9218
775.026	8269
775.133	8666
775.239	8243
775.346	8042
775.453	7866
775.560	7738
775.667	8470
775.773	7704
775.880	7617
775.987	7671
776.093	7612
776.200	7467
776.307	6982
776.413	6991
776.520	6891
776.627	7197
776.733	6652
776.840	5833
776.946	8804
777.053	7045
777.159	6604
777.266	5672
777.372	7916
777.478	6396
777.585	6656
777.691	5584
777.798	6401
777.904	5992
778.010	5617
778.117	5553
778.223	5428
778.329	4766
778.435	5637
778.542	5237
778.648	5080
778.754	4526
778.860	5089
778.966	3966
779.072	5294
779.178	5101
779.284	4920
779.391	4776
779.497	4652
779.603	7681
779.708	7704
779.815	18325
779.920	59695
780.026	73213
780.132	11444
780.238	4715
780.344	4914
780.450	5857
780.556	4367
780.661	4368
780.767	4179
780.873	2768
780.979	3857
781.085	3208
781.190	3595
781.296	3415
781.402	3599
781.507	2791
781.613	4103
781.719	3467
781.824	3324
781.930	3660
782.035	4015
782.141	3188
782.246	2865
782.352	4262
782.457	3466
782.563	3637
782.668	2850
782.773	2476
782.879	3653
782.984	3451
783.090	3813
783.195	3258
783.300	3844
783.405	2766
783.511	2226
783.616	3641
783.721	3094
783.826	2247
783.932	2743
784.037	3077
784.142	3010
784.247	2698
784.352	2371
784.457	2561
784.562	2140
784.667	2880
784.772	2963
784.877	2349
784.982	2925
785.087	1937
785.192	3579
785.297	1754
785.402	3018
785.507	2532
785.611	2942
785.716	2228
785.821	2221
785.926	1754
786.031	2301
786.135	2238
786.240	1661
786.345	524
786.450	3270
786.554	2070
786.659	2095
786.763	1120
786.868	2949
786.973	3058
787.077	1759
787.182	2424
787.286	2024
787.391	2169
787.495	1561
787.600	2268
787.704	1126
787.809	2542
787.913	1715
788.017	2041
788.122	2330
788.226	2331
788.330	1432
788.435	1786
788.539	2452
788.643	1100
788.747	1865
788.852	1792
788.956	938
789.060	1973
789.164	2326
789.268	1242
789.372	2784
789.476	1638
789.580	1351
789.684	171
789.788	2558
789.892	1235
789.996	2054
790.100	1500
790.204	1942
790.308	1330
790.412	921
790.516	1309
790.620	1446
790.724	2195
790.828	906
790.931	879
791.035	3580
791.139	1585
791.242	1525
791.346	1741
791.450	1707
791.554	565
791.657	202
791.761	1717
791.864	2004
791.968	1704
792.072	1445
792.175	1343
792.279	1036
792.382	1625
792.486	1752
792.589	1641
792.693	2270
792.796	618
792.899	2249
793.003	1609
793.106	326
793.209	1402
793.313	2368
793.416	-22
793.519	1799
793.623	1620
793.726	1551
793.829	1129
793.932	656
794.035	309
794.138	2458
794.242	2019
794.345	2001
794.448	4030
794.551	8563
794.654	31727
794.757	41036
794.860	5956
794.963	2218
795.066	1363
795.169	2053
795.272	1520
795.375	1685
795.477	1524
795.580	1616
795.683	181
795.786	1182
795.889	45
795.991	1778
796.094	1189
796.197	421
796.300	1947
796.402	462
796.505	744
796.608	199
796.710	1865
796.813	785
796.915	923
797.018	1691
797.120	1346
797.223	660
797.326	2256
797.428	470
797.530	1061
797.633	1415
797.735	1180
797.838	745
797.940	2191
798.042	607
798.145	1114
798.247	1112
798.349	-394
798.452	1451
798.554	384
798.656	470
798.758	1784
798.860	959
798.962	1166
799.065	280
799.167	-833
799.269	2101
799.371	1776
799.473	2250
799.575	-280
799.677	1285
799.779	2252
799.881	-334
799.983	593
800.085	971
800.187	567
800.289	160
800.390	474
800.492	772
800.594	1582
800.696	-348
800.798	45
800.899	569
801.001	170
801.103	552
801.205	1041
801.306	711
801.408	-401
801.509	1070
801.611	671
801.713	1398
801.814	70
801.916	572
802.017	807
802.119	531
802.220	827
802.322	-1056
802.423	2298
802.525	-886
802.626	176
802.727	1190
802.829	231
802.930	-593
803.031	2312
803.133	564
803.234	561
803.335	474
803.436	-149
803.538	634
803.639	-634
803.740	1118
803.841	-685
803.942	1064
804.043	1187
804.144	-10
804.245	376
804.346	120
804.447	-92
804.548	144
804.649	1776
804.750	734
804.851	93
804.952	441
805.053	428
805.154	52
805.255	661
805.355	654
805.456	-115
805.557	-603
805.658	-676
805.758	684
805.859	897
805.960	624
806.061	-626
806.161	7
806.262	890
806.362	56
806.463	-581
806.564	382
806.664	525
806.765	447
806.865	133
806.966	563
807.066	-544
807.166	416
807.267	281
807.367	590
807.468	89
807.568	-1101
807.668	1276
807.769	1411
807.869	33
807.969	846
808.069	295
808.170	575
808.270	305
808.370	1343
808.470	47
808.570	-1477
808.670	127
808.770	303
808.870	-46
808.970	247
809.070	-38
809.170	-427
809.271	-142
809.370	192
809.470	-41
809.570	25
809.670	-340
809.770	339
809.870	577
809.970	427
810.070	-83
810.169	345
810.269	-1103
810.369	643
810.469	-272
810.568	-267
810.668	-501
810.768	99
810.867	611
810.967	27
811.066	-290
811.166	-431
811.265	1024
811.365	-1006
811.464	-530
811.564	-587
811.663	331
811.763	-1114
811.862	735
811.962	793
812.061	419
812.160	-460
812.260	-159
812.359	503
812.458	125
812.557	4251
812.657	3604
812.756	479
812.855	-251
812.954	400
813.053	387
813.153	-115
813.252	-618
813.351	443
813.450	158
813.549	75
813.648	800
813.747	806
813.846	-32
813.945	-35
814.044	-367
814.143	-137
814.242	772
814.341	-936
814.439	-43
814.538	1029
814.637	-212
814.736	599
814.835	392
814.933	-117
815.032	-43
815.131	613
815.229	1047
815.328	2041
815.427	657
815.525	2099
815.624	280
815.722	428
815.821	1114
815.919	1653
816.018	272
816.116	1654
816.215	1270
816.313	1384
816.412	1200
816.510	1684
816.609	3449
816.707	1506
816.805	1131
816.904	1015
817.002	2362
817.100	3002
817.198	1809
817.296	1828
817.395	1555
817.493	2381
817.591	1115
817.689	2047
817.787	826
817.885	1064
817.983	2836
818.081	3678
818.179	6777
818.277	14861
818.375	12598
818.473	3117
818.571	2591
818.669	2755
818.767	1128
818.865	1069
818.963	2074
819.061	3217
819.158	3155
819.256	7392
819.354	13933
819.452	30693
819.549	15376
819.647	5017
819.745	1958
819.842	2269
819.940	1516
820.038	1374
820.135	1546
820.233	2513
820.330	944
820.428	466
820.525	1561
820.623	1107
820.720	433
820.818	1330
820.915	576
821.012	1707
821.110	22
821.207	1956
821.304	301
821.402	1437
821.499	1709
821.596	1581
821.693	-215
821.791	795
821.888	1338
821.985	2280
822.082	-76
822.179	1293
822.276	410
822.373	1774
822.470	993
822.567	1253
822.664	-371
822.761	2000
822.858	612
822.955	1296
823.052	768
823.149	855
823.246	1189
823.343	661
823.440	1539
823.536	1068
823.633	874
823.730	1053
823.827	769
823.923	1073
824.020	1736
824.117	196
824.213	154
824.310	2168
824.407	1045
824.503	1071
824.600	433
824.696	226
824.793	1286
824.889	822
824.986	1052
825.082	598
825.179	855
825.275	1694
825.371	318
825.468	1348
825.564	-463
825.660	1564
825.757	750
825.853	1397
825.949	-2
826.045	218
826.142	964
826.238	-170
826.334	1176
826.430	-95
826.526	1228
826.622	524
826.718	598
826.814	-116
826.910	1152
827.006	218
827.102	-717
827.198	857
827.294	618
827.390	1123
827.486	1097
827.582	-886
827.678	-706
827.774	831
827.869	355
827.965	1163
828.061	-429
828.157	407
828.252	678
828.348	1
828.444	97
828.539	492
828.635	-79
828.731	1551
828.826	72
828.922	715
829.017	297
829.113	1553
829.208	-422
829.304	484
829.399	867
829.495	-475
829.590	921
829.685	383
829.781	766
829.876	-37
829.971	-98
830.066	602
830.162	467
830.257	841
830.352	126
830.447	1549
830.543	259
830.638	-847
830.733	1931
830.828	509
830.923	1141
831.018	1473
831.113	-177
831.208	-658
831.303	20
831.398	-46
831.493	539
831.588	794
831.683	-210
831.778	-61
831.873	304
831.967	719
832.062	-148
832.157	-1017
832.252	343
832.346	186
832.441	773
832.536	1063
832.631	1007
832.725	248
832.820	757
832.914	-47
833.009	-223
833.104	-91
833.198	137
833.293	-642
833.387	790
833.482	276
833.576	-852
833.670	411
833.765	817
833.859	357
833.954	27
834.048	52
834.142	296
834.237	-274
834.331	-355
834.425	-195
834.519	-987
834.613	-267
834.708	-1136
834.802	382
834.896	99
834.990	-59
835.084	-286
835.178	-705
835.272	-239
835.366	-892
835.460	-264
835.554	592
835.648	-51
835.742	-692
835.836	68
835.930	-488
836.024	223
836.117	732
836.211	-1470
836.305	488
836.399	-134
836.493	-308
836.586	284
836.680	-105
836.774	-878
836.867	1188
836.961	-747
837.055	-952
837.148	-347
837.242	487
837.335	-869
837.429	-677
837.522	-1140
837.616	190
837.709	1574
837.803	37
837.896	359
837.989	-374
838.083	418
838.176	465
838.269	-771
838.363	1074
838.456	-531
838.549	327
838.642	-335
838.735	876
838.829	949
838.922	-255
839.015	-353
839.108	-539
839.201	-12
839.294	-187
839.387	388
839.480	-413
839.573	-652
839.666	-18
839.759	-280
839.852	-124
839.945	-106
840.038	-1241
840.131	326
840.223	533
840.316	866
840.409	493
840.502	-615
840.594	685
840.687	-1084
840.780	546
840.873	-863
840.965	-287
841.058	344
841.150	1567
841.243	-628
841.336	671
841.428	-348
841.521	-998
841.613	-1892
841.706	-719
841.798	-382
841.890	-607
841.983	-1501
842.075	326
842.167	-533
842.260	6
842.352	106
842.444	-660
842.537	983
842.629	872
842.721	-46
842.813	-318
842.905	-255
842.997	210
843.090	-1011
843.182	337
843.274	-432
843.366	3270
843.458	3174
843.550	1981
843.642	308
843.734	134
843.826	-527
843.918	224
844.009	473
844.101	-539
844.193	-61
844.285	-282
844.377	153
844.469	32
844.560	20
844.652	315
844.744	149
844.835	-78
844.927	-800
845.019	-477
845.110	68
845.202	-281
845.293	207
845.385	-1194
845.476	-592
845.568	58
845.659	-373
845.751	419
845.842	-573
845.934	-345
846.025	74
846.116	-449
846.208	-414
846.299	-686
846.390	-441
846.482	96
846.573	-639
846.664	-145
846.755	-538
846.846	885
846.937	-2000
847.029	-535
847.120	-539
847.211	-466
847.302	883
847.393	-1085
847.484	898
847.575	-558
847.666	-646
847.757	28
847.847	-170
847.938	-205
848.029	-180
848.120	-319
848.211	-862
848.302	-857
848.392	-285
848.483	239
848.574	-568
848.664	-725
848.755	-867
848.846	-131
848.936	-978
849.027	-484
849.118	-169
849.208	-951
849.299	963
849.389	1743
849.480	2731
849.570	7208
849.661	16144
849.751	24535
849.841	5745
849.932	-226
850.022	-591
850.112	78
850.203	-254
850.293	-460
850.383	-311
850.474	-714
850.564	-732
850.654	-357
850.744	-155
850.834	-370
850.924	-650
851.014	74
851.104	373
851.194	-1112
851.284	-526
851.374	-719
851.464	85
851.554	-838
851.644	-336
851.734	-177
851.824	-36
851.914	523
852.004	1395
852.094	-668
852.183	-309
852.273	436
852.363	-634
852.452	-765
852.542	-159
852.632	-155
852.721	-192
852.811	-75
852.901	-48
852.990	36
853.080	-228
853.169	-583
853.259	295
853.348	281
853.438	-228
853.527	1339
853.617	1556
853.706	5619
853.795	9225
853.885	22572
853.974	42429
854.063	82291
854.152	113043
854.242	36758
854.331	6137
854.420	2177
854.509	1948
854.598	1528
854.687	124
854.777	903
854.866	-30
854.955	69
855.044	-648
855.133	-1112
855.222	892
855.311	-508
855.400	-216
855.488	-97
855.577	-214
855.666	-494
855.755	433
855.844	-337
855.933	-815
856.021	-593
856.110	-258
856.199	-728
856.288	-247
856.376	-579
856.465	-1159
856.554	290
856.642	-1426
856.731	386
856.819	373
856.908	-636
856.996	-1038
857.085	-951
857.173	-678
857.262	-257
857.350	3
857.438	-272
857.527	-977
857.615	-1237
857.703	-741
857.792	-1606
857.880	-982
857.968	-1443
858.056	-492
858.145	-24
858.233	-913
858.321	-520
858.409	-822
858.497	-444
858.585	-1604
858.673	-158
858.761	-1154
858.849	-369
858.937	77
859.025	-527
859.113	-837
859.201	-1326
859.289	733
859.377	-1691
859.465	-953
859.552	-615
859.640	-1316
859.728	-1234
859.816	-536
859.903	-1033
859.991	-1393
860.079	-633
860.166	-1075
860.254	-819
860.342	-195
860.429	-456
860.517	-1237
860.604	-13
860.692	-533
860.779	-798
860.867	-568
860.954	-476
861.042	-585
861.129	-174
861.216	-119
861.304	-981
861.391	-542
861.478	-569
861.565	106
861.653	44
861.740	-558
861.827	-624
861.914	-10
862.001	-998
862.089	-645
862.176	-265
862.263	-1131
862.350	-780
862.437	-1017
862.524	-1163
862.611	-650
862.698	-354
862.785	-600
862.871	460
862.958	-452
863.045	-473
863.132	-708
863.219	53
863.306	-1183
863.392	17
863.479	-876
863.566	-1237
863.652	-410
863.739	-185
863.826	-1141
863.912	-969
863.999	-1078
864.086	-890
864.172	-990
864.259	-346
864.345	-845
864.432	233
864.518	-1397
864.604	-556
864.691	-668
864.777	255
864.863	125
864.950	390
865.036	81
865.122	2024
865.209	2169
865.295	1528
865.381	2190
865.467	1085
865.553	2772
865.639	3164
865.726	5447
865.812	12276
865.898	22746
865.984	33480
866.070	65650
866.156	61033
866.242	14770
866.328	4352
866.414	1922
866.499	2646
866.585	1820
866.671	2121
866.757	1690
866.843	1463
866.928	1293
867.014	1764
867.100	1484
867.186	1004
867.271	1641
867.357	1029
867.442	1387
867.528	1113
867.614	443
867.699	937
867.785	1355
867.870	576
867.956	863
868.041	962
868.127	849
868.212	1183
868.297	1418
868.383	693
868.468	1105
868.553	2090
868.639	497
868.724	2296
868.809	1439
868.894	1255
868.979	924
869.065	1576
869.150	150
869.235	930
869.320	932
869.405	447
869.490	911
869.575	399
869.660	-65
869.745	1084
869.830	551
869.915	534
870.000	76
870.085	351
870.169	781
870.254	1505
870.339	503
870.424	419
870.509	691
870.593	1238
870.678	650
870.763	479
870.847	375
870.932	456
871.016	492
871.101	387
871.186	921
871.270	1148
871.355	-48
871.439	328
871.523	223
871.608	724
871.692	369
871.777	1448
871.861	401
871.945	367
872.030	1004
872.114	514
872.198	111
872.282	-277
872.367	-17
872.451	412
872.535	192
872.619	395
872.703	-250
872.787	87
872.871	-700
872.955	-181
873.039	-110
873.123	423
873.207	628
873.291	-764
873.375	242
873.459	1427
873.543	314
873.627	-48
873.711	-44
873.794	863
873.878	-427
873.962	180
874.045	559
874.129	14
874.137	46
874.213	358
874.245	258
874.296	96
874.352	-372
874.380	-602
874.460	298
874.464	334
874.547	3
874.568	171
874.631	647
874.676	73
874.714	-399
874.784	599
874.798	794
874.881	958
874.892	815
874.965	-163
874.999	-346
875.048	-619
875.107	-289
875.131	-148
875.215	19
875.215	20
875.298	488
875.323	373
875.381	118
875.430	713
875.465	1122
875.538	587
875.548	511
875.631	119
875.646	53
875.714	-261
875.753	-98
875.798	144
875.861	454
875.881	510
875.964	119
875.968	95
876.047	-232
876.076	-127
876.130	57
876.183	197
876.213	298
876.291	1265
876.296	1319
876.379	7
876.398	62
876.462	414
876.506	280
876.545	99
876.613	253
876.628	315
876.711	568
876.721	635
876.794	1024
876.828	750
876.877	337
876.935	570
876.960	694
877.043	218
877.043	221
877.125	1097
877.150	936
877.208	554
877.258	356
877.291	243
877.365	854
877.374	914
877.456	228
877.472	257
877.539	502
877.579	773
877.622	986
877.687	428
877.704	332
877.787	652
877.794	666
877.869	630
877.901	837
877.952	1227
878.008	470
878.034	142
878.115	873
878.117	887
878.199	522
878.222	628
878.282	947
878.329	1065
878.364	1254
878.437	1098
878.447	1024
878.529	75
878.544	9
878.611	86
878.651	632
878.694	1180
878.758	1178
878.776	1176
878.858	755
878.865	800
878.941	1050
878.972	659
879.023	253
879.078	741
879.105	1077
879.185	1690
879.187	1694
879.269	1330
879.292	976
879.351	329
879.399	749
879.433	1013
879.506	1550
879.516	1619
879.598	849
879.613	847
879.680	1093
879.720	1382
879.762	1489
879.827	665
879.844	523
879.926	1292
879.933	1330
880.007	1645
880.040	1714
880.089	1807
880.147	1702
880.171	1728
880.253	2850
880.254	2847
880.335	3188
880.360	3602
880.417	5046
880.467	7129
880.499	8677
880.574	10040
880.580	9826
880.662	4359
880.680	3641
880.744	2402
880.787	1601
880.825	1076
880.893	1056
880.907	1220
880.989	1453
881.000	1518
881.070	1669
881.106	1805
881.152	1872
881.213	1859
881.233	1802
881.315	789
881.319	797
881.396	1800
881.426	1740
881.478	1392
881.532	1608
881.559	1782
881.639	1758
881.641	1743
881.722	1525
881.745	1290
881.803	1694
881.852	1847
881.885	1410
881.958	912
881.966	989
882.047	2063
882.064	2088
882.129	1584
882.171	1399
882.210	1399
882.277	1514
882.291	1436
882.372	1047
882.383	961
882.454	1779
882.489	2230
882.535	2079
882.596	2024
882.616	2035
882.697	1473
882.702	1452
882.778	1532
882.808	1577
882.859	1681
882.914	1589
882.940	1434
883.020	1382
883.021	1397
883.102	2122
883.127	2405
883.183	2608
883.233	2352
883.264	1898
883.339	1292
883.345	1288
883.426	1096
883.445	1022
883.507	1686
883.551	2101
883.587	1921
883.657	1741
883.668	1868
883.749	2466
883.763	2578
883.830	1875
883.869	1461
883.910	1673
883.975	2091
883.991	2160
884.072	2372
884.081	2420
884.152	2845
884.187	2641
884.233	2361
884.292	2628
884.314	2560
884.394	1680
884.398	1648
884.475	1358
884.504	1200
884.555	1380
884.610	1428
884.636	1483
884.716	1947
884.716	1962
884.797	2856
884.821	3074
884.877	2876
884.927	2595
884.958	2360
885.033	1885
885.038	1869
885.118	1488
885.139	1339
885.199	1215
885.244	1449
885.279	1925
885.350	2364
885.359	2417
885.439	3083
885.456	3120
885.520	2418
885.561	2051
885.600	2104
885.667	2299
885.680	2384
885.760	2663
885.773	2757
885.840	2771
885.878	2514
885.920	2190
885.984	1843
886.000	1973
886.080	2493
886.089	2543
886.160	2884
886.195	2989
886.240	2699
886.300	2482
886.320	2482
886.400	2322
886.406	2293
886.480	2071
886.511	2070
886.560	2736
886.616	3168
886.640	3082
886.720	3059
886.722	3046
886.800	3039
886.827	2973
886.879	3136
886.932	3251
886.959	3292
887.038	3344
887.039	3346
887.119	2541
887.143	2265
887.198	2582
887.248	2849
887.278	2779
887.354	2538
887.358	2556
887.437	2864
887.459	2870
887.517	2927
887.564	3046
887.596	3105
887.669	2971
887.676	2891
887.755	1990
887.774	1736
887.835	2331
887.880	2822
887.914	2947
887.985	3041
887.994	3169
888.073	4143
888.090	4380
888.153	4508
888.195	4397
888.232	4180
888.300	4001
888.311	3908
888.391	2917
888.405	2747
888.470	3148
888.510	3318
888.549	3257
888.615	3300
888.628	3368
888.708	3506
888.720	3523
888.787	3505
888.825	3464
888.866	3350
888.930	3156
888.945	3288
889.024	3963
889.035	4036
889.103	3965
889.140	3887
889.182	3871
889.245	3846
889.261	3762
889.340	3299
889.349	3234
889.419	3291
889.454	3297
889.498	3331
889.559	3371
889.577	3568
889.656	4370
889.664	4438
889.735	3972
889.768	3729
889.814	3779
889.873	3819
889.978	3376
890.083	4113
890.187	4292
890.292	3522
890.397	3791
890.501	3080
890.606	2654
890.710	4283
890.815	3671
890.919	4031
891.024	3343
891.128	3999
891.233	2579
891.337	4082
891.442	2950
891.546	3087
891.650	3279
891.755	2664
891.859	4068
891.963	4125
892.068	3883
892.172	3274
892.276	2095
892.380	2737
892.484	3217
892.589	3791
892.693	3272
892.797	2177
892.901	3390
893.005	2679
893.109	3149
893.213	4492
893.317	2868
893.421	2141
893.525	1768
893.629	2236
893.733	3411
893.837	3643
893.941	2913
894.045	3573
894.148	3137
894.252	5347
894.356	4043
894.460	4017
894.564	3188
894.667	2139
894.771	1459
894.875	1961
894.978	2791
895.082	2849
895.186	2855
895.289	3320
895.393	2380
895.496	3171
895.600	2479
895.703	2401
895.807	2556
895.910	3091
896.014	3096
896.117	1926
896.221	3709
896.324	2863
896.427	2384
896.531	2155
896.634	2772
896.737	2839
896.840	2509
896.944	3045
897.047	3156
897.150	2814
897.253	1160
897.356	1937
897.460	1670
897.563	2984
897.666	2641
897.769	2877
897.872	2413
897.975	2282
898.078	3017
898.181	2223
898.284	2261
898.387	2933
898.490	2922
898.593	3004
898.695	2080
898.798	2285
898.901	1495
899.004	2166
899.107	2430
899.209	3038
899.312	3229
899.415	2258
899.518	1585
899.620	2160
899.723	1814
899.826	3195
899.928	3036
900.031	2778
900.133	2375
900.236	1664
900.338	1544
900.441	2413
900.543	2535
900.646	2839
900.748	2305
900.851	2848
900.953	2285
901.055	1908
901.158	2535
901.260	1731
901.362	2015
901.465	1848
901.567	2113
901.669	2765
901.771	697
901.873	2620
901.976	2342
902.078	1811
902.180	1494
902.282	2145
902.384	2128
902.486	3253
902.588	2596
902.690	1923
902.792	1851
902.894	3338
902.996	2230
903.098	1550
903.200	1616
903.302	1638
903.404	2013
903.505	1227
903.607	2043
903.709	2968
903.811	2886
903.913	1939
904.014	2373
904.116	1596
904.218	1777
904.319	2443
904.421	2976
904.523	2582
904.624	1537
904.726	2324
904.827	1781
904.929	768
905.030	1784
905.132	3759
905.233	2245
905.335	1280
905.436	1914
905.537	1893
905.639	2229
905.740	2532
905.841	1913
905.943	2548
906.044	1635
906.145	1871
906.247	961
906.348	2143
906.449	1940
906.550	3119
906.651	1342
906.752	1886
906.854	1372
906.955	2487
907.056	1333
907.157	2696
907.258	2150
907.359	1859
907.460	1735
907.561	2117
907.662	2355
907.762	2363
907.863	2059
907.964	2191
908.065	2046
908.166	1564
908.267	1179
908.367	593
908.468	929
908.569	2159
908.670	2285
908.770	2977
908.871	1915
908.971	2421
909.072	2271
909.173	1752
909.273	1353
909.374	2081
909.474	1971
909.575	2355
909.675	2297
909.776	2784
909.876	1368
909.977	2471
910.077	2146
910.177	3031
910.278	1387
910.378	1810
910.478	2152
910.579	3472
910.679	1877
910.779	2943
910.879	2476
910.980	3211
911.080	1918
911.180	1899
911.280	1866
911.380	2262
911.480	1146
911.580	1871
911.680	1473
911.780	2493
911.880	1880
911.980	1436
912.080	1337
912.180	2111
912.280	1274
912.380	2254
912.480	1418
912.580	1883
912.679	799
912.779	2536
912.879	2469
912.979	2072
913.078	1288
913.178	1803
913.278	1909
913.377	1112
913.477	1751
913.577	1607
913.676	2055
913.776	2514
913.875	1801
913.975	2664
914.074	2287
914.174	1172
914.273	868
914.373	1870
914.472	1674
914.572	1078
914.671	329
914.770	1756
914.870	907
914.969	1153
915.068	2068
915.167	2574
915.267	1438
915.366	1909
915.465	1945
915.564	1883
915.663	1302
915.763	1927
915.862	1947
915.961	1858
916.060	728
916.159	1626
916.258	1211
916.357	1884
916.456	2400
916.555	2254
916.654	2220
916.752	1829
916.851	2213
916.950	2595
917.049	2215
917.148	1441
917.247	2060
917.345	1692
917.444	1113
917.543	1744
917.642	1139
917.740	1978
917.839	2473
917.937	2991
918.036	2502
918.135	1733
918.233	1343
918.332	2006
918.430	1127
918.529	2089
918.627	1678
918.726	2250
918.824	1616
918.923	1514
919.021	2321
919.119	1806
919.218	884
919.316	1849
919.414	1035
919.512	2540
919.611	2590
919.709	2789
919.807	2439
919.905	3778
920.003	2417
920.102	2031
920.200	2088
920.298	2879
920.396	2030
920.494	2673
920.592	1540
920.690	2757
920.788	1924
920.886	2546
920.984	3539
921.082	1673
921.180	2889
921.277	3523
921.375	3174
921.473	5049
921.571	3451
921.669	3593
921.766	3353
921.864	4229
921.962	3687
922.060	3405
922.157	3572
922.255	4033
922.352	3126
922.450	4719
922.548	4489
922.645	4774
922.743	5319
922.840	9128
922.938	9373
923.035	7923
923.133	8200
923.230	9162
923.327	10987
923.425	10383
923.522	10427
923.619	10171
923.717	8832
923.814	9272
923.911	8176
924.008	9507
924.106	7682
924.203	8379
924.300	7669
924.397	8367
924.494	8513
924.591	9372
924.688	7280
924.786	8297
924.883	8558
924.979	8534
925.077	7283
925.173	7483
925.270	8278
925.367	7676
925.464	8138
925.561	8514
925.658	7637
925.755	7531
925.852	8335
925.948	7026
926.045	7999
926.142	7658
926.239	7720
926.335	6774
926.432	8188
926.529	8170
926.625	8982
926.722	6098
926.818	6401
926.915	7937
927.011	7184
927.108	8501
927.204	7264
927.301	7628
927.397	7924
927.494	7672
927.590	5891
927.687	7305
927.783	8313
927.879	8594
927.976	6577
928.072	7062
928.168	6906
928.264	6564
928.361	6280
928.457	6864
928.553	5810
928.649	7909
928.745	6642
928.841	6891
928.937	6827
929.033	6256
929.129	7128
929.225	7919
929.321	6205
929.417	6643
929.513	7381
929.609	5673
929.705	6073
929.801	6634
929.897	5853
929.993	6056
930.089	6476
930.184	6418
930.280	6386
930.376	7056
930.471	4600
930.567	6213
930.663	5608
930.758	5482
930.854	5634
930.950	5852
931.045	5418
931.141	6713
931.236	7487
931.332	5961
931.427	5019
931.523	7118
931.618	6004
931.714	3725
931.809	5334
931.905	6736
932.000	4516
932.095	4654
932.191	7538
932.286	7440
932.381	5232
932.476	4969
932.572	5134
932.667	5220
932.762	4774
932.857	6365
932.952	5785
933.047	5235
933.142	4604
933.237	5502
933.332	5513
933.427	6322
933.522	4564
933.617	5326
933.712	4921
933.807	7063
933.902	6124
933.997	5873
934.092	3813
934.187	5987
934.282	5212
934.376	5859
934.471	5660
934.566	5238
934.661	3994
934.755	5681
934.850	5961
934.945	4932
935.039	3785
935.134	4214
935.228	5513
935.323	6204
935.417	4026
935.512	3555
935.606	3736
935.701	4848
935.795	5553
935.890	4828
935.984	3740
936.079	4571
936.173	5456
936.267	4256
936.362	3779
936.456	5599
936.550	5517
936.644	4893
936.738	3485
936.833	4138
936.927	3567
937.021	4037
937.115	4146
937.209	4126
937.303	4433
937.397	4086
937.491	4512
937.585	5657
937.679	4302
937.773	4147
937.867	3772
937.961	4417
938.055	5566
938.149	4349
938.243	2776
938.337	3529
938.430	4554
938.524	4806
938.618	2965
938.712	3803
938.805	3608
938.899	4854
938.993	4462
939.086	2645
939.180	2720
939.274	3616
939.367	4574
939.461	4403
939.554	2998
939.648	3809
939.741	3168
939.835	3834
939.928	5553
940.022	4362
940.115	3977
940.208	4920
940.302	4843
940.395	4288
940.488	3021
940.582	4015
940.675	2022
940.768	4106
940.861	3740
940.954	5758
941.048	2347
941.141	3380
941.234	2802
941.327	3579
941.420	4363
941.513	4454
941.606	2582
941.699	3534
941.792	4527
941.885	3331
941.978	3552
942.071	3751
942.164	2643
942.257	3420
942.349	3093
942.442	3414
942.535	2125
942.628	2657
942.721	2948
942.813	3002
942.906	3929
942.999	3021
943.091	2687
943.184	3435
943.277	3054
943.369	2781
943.462	2797
943.554	2875
943.647	2649
943.739	3474
943.832	2841
943.924	1754
944.017	2512
944.109	3103
944.201	2256
944.294	3085
944.386	2982
944.478	2508
944.571	2285
944.663	2451
944.755	2534
944.847	3432
944.940	3274
945.032	2508
945.124	1487
945.216	3241
945.308	2499
945.400	2659
945.492	2518
945.584	3610
945.676	3078
945.768	3304
945.860	3826
945.952	3966
946.044	3002
946.136	2651
946.228	3094
946.320	2410
946.412	3199
946.503	3801
946.595	3608
946.687	2280
946.779	1528
946.870	3012
946.962	1499
947.054	2857
947.145	3413
947.237	3522
947.329	2745
947.420	2929
947.512	2381
947.603	1962
947.695	2597
947.786	2041
947.878	2424
947.969	3293
948.061	2866
948.152	2668
948.243	2062
948.335	2527
948.426	1580
948.517	1864
948.609	2576
948.700	2882
948.791	2297
948.882	1611
948.973	1915
949.065	3088
949.156	2277
949.247	1218
949.338	2062
949.429	1543
949.520	2365
949.611	1478
949.702	3046
949.793	2729
949.884	2506
949.975	1649
950.066	1805
950.157	1933
950.247	1789
950.338	2002
950.429	1972
950.520	2233
950.611	2095
950.701	1937
950.792	2213
950.883	2978
950.973	2405
951.064	3578
951.155	2750
951.245	2908
951.336	2306
951.427	2715
951.517	3463
951.608	3065
951.698	1973
951.788	2363
951.879	1576
951.969	2248
952.060	1866
952.150	2198
952.240	3310
952.331	1238
952.421	2637
952.511	2065
952.602	1479
952.692	1720
952.782	2136
952.872	2014
952.962	2564
953.052	2344
953.143	1178
953.233	2206
953.323	2546
953.413	1306
953.503	2347
953.593	2566
953.683	2224
953.773	1377
953.863	2033
953.953	2362
954.042	1301
954.132	2461
954.222	2044
954.312	1771
954.402	2423
954.492	2234
954.581	2361
954.671	2296
954.761	1011
954.850	3052
954.940	1322
955.030	905
955.119	1224
955.209	2073
955.298	1164
955.388	2367
955.477	3089
955.567	1313
955.656	2446
955.746	2145
955.835	2283
955.925	615
956.014	2272
956.103	2331
956.193	2062
956.282	2117
956.371	2372
956.461	2153
956.550	1840
956.639	2176
956.728	1823
956.817	2952
956.906	2714
956.995	3451
957.085	1856
957.174	2622
957.263	1101
957.352	2916
957.441	2034
957.530	2434
957.619	2789
957.708	2143
957.796	2516
957.885	3724
957.974	2633
958.063	2259
958.152	829
958.241	2040
958.329	2067
958.418	2832
958.507	2921
958.596	4279
958.684	3108
958.773	4075
958.861	3170
958.950	3863
959.039	2912
959.127	4347
959.216	3676
959.304	4393
959.393	3292
959.481	3864
959.570	3391
959.658	2434
959.746	3864
959.835	3854
959.923	4364
960.011	3308
960.100	3153
960.188	3286
960.276	3392
960.365	2188
960.453	2883
960.541	2261
960.629	2700
960.717	1963
960.805	1573
960.893	2100
960.981	2343
961.069	3744
961.158	2649
961.245	2858
961.333	2183
961.421	2095
961.509	2260
961.597	2697
961.685	1680
961.773	2094
961.861	1750
961.949	2765
962.036	679
962.124	2571
962.212	1450
962.299	1910
962.387	1389
962.475	1586
962.562	582
962.650	2131
962.738	1516
962.825	1391
962.913	700
963.000	1460
963.088	1709
963.175	2336
963.263	1165
963.350	1851
963.438	1514
963.525	1093
963.612	2387
963.700	3837
963.787	6753
963.874	2646
963.962	721
964.049	1582
964.136	439
964.223	758
964.310	854
964.398	1541
964.485	1248
964.572	1671
964.659	2274
964.746	1348
964.833	925
964.920	1567
965.007	1180
965.094	1295
965.181	757
965.268	1481
965.355	1170
965.441	1075
965.528	18
965.615	2120
965.702	136
965.789	1022
965.875	1036
965.962	2080
966.049	861
966.136	2530
966.222	1252
966.309	2145
966.395	616
966.482	1472
966.569	1035
966.655	1785
966.742	1204
966.828	1410
966.915	244
967.001	537
967.087	-198
967.174	1160
967.260	1239
967.347	2265
967.433	2017
967.519	3801
967.605	1441
967.692	609
967.778	1116
967.864	821
967.950	1017
968.036	497
968.123	1096
968.209	693
968.295	752
968.381	1553
968.467	510
968.553	-98
968.639	1256
968.725	760
968.811	1633
968.897	2248
968.983	-32
969.069	-107
969.154	394
969.240	1016
969.326	-207
969.412	567
969.497	238
969.583	597
969.669	1263
969.755	983
969.840	698
969.926	2314
970.012	1877
970.097	3673
970.183	1803
970.268	890
970.354	707
970.439	1797
970.525	3401
970.610	699
970.696	1633
970.781	39
970.866	-354
970.952	1329
971.037	82
971.122	1027
971.208	574
971.293	1200
971.378	-556
971.463	813
971.549	742
971.634	970
971.719	597
971.804	130
971.889	1040
971.974	252
972.059	103
972.144	596
972.229	-528
972.314	287
972.399	199
972.484	-171
972.569	962
972.654	-497
972.739	1605
972.824	1477
972.908	-27
972.993	626
973.078	-65
973.163	623
973.247	1033
973.332	-280
973.417	732
973.501	417
973.586	566
973.671	913
973.755	52
973.840	676
973.924	1589
974.009	2121
974.093	1284
974.178	1603
974.262	1911
974.346	1440
974.431	691
974.515	827
974.600	520
974.684	1900
974.768	188
974.852	1606
974.937	-1000
975.021	2171
975.105	785
975.189	616
975.273	375
975.358	339
975.442	-926
975.526	1026
975.610	-243
975.694	469
975.778	1204
975.862	392
975.946	-968
976.030	1843
976.114	-114
976.198	1083
976.281	228
976.365	825
976.449	-826
976.533	834
976.617	-1045
976.700	-65
976.784	242
976.868	-268
976.951	477
977.035	-173
977.119	390
977.202	-97
977.286	506
977.369	746
977.453	1714
977.536	838
977.620	-28
977.703	1030
977.787	-263
977.870	1552
977.953	1598
978.037	288
978.120	1595
978.203	594
978.287	881
978.370	881
978.453	-44
978.536	526
978.620	1140
978.703	702
978.786	-200
978.869	546
978.952	-608
979.035	1643
979.118	583
979.201	-55
979.284	639
979.367	-427
979.450	940
979.533	-143
979.616	-149
979.699	-7
979.782	-176
979.865	662
979.948	383
980.030	-335
980.113	-251
980.196	-543
980.279	800
980.361	704
980.444	-49
980.526	813
980.609	176
980.692	1677
980.774	572
980.857	-284
980.939	2459
981.022	-438
981.104	824
981.187	-3
981.269	-133
981.352	683
981.434	-212
981.516	318
981.599	1039
981.681	1422
981.763	718
981.846	652
981.928	653
982.010	819
982.092	275
982.174	70
982.256	458
982.339	-26
982.421	194
982.503	917
982.585	57
982.667	355
982.749	-62
982.831	923
982.913	202
982.995	1403
983.077	-161
983.158	1076
983.240	-637
983.322	1842
983.404	1406
983.486	1113
983.568	1186
983.649	646
983.731	729
983.813	-34
983.894	1033
983.976	478
984.058	71
984.139	2064
984.221	-1108
984.302	2004
984.384	109
984.465	274
984.547	997
984.628	569
984.710	1317
984.791	66
984.872	-68
984.954	79
985.035	832
985.116	106
985.198	302
985.279	1717
985.360	442
985.441	-335
985.522	1270
985.604	961
985.685	-1035
985.766	1340
985.847	975
985.928	-224
986.009	338
986.090	-110
986.171	1159
986.252	461
986.333	247
986.414	353
986.495	863
986.576	554
986.656	327
986.737	1571
986.818	1264
986.899	545
986.980	901
987.060	1288
987.141	-118
987.222	1622
987.302	1269
987.383	2246
987.464	1336
987.544	1301
987.625	714
987.705	2372
987.786	440
987.866	734
987.947	-333
988.027	486
988.108	693
988.188	1919
988.268	686
988.349	1494
988.429	1218
988.509	2185
988.589	974
988.670	-571
988.750	1582
988.830	697
988.910	663
988.990	968
989.070	403
989.151	747
989.231	10
989.311	771
989.391	194
989.471	161
989.551	563
989.631	-327
989.711	725
989.791	-123
989.870	-199
989.950	1185
990.030	892
990.110	92
990.190	-477
990.269	416
990.349	338
990.429	440
990.509	1009
990.588	-86
990.668	-402
990.747	1283
990.827	240
990.907	633
990.986	62
991.066	1035
991.145	-487
991.225	874
991.304	534
991.383	1356
991.463	-416
991.542	673
991.622	-818
991.701	-275
991.780	-783
991.859	518
991.939	222
992.018	761
992.097	422
992.176	526
992.256	-567
992.335	-419
992.414	610
992.493	-773
992.572	-566
992.651	1458
992.730	-557
992.809	112
992.888	-516
992.967	-279
993.046	775
993.125	-818
993.203	388
993.282	-362
993.361	518
993.440	-528
993.519	-1086
993.597	-177
993.676	-429
993.755	1187
993.834	-1246
993.912	-629
993.991	698
994.069	-86
994.148	-340
994.226	-397
994.305	-739
994.384	-209
994.462	892
994.540	-741
994.619	-794
994.697	41
994.776	-757
994.854	-21
994.932	-1943
995.011	454
995.089	-618
995.167	-85
995.245	-558
995.324	-830
995.402	-461
995.480	-1048
995.558	-637
995.636	-345
995.714	-1043
995.792	429
995.870	-867
995.948	-1140
996.026	-87
996.104	-1172
996.182	245
996.260	-1027
996.338	-33
996.416	-1332
996.494	-938
996.572	916
996.649	-864
996.727	-1556
996.805	-423
996.883	-697
996.960	-778
997.038	-525
997.116	-240
997.193	-1041
997.271	-1033
997.348	-1163
997.426	-963
997.504	-1453
997.581	-1328
997.658	-220
997.736	-2790
997.813	-1436
997.891	-167
997.968	-521
998.046	-1275
998.123	-562
998.200	-649
998.277	-1532
998.355	-1036
998.432	-1939
998.509	-327
998.586	-170
998.663	-162
998.741	-1393
998.818	-715
998.895	-652
998.972	-390
999.049	-624
999.126	-1638
999.203	-471
999.280	-765
999.357	-1042
999.434	-993
999.511	-599
999.587	-1165
999.664	-1342
999.741	-1227
999.818	-494
999.895	-890
999.971	-1606
1000.048	-1304
1000.125	-673
1000.202	-1673
1000.278	-1149
1000.355	-1395
1000.431	-861
1000.508	-1033
1000.584	-993
1000.661	-1659
1000.738	-1458
1000.814	-508
1000.890	-770
1000.967	-1163
1001.043	-957
1001.120	-1876
1001.196	-511
1001.272	-1837
1001.349	-1014
1001.425	-1278
1001.501	-980
1001.577	-2062
1001.654	-186
1001.730	-1748
1001.806	-804
1001.882	-1489
1001.958	-510
1002.034	-1068
1002.110	-1157
1002.186	-2270
1002.262	-1649
1002.338	-1896
1002.414	-1116
1002.490	-1133
1002.566	-1122
1002.642	-2273
1002.718	10
1002.794	-1426
1002.870	-1657
1002.945	-2082
1003.021	-1633
1003.097	-1541
1003.173	-890
1003.248	-1976
1003.324	-1225
1003.400	-1948
1003.475	-1849
1003.551	-1579
1003.626	-1741
1003.702	-1208
1003.777	-1593
1003.853	-1272
1003.928	-2320
1004.004	-1295
1004.079	-243
1004.155	-1822
1004.230	-2155
1004.305	-929
1004.381	-2198
1004.456	-1290
1004.531	-797
1004.607	-1238
1004.682	-2174
1004.757	-1250
1004.832	-1727
1004.907	-2241
1004.982	-1053
1005.057	-1028
1005.133	-2030
1005.208	-1988
1005.283	-1108
1005.358	-1583
1005.433	-2225
1005.508	-1211
1005.583	-1491
1005.657	-1874
1005.732	-1700
1005.807	-1626
1005.882	-1633
1005.957	-1614
1006.032	-1261
1006.106	-1023
1006.181	-1177
1006.256	-1096
1006.331	-2077
1006.405	-1793
1006.480	-1718
1006.554	-2163
1006.629	-954
1006.704	-2165
1006.778	-1322
1006.853	-503
1006.927	-2237
1007.002	-2043
1007.076	-1406
1007.150	-1505
1007.225	-1455
1007.299	-1841
1007.373	-1506
1007.448	-2279
1007.522	-930
1007.596	-1706
1007.671	-1954
1007.745	-900
1007.819	-2016
1007.893	-1979
1007.967	-1445
1008.041	-3162
1008.115	-911
1008.190	-2104
1008.264	-904
1008.338	-3031
1008.412	-1496
1008.486	-1105
1008.560	-1517
1008.633	-1751
1008.707	-1362
1008.781	-1258
1008.855	-1513
1008.929	-1733
1009.003	-1830
1009.076	-2124
1009.150	-1518
1009.224	-992
1009.298	-522
1009.371	-2180
1009.445	-1475
1009.519	-1795
1009.592	-2304
1009.666	-2252
1009.739	-1407
1009.813	-3071
1009.886	-1303
1009.960	-2606
1010.033	-1059
1010.107	-655
1010.180	-2321
1010.253	-2381
1010.327	-1776
1010.400	-1767
1010.473	-2317
1010.547	-159
1010.620	-1535
1010.693	-1527
1010.766	-2316
1010.840	-970
1010.913	-2009
1010.986	-2628
1011.059	-1802
1011.132	-2889
1011.205	-999
1011.278	-1869
1011.351	-1311
1011.424	-1607
1011.497	-2288
1011.570	-1537
1011.643	-1399
1011.716	-2052
1011.789	-1652
1011.862	-960
1011.934	-1148
1012.007	-2472
1012.080	-2203
1012.153	-1405
1012.225	-469
1012.298	-2638
1012.371	-2206
1012.443	-663
1012.516	-1941
1012.588	-1534
1012.661	-1615
1012.733	-2592
1012.806	-928
1012.879	-2437
1012.951	-2033
1013.023	-1716
1013.096	-1678
1013.168	-1828
1013.241	-1407
1013.313	-1920
1013.385	-2048
1013.458	-2197
1013.530	-1197
1013.602	-2282
1013.674	-1340
1013.746	-2713
1013.819	-2080
1013.891	-1909
1013.963	-1240
1014.035	-1946
1014.107	-1282
1014.179	-1238
1014.251	-1679
1014.323	-1707
1014.395	-1513
1014.467	-1636
1014.539	-1476
1014.611	-2462
1014.683	-2460
1014.754	-1825
1014.826	-1886
1014.898	-2348
1014.970	-2333
1015.042	-1590
1015.113	-1682
1015.185	-1642
1015.257	-2288
1015.328	-1554
1015.400	-1209
1015.471	-1839
1015.543	-1966
1015.615	-1318
1015.686	-1554
1015.757	-2382
1015.829	-1184
1015.901	-1611
1015.972	-1952
1016.043	-1841
1016.115	-892
1016.186	-1475
1016.257	-1999
1016.328	-1555
1016.400	-101
1016.471	-2680
1016.542	-1793
1016.613	-1680
1016.685	-1175
1016.756	-2007
1016.827	-1279
1016.898	-2456
1016.969	-502
1017.040	-2625
1017.111	-2561
1017.182	-2509
1017.253	-1834
1017.324	-1988
1017.395	-1747
1017.466	-1351
1017.537	-1523
1017.608	-1419
1017.678	-1446
1017.749	-1879
1017.820	-2061
1017.891	-2315
1017.961	-1755
1018.032	-2269
1018.103	-1295
1018.173	-2121
1018.244	-1780
1018.315	-1774
1018.385	-962
1018.456	-2505
1018.526	-2440
1018.597	-2046
1018.667	-1074
1018.738	-2091
1018.808	-1466
1018.878	-1957
1018.949	-2149
1019.019	-1987
1019.089	-1044
1019.160	-1786
1019.230	-2180
1019.300	-2014
1019.371	-2205
1019.441	-2195
1019.511	-2253
1019.581	-1974
1019.651	-1081
1019.721	-2446
1019.791	-1738
1019.861	-2315
1019.931	-2450
1020.001	-2273
1020.071	-1989
1020.141	-2142
1020.211	-1874
1020.281	-1847
1020.351	-2075
1020.421	-2041
1020.491	-1719
1020.560	-2127
1020.630	-1106
1020.700	-1639
1020.770	-2154
1020.839	-2220
1020.909	-2092
1020.979	-1903
1021.048	-2150
1021.118	-2133
1021.187	-1833
1021.257	-1853
1021.326	-1323
1021.396	-1978
1021.465	-1323
1021.535	-2029
1021.604	-2357
1021.674	-2288
1021.743	-906
1021.812	-2988
1021.882	-1916
1021.951	-1851
1022.020	-1503
1022.089	-1590
1022.159	-1680
1022.228	-1634
1022.297	-1308
1022.366	-2478
1022.435	-1324
1022.504	-2015
1022.573	-2035
1022.642	-2033
1022.711	-1801
1022.781	-1673
1022.849	-1797
1022.918	-2681
1022.987	-1957
1023.056	-1866
1023.125	-2182
1023.194	-2191
1023.263	-978
1023.331	-1331
1023.400	-2657
1023.469	-2107
1023.538	-794
1023.606	-2544
1023.675	-2054
1023.744	-2625
1023.812	-2165
1023.881	-2282
1023.949	-1355
1024.018	-1689
1024.086	-2156
1024.155	-2501
1024.223	-1469
1024.292	-2330
1024.360	-1887
1024.429	-2272
1024.497	-1925
1024.565	-2971
1024.634	-2042
1024.702	-2392
1024.770	-2255
1024.838	-2339
1024.907	-2071
1024.975	-3255
1025.043	-1888
1025.111	-2875
1025.179	-1624
1025.247	-1513
1025.315	-2166
1025.383	-1920
1025.451	-2335
1025.519	-2124
1025.587	-2233
1025.655	-2196
1025.723	-1831
1025.791	-1728
1025.859	-1203
1025.927	-1551
1025.995	-2160
1026.062	-2048
1026.130	-2081
1026.198	-1869
1026.266	-1605
1026.333	-1127
1026.401	-1482
1026.469	-2300
1026.536	-1476
1026.604	-2102
1026.671	-2038
1026.739	-2131
1026.806	-1660
1026.874	-2282
1026.941	-1961
1027.009	-1704
1027.076	-1714
1027.144	-1137
1027.211	-2642
1027.278	-2011
1027.345	-2150
1027.413	-2358
1027.480	-2245
1027.547	-2325
1027.614	-2037
1027.682	-2017
1027.749	-1434
1027.816	-2064
1027.883	-1494
1027.950	-2379
1028.017	-2226
1028.084	-1172
1028.151	-2463
1028.218	-1971
1028.285	-1739
1028.352	-1782
1028.419	-2155
1028.486	-2198
1028.553	-2327
1028.619	-2472
1028.686	-1525
1028.753	-1917
1028.820	-1928
1028.886	-2264
1028.953	-929
1029.020	-2207
1029.086	-2018
1029.153	-2506
1029.220	-1928
1029.286	-1709
1029.353	-1436
1029.419	-2139
1029.486	-1825
1029.552	-2256
1029.619	-2037
1029.685	-2721
1029.751	-1456
1029.818	-1435
1029.884	-2495
1029.951	-1023
1030.017	-1704
1030.083	-1805
1030.149	-2112
1030.216	-2042
1030.282	-1349
1030.348	-2251
1030.414	-2205
1030.480	-2379
1030.546	-2003
1030.612	-1773
1030.678	-2158
1030.744	-2193
1030.810	-2039
1030.876	-2297
1030.942	-2143
1031.008	-1906
1031.074	-1781
1031.140	-2022
1031.206	-1703
1031.272	-2388
1031.337	-1967
1031.403	-2595
1031.469	-2190
1031.534	-2196
1031.600	-1008
1031.666	-2706
1031.731	-2429
1031.797	-1469
1031.863	-2150
1031.928	-2442
1031.994	-2261
1032.059	-1808
1032.125	-1676
1032.190	-2352
1032.256	-1663
1032.321	-2427
1032.386	-2297
1032.452	-1695
1032.517	-2157
1032.582	-2123
1032.647	-1778
1032.713	-2027
1032.778	-2176
1032.843	-2096
1032.908	-1925
1032.974	-2227
1033.039	-2574
1033.104	-1740
1033.169	-2082
1033.234	-2091
1033.299	-1777
1033.364	-1407
1033.429	-1647
1033.494	-1992
1033.559	-2071
1033.624	-2761
1033.688	-1486
1033.753	-2063
1033.818	-1644
1033.883	-1514
1033.948	-965
1034.013	-2266
1034.077	-1746
1034.142	-788
1034.207	-564
1034.271	752
1034.336	1891
1034.400	-123
1034.465	-913
1034.530	-1357
1034.594	-1962
1034.658	-1705
1034.723	-2498
1034.787	-1801
1034.852	-1103
1034.916	-2193
1034.981	-2583
1035.045	-1858
1035.109	-1667
1035.173	-2082
1035.238	-2852
1035.302	-2176
1035.366	-1429
1035.430	-2686
1035.495	-2119
1035.559	-2429
1035.623	-2405
1035.687	-2878
1035.751	-1878
1035.815	-3105
1035.879	-2528
1035.943	-1418
1036.007	-1880
1036.071	-2852
1036.135	-1900
1036.198	-1881
1036.262	-1901
1036.326	-2051
1036.390	-2107
1036.454	-2739
1036.517	-2047
1036.581	-2147
1036.645	-1135
1036.709	-1343
1036.772	-2002
1036.836	-2214
1036.900	-2290
1036.963	-2308
1037.026	-2018
1037.090	-1325
1037.154	-2078
1037.217	-1592
1037.280	-1727
1037.344	-2476
1037.407	-2104
1037.471	-2156
1037.534	-2351
1037.597	-2223
1037.661	-2060
1037.724	-1977
1037.787	-1913
1037.850	-2166
1037.913	-2765
1037.977	-1132
1038.040	-1699
1038.103	-3252
1038.166	-2912
1038.229	-1869
1038.292	-2138
1038.355	-2384
1038.418	-2597
1038.481	-2027
1038.544	-2157
1038.607	-2984
1038.670	-2447
1038.732	-2630
1038.795	-2785
1038.858	-2769
1038.921	-2136
1038.984	-1285
1039.046	-2109
1039.109	-2278
1039.172	-1857
1039.234	-2082
1039.297	-1697
1039.360	-2807
1039.422	-2206
1039.485	-1999
1039.547	-2589
1039.610	-2630
1039.672	-2337
1039.734	-1780
1039.797	-2267
1039.859	-1343
1039.922	-2702
1039.984	-2479
1040.046	-2711
1040.109	-2683
1040.171	-2628
1040.233	-2294
1040.295	-2749
1040.358	-3176
1040.420	-1843
1040.482	-2096
1040.544	-2075
1040.606	-2741
1040.668	-1762
1040.730	-2668
1040.792	-2515
1040.854	-3074
1040.916	-2879
1040.978	-2882
1041.040	-1525
1041.102	-2241
1041.164	-2806
1041.225	-2218
1041.287	-2319
1041.349	-2124
1041.411	-2753
1041.472	-2459
1041.534	-2094
1041.596	-3259
1041.657	-2067
1041.719	-2524
1041.781	-1498
1041.842	-2123
1041.904	-1784
1041.965	-2794
1042.027	-2271
1042.088	-2183
1042.150	-1431
1042.211	-2726
1042.272	-2102
1042.334	-2879
1042.395	-2020
1042.456	-2820
1042.518	-2147
1042.579	-2533
1042.640	-2789
1042.701	-2628
1042.763	-1480
1042.824	-2428
1042.885	-2405
1042.946	-2590
1043.007	-1809
1043.068	-2962
1043.129	-2186
1043.190	-1582
1043.251	-2063
1043.312	-3044
1043.373	-2117
1043.434	-3037
1043.495	-2260
1043.556	-2487
1043.616	-2330
1043.677	-2616
1043.738	-2223
1043.799	-2872
1043.859	-1823
1043.920	-1581
1043.981	-2736
1044.041	-2751
1044.102	-2802
1044.162	-2537
1044.223	-2074
1044.284	-2212
1044.344	-2560
1044.405	-2159
1044.465	-2031
1044.525	-2767
1044.586	-1900
1044.646	-2610
1044.707	-2030
1044.767	-2350
1044.827	-2333
1044.887	-1946
1044.948	-1670
1045.008	-2244
1045.068	-2369
1045.128	-1410
1045.188	-2454
1045.249	-1604
1045.309	-1893
1045.369	-2028
1045.429	-1298
1045.489	-2151
1045.549	-1816
1045.609	-2584
1045.669	-2282
1045.729	-2699
1045.789	-2020
1045.848	-2181
1045.908	-2098
1045.968	-1649
1046.028	-1642
1046.088	-2160
1046.147	-1262
1046.207	-2444
1046.267	-2071
1046.326	-1765
1046.386	-1776
1046.446	-1034
1046.505	-1331
1046.565	-1269
1046.624	-428
1046.684	-982
1046.743	-693
1046.803	-1564
1046.862	-929
1046.922	0
