'Start Wavelength	183.907
'End Wavelength	1046.922
'Gate Delay	5.000
'Gate Width (ms)	1.050
'Laser Output Level	0.000
'X Position	0.000
'Y Position	0.000
'Z Position	0.000
'Grid Point Number	1.000
'Shot Number	100.000
183.907	573.000
183.977	-256.000
184.047	-231
184.116	146
184.186	499
184.256	-257
184.325	-346
184.395	-441
184.465	948
184.534	-896
184.604	-188
184.674	821
184.743	-345
184.813	140
184.883	606
184.952	62
185.022	110
185.092	527
185.161	770
185.231	496
185.301	4
185.370	750
185.440	384
185.509	-542
185.579	251
185.649	62
185.718	90
185.788	499
185.857	-285
185.927	309
185.996	588
186.066	413
186.136	26
186.205	1000
186.275	1038
186.344	-169
186.414	1564
186.483	464
186.553	905
186.622	1794
186.692	515
186.761	445
186.831	-72
186.900	193
186.970	891
187.039	791
187.109	1144
187.178	463
187.248	519
187.317	1015
187.387	376
187.456	1158
187.526	86
187.595	969
187.664	1112
187.734	817
187.803	572
187.873	356
187.942	185
188.012	667
188.081	849
188.150	693
188.220	294
188.289	737
188.358	497
188.428	1039
188.497	171
188.567	1386
188.636	704
188.705	27
188.775	235
188.844	-138
188.913	656
188.983	1122
189.052	-244
189.121	624
189.191	-53
189.260	364
189.329	114
189.399	-661
189.468	723
189.537	-52
189.606	1060
189.676	555
189.745	374
189.814	991
189.883	-23
189.953	58
190.022	683
190.091	566
190.161	-392
190.230	259
190.299	490
190.368	193
190.437	-102
190.507	294
190.576	-37
190.645	1145
190.714	92
190.783	-71
190.853	1371
190.922	469
190.991	604
191.060	1469
191.129	-10
191.198	589
191.268	889
191.337	608
191.406	905
191.475	329
191.544	133
191.613	586
191.682	1049
191.752	147
191.821	-181
191.890	740
191.959	314
192.028	555
192.097	1139
192.166	1110
192.235	35
192.304	593
192.373	339
192.442	80
192.511	418
192.580	263
192.650	178
192.719	346
192.788	669
192.857	217
192.926	-235
192.995	243
193.064	-86
193.133	314
193.202	759
193.271	-351
193.340	922
193.409	974
193.478	520
193.547	607
193.615	132
193.684	641
193.753	-329
193.822	721
193.891	432
193.960	242
194.029	-272
194.098	-359
194.167	203
194.236	759
194.305	-369
194.374	-254
194.443	206
194.512	237
194.580	244
194.649	-72
194.718	1291
194.787	32
194.856	-443
194.925	82
194.994	396
195.062	300
195.131	219
195.200	156
195.269	333
195.338	196
195.407	766
195.475	642
195.544	842
195.613	646
195.682	244
195.751	-204
195.819	-515
195.888	-160
195.957	402
196.026	-1
196.094	897
196.163	219
196.232	163
196.301	-439
196.369	514
196.438	604
196.507	-623
196.576	616
196.644	576
196.713	343
196.782	152
196.850	164
196.919	295
196.988	222
197.056	153
197.125	-231
197.194	-741
197.262	883
197.331	732
197.400	-499
197.468	-359
197.537	45
197.606	-234
197.674	-36
197.743	121
197.812	561
197.880	498
197.949	272
198.017	743
198.086	-381
198.155	37
198.223	-483
198.292	385
198.360	-559
198.429	389
198.497	97
198.566	-304
198.635	201
198.703	1136
198.772	355
198.840	560
198.909	-161
198.977	-41
199.046	414
199.114	220
199.183	152
199.251	555
199.320	-228
199.388	129
199.457	-324
199.525	15
199.594	524
199.662	112
199.731	425
199.799	653
199.867	861
199.936	147
200.004	871
200.073	460
200.141	385
200.210	244
200.278	1580
200.346	1272
200.415	236
200.483	149
200.552	1239
200.620	758
200.688	244
200.757	1670
200.825	433
200.893	162
200.962	802
201.030	392
201.098	274
201.167	1357
201.235	399
201.303	-820
201.372	104
201.440	487
201.508	-543
201.577	-104
201.645	665
201.713	-298
201.781	223
201.850	428
201.918	781
201.986	694
202.055	668
202.123	-113
202.191	802
202.259	262
202.327	28
202.396	235
202.464	317
202.532	-56
202.600	1287
202.669	230
202.737	-204
202.805	975
202.873	-86
202.941	1003
203.009	304
203.078	47
203.146	615
203.214	-198
203.282	216
203.350	464
203.418	182
203.487	688
203.555	813
203.623	243
203.691	401
203.759	87
203.827	432
203.895	1016
203.963	48
204.031	1557
204.099	1103
204.168	-58
204.236	573
204.304	829
204.372	-99
204.440	474
204.508	-304
204.576	34
204.644	-83
204.712	-551
204.780	544
204.848	420
204.916	-419
204.984	-363
205.052	898
205.120	-64
205.188	392
205.256	-493
205.324	-412
205.392	-128
205.460	908
205.528	-2
205.596	74
205.664	-123
205.732	-31
205.799	-97
205.867	256
205.935	-208
206.003	1372
206.071	206
206.139	-1064
206.207	582
206.275	131
206.343	-334
206.411	-23
206.478	510
206.546	275
206.614	32
206.682	-132
206.750	964
206.818	1159
206.885	1609
206.953	-382
207.021	1257
207.089	589
207.157	238
207.225	712
207.292	-198
207.360	480
207.428	622
207.496	-364
207.563	151
207.631	929
207.699	359
207.767	-256
207.834	41
207.902	348
207.970	-378
208.038	-228
208.105	330
208.173	221
208.241	376
208.309	590
208.376	392
208.444	429
208.512	-15
208.579	-747
208.647	1131
208.715	1820
208.782	430
208.850	861
208.918	203
208.985	565
209.053	672
209.120	448
209.188	332
209.256	148
209.323	-583
209.391	-244
209.459	831
209.526	276
209.594	-51
209.661	292
209.729	-91
209.796	677
209.864	222
209.932	-660
209.999	1830
210.067	66
210.134	223
210.202	230
210.269	966
210.337	1699
210.404	350
210.472	210
210.539	-334
210.607	28
210.674	250
210.742	893
210.809	-118
210.877	131
210.944	208
211.012	-294
211.079	1586
211.146	418
211.214	558
211.281	1981
211.349	2181
211.416	992
211.484	-54
211.551	-417
211.618	42
211.686	169
211.753	-35
211.821	1169
211.888	-63
211.955	949
212.023	446
212.090	337
212.157	429
212.225	264
212.292	343
212.359	50
212.427	232
212.494	309
212.561	-100
212.629	-753
212.696	283
212.763	314
212.831	-612
212.898	441
212.965	-46
213.032	119
213.100	337
213.167	-220
213.234	965
213.301	390
213.369	401
213.436	71
213.503	-206
213.570	1163
213.638	147
213.705	23
213.772	35
213.839	-14
213.906	457
213.973	781
214.041	-425
214.108	1064
214.175	201
214.242	119
214.309	-250
214.376	883
214.444	423
214.511	-296
214.578	777
214.645	527
214.712	1521
214.779	542
214.846	726
214.913	1445
214.980	727
215.048	1739
215.115	2415
215.182	2382
215.249	709
215.316	988
215.383	1027
215.450	1223
215.517	766
215.584	646
215.651	419
215.718	-45
215.785	395
215.852	-281
215.919	397
215.986	697
216.053	253
216.120	255
216.187	236
216.254	-170
216.321	1060
216.388	85
216.455	462
216.522	306
216.589	-5
216.656	262
216.722	-217
216.789	808
216.856	-270
216.923	-61
216.990	819
217.057	-152
217.124	675
217.191	-82
217.258	1190
217.324	499
217.391	-133
217.458	63
217.525	935
217.592	-215
217.659	-734
217.725	1164
217.792	24
217.859	800
217.926	-1055
217.993	21
218.059	429
218.126	-135
218.193	572
218.260	452
218.327	-111
218.393	125
218.460	-178
218.527	-619
218.594	653
218.660	-388
218.727	-399
218.794	-21
218.860	370
218.927	-262
218.994	789
219.061	67
219.127	958
219.194	790
219.261	1308
219.327	601
219.394	498
219.461	-454
219.527	424
219.594	343
219.661	-86
219.727	-470
219.794	833
219.860	82
219.927	2367
219.994	3705
220.060	5407
220.127	7277
220.193	4071
220.260	2011
220.326	1731
220.393	928
220.460	-21
220.526	-452
220.593	-27
220.659	1550
220.726	-154
220.792	-340
220.859	13
220.925	339
220.992	140
221.058	936
221.125	491
221.191	-163
221.258	-887
221.324	75
221.391	296
221.457	-315
221.524	-494
221.590	137
221.657	507
221.723	71
221.789	365
221.856	630
221.922	-547
221.989	442
222.055	936
222.121	374
222.188	2017
222.254	592
222.321	768
222.387	-176
222.453	897
222.520	1090
222.586	265
222.652	524
222.719	382
222.785	239
222.851	120
222.918	287
222.984	132
223.050	-452
223.116	-1673
223.183	1198
223.249	-547
223.315	-190
223.382	827
223.448	444
223.514	7
223.580	6
223.647	202
223.713	-341
223.779	-117
223.845	-362
223.911	-24
223.978	-111
224.044	-512
224.110	-322
224.176	-65
224.242	-323
224.309	-821
224.375	520
224.441	-540
224.507	-133
224.573	-819
224.639	629
224.705	-574
224.772	362
224.838	496
224.904	1488
224.970	362
225.036	-140
225.102	-393
225.168	1231
225.234	1026
225.300	237
225.366	234
225.432	629
225.499	377
225.565	-397
225.631	-303
225.697	394
225.763	456
225.829	638
225.895	114
225.961	227
226.027	-32
226.093	102
226.159	1232
226.225	1600
226.291	112
226.357	73
226.423	987
226.489	403
226.554	684
226.620	726
226.686	-147
226.752	541
226.818	-192
226.884	720
226.950	475
227.016	516
227.082	2191
227.148	1064
227.214	528
227.279	854
227.345	1813
227.411	3506
227.477	7427
227.543	11773
227.609	14332
227.674	10175
227.740	5469
227.806	3970
227.872	2852
227.938	1572
228.003	1554
228.069	1222
228.135	289
228.201	546
228.267	-1
228.332	730
228.398	-723
228.464	683
228.530	316
228.595	578
228.661	23
228.727	-80
228.792	1276
228.858	-279
228.924	-582
228.990	2293
229.055	-807
229.121	65
229.187	-377
229.252	57
229.318	344
229.384	876
229.449	375
229.515	-1573
229.581	-926
229.646	1691
229.712	40
229.777	506
229.843	584
229.909	247
229.974	251
230.040	724
230.105	311
230.171	-709
230.236	449
230.302	649
230.368	-635
230.433	-642
230.499	-237
230.564	724
230.630	-587
230.695	-219
230.761	980
230.826	-894
230.892	1275
230.957	44
231.023	389
231.088	-477
231.154	122
231.219	463
231.284	-604
231.350	320
231.415	-520
231.481	1331
231.546	485
231.612	131
231.677	-154
231.742	-647
231.808	811
231.873	-980
231.939	-1873
232.004	1850
232.069	1398
232.135	-313
232.200	-331
232.265	1124
232.331	-57
232.396	-295
232.461	564
232.527	97
232.592	-497
232.657	741
232.723	998
232.788	361
232.853	684
232.918	500
232.984	-396
233.049	-238
233.114	330
233.179	1727
233.245	1911
233.310	549
233.375	-1545
233.440	440
233.506	-347
233.571	341
233.636	-204
233.701	-347
233.766	9
233.832	59
233.897	-123
233.962	-531
234.027	1019
234.092	462
234.157	-90
234.222	-297
234.288	274
234.353	641
234.418	506
234.483	885
234.548	7
234.613	-1016
234.678	382
234.743	-298
234.808	1209
234.873	-854
234.938	809
235.004	-105
235.069	-45
235.134	-1023
235.199	17
235.264	808
235.329	-1003
235.394	75
235.459	1357
235.524	-244
235.589	844
235.654	-97
235.719	-1265
235.784	1392
235.849	350
235.913	140
235.978	-571
236.043	553
236.108	-60
236.173	-38
236.238	806
236.303	-239
236.368	-170
236.433	249
236.498	-1002
236.563	-339
236.627	-35
236.692	90
236.757	485
236.822	147
236.887	-792
236.952	916
237.017	-982
237.081	737
237.146	-138
237.211	433
237.276	-680
237.341	380
237.405	142
237.470	-460
237.535	473
237.600	38
237.664	882
237.729	-846
237.794	-1591
237.859	384
237.923	32
237.988	122
238.053	1325
238.118	-351
238.182	-273
238.247	1999
238.312	-449
238.376	642
238.441	-1018
238.506	1202
238.570	-671
238.635	1418
238.700	742
238.764	103
238.829	238
238.893	-97
238.958	1758
239.023	537
239.087	911
239.152	1010
239.216	936
239.281	1405
239.346	1205
239.410	294
239.475	916
239.539	2052
239.604	1572
239.668	3237
239.733	5583
239.797	14374
239.862	23568
239.926	21756
239.991	11864
240.055	5579
240.120	3063
240.184	2847
240.249	861
240.313	1108
240.378	682
240.442	1426
240.507	855
240.571	1209
240.635	-282
240.700	383
240.764	512
240.829	1355
240.893	-296
240.957	1122
241.022	867
241.086	972
241.151	52
241.215	-507
241.279	1650
241.344	-282
241.408	571
241.472	-514
241.537	1108
241.601	388
241.665	-585
241.730	794
241.794	774
241.858	-8
241.922	394
241.987	768
242.051	-145
242.115	-1313
242.179	694
242.244	-174
242.308	1020
242.372	511
242.436	-25
242.501	537
242.565	101
242.629	313
242.693	-613
242.757	-69
242.822	1211
242.886	619
242.950	1005
243.014	-998
243.078	320
243.142	-109
243.206	-181
243.271	244
243.335	-127
243.399	445
243.463	298
243.527	524
243.591	59
243.655	56
243.719	-40
243.783	734
243.847	512
243.911	742
243.975	-665
244.040	-599
244.104	1203
244.168	489
244.232	-145
244.296	-271
244.360	-291
244.424	-562
244.488	538
244.552	617
244.615	-1426
244.679	53
244.743	-275
244.807	-1765
244.871	-55
244.935	846
244.999	-629
245.063	369
245.127	533
245.191	570
245.255	529
245.319	1009
245.383	-910
245.446	758
245.510	76
245.574	663
245.638	621
245.702	-667
245.766	337
245.829	1040
245.893	6
245.957	261
246.021	1253
246.085	156
246.149	277
246.212	1110
246.276	1589
246.340	52
246.404	679
246.467	841
246.531	-1230
246.595	908
246.659	1181
246.722	-1285
246.786	233
246.850	334
246.913	216
246.977	-840
247.041	312
247.104	680
247.168	63
247.232	286
247.295	2494
247.359	2245
247.423	-512
247.486	301
247.550	1141
247.614	824
247.677	80
247.741	956
247.804	656
247.868	1993
247.932	219
247.995	3518
248.059	981
248.122	-28
248.186	1590
248.249	1662
248.313	4236
248.376	5622
248.440	1587
248.503	-621
248.567	1798
248.630	73
248.694	1081
248.757	2015
248.821	5387
248.884	4336
248.948	1343
249.011	2849
249.075	6410
249.138	6006
249.202	1487
249.265	-526
249.328	1694
249.392	175
249.455	973
249.519	1190
249.582	1093
249.645	1590
249.709	967
249.772	359
249.835	730
249.899	1112
249.962	1353
250.025	761
250.089	1237
250.152	3458
250.215	267
250.279	62
250.342	1247
250.405	649
250.468	-115
250.532	-454
250.595	633
250.658	655
250.721	2657
250.785	-193
250.848	1834
250.911	669
250.974	1565
251.038	522
251.101	3330
251.164	481
251.227	1087
251.290	742
251.354	1081
251.417	1308
251.480	1698
251.543	878
251.606	4145
251.669	4130
251.732	1208
251.795	1667
251.859	2686
251.922	758
251.985	1681
252.048	355
252.111	412
252.174	35
252.237	1744
252.300	5575
252.363	2069
252.426	4811
252.489	888
252.552	773
252.615	-726
252.678	1361
252.741	4225
252.804	2026
252.867	3731
252.930	3304
252.993	968
253.056	995
253.119	711
253.182	509
253.245	727
253.308	455
253.371	-555
253.434	792
253.497	1195
253.559	2367
253.622	102
253.685	770
253.748	887
253.811	1046
253.874	1254
253.937	-433
254.000	1628
254.062	1746
254.125	3277
254.188	3245
254.251	701
254.314	912
254.376	59
254.439	1545
254.502	1282
254.565	1310
254.628	4217
254.690	1263
254.753	-235
254.816	1024
254.878	895
254.941	1771
255.004	1969
255.067	1432
255.129	565
255.192	1681
255.255	251
255.317	871
255.380	1475
255.443	1019
255.505	2363
255.568	368
255.631	900
255.693	1388
255.756	1253
255.819	3149
255.881	3155
255.944	1268
256.006	-367
256.069	740
256.132	870
256.194	618
256.257	1039
256.319	1515
256.382	1654
256.444	5460
256.507	3555
256.569	2753
256.632	1302
256.694	455
256.757	1883
256.819	1021
256.882	273
256.944	1054
257.007	1746
257.069	526
257.132	454
257.194	1490
257.257	906
257.319	-26
257.381	585
257.444	2400
257.506	471
257.569	1568
257.631	3196
257.693	1352
257.756	901
257.818	862
257.880	945
257.943	1708
258.005	83
258.067	751
258.130	895
258.192	916
258.254	123
258.317	136
258.379	1574
258.441	2042
258.503	1939
258.566	203
258.628	1717
258.690	-373
258.753	2008
258.815	1435
258.877	1200
258.939	1086
259.001	1723
259.064	798
259.126	172
259.188	719
259.250	1244
259.312	998
259.375	2658
259.437	1915
259.499	1572
259.561	1432
259.623	2009
259.685	718
259.747	1759
259.809	1766
259.872	2208
259.934	2810
259.996	1980
260.058	1545
260.120	640
260.182	1257
260.244	890
260.306	311
260.368	1189
260.430	485
260.492	1493
260.554	2385
260.616	1803
260.678	1543
260.740	1986
260.802	1138
260.864	2119
260.926	-279
260.988	2009
261.050	1183
261.112	962
261.174	2234
261.236	959
261.298	630
261.359	2115
261.421	1762
261.483	955
261.545	2142
261.607	350
261.669	1734
261.731	2443
261.793	1930
261.854	-491
261.916	1537
261.978	871
262.040	1637
262.102	2434
262.164	982
262.225	2223
262.287	1234
262.349	546
262.411	1189
262.472	1402
262.534	746
262.596	955
262.658	2079
262.719	552
262.781	2434
262.843	854
262.904	1630
262.966	1579
263.028	1908
263.090	1536
263.151	2101
263.213	1600
263.275	1557
263.336	1166
263.398	1981
263.459	674
263.521	2322
263.583	2163
263.644	2015
263.706	1229
263.767	551
263.829	1457
263.891	1321
263.952	639
264.014	1110
264.075	285
264.137	1288
264.198	1330
264.260	1191
264.321	1208
264.383	1489
264.444	2167
264.506	955
264.567	1995
264.629	1826
264.690	342
264.752	1390
264.813	1178
264.875	1429
264.936	2075
264.998	1004
265.059	2544
265.120	2993
265.182	1845
265.243	1511
265.305	1601
265.366	2284
265.427	2117
265.489	2944
265.550	1575
265.611	1967
265.673	1763
265.734	2346
265.795	1725
265.857	1066
265.918	193
265.979	1954
266.040	2010
266.102	1424
266.163	1815
266.224	1228
266.286	1490
266.347	1297
266.408	1546
266.469	1967
266.530	976
266.592	1612
266.653	1575
266.714	2424
266.775	2029
266.836	1692
266.898	1784
266.959	1569
267.020	1920
267.081	2614
267.142	1953
267.203	1698
267.264	1086
267.326	2506
267.387	1971
267.448	322
267.509	2300
267.570	2017
267.631	1251
267.692	1589
267.753	1333
267.814	994
267.875	1628
267.936	1621
267.997	1591
268.058	1307
268.119	1642
268.180	1496
268.241	1629
268.302	1993
268.363	1349
268.424	1449
268.485	1679
268.546	1269
268.607	1719
268.668	1370
268.729	702
268.790	2027
268.851	1065
268.912	1657
268.972	2018
269.033	1536
269.094	403
269.155	1566
269.216	1764
269.277	2301
269.338	1912
269.398	1364
269.459	902
269.520	1824
269.581	1513
269.642	1250
269.702	1046
269.763	1887
269.824	1447
269.885	1097
269.945	1765
270.006	2380
270.067	1900
270.128	1475
270.188	1772
270.249	1516
270.310	1940
270.370	1738
270.431	1999
270.492	1397
270.553	1957
270.613	1809
270.674	1921
270.734	1385
270.795	2456
270.856	1943
270.916	880
270.977	2341
271.038	2177
271.098	2073
271.159	1670
271.219	1472
271.280	2017
271.340	2552
271.401	1552
271.462	1677
271.522	2455
271.583	2523
271.643	1784
271.704	2719
271.764	2624
271.825	1820
271.885	5854
271.946	10187
272.006	4053
272.066	5633
272.127	9816
272.187	16181
272.248	9532
272.308	4116
272.369	6021
272.429	4066
272.489	2658
272.550	2144
272.610	2739
272.671	2193
272.731	2683
272.791	2361
272.852	2306
272.912	2720
272.972	1580
273.033	2069
273.093	1814
273.153	3021
273.214	2392
273.274	2342
273.334	2512
273.394	5220
273.455	3188
273.515	3665
273.575	3192
273.635	4137
273.696	3227
273.756	6253
273.816	3995
273.876	3054
273.936	2838
273.997	3654
274.057	1178
274.117	2703
274.177	2896
274.237	5586
274.297	5932
274.358	3810
274.418	4415
274.478	3838
274.538	3208
274.598	2189
274.658	3460
274.718	3151
274.778	3147
274.838	2740
274.898	3107
274.958	4926
275.018	5539
275.078	4394
275.138	3065
275.198	2844
275.258	2984
275.318	2934
275.378	2841
275.438	3164
275.498	3445
275.558	2833
275.618	4042
275.678	3613
275.738	3768
275.798	4177
275.858	3097
275.918	2531
275.978	2981
276.038	3868
276.098	3221
276.157	3571
276.217	4109
276.277	4056
276.337	3536
276.397	3032
276.457	4162
276.517	3946
276.576	2821
276.636	3436
276.696	3982
276.756	2823
276.815	3880
276.875	3737
276.935	3267
276.995	3455
277.055	4150
277.114	6482
277.174	3923
277.234	3226
277.293	2727
277.353	3540
277.413	2495
277.472	2517
277.532	2784
277.592	3546
277.651	4906
277.711	9836
277.771	5469
277.830	8853
277.890	8376
277.950	6731
278.009	20641
278.069	10479
278.128	7605
278.188	10328
278.248	7195
278.307	10424
278.367	8928
278.426	4162
278.486	3823
278.545	3697
278.605	3756
278.664	3696
278.724	3322
278.783	4109
278.843	7113
278.902	4566
278.962	3500
279.021	3605
279.081	3594
279.140	3394
279.199	3263
279.259	3663
279.318	4137
279.378	4848
279.437	6797
279.496	22180
279.556	45579
279.615	37856
279.675	11511
279.734	7248
279.793	8256
279.853	21812
279.912	10743
279.971	6078
280.031	5726
280.090	9794
280.149	19154
280.208	9773
280.268	25106
280.327	32133
280.386	8215
280.445	6041
280.505	4653
280.564	4500
280.623	3750
280.682	4218
280.742	4807
280.801	4472
280.860	4478
280.919	3534
280.978	4190
281.037	3406
281.097	3111
281.156	3460
281.215	3772
281.274	4087
281.333	5587
281.392	4502
281.451	4009
281.510	3582
281.569	4251
281.628	3498
281.688	3587
281.747	3192
281.806	3411
281.865	3912
281.924	3924
281.983	3956
282.042	4376
282.101	3223
282.160	3929
282.219	4090
282.278	3173
282.337	4143
282.396	4386
282.454	4025
282.513	4455
282.572	4349
282.631	4236
282.690	3537
282.749	3205
282.808	4248
282.867	3680
282.926	4118
282.985	3734
283.043	4134
283.102	4266
283.161	3728
283.220	4183
283.279	5194
283.338	4471
283.396	4168
283.455	4510
283.514	4439
283.573	3695
283.631	4177
283.690	4787
283.749	4847
283.808	4443
283.866	4314
283.925	4038
283.984	4829
284.043	3995
284.101	4779
284.160	4022
284.219	4836
284.277	4247
284.336	4185
284.395	5655
284.453	5837
284.512	4910
284.570	4969
284.629	4720
284.688	5292
284.746	5239
284.805	5893
284.863	5794
284.922	6362
284.981	8355
285.039	9857
285.098	16407
285.156	34876
285.215	94944
285.273	104787
285.332	46268
285.390	22268
285.449	13746
285.507	11920
285.566	9017
285.624	7948
285.683	7028
285.741	6463
285.799	6468
285.858	5237
285.916	5226
285.975	5141
286.033	3657
286.091	5150
286.150	3897
286.208	4828
286.267	5221
286.325	5010
286.383	4798
286.442	4804
286.500	4636
286.558	5689
286.616	4939
286.675	5389
286.733	5116
286.791	4849
286.850	5204
286.908	4161
286.966	3977
287.024	4193
287.083	4785
287.141	4336
287.199	5378
287.257	4142
287.315	4347
287.374	4311
287.432	5087
287.490	4496
287.548	4708
287.606	4352
287.664	4861
287.723	4756
287.781	4233
287.839	4742
287.897	4428
287.955	4542
288.013	4096
288.071	5263
288.129	6284
288.187	9670
288.245	7453
288.303	5312
288.361	5089
288.419	4004
288.477	4330
288.535	4810
288.593	5478
288.651	3990
288.709	4422
288.767	5464
288.825	4450
288.883	5046
288.941	4770
288.999	4451
289.057	4782
289.115	4794
289.173	4823
289.231	4946
289.289	5139
289.346	5306
289.404	5587
289.462	5887
289.520	5093
289.578	4699
289.636	5212
289.694	4716
289.751	5135
289.809	4278
289.867	5085
289.925	5431
289.983	4683
290.040	5703
290.098	4691
290.156	5297
290.214	4637
290.271	4846
290.329	6199
290.387	5791
290.444	5383
290.502	5093
290.560	6112
290.617	5580
290.675	4192
290.733	5447
290.790	5226
290.848	4609
290.906	5302
290.963	4882
291.021	4961
291.078	5157
291.136	4622
291.194	5485
291.251	5868
291.309	5155
291.366	4793
291.424	5841
291.481	5455
291.539	4854
291.596	5471
291.654	5381
291.711	5088
291.769	4595
291.826	5478
291.884	5682
291.941	5654
291.999	5322
292.056	5315
292.114	5536
292.171	5398
292.228	7317
292.286	7123
292.343	6850
292.401	5851
292.458	5485
292.515	5308
292.573	6052
292.630	6387
292.687	5534
292.745	5315
292.802	5808
292.859	6501
292.917	7179
292.974	7067
293.031	5901
293.089	5472
293.146	4857
293.203	5616
293.260	5897
293.318	5474
293.375	5097
293.432	4749
293.489	5873
293.546	5996
293.604	5317
293.661	6397
293.718	10303
293.775	7889
293.832	6616
293.889	7665
293.947	7241
294.004	6768
294.061	6486
294.118	6628
294.175	7699
294.232	6480
294.289	6035
294.346	6658
294.403	5989
294.460	6152
294.517	6428
294.574	6718
294.631	6574
294.688	6557
294.745	6868
294.802	9990
294.859	8755
294.916	6177
294.973	5890
295.030	6143
295.087	6270
295.144	5555
295.201	5451
295.258	5797
295.315	5284
295.372	7072
295.429	8786
295.486	6347
295.542	5408
295.599	6188
295.656	6206
295.713	6380
295.770	7467
295.827	5738
295.883	6509
295.940	6112
295.997	6203
296.054	4565
296.111	4713
296.167	6058
296.224	6125
296.281	5295
296.338	5648
296.394	5714
296.451	5617
296.508	7084
296.564	7250
296.621	7032
296.678	10208
296.734	14444
296.791	9119
296.848	7295
296.904	6412
296.961	6857
297.018	8080
297.074	7783
297.131	6344
297.187	5892
297.244	6966
297.301	9105
297.357	15594
297.414	8956
297.470	7569
297.527	6211
297.583	6819
297.640	6870
297.696	6209
297.753	6365
297.809	4933
297.866	5056
297.922	5967
297.979	5935
298.035	5436
298.092	6146
298.148	7317
298.204	8089
298.261	6762
298.317	7006
298.374	12552
298.430	10879
298.486	7286
298.543	6666
298.599	6863
298.656	7045
298.712	7295
298.768	6648
298.824	6300
298.881	5974
298.937	6625
298.993	6747
299.050	6476
299.106	6936
299.162	6711
299.218	7863
299.275	6733
299.331	8604
299.387	10397
299.443	18158
299.500	44245
299.556	44174
299.612	21990
299.668	17990
299.724	38239
299.780	54963
299.837	27385
299.893	17926
299.949	30404
300.005	50674
300.061	39044
300.117	57550
300.173	34148
300.229	15788
300.285	12359
300.341	11216
300.397	10125
300.453	9824
300.510	11672
300.566	14596
300.622	20493
300.678	56824
300.734	83272
300.790	42838
300.845	27511
300.901	33898
300.957	56064
301.013	30834
301.069	16280
301.125	12436
301.181	9986
301.237	9206
301.293	8195
301.349	8731
301.405	7901
301.461	6689
301.516	7746
301.572	7003
301.628	6542
301.684	7110
301.740	6037
301.796	8228
301.851	7980
301.907	8577
301.963	8807
302.019	11762
302.074	25268
302.130	28607
302.186	15249
302.242	8808
302.297	8171
302.353	8223
302.409	7575
302.464	7623
302.520	8032
302.576	9536
302.631	10374
302.687	8395
302.743	6556
302.798	7199
302.854	6320
302.910	6935
302.965	6719
303.021	6849
303.076	6677
303.132	7051
303.187	7204
303.243	6543
303.299	6942
303.354	6251
303.410	6246
303.465	6605
303.521	6399
303.576	6753
303.632	7316
303.687	7443
303.743	10120
303.798	10974
303.853	8514
303.909	6176
303.964	6701
304.020	5828
304.075	6190
304.130	6774
304.186	7317
304.241	8328
304.297	7537
304.352	7111
304.358	7059
304.407	6638
304.449	6995
304.463	7120
304.518	6463
304.539	6403
304.573	6312
304.629	6905
304.630	6899
304.684	6784
304.720	8610
304.739	9535
304.794	12356
304.811	11296
304.850	8755
304.902	7175
304.905	7076
304.960	6908
304.992	6359
305.015	5959
305.071	6608
305.083	6273
305.126	5063
305.173	5444
305.181	5515
305.236	5021
305.264	5675
305.292	6297
305.347	5760
305.354	5820
305.402	6283
305.445	6364
305.457	6364
305.512	6196
305.535	6126
305.567	6084
305.622	4772
305.626	4770
305.678	4873
305.716	6568
305.733	7203
305.788	8565
305.807	8169
305.843	7656
305.897	9937
305.898	9962
305.953	10319
305.988	8383
306.008	7273
306.063	6260
306.078	6044
306.118	5607
306.168	5038
306.173	4983
306.228	5038
306.259	4781
306.283	4579
306.338	4731
306.349	4804
306.393	5021
306.440	4986
306.448	5010
306.503	5552
306.530	5316
306.558	5033
306.613	5156
306.620	5184
306.668	5471
306.711	5942
306.723	5962
306.778	6336
306.801	5980
306.833	5589
306.888	4583
306.892	4555
306.943	4489
306.982	4509
306.997	4442
307.052	4652
307.072	4656
307.107	4720
307.162	4381
307.163	4389
307.217	5037
307.253	4856
307.272	4710
307.327	4047
307.343	4167
307.381	4464
307.434	4342
307.436	4337
307.491	4087
307.524	4184
307.546	4214
307.600	5172
307.614	5015
307.655	4307
307.704	3437
307.710	3398
307.765	3747
307.795	3911
307.819	4037
307.874	4678
307.885	4612
307.929	4004
307.975	4884
307.984	5061
308.038	5139
308.065	4649
308.093	4562
308.148	5568
308.156	5785
308.202	6436
308.246	7594
308.257	7672
308.312	5751
308.336	4923
308.366	4408
308.421	4170
308.426	4116
308.475	3249
308.517	2943
308.530	2995
308.585	3091
308.607	3375
308.639	3632
308.694	3221
308.697	3235
308.748	3632
308.787	3550
308.803	3410
308.857	3216
308.877	3198
308.912	3518
308.967	3668
308.967	3675
309.021	3895
309.058	4294
309.076	4648
309.130	5292
309.148	5558
309.185	7302
309.238	10807
309.239	10831
309.293	12663
309.328	11714
309.348	10525
309.402	6931
309.418	5983
309.457	5258
309.508	5313
309.511	5319
309.566	5232
309.598	5349
309.620	5649
309.674	7026
309.688	7308
309.729	7319
309.778	7241
309.783	7195
309.837	6099
309.868	5736
309.892	5875
309.946	5757
309.959	5905
310.001	6205
310.049	6429
310.055	6358
310.109	5732
310.139	5117
310.163	4776
310.218	4399
310.229	4306
310.272	4735
310.319	5446
310.326	5356
310.381	4496
310.409	4174
310.435	4126
310.489	3902
310.499	3839
310.543	4015
310.589	4530
310.598	4527
310.652	4313
310.679	4256
310.706	4515
310.760	4832
310.769	4920
310.814	5273
310.859	5598
310.868	5523
310.923	4973
310.948	4762
310.977	4759
311.031	4781
311.038	4785
311.085	4842
311.128	4893
311.139	4934
311.193	5189
311.218	5303
311.247	5251
311.301	5143
311.308	5144
311.356	4666
311.398	4237
311.410	4316
311.464	4681
311.488	4864
311.518	4749
311.572	4611
311.578	4592
311.626	4289
311.668	4148
311.680	4337
311.734	5153
311.758	5543
311.788	5618
311.842	5745
311.847	5765
311.896	5250
311.937	4813
311.950	4832
312.004	4956
312.027	5032
312.058	5088
312.112	5194
312.117	5208
312.165	4972
312.207	4784
312.297	4675
312.386	5178
312.476	4818
312.566	5803
312.656	5586
312.745	5239
312.835	6062
312.925	6453
313.015	6089
313.104	6407
313.194	7513
313.284	6296
313.374	7020
313.463	7478
313.553	8783
313.643	8333
313.732	8614
313.822	8815
313.912	9254
314.001	11224
314.091	10696
314.180	11269
314.270	10293
314.360	10780
314.449	10677
314.539	9883
314.628	10397
314.718	11320
314.808	12410
314.897	11858
314.987	13091
315.076	13660
315.166	13513
315.255	12344
315.345	11544
315.434	11698
315.524	11854
315.613	12916
315.703	15865
315.792	34355
315.881	112842
315.971	40411
316.060	14570
316.150	11878
316.239	11170
316.328	11597
316.418	12209
316.507	14163
316.597	15394
316.686	16324
316.775	14390
316.865	12770
316.954	11370
317.043	10783
317.133	10248
317.222	8810
317.311	8873
317.400	7612
317.490	10661
317.579	9689
317.668	12830
317.757	19362
317.847	54829
317.936	168075
318.025	54126
318.114	45085
318.203	24192
318.293	13360
318.382	19068
318.471	21926
318.560	17042
318.649	13564
318.738	10472
318.828	9235
318.917	7179
319.006	6664
319.095	6931
319.184	8961
319.273	7067
319.362	7969
319.451	7296
319.540	7807
319.629	7853
319.718	7714
319.807	8781
319.896	7724
319.985	8851
320.074	7955
320.163	8190
320.252	8791
320.341	9044
320.430	9943
320.519	11367
320.608	12197
320.697	13903
320.786	16264
320.875	16822
320.964	19281
321.053	20503
321.142	21171
321.230	23588
321.319	25817
321.408	27102
321.497	26337
321.586	24789
321.675	20637
321.764	20985
321.852	20832
321.941	21598
322.030	22603
322.119	24181
322.207	27807
322.296	30616
322.385	34884
322.474	36609
322.562	37186
322.651	29969
322.740	24756
322.829	22688
322.917	18625
323.006	16292
323.095	16800
323.183	14420
323.272	14037
323.361	12946
323.449	12480
323.538	11565
323.626	11282
323.715	11381
323.804	10120
323.892	9006
323.981	9315
324.069	9194
324.158	9720
324.246	9540
324.335	9102
324.424	9067
324.512	9305
324.601	8586
324.689	8300
324.778	9061
324.866	7981
324.954	7375
325.043	7995
325.131	6962
325.220	7824
325.308	8269
325.397	8457
325.485	7287
325.574	7261
325.662	6866
325.750	7216
325.839	8219
325.927	7737
326.015	6917
326.104	7235
326.192	6224
326.280	7531
326.369	7100
326.457	6858
326.545	7037
326.634	6846
326.722	7119
326.810	6736
326.898	9526
326.987	9655
327.075	8590
327.163	8924
327.251	8025
327.340	8266
327.428	13080
327.516	15505
327.604	12278
327.692	9918
327.781	7533
327.869	8036
327.957	7030
328.045	6531
328.133	6222
328.221	5855
328.309	5586
328.397	6085
328.485	7831
328.574	12879
328.662	18226
328.750	13416
328.838	9721
328.926	7809
329.014	6581
329.102	6515
329.190	5881
329.278	6181
329.366	6293
329.454	6047
329.542	6115
329.630	6295
329.718	6395
329.806	5953
329.893	5621
329.981	5393
330.069	6153
330.157	7002
330.245	6518
330.333	6306
330.421	5859
330.509	6478
330.597	7092
330.684	6798
330.772	6843
330.860	5696
330.948	5968
331.036	5785
331.123	5575
331.211	6255
331.299	5565
331.387	6707
331.475	5489
331.562	6515
331.650	6531
331.738	5985
331.825	6587
331.913	6683
332.001	6447
332.089	5870
332.176	6804
332.264	6322
332.352	6100
332.439	7213
332.527	6307
332.614	6350
332.702	5896
332.790	7411
332.877	7193
332.965	7495
333.052	7590
333.140	8438
333.228	9193
333.315	8179
333.403	9095
333.490	9575
333.578	8915
333.665	12827
333.753	12109
333.840	12635
333.928	13973
334.015	17402
334.103	19858
334.190	25716
334.278	34529
334.365	44752
334.452	44588
334.540	34835
334.627	34988
334.715	42979
334.802	59636
334.889	81998
334.977	97288
335.064	70238
335.151	40869
335.239	29850
335.326	25438
335.413	25083
335.501	25701
335.588	27805
335.675	31661
335.762	39455
335.850	52139
335.937	72562
336.024	104834
336.111	138202
336.199	123062
336.286	67363
336.373	41259
336.460	29529
336.547	22993
336.635	19974
336.722	16752
336.809	15007
336.896	13396
336.983	13175
337.070	12168
337.157	12079
337.245	12503
337.332	13533
337.419	12246
337.506	12304
337.593	12225
337.680	11121
337.767	11071
337.854	9262
337.941	9724
338.028	9538
338.115	8793
338.202	10046
338.289	10054
338.376	9216
338.463	8623
338.550	8464
338.637	8014
338.724	8175
338.811	8345
338.898	8352
338.984	7070
339.071	7962
339.158	7897
339.245	7368
339.332	8176
339.419	7490
339.506	7929
339.593	7496
339.679	7774
339.766	7554
339.853	6940
339.940	7908
340.027	6790
340.113	6829
340.200	7197
340.287	6368
340.374	6688
340.460	7695
340.547	5749
340.634	6917
340.720	7656
340.807	6343
340.894	7652
340.980	6468
341.067	7528
341.154	8331
341.240	6305
341.327	7524
341.414	7190
341.500	6777
341.587	7235
341.674	6848
341.760	7157
341.847	7409
341.933	6817
342.020	6848
342.106	7290
342.193	6461
342.279	6500
342.366	5893
342.452	6708
342.539	6390
342.625	6598
342.712	6749
342.798	7014
342.885	6161
342.971	5434
343.058	7466
343.144	6478
343.230	7027
343.317	6686
343.403	5653
343.490	7156
343.576	6627
343.662	6597
343.749	6435
343.835	6762
343.921	7760
344.008	14290
344.094	22861
344.180	8527
344.267	6934
344.353	7210
344.439	8107
344.525	6502
344.612	6914
344.698	5743
344.784	5944
344.870	7036
344.957	5535
345.043	7032
345.129	6256
345.215	6955
345.301	5960
345.387	6406
345.474	6422
345.560	5829
345.646	5876
345.732	6204
345.818	5556
345.904	5840
345.990	6430
346.076	6070
346.162	6327
346.249	7376
346.335	6913
346.421	8311
346.507	7803
346.593	9457
346.679	7155
346.765	9781
346.851	15683
346.937	13209
347.023	9867
347.108	7335
347.194	7139
347.280	8163
347.366	10992
347.452	27158
347.538	38785
347.624	19397
347.710	10050
347.796	7743
347.882	8131
347.967	7501
348.053	7842
348.139	6915
348.225	7540
348.311	7117
348.397	7450
348.482	7947
348.568	9875
348.654	14239
348.740	41863
348.825	49827
348.911	22257
348.997	13435
349.083	13887
349.168	8229
349.254	7982
349.340	8238
349.425	7687
349.511	7928
349.597	7261
349.682	7659
349.768	9185
349.854	8252
349.939	7364
350.025	7939
350.110	7654
350.196	6504
350.282	6660
350.367	7198
350.453	7131
350.538	6432
350.624	5593
350.709	7229
350.795	6727
350.880	6051
350.966	7845
351.051	7567
351.137	7154
351.222	6754
351.308	7795
351.393	7475
351.479	6256
351.564	6449
351.649	7092
351.735	6810
351.820	7398
351.906	6591
351.991	6935
352.076	7045
352.162	8486
352.247	6983
352.332	7116
352.418	6607
352.503	6490
352.588	8955
352.673	7016
352.759	7019
352.844	6239
352.929	6281
353.014	5976
353.100	7538
353.185	8641
353.270	6948
353.355	6999
353.441	6685
353.526	6412
353.611	7203
353.696	6286
353.781	7270
353.866	5994
353.952	6654
354.037	6792
354.122	7121
354.207	6348
354.292	6048
354.377	6676
354.462	7198
354.547	6220
354.632	6800
354.717	7959
354.802	7664
354.887	7062
354.972	6736
355.057	7021
355.142	6201
355.227	8224
355.312	6461
355.397	6641
355.482	7955
355.567	7048
355.652	8105
355.737	7390
355.822	8547
355.907	7551
355.991	8772
356.076	6409
356.161	7071
356.246	7000
356.331	7149
356.416	7761
356.501	13691
356.585	12470
356.670	7123
356.755	9435
356.840	8232
356.924	14212
357.009	24610
357.094	13273
357.179	7625
357.263	7995
357.348	7534
357.433	7252
357.517	8269
357.602	7338
357.687	7880
357.771	8731
357.856	8175
357.941	8057
358.025	12343
358.110	33553
358.195	17063
358.279	8677
358.364	8128
358.448	9240
358.533	11299
358.617	10239
358.702	10649
358.787	8970
358.871	8696
358.956	8710
359.040	9222
359.125	8462
359.209	9024
359.294	10178
359.378	15641
359.462	14367
359.547	8835
359.631	7849
359.716	7422
359.800	7902
359.885	8721
359.969	7703
360.053	8999
360.138	8313
360.222	8088
360.306	7510
360.391	9167
360.475	7992
360.559	8626
360.644	9818
360.728	9286
360.812	13750
360.896	18255
360.981	11555
361.065	10027
361.149	10607
361.233	10254
361.318	9362
361.402	10662
361.486	12677
361.570	11876
361.654	12074
361.739	13429
361.823	19700
361.907	26946
361.991	19785
362.075	24378
362.159	34324
362.243	60501
362.327	128499
362.411	163011
362.495	73728
362.580	42575
362.664	40215
362.748	48118
362.832	74838
362.916	139842
363.000	296713
363.084	348868
363.168	154712
363.252	63232
363.336	40212
363.420	31127
363.503	26617
363.587	24579
363.671	25027
363.755	25049
363.839	29609
363.923	33919
364.007	43031
364.091	57637
364.175	90008
364.258	171168
364.342	347164
364.426	488071
364.510	281345
364.594	110295
364.677	58228
364.761	42580
364.845	32232
364.929	22767
365.013	19591
365.096	17354
365.180	14771
365.264	14712
365.347	13292
365.431	12998
365.515	11593
365.598	10903
365.682	13961
365.766	11357
365.849	11733
365.933	11833
366.017	13874
366.100	12646
366.184	11108
366.267	13160
366.351	11758
366.435	10844
366.518	10930
366.602	11454
366.685	11146
366.769	10900
366.852	11566
366.936	11515
367.019	10815
367.103	9626
367.186	13455
367.270	12086
367.353	10842
367.436	13672
367.520	12786
367.603	12941
367.687	11729
367.770	12637
367.853	12724
367.937	13474
368.020	13846
368.104	10467
368.187	10421
368.270	10435
368.353	10069
368.437	10275
368.520	9809
368.603	9347
368.687	9467
368.770	10972
368.853	9592
368.936	9433
369.020	9437
369.103	8076
369.186	7951
369.269	8074
369.352	8911
369.436	8238
369.519	8622
369.602	7218
369.685	9564
369.768	6924
369.851	8810
369.934	8096
370.018	7100
370.101	7412
370.184	10873
370.267	8507
370.350	8509
370.433	10135
370.516	22317
370.599	61992
370.682	30456
370.765	13025
370.848	10866
370.931	10205
371.014	11199
371.097	7374
371.180	8166
371.263	8256
371.346	6595
371.429	7772
371.511	6803
371.594	6823
371.677	8867
371.760	9131
371.843	8369
371.926	17877
372.009	30970
372.091	15970
372.174	8706
372.257	13431
372.340	10317
372.423	8612
372.505	9686
372.588	8275
372.671	9723
372.754	10816
372.836	9937
372.919	8879
373.002	10154
373.085	7880
373.167	10236
373.250	10437
373.332	14212
373.415	22527
373.498	37110
373.580	29935
373.663	90647
373.746	92667
373.828	21512
373.911	13804
373.993	11550
374.076	11516
374.159	10854
374.241	11743
374.324	14070
374.406	14393
374.489	17306
374.571	27743
374.654	16815
374.736	14489
374.819	20625
374.901	28004
374.983	28676
375.066	15664
375.148	13933
375.231	14570
375.313	15602
375.395	15054
375.478	14871
375.560	15278
375.643	15040
375.725	15818
375.807	23358
375.890	20275
375.972	11555
376.054	13286
376.136	12281
376.219	10728
376.301	13060
376.383	16918
376.465	12383
376.548	10440
376.630	10841
376.712	15316
376.794	10840
376.877	9138
376.959	7792
377.041	9697
377.123	9235
377.205	8700
377.287	8004
377.369	8995
377.452	9179
377.534	9778
377.616	9205
377.698	9206
377.780	8788
377.862	8711
377.944	9581
378.026	8150
378.108	8535
378.190	8948
378.272	8898
378.354	7885
378.436	8756
378.518	7214
378.600	8509
378.682	8708
378.764	10205
378.846	9778
378.928	8216
379.010	7317
379.091	9562
379.173	8533
379.255	6794
379.337	7169
379.419	8597
379.501	11436
379.583	8995
379.664	8121
379.746	7430
379.828	10097
379.910	9057
379.991	10692
380.073	7505
380.155	8289
380.237	8053
380.318	6707
380.400	7583
380.482	9129
380.564	7678
380.645	9982
380.727	8917
380.809	8991
380.890	7625
380.972	6852
381.053	8072
381.135	8772
381.217	8065
381.298	9867
381.380	8713
381.461	9483
381.543	13035
381.624	15177
381.706	8867
381.787	8545
381.869	9315
381.951	12361
382.032	24726
382.113	21557
382.195	7609
382.276	11525
382.358	10724
382.439	13890
382.521	17273
382.602	22738
382.684	14718
382.765	15954
382.846	19780
382.928	28362
383.009	20510
383.090	18422
383.172	43328
383.253	57293
383.334	24121
383.416	21287
383.497	16441
383.578	14271
383.659	19511
383.741	44197
383.822	90368
383.903	46647
383.984	20417
384.066	23486
384.147	18568
384.228	16382
384.309	18255
384.390	19319
384.471	19041
384.553	17668
384.634	15633
384.715	15269
384.796	13723
384.877	12655
384.958	15243
385.039	14238
385.120	13702
385.201	13370
385.282	13201
385.363	15607
385.444	15649
385.525	16747
385.606	21554
385.687	21043
385.768	18325
385.849	16809
385.930	25106
386.011	32218
386.092	20564
386.173	19690
386.254	18792
386.335	18016
386.416	17351
386.496	17683
386.577	19210
386.658	18101
386.739	17323
386.820	18776
386.901	18622
386.981	21802
387.062	24220
387.143	25612
387.224	28472
387.304	30837
387.385	30470
387.466	28687
387.547	32077
387.627	32898
387.708	34628
387.789	35898
387.869	33336
387.950	29583
388.031	25895
388.111	22495
388.192	23876
388.273	25150
388.353	21969
388.434	18353
388.514	18169
388.595	22977
388.676	22922
388.756	18632
388.837	17315
388.917	15241
388.998	13947
389.078	15872
389.159	15515
389.239	13586
389.320	16867
389.400	13233
389.480	15258
389.561	15754
389.641	16121
389.722	14312
389.802	13784
389.883	15912
389.963	16864
390.043	14578
390.124	13063
390.204	14780
390.284	16638
390.365	15351
390.445	16086
390.525	14812
390.605	15509
390.686	14462
390.766	16144
390.846	16410
390.927	15403
391.007	14930
391.087	17074
391.167	16909
391.247	16751
391.328	17676
391.408	19285
391.488	19983
391.568	17549
391.648	20214
391.728	21351
391.808	22963
391.888	22574
391.969	24989
392.049	27101
392.129	28607
392.209	30083
392.289	35835
392.369	35819
392.449	39201
392.529	41049
392.609	48950
392.689	56130
392.769	64901
392.849	80763
392.929	101833
393.009	135306
393.089	198509
393.169	335223
393.248	608161
393.328	865322
393.408	849886
393.488	595029
393.568	318809
393.648	185963
393.728	123607
393.807	87505
393.887	69902
393.967	55775
394.047	48483
394.127	40557
394.206	37347
394.286	34381
394.366	36764
394.446	36362
394.525	27851
394.605	26810
394.685	26134
394.764	28882
394.844	50429
394.924	67829
395.003	35876
395.083	25430
395.163	23164
395.242	21875
395.322	23018
395.402	21516
395.481	25043
395.561	29747
395.640	73960
395.720	149783
395.799	82301
395.879	35698
395.958	30157
396.038	32399
396.117	44980
396.197	49654
396.276	44549
396.356	50955
396.435	65777
396.515	88124
396.594	135132
396.673	251458
396.753	530561
396.832	796414
396.912	673712
396.991	333902
397.070	162725
397.150	99733
397.229	83581
397.308	132016
397.388	224761
397.467	121325
397.546	49113
397.625	33269
397.705	29941
397.784	26271
397.863	23561
397.942	22200
398.022	20039
398.101	18878
398.180	18794
398.259	17484
398.338	16826
398.417	16026
398.497	15426
398.576	15907
398.655	12499
398.734	14578
398.813	12750
398.892	12772
398.971	12652
399.050	11442
399.129	10617
399.208	11867
399.287	11730
399.366	10321
399.445	10669
399.524	10953
399.603	9465
399.682	10512
399.761	9949
399.840	10690
399.919	10365
399.998	9844
400.077	8849
400.156	9217
400.235	11547
400.313	8268
400.392	7824
400.471	10011
400.550	9528
400.629	8278
400.708	8515
400.786	7085
400.865	8494
400.944	7300
401.023	9955
401.102	7089
401.180	7173
401.259	7712
401.338	7401
401.416	7828
401.495	6951
401.574	7964
401.652	6500
401.731	8742
401.810	7150
401.888	7263
401.967	6580
402.046	7994
402.124	7686
402.203	6609
402.281	7199
402.360	6545
402.438	7435
402.517	5120
402.596	6201
402.674	6604
402.753	7143
402.831	7748
402.910	9002
402.988	13326
403.066	29963
403.145	20224
403.223	14558
403.302	26794
403.380	21483
403.459	21520
403.537	13257
403.615	10848
403.694	8819
403.772	10297
403.850	9794
403.929	9052
404.007	7184
404.085	10646
404.164	9805
404.242	7932
404.320	8937
404.398	8848
404.477	9612
404.555	16316
404.633	15151
404.711	8902
404.789	8146
404.868	8005
404.946	7583
405.024	7838
405.102	6742
405.180	6343
405.258	5668
405.336	7026
405.415	5720
405.493	7917
405.571	9017
405.649	7098
405.727	6742
405.805	9987
405.883	8876
405.961	9603
406.039	7612
406.117	6440
406.195	7805
406.273	6456
406.351	12374
406.429	9197
406.507	5651
406.585	6679
406.663	6900
406.740	7305
406.818	5114
406.896	5659
406.974	8199
407.052	6035
407.130	9874
407.208	10074
407.285	8610
407.363	6973
407.441	7702
407.519	8017
407.596	11015
407.674	33994
407.752	124942
407.830	88299
407.907	18461
407.985	8353
408.063	7837
408.141	8167
408.218	8720
408.296	6326
408.373	9650
408.451	10031
408.529	10158
408.606	9110
408.684	10237
408.762	10520
408.839	11132
408.917	11636
408.994	13442
409.072	15148
409.149	18773
409.227	29026
409.304	41985
409.382	47235
409.459	53934
409.537	64367
409.614	62496
409.692	53210
409.769	52599
409.846	67517
409.924	79424
410.001	63734
410.079	49076
410.156	39000
410.233	30799
410.311	24625
410.388	21473
410.465	19699
410.543	18317
410.620	17136
410.697	16151
410.775	15561
410.852	14342
410.929	15879
411.006	16712
411.083	13897
411.161	13961
411.238	14083
411.315	13056
411.392	12355
411.469	11841
411.547	11660
411.624	9209
411.701	10268
411.778	9838
411.855	9699
411.932	8624
412.009	8248
412.086	8512
412.163	8379
412.240	7727
412.317	8802
412.394	7759
412.471	8307
412.548	6765
412.625	7153
412.702	7524
412.779	7700
412.856	7601
412.933	6822
413.010	7204
413.087	7537
413.164	6921
413.241	7665
413.318	5207
413.395	6422
413.471	5979
413.548	6441
413.625	6053
413.702	5127
413.779	6794
413.855	6742
413.932	5124
414.009	5235
414.086	5321
414.162	6055
414.239	5904
414.316	6243
414.393	7840
414.469	5302
414.546	5569
414.623	5793
414.699	4953
414.776	5583
414.853	5000
414.929	4920
415.006	5177
415.082	5084
415.159	5651
415.236	5281
415.312	6246
415.389	4939
415.465	4994
415.542	5422
415.618	4216
415.695	5564
415.771	4910
415.848	5132
415.924	4422
416.000	5563
416.077	6336
416.153	3989
416.230	5079
416.306	5286
416.383	4936
416.459	5591
416.535	4752
416.612	4622
416.688	4831
416.764	4643
416.841	4514
416.917	5437
416.993	5339
417.069	5215
417.146	4772
417.222	5047
417.298	5950
417.374	4973
417.451	4945
417.527	4677
417.603	4893
417.679	5410
417.755	6109
417.831	4994
417.908	5619
417.984	6271
418.060	4818
418.136	6537
418.212	6035
418.288	6987
418.364	6863
418.440	6178
418.516	6607
418.592	5313
418.668	6685
418.744	5834
418.820	6626
418.896	6823
418.972	6526
419.048	6854
419.124	7857
419.200	6802
419.276	7965
419.352	6636
419.428	8457
419.504	7384
419.579	8240
419.655	9045
419.731	8431
419.807	9295
419.883	9903
419.959	9558
420.034	10679
420.110	11478
420.186	11505
420.262	12661
420.337	11402
420.413	12680
420.489	13768
420.565	15093
420.640	15221
420.716	16441
420.792	15219
420.867	18703
420.943	18300
421.019	19324
421.094	20728
421.170	23786
421.245	24227
421.321	27727
421.397	32134
421.472	54802
421.548	111221
421.623	78262
421.699	48229
421.774	50810
421.850	57020
421.925	66923
422.001	79127
422.076	96538
422.152	118888
422.227	152646
422.302	203084
422.378	273064
422.453	385073
422.529	482065
422.604	408508
422.679	250348
422.755	393704
422.830	483245
422.905	391454
422.981	291710
423.056	219119
423.131	168442
423.207	130803
423.282	105751
423.357	86666
423.432	74024
423.508	65219
423.583	54591
423.658	49262
423.733	44111
423.808	40760
423.883	40386
423.959	40701
424.034	45571
424.109	41924
424.184	32606
424.259	28025
424.334	24270
424.409	21466
424.484	20040
424.559	19541
424.634	16641
424.709	15715
424.784	15945
424.859	15160
424.934	15227
425.009	14475
425.084	14722
425.159	12341
425.234	12688
425.309	11953
425.384	11393
425.459	10532
425.534	11511
425.609	9585
425.683	10258
425.758	9963
425.833	9724
425.908	9359
425.983	8875
426.058	11055
426.132	9762
426.207	9280
426.282	9108
426.357	7856
426.431	8509
426.506	8544
426.581	8625
426.655	8733
426.730	7341
426.805	7009
426.879	8486
426.954	7258
427.029	7171
427.103	8817
427.178	10643
427.253	8721
427.327	6565
427.402	6277
427.476	7340
427.551	6908
427.625	7587
427.700	7568
427.774	6700
427.849	8478
427.923	8544
427.998	10397
428.072	13046
428.147	26149
428.221	92710
428.296	243757
428.370	144372
428.444	32269
428.519	15164
428.593	12300
428.667	12303
428.742	16350
428.816	40672
428.890	156887
428.965	224543
429.039	69511
429.113	19084
429.188	11752
429.262	10371
429.336	9401
429.410	9315
429.485	10498
429.559	11121
429.633	12768
429.707	16555
429.781	36570
429.855	147154
429.930	202154
430.004	70612
430.078	48426
430.152	120964
430.226	325793
430.300	313593
430.374	101911
430.448	37935
430.522	23355
430.596	24272
430.670	58714
430.744	197248
430.818	200264
430.892	51657
430.966	17150
431.040	11904
431.114	7478
431.188	7619
431.262	7154
431.336	6434
431.410	8552
431.484	7629
431.557	10138
431.631	12401
431.705	21371
431.779	79151
431.853	237560
431.927	167084
432.000	38332
432.074	13943
432.148	8531
432.222	6694
432.295	5620
432.369	4242
432.443	5107
432.516	6002
432.590	8049
432.664	5609
432.737	4194
432.811	3952
432.885	3043
432.958	3841
433.032	2650
433.106	3956
433.179	4367
433.253	3722
433.326	3455
433.400	3576
433.473	4466
433.547	4082
433.620	4670
433.694	4680
433.767	5126
433.841	4247
433.914	4794
433.988	4818
434.061	5504
434.134	4283
434.208	4612
434.281	4707
434.355	3787
434.428	4338
434.501	4373
434.575	3714
434.648	5001
434.721	5002
434.795	4515
434.868	4483
434.941	5326
435.014	6268
435.088	5693
435.161	7920
435.234	9457
435.307	10541
435.381	12769
435.454	19410
435.527	31713
435.600	37355
435.673	34170
435.746	29092
435.819	23381
435.892	18872
435.966	16291
436.039	12681
436.112	11157
436.185	8864
436.258	8650
436.331	6820
436.404	6726
436.477	6635
436.550	6221
436.623	5754
436.696	5557
436.769	6037
436.842	4062
436.915	4937
436.987	4036
437.060	4464
437.133	3859
437.206	3895
437.279	4407
437.352	3604
437.425	3651
437.498	3707
437.570	3482
437.643	3415
437.716	3310
437.789	3150
437.861	4060
437.934	3404
438.007	3411
438.080	3274
438.152	3208
438.225	3735
438.298	6321
438.370	12229
438.443	7423
438.516	3509
438.588	3820
438.661	3115
438.734	2471
438.806	3624
438.879	4008
438.951	3314
439.024	3461
439.096	2659
439.169	3977
439.241	3233
439.314	3210
439.386	2951
439.459	3832
439.531	3393
439.604	3330
439.676	4133
439.749	3861
439.821	3381
439.893	3810
439.966	3366
440.038	2825
440.110	3739
440.183	3276
440.255	3395
440.327	4653
440.400	4963
440.472	7902
440.544	7350
440.617	5370
440.689	5698
440.761	4460
440.833	4615
440.905	4360
440.978	4599
441.050	4400
441.122	5478
441.194	4718
441.266	4588
441.338	4349
441.411	6320
441.483	6468
441.555	7742
441.627	6601
441.699	7056
441.771	6455
441.843	7177
441.915	7959
441.987	8272
442.059	10150
442.131	11456
442.203	16132
442.275	20231
442.347	34291
442.419	76944
442.491	239345
442.563	419662
442.635	220188
442.706	71169
442.778	34710
442.850	25141
442.922	21498
442.994	20783
443.066	23355
443.137	29202
443.209	40118
443.281	61929
443.353	118442
443.425	291131
443.496	574230
443.568	588950
443.640	324908
443.711	126736
443.783	60417
443.855	37172
443.926	26552
443.998	21735
444.070	17885
444.141	15366
444.213	14769
444.285	13495
444.356	13641
444.428	13222
444.499	12532
444.571	13164
444.642	15019
444.714	15071
444.785	16692
444.857	19339
444.928	22133
445.000	26234
445.071	33262
445.143	45113
445.214	67152
445.285	108155
445.357	220606
445.428	479719
445.500	645377
445.571	600177
445.642	457680
445.714	226247
445.785	98263
445.856	53443
445.928	36008
445.999	27148
446.070	20858
446.141	18120
446.213	15680
446.284	13226
446.355	12213
446.426	10165
446.497	9377
446.569	8027
446.640	7924
446.711	7439
446.782	7147
446.853	6882
446.924	6766
446.995	5200
447.066	5381
447.138	5096
447.209	5240
447.280	4121
447.351	4447
447.422	4006
447.493	4180
447.564	3862
447.635	3692
447.706	3843
447.777	3179
447.847	3527
447.918	2590
447.989	3822
448.060	3532
448.131	3217
448.202	3122
448.273	2891
448.344	3433
448.414	2775
448.485	3176
448.556	3408
448.627	2820
448.698	3601
448.768	2495
448.839	3275
448.910	3538
448.981	2875
449.051	3414
449.122	2866
449.193	4057
449.263	3044
449.334	3740
449.405	3842
449.475	3716
449.546	4498
449.616	5084
449.687	5250
449.758	4221
449.828	3756
449.899	3773
449.969	3614
450.040	3754
450.110	3716
450.181	2942
450.251	2482
450.322	3574
450.392	3398
450.463	3270
450.533	3541
450.604	3340
450.674	4219
450.744	6103
450.815	6117
450.885	8099
450.955	7638
451.026	8645
451.096	6683
451.166	6567
451.237	8921
451.307	10796
451.377	9349
451.447	7602
451.518	7138
451.588	5281
451.658	5158
451.728	4301
451.799	4351
451.869	4751
451.939	4625
452.009	4863
452.079	4756
452.149	5447
452.219	5392
452.289	6889
452.360	6882
452.430	9685
452.500	13094
452.570	21495
452.640	41175
452.710	88466
452.780	109993
452.850	79694
452.920	47253
452.990	29084
453.060	20481
453.129	13775
453.199	10897
453.269	9048
453.339	7821
453.409	6638
453.479	5437
453.549	5413
453.619	5204
453.688	4681
453.758	4522
453.828	4016
453.898	3780
453.968	4246
454.037	3872
454.087	3620
454.107	3492
454.168	3308
454.177	3248
454.247	3812
454.249	3826
454.316	3589
454.330	3591
454.386	3491
454.411	3264
454.456	2816
454.492	2801
454.525	2715
454.574	3548
454.595	3900
454.655	3498
454.665	3385
454.734	4473
454.736	4536
454.804	5613
454.817	5450
454.873	4578
454.898	4479
454.943	4335
454.979	3856
455.013	3239
455.060	3613
455.082	3811
455.141	3896
455.152	3862
455.221	4287
455.222	4304
455.291	3671
455.303	4014
455.360	5085
455.384	5857
455.430	7013
455.465	6324
455.499	5627
455.546	4968
455.569	4688
455.627	4741
455.638	4675
455.707	3978
455.708	4009
455.777	4298
455.789	4412
455.846	4594
455.869	4621
455.916	4720
455.950	4747
455.985	4612
456.031	4318
456.054	4191
456.112	4644
456.124	4687
456.193	5428
456.193	5395
456.262	6030
456.274	6052
456.332	5880
456.355	6022
456.401	6251
456.436	6131
456.470	5851
456.516	5872
456.540	5917
456.597	6253
456.609	6254
456.678	7013
456.678	6979
456.747	7052
456.759	7023
456.817	6927
456.840	7118
456.886	7269
456.920	7845
456.955	8365
457.001	8746
457.024	8892
457.082	8723
457.093	8631
457.162	8991
457.163	9031
457.232	9709
457.243	10011
457.301	11189
457.324	11220
457.370	11530
457.405	12892
457.439	14205
457.485	15355
457.508	16205
457.566	21111
457.577	22678
457.646	31503
457.647	31727
457.715	67028
457.727	75408
457.784	135068
457.808	175293
457.853	225960
457.889	272103
457.922	276200
457.969	214697
457.991	217950
458.050	227187
458.060	232501
458.129	356948
458.130	361233
458.198	388124
458.211	368227
458.267	257587
458.292	195226
458.336	138266
458.372	117715
458.405	128789
458.453	167974
458.474	204984
458.533	346254
458.543	357973
458.611	537945
458.614	542406
458.680	413924
458.694	357597
458.749	214969
458.775	158259
458.818	99017
458.855	73317
458.887	56964
458.936	44060
458.955	39973
459.016	31025
459.024	29985
459.093	25459
459.097	25247
459.162	21235
459.177	20510
459.230	18390
459.257	18184
459.299	18146
459.338	17176
459.368	16087
459.418	15301
459.437	15256
459.499	15095
459.505	14961
459.574	14072
459.579	13975
459.643	13097
459.659	13096
459.711	13775
459.740	14168
459.780	13875
459.820	13733
459.849	13866
459.900	13691
459.917	13533
459.981	13250
459.986	13208
460.054	12456
460.061	12481
460.123	12617
460.141	12508
460.191	12726
460.222	12842
460.260	12992
460.302	13333
460.328	13555
460.382	14512
460.397	15229
460.462	18511
460.465	19170
460.534	35035
460.543	37220
460.602	99338
460.623	123687
460.671	192016
460.703	255497
460.739	236073
460.783	193917
460.808	167964
460.864	52116
460.876	41757
460.944	17989
460.945	17753
461.013	13822
461.024	13507
461.081	12865
461.104	12810
461.150	12638
461.184	12359
461.218	12650
461.264	12986
461.286	12452
461.345	11683
461.355	11807
461.423	12169
461.425	12179
461.491	11617
461.505	11635
461.559	11949
461.585	11721
461.628	11461
461.665	11836
461.696	11779
461.745	11275
461.764	11252
461.825	10927
461.832	10911
461.901	11673
461.905	11681
461.969	11089
461.985	11090
462.037	12651
462.065	13303
462.105	12235
462.145	11293
462.173	11520
462.225	11288
462.241	11067
462.305	11358
462.310	11490
462.378	12744
462.385	12938
462.446	12682
462.465	12528
462.514	12606
462.545	12637
462.582	12006
462.625	11086
462.650	11067
462.705	11190
462.718	11257
462.785	11509
462.786	11501
462.854	11011
462.865	10892
462.922	11164
462.945	11299
462.990	11520
463.025	11642
463.058	11534
463.104	11491
463.126	11440
463.184	11347
463.194	11476
463.262	11921
463.264	11937
463.330	11798
463.344	11790
463.398	12175
463.424	12224
463.466	11886
463.504	11696
463.533	11627
463.583	11159
463.601	11144
463.663	11437
463.669	11415
463.737	11317
463.743	11262
463.805	12171
463.823	12472
463.873	12216
463.903	11915
463.940	11790
463.982	11976
464.008	11864
464.062	11134
464.076	11197
464.142	11598
464.144	11592
464.211	10886
464.221	10820
464.279	11360
464.301	11477
464.347	11686
464.381	11806
464.414	11437
464.461	10989
464.482	11009
464.540	11115
464.550	11204
464.617	11188
464.620	11195
464.685	11676
464.699	11691
464.753	11575
464.779	11578
464.820	11850
464.859	11988
464.888	11627
464.938	10847
464.956	11202
465.018	12727
465.023	12734
465.091	12495
465.098	12441
465.158	12001
465.177	11958
465.226	13085
465.257	13573
465.293	13055
465.336	12431
465.361	12618
465.416	13013
465.428	12812
465.495	11744
465.496	11764
465.563	12021
465.575	12065
465.631	12213
465.654	12289
465.698	12462
465.734	12516
465.765	12587
465.813	12555
465.833	12612
465.893	12821
465.900	12873
465.968	13052
465.972	13047
466.035	12754
466.052	12660
466.102	12302
466.131	12067
466.170	12364
466.210	12585
466.237	12684
466.290	12858
466.304	12997
466.369	13453
466.372	13465
466.439	13229
466.449	13162
466.506	12846
466.528	12708
466.573	13659
466.607	14262
466.641	14543
466.687	14999
466.708	14902
466.766	14424
466.775	14434
466.842	14414
466.845	14385
466.909	14945
466.925	15047
466.977	15426
467.004	15612
467.044	15201
467.083	14716
467.111	14994
467.163	15433
467.178	15542
467.242	15865
467.245	15906
467.312	16173
467.321	16182
467.379	16299
467.400	16290
467.446	17120
467.480	17667
467.559	18389
467.638	19862
467.717	18702
467.796	22305
467.875	22165
467.955	25179
468.034	27460
468.113	33960
468.192	41165
468.271	52816
468.350	70746
468.429	95247
468.508	97013
468.588	66145
468.667	41804
468.746	31886
468.825	25661
468.904	23811
468.983	20930
469.062	20260
469.141	18491
469.220	18532
469.299	17739
469.378	16639
469.456	17712
469.535	17430
469.614	16278
469.693	16385
469.772	16748
469.851	16751
469.930	16479
470.009	16294
470.088	17687
470.166	17434
470.245	18580
470.324	19061
470.403	17200
470.482	17323
470.560	16743
470.639	16097
470.718	16307
470.797	15463
470.875	15885
470.954	15526
471.033	14630
471.111	15490
471.190	14823
471.269	15151
471.347	14844
471.426	15823
471.505	14981
471.583	15213
471.662	14197
471.740	15054
471.819	15259
471.898	15625
471.976	15515
472.055	16956
472.133	21649
472.212	29925
472.290	18127
472.369	14707
472.447	15259
472.526	14000
472.604	15161
472.683	15759
472.761	15306
472.839	15957
472.918	16374
472.996	16643
473.075	16225
473.153	16368
473.231	16187
473.310	17235
473.388	16341
473.466	18175
473.545	16627
473.623	17824
473.701	17776
473.780	17999
473.858	16285
473.936	19762
474.014	18114
474.093	23272
474.171	29267
474.249	21377
474.327	17623
474.405	16348
474.484	17789
474.562	17888
474.640	16570
474.718	17189
474.796	15421
474.874	16138
474.952	15053
475.030	15326
475.108	16418
475.187	16190
475.265	15393
475.343	18333
475.421	19430
475.499	15752
475.577	15308
475.655	16374
475.733	14796
475.811	15399
475.889	14410
475.966	15485
476.044	13980
476.122	15961
476.200	17217
476.278	15011
476.356	13843
476.434	15608
476.512	15700
476.590	17540
476.667	16663
476.745	15185
476.823	14989
476.901	14451
476.979	14096
477.056	14101
477.134	14037
477.212	14233
477.290	15110
477.367	14576
477.445	14619
477.523	14171
477.601	13895
477.678	14251
477.756	13456
477.834	14927
477.911	14481
477.989	14319
478.066	14205
478.144	15115
478.222	16476
478.299	22093
478.377	26860
478.454	24447
478.532	15196
478.609	14646
478.687	14764
478.764	14074
478.842	13965
478.919	14289
478.997	14378
479.074	14955
479.152	15273
479.229	15391
479.307	14866
479.384	15018
479.461	13788
479.539	14318
479.616	14349
479.694	14831
479.771	13967
479.848	13866
479.926	13982
480.003	16236
480.080	15420
480.157	16695
480.235	15896
480.312	15830
480.389	15916
480.467	18076
480.544	18160
480.621	20567
480.698	20281
480.775	20670
480.853	18677
480.930	18765
481.007	20846
481.084	36727
481.161	64060
481.238	37208
481.315	17590
481.392	18197
481.470	18756
481.547	19667
481.624	19414
481.701	19637
481.778	20387
481.855	22471
481.932	23391
482.009	25412
482.086	27722
482.163	31358
482.240	36537
482.317	39279
482.393	34242
482.470	29970
482.547	28445
482.624	26020
482.701	26277
482.778	26432
482.855	25518
482.932	27404
483.009	30652
483.085	40241
483.162	58213
483.239	55381
483.316	38422
483.393	38965
483.469	32517
483.546	29005
483.623	26327
483.699	24741
483.776	22724
483.853	22147
483.930	21830
484.006	22369
484.083	23749
484.160	22827
484.236	23793
484.313	25010
484.389	26792
484.466	33919
484.543	40439
484.619	49761
484.696	51269
484.772	35277
484.849	26522
484.925	24141
485.002	21860
485.078	20540
485.155	18307
485.231	18577
485.308	18443
485.384	18700
485.461	20480
485.537	19656
485.614	17502
485.690	16593
485.766	16005
485.843	16703
485.919	15799
485.995	16775
486.072	16484
486.148	15740
486.224	16366
486.301	17293
486.377	16875
486.453	15906
486.530	17710
486.606	19970
486.682	19552
486.758	21882
486.835	25679
486.911	26671
486.987	26212
487.063	30703
487.139	43236
487.215	66993
487.292	61221
487.368	59709
487.444	78332
487.520	118281
487.596	191707
487.672	374652
487.748	1036706
487.824	1628667
487.900	768612
487.976	256551
488.052	127994
488.128	81178
488.204	55244
488.280	45959
488.356	37495
488.432	32364
488.508	27794
488.584	25413
488.660	25379
488.736	22650
488.812	20336
488.888	20857
488.964	18579
489.039	20491
489.115	24612
489.191	27286
489.267	22269
489.343	18280
489.418	17312
489.494	16564
489.570	15923
489.646	18611
489.722	17398
489.797	17654
489.873	18104
489.949	18515
490.024	17484
490.100	17780
490.176	17692
490.251	18230
490.327	17598
490.403	18278
490.478	17230
490.554	17214
490.629	16110
490.705	16091
490.781	16040
490.856	16913
490.932	15607
491.007	16962
491.083	14553
491.158	15467
491.234	13688
491.309	15097
491.385	13353
491.460	12917
491.536	13732
491.611	13693
491.686	12719
491.762	13864
491.837	13902
491.913	14950
491.988	14671
492.063	15196
492.139	13275
492.214	12288
492.289	13385
492.365	12669
492.440	12829
492.515	11637
492.590	11573
492.666	11906
492.741	13107
492.816	12458
492.891	11657
492.967	13332
493.042	12579
493.117	12737
493.192	12930
493.267	14034
493.342	16793
493.418	19008
493.493	12316
493.568	12121
493.643	11260
493.718	12030
493.793	10332
493.868	11373
493.943	11320
494.018	12210
494.093	10902
494.168	12774
494.243	10343
494.318	11899
494.393	12141
494.468	11437
494.543	11632
494.618	11103
494.693	10672
494.768	11710
494.842	11181
494.917	11577
494.992	11053
495.067	11704
495.142	10811
495.217	10860
495.292	10711
495.366	11274
495.441	9838
495.516	12173
495.591	10719
495.665	14556
495.740	19146
495.815	14736
495.890	12386
495.964	10771
496.039	16504
496.114	25056
496.188	57680
496.263	39690
496.338	14180
496.412	10498
496.487	11599
496.561	11621
496.636	11610
496.710	15303
496.785	18251
496.860	12269
496.934	10664
497.009	11557
497.083	10299
497.158	11104
497.232	10352
497.307	11468
497.381	10602
497.455	10991
497.530	10203
497.604	10427
497.679	10455
497.753	11542
497.827	9844
497.902	10298
497.976	10785
498.050	11308
498.125	11656
498.199	12011
498.273	11469
498.348	11170
498.422	10295
498.496	10933
498.570	11468
498.645	11222
498.719	8735
498.793	12044
498.867	10640
498.941	11405
499.016	10571
499.090	12005
499.164	11642
499.238	11731
499.312	11119
499.386	12491
499.460	11958
499.534	12445
499.609	12200
499.683	11736
499.757	11969
499.831	11908
499.905	11532
499.979	11676
500.053	11115
500.127	12554
500.201	10717
500.275	12621
500.349	12051
500.422	10968
500.496	11969
500.570	13172
500.644	13562
500.718	13631
500.792	13760
500.866	14878
500.940	13049
501.013	13931
501.087	13252
501.161	14370
501.235	13056
501.309	15906
501.382	14409
501.456	15272
501.530	14429
501.603	12203
501.677	12736
501.751	11470
501.825	14228
501.898	13440
501.972	12874
502.046	12885
502.119	11155
502.193	13689
502.266	11215
502.340	13162
502.413	11957
502.487	13896
502.561	13455
502.634	14575
502.708	14583
502.781	14205
502.855	15926
502.928	14796
503.002	15250
503.075	14320
503.149	14802
503.222	16368
503.295	16901
503.369	18763
503.442	20562
503.516	24324
503.589	28595
503.662	36565
503.736	44718
503.809	59717
503.882	79821
503.956	122667
504.029	242761
504.102	614643
504.175	901000
504.249	447792
504.322	186138
504.395	101934
504.468	65392
504.542	45155
504.615	33776
504.688	29154
504.761	22703
504.834	23192
504.907	19570
504.980	18311
505.053	15621
505.127	13411
505.200	15957
505.273	13395
505.346	11969
505.419	12840
505.492	13879
505.565	13235
505.638	11855
505.711	10668
505.784	10494
505.857	10141
505.930	10960
506.003	8944
506.076	11625
506.149	9067
506.221	7855
506.294	11450
506.367	7463
506.440	9756
506.513	10013
506.586	9062
506.659	8322
506.731	8601
506.804	8507
506.877	9158
506.950	9481
507.022	9595
507.095	6747
507.168	9214
507.241	8946
507.313	8019
507.386	7654
507.459	9820
507.531	8669
507.604	7770
507.677	9091
507.749	6793
507.822	9376
507.894	8255
507.967	9379
508.040	7743
508.112	8662
508.185	8731
508.257	6611
508.330	9464
508.402	7362
508.475	7514
508.547	8199
508.620	7996
508.692	7780
508.765	9249
508.837	6948
508.909	7984
508.982	6119
509.054	8396
509.127	7187
509.199	8186
509.271	7588
509.344	8114
509.416	7791
509.488	7644
509.560	7733
509.633	7665
509.705	7282
509.777	7704
509.849	7735
509.922	6686
509.994	7316
510.066	8937
510.138	5912
510.210	9486
510.283	6373
510.355	8334
510.427	7861
510.499	7814
510.571	7671
510.643	6222
510.715	8068
510.787	6269
510.859	8593
510.931	7571
511.003	8318
511.076	8802
511.148	7026
511.219	7038
511.291	8301
511.363	8451
511.435	7219
511.507	6600
511.579	7169
511.651	7680
511.723	7063
511.795	8332
511.867	6953
511.939	7894
512.010	5760
512.082	8009
512.154	6398
512.226	8031
512.298	9351
512.369	8034
512.441	8202
512.513	8137
512.585	6698
512.656	8887
512.728	7878
512.800	7330
512.871	8096
512.943	7953
513.015	6244
513.086	8667
513.158	8711
513.230	7165
513.301	7542
513.373	9137
513.444	8012
513.516	8025
513.588	7797
513.659	8528
513.731	7643
513.802	7243
513.874	10073
513.945	8636
514.016	7050
514.088	8630
514.159	6127
514.231	8891
514.302	7520
514.374	8694
514.445	5914
514.516	9415
514.588	6895
514.659	7305
514.730	7499
514.802	9129
514.873	5580
514.944	10682
515.016	8404
515.087	7613
515.158	7577
515.229	9310
515.301	6713
515.372	9948
515.443	7042
515.514	9243
515.585	9582
515.656	12045
515.728	11020
515.799	8289
515.870	9691
515.941	9885
516.012	7724
516.083	10403
516.154	7568
516.225	10551
516.296	10795
516.367	9814
516.438	9802
516.509	11771
516.580	11512
516.651	22235
516.722	51336
516.793	29100
516.864	13617
516.935	13609
517.006	13569
517.077	15942
517.148	22697
517.219	74255
517.289	114760
517.360	24139
517.431	15917
517.502	12501
517.573	14184
517.643	13652
517.714	13288
517.785	15305
517.856	16299
517.926	21150
517.997	22968
518.068	25848
518.138	33235
518.209	40825
518.280	81756
518.350	226986
518.421	129267
518.492	84571
518.562	108946
518.633	152535
518.703	240209
518.774	497316
518.845	1078189
518.915	1008050
518.986	377219
519.056	168941
519.127	98644
519.197	69383
519.268	47760
519.338	39001
519.408	29900
519.479	26210
519.549	22760
519.620	21955
519.690	18842
519.760	17581
519.831	15853
519.901	14493
519.971	14191
520.042	13401
520.112	11179
520.182	13598
520.253	11681
520.323	11202
520.393	10757
520.463	12687
520.534	7650
520.604	13008
520.674	11933
520.744	9796
520.814	10356
520.885	11333
520.955	9096
521.025	9954
521.095	9106
521.165	11949
521.235	9573
521.305	9827
521.375	10411
521.445	10573
521.515	9139
521.585	11910
521.655	9255
521.725	10679
521.795	10525
521.865	9141
521.935	11850
522.005	10612
522.075	10361
522.145	12941
522.215	12245
522.285	12036
522.355	10815
522.424	12938
522.494	13643
522.564	13138
522.634	11718
522.704	15359
522.774	11354
522.843	11747
522.913	14891
522.983	12898
523.053	10695
523.122	11683
523.192	10681
523.262	11798
523.331	11006
523.401	13022
523.471	12238
523.540	13309
523.610	12189
523.680	14253
523.749	13696
523.819	20363
523.888	19987
523.958	15229
524.027	13684
524.097	13457
524.166	13149
524.236	12002
524.305	15021
524.375	12593
524.444	12587
524.514	16500
524.583	13461
524.653	13222
524.722	14938
524.791	14011
524.861	16618
524.930	15469
524.999	15621
525.069	18063
525.138	17074
525.207	18639
525.277	21494
525.346	23470
525.415	25705
525.484	30937
525.554	35292
525.623	48664
525.692	68189
525.761	73254
525.830	87735
525.900	117670
525.969	188508
526.038	365413
526.107	680569
526.176	1735461
526.245	1422559
526.314	503724
526.383	925105
526.452	1261867
526.522	1505567
526.591	1424079
526.660	358416
526.729	197706
526.797	197344
526.867	278590
526.935	678985
527.004	1936083
527.073	1434565
527.142	327623
527.211	135157
527.280	84060
527.349	60006
527.418	44485
527.487	37711
527.555	30162
527.624	26886
527.693	23159
527.762	23791
527.831	21497
527.899	21235
527.968	19690
528.037	16156
528.106	17796
528.174	16464
528.243	16835
528.312	16030
528.380	15196
528.449	13804
528.518	16427
528.586	12958
528.655	15726
528.723	13111
528.792	15093
528.861	13322
528.929	12524
528.998	14328
529.066	13042
529.135	12456
529.203	11846
529.272	11424
529.340	12447
529.409	13901
529.477	10973
529.545	10658
529.614	14763
529.682	11087
529.751	12005
529.819	15343
529.887	12288
529.956	11724
530.024	13065
530.092	11475
530.161	12788
530.229	12705
530.297	12625
530.365	12467
530.434	12833
530.502	11290
530.570	12882
530.638	10757
530.707	14192
530.775	13849
530.843	13303
530.911	13430
530.979	14275
531.047	12412
531.115	13952
531.183	13129
531.252	13701
531.320	12719
531.388	12573
531.456	14286
531.524	12400
531.592	14518
531.660	14022
531.728	12451
531.796	12984
531.864	14750
531.932	13296
532.000	13102
532.067	14123
532.135	14641
532.203	15994
532.271	15988
532.339	18214
532.407	18291
532.475	18958
532.542	16528
532.610	18076
532.678	15087
532.746	20949
532.814	24302
532.881	19414
532.949	18264
533.017	18531
533.084	16218
533.152	15982
533.220	15946
533.287	14770
533.355	15589
533.423	17775
533.490	15891
533.558	17333
533.625	19054
533.693	17788
533.761	18096
533.828	18249
533.896	16606
533.963	20074
534.031	21463
534.098	28319
534.166	31682
534.233	30857
534.300	35145
534.368	36657
534.435	36240
534.503	41287
534.570	46769
534.637	55604
534.705	64908
534.772	85816
534.840	177094
534.907	728951
534.974	910628
535.041	152594
535.109	59512
535.176	42011
535.243	36762
535.310	33897
535.378	31135
535.445	31312
535.512	32251
535.579	31857
535.646	28801
535.714	32688
535.781	33151
535.848	32743
535.915	31332
535.982	30070
536.049	29711
536.116	30860
536.183	28226
536.250	27403
536.317	29321
536.384	32371
536.451	32743
536.518	32538
536.585	30034
536.652	33987
536.719	32171
536.786	30275
536.853	30757
536.920	33492
536.987	31715
537.053	31008
537.120	35412
537.187	36201
537.254	35927
537.321	34768
537.388	36121
537.454	34535
537.521	34845
537.588	35344
537.654	34099
537.721	38204
537.788	37216
537.855	34323
537.921	34763
537.988	33427
538.055	32976
538.121	30744
538.188	29386
538.254	28797
538.321	30369
538.388	33399
538.454	37657
538.521	39303
538.587	36895
538.654	35692
538.720	35126
538.787	36030
538.853	35219
538.920	33824
538.986	30662
539.053	31417
539.119	32803
539.185	33833
539.252	35151
539.318	35170
539.385	40638
539.451	36469
539.517	36294
539.583	35861
539.650	35398
539.716	36153
539.782	33610
539.849	33665
539.915	33921
539.981	34024
540.047	33565
540.114	33833
540.180	35700
540.246	36503
540.312	38762
540.378	38142
540.444	37229
540.510	37320
540.576	37968
540.643	35679
540.709	33391
540.775	34535
540.841	33352
540.907	34036
540.973	33647
541.039	33769
541.105	34792
541.171	37649
541.237	38446
541.303	39289
541.369	37915
541.435	37592
541.500	34447
541.566	32468
541.632	33667
541.698	35408
541.764	37414
541.830	35586
541.896	34399
541.961	36964
542.027	34419
542.093	39712
542.159	38980
542.224	34155
542.290	36764
542.356	33917
542.421	34423
542.487	33385
542.553	31577
542.618	34330
542.684	34550
542.750	35439
542.815	35983
542.881	35418
542.947	38609
543.012	38529
543.078	33876
543.143	33945
543.209	34221
543.274	33217
543.340	34196
543.405	35594
543.471	37512
543.536	36275
543.602	36435
543.667	35606
543.732	37065
543.798	36913
543.863	37159
543.928	37177
543.994	36037
544.059	37195
544.124	40006
544.190	39150
544.255	39624
544.320	40866
544.386	38733
544.451	41838
544.516	39629
544.581	40478
544.646	40683
544.712	44065
544.777	40984
544.842	41767
544.907	41004
544.972	42375
545.037	45668
545.102	48092
545.168	44377
545.233	46318
545.298	46316
545.363	46242
545.428	49093
545.493	50094
545.558	49130
545.623	48581
545.688	48858
545.753	51660
545.818	52962
545.883	56112
545.947	56062
546.012	59959
546.077	60730
546.142	65444
546.207	65997
546.272	70874
546.337	72762
546.401	73537
546.466	77138
546.531	80750
546.596	87519
546.661	90080
546.725	95041
546.790	101145
546.855	111098
546.919	121786
546.984	136481
547.049	145586
547.113	165327
547.178	182554
547.243	205350
547.307	238114
547.372	262089
547.436	262583
547.501	275615
547.565	296964
547.630	270975
547.695	262570
547.759	265153
547.823	268934
547.888	272267
547.952	281912
548.017	297181
548.081	321794
548.146	300170
548.210	302852
548.274	324905
548.339	320725
548.403	291119
548.468	273804
548.532	272560
548.596	279327
548.660	281619
548.725	303853
548.789	324972
548.853	315729
548.917	305100
548.982	293605
549.046	265009
549.110	243049
549.174	251548
549.238	293839
549.303	318736
549.367	326185
549.431	308738
549.495	292425
549.559	292505
549.623	336411
549.687	366588
549.751	357689
549.815	426956
549.879	428285
549.943	415142
550.007	431410
550.071	426394
550.135	384529
550.199	367624
550.263	365494
550.327	346474
550.391	362835
550.455	400571
550.519	413949
550.582	434496
550.646	490750
550.710	497588
550.774	492897
550.838	503992
550.901	516657
550.965	554951
551.029	583227
551.093	633290
551.156	695618
551.220	774780
551.284	816547
551.347	658282
551.411	554522
551.475	517454
551.538	528729
551.602	491757
551.666	465344
551.729	440518
551.793	427175
551.856	417030
551.920	411917
551.983	409278
552.047	404929
552.110	407030
552.174	416473
552.237	421597
552.301	390007
552.364	374705
552.428	363413
552.491	375810
552.554	379401
552.618	375590
552.681	383711
552.745	367927
552.808	378310
552.871	395626
552.934	391877
552.998	378708
553.061	371182
553.124	357836
553.187	355744
553.251	366345
553.314	365475
553.377	371032
553.440	395539
553.503	405654
553.567	401123
553.630	395815
553.693	389575
553.756	394393
553.819	385680
553.882	372058
553.945	375412
554.008	375298
554.071	378583
554.134	380283
554.197	358646
554.260	349718
554.323	353724
554.386	362401
554.449	376402
554.512	375060
554.575	362338
554.638	356094
554.701	357351
554.764	351801
554.827	339746
554.889	328218
554.952	310167
555.015	305863
555.078	310975
555.141	311457
555.203	304139
555.266	302956
555.329	303279
555.391	292395
555.454	290173
555.517	277024
555.580	272246
555.642	259834
555.705	257517
555.768	254774
555.830	247572
555.893	235871
555.955	229845
556.018	224839
556.080	227723
556.143	231960
556.206	230492
556.268	222412
556.330	218786
556.393	213102
556.455	207495
556.518	203761
556.580	196818
556.643	189382
556.705	186528
556.767	182587
556.830	181353
556.892	176454
556.955	174743
557.017	169702
557.079	169223
557.142	166701
557.204	165568
557.266	166969
557.328	155773
557.391	145690
557.453	143838
557.515	142142
557.577	145831
557.639	147374
557.701	146118
557.764	147189
557.826	153733
557.888	157760
557.950	166982
558.012	184672
558.074	239609
558.136	491186
558.198	1067499
558.260	459851
558.322	191236
558.384	179368
558.446	185361
558.508	199225
558.570	225066
558.632	258621
558.694	335196
558.756	550357
558.818	1243721
558.880	2157485
558.942	1273891
559.003	1205665
559.065	650160
559.127	273963
559.189	243663
559.251	263077
559.312	366293
559.374	751726
559.436	1725969
559.498	1081519
559.559	343169
559.621	253573
559.683	273972
559.744	417808
559.806	1045724
559.868	1459574
559.929	481188
559.991	284661
560.052	421401
560.114	1033776
560.176	732306
560.237	636537
560.299	967232
560.360	275791
560.422	112998
560.483	87687
560.545	79146
560.606	73550
560.667	70050
560.729	66144
560.790	63028
560.852	61123
560.913	59387
560.974	55843
561.036	56447
561.097	56204
561.158	54885
561.220	53403
561.281	52166
561.342	49730
561.403	50583
561.465	48995
561.526	49763
561.587	49433
561.648	47260
561.709	45604
561.771	46235
561.832	44002
561.893	44293
561.954	44121
562.015	42873
562.076	42219
562.137	42024
562.198	41150
562.259	42537
562.320	40706
562.381	42410
562.442	42036
562.503	40758
562.564	38405
562.625	39316
562.686	39152
562.747	39950
562.808	39092
562.869	36345
562.930	36577
562.991	37271
563.051	36142
563.112	36704
563.173	37229
563.234	36939
563.294	35889
563.355	35155
563.416	35395
563.477	34129
563.537	34830
563.598	34574
563.659	33649
563.720	33720
563.780	33778
563.841	34344
563.901	34984
563.962	32624
564.023	32213
564.083	32857
564.144	32231
564.204	32247
564.265	31850
564.325	31727
564.386	31220
564.446	32085
564.507	30923
564.567	30535
564.628	30970
564.688	30446
564.749	29699
564.809	30656
564.869	29548
564.930	31335
564.990	30189
565.050	29146
565.111	30073
565.171	29323
565.231	28297
565.292	30262
565.352	29002
565.412	29811
565.472	29574
565.532	28584
565.593	29024
565.653	29072
565.713	28792
565.773	31519
565.833	30369
565.893	31987
565.953	27776
566.013	27205
566.074	26767
566.134	27580
566.194	25605
566.254	27590
566.314	26396
566.374	27896
566.434	26789
566.494	27562
566.554	27708
566.614	28309
566.673	29166
566.733	29534
566.793	28203
566.853	30068
566.913	28630
566.973	29444
567.033	29053
567.092	29609
567.152	28686
567.212	28835
567.272	28806
567.331	29216
567.391	29325
567.451	32494
567.511	30953
567.570	30511
567.630	30717
567.690	29611
567.749	28336
567.809	28904
567.868	29007
567.928	29208
567.988	29129
568.047	29932
568.107	28883
568.166	29426
568.226	29777
568.285	30207
568.345	30878
568.404	30923
568.464	29163
568.523	29148
568.582	30236
568.642	30710
568.701	27717
568.761	28318
568.820	27754
568.879	28454
568.939	28756
568.998	30652
569.057	29514
569.116	29763
569.176	29079
569.235	28700
569.294	29862
569.353	28873
569.413	27098
569.472	26397
569.531	28088
569.590	27046
569.649	26501
569.708	27356
569.767	28405
569.827	28196
569.886	26252
569.945	26445
570.004	28326
570.063	28138
570.122	29387
570.181	29473
570.240	30105
570.299	30264
570.358	29835
570.417	30473
570.475	30036
570.534	30370
570.593	29790
570.652	31316
570.711	30293
570.770	30535
570.829	28678
570.887	29820
570.946	30601
571.005	31960
571.064	30406
571.122	32067
571.181	29763
571.240	31170
571.299	27949
571.357	29656
571.416	28309
571.475	29549
571.533	31766
571.592	32959
571.650	32561
571.709	34166
571.768	38999
571.826	41081
571.885	37512
571.943	34234
572.002	31742
572.060	29597
572.119	28791
572.177	30171
572.236	29553
572.294	30446
572.352	32197
572.411	34016
572.469	31732
572.528	31494
572.586	29585
572.644	29813
572.703	28934
572.761	27594
572.819	27497
572.877	27168
572.936	25875
572.994	26736
573.052	26145
573.110	28428
573.169	29401
573.227	30297
573.285	29282
573.343	28483
573.401	28456
573.459	29837
573.517	30137
573.576	33249
573.634	32089
573.692	31329
573.750	31549
573.808	30981
573.866	28506
573.924	27847
573.982	28295
574.040	28627
574.098	28331
574.155	27892
574.213	27522
574.271	30057
574.329	33220
574.387	30811
574.445	27280
574.503	26164
574.560	25863
574.618	27192
574.676	27780
574.734	26847
574.792	26083
574.849	24931
574.907	22067
574.965	22150
575.022	20703
575.080	22326
575.138	21438
575.195	21720
575.253	20057
575.311	20579
575.368	20927
575.426	20291
575.483	21328
575.541	23102
575.598	22441
575.656	22557
575.713	23308
575.771	25092
575.828	24179
575.886	23056
575.943	21267
576.001	21000
576.058	19278
576.115	20291
576.173	20985
576.230	22331
576.287	21867
576.345	22141
576.402	23029
576.459	24363
576.517	22466
576.574	20505
576.631	20198
576.688	20044
576.746	19292
576.803	19715
576.860	17927
576.917	20017
576.974	19369
577.031	20595
577.089	20163
577.146	19226
577.203	17036
577.260	18445
577.317	18145
577.374	18044
577.431	17792
577.488	18947
577.545	17707
577.602	19292
577.659	18163
577.716	19188
577.773	19126
577.830	18792
577.886	17788
577.943	17716
578.000	17218
578.057	17603
578.114	16984
578.171	18153
578.227	17873
578.284	17278
578.341	18271
578.398	18189
578.454	18426
578.511	17582
578.568	18204
578.625	18562
578.681	18596
578.738	18706
578.794	18560
578.851	19488
578.908	19017
578.964	18315
579.021	18143
579.077	19617
579.134	18407
579.190	18700
579.247	18423
579.303	18491
579.360	17563
579.416	18563
579.473	17877
579.529	18590
579.586	17579
579.642	20002
579.698	18117
579.755	19749
579.811	18304
579.867	18854
579.924	18767
579.980	19780
580.036	19907
580.093	20460
580.149	18766
580.205	20229
580.261	19668
580.317	21026
580.374	21361
580.430	22483
580.486	21397
580.542	20504
580.598	20856
580.619	21289
580.654	22056
580.692	20987
580.710	20491
580.765	22447
580.767	22527
580.823	21536
580.838	21781
580.879	22481
580.911	22534
580.935	22592
580.984	22631
580.991	22658
581.047	23050
581.057	22890
581.103	22239
581.130	21378
581.159	20543
581.203	20361
581.215	20318
581.270	20655
581.276	20629
581.326	20447
581.349	20252
581.382	20010
581.422	20508
581.438	20727
581.494	19480
581.494	19472
581.550	19295
581.567	19297
581.606	19328
581.640	19533
581.661	19672
581.713	20762
581.717	20852
581.773	20518
581.786	20450
581.829	20255
581.859	20390
581.885	20567
581.932	19901
581.940	19754
581.996	20924
582.004	20740
582.052	19864
582.077	20219
582.107	20536
582.150	20238
582.163	20188
582.219	20134
582.223	20118
582.274	19888
582.296	20077
582.330	20471
582.368	20533
582.386	20613
582.441	20417
582.441	20417
582.497	20678
582.514	20945
582.552	21656
582.587	20863
582.608	20358
582.659	20979
582.663	21027
582.719	20473
582.732	20717
582.774	21646
582.805	21048
582.830	20445
582.877	21205
582.885	21361
582.941	20655
582.950	20824
582.996	21369
583.023	21072
583.052	21007
583.095	20769
583.107	20651
583.162	20471
583.168	20546
583.218	21161
583.240	20782
583.273	20258
583.313	20199
583.328	20207
583.384	20599
583.385	20636
583.439	21553
583.458	21178
583.494	20669
583.531	21333
583.549	21664
583.603	21146
583.605	21126
583.660	22570
583.676	22491
583.715	22304
583.748	22585
583.770	22806
583.820	22175
583.825	22102
583.881	23247
583.893	23156
583.936	22960
583.965	22857
583.991	22641
584.038	22805
584.046	22919
584.101	23602
584.110	23663
584.156	23630
584.183	23781
584.211	24075
584.255	24236
584.266	24238
584.321	24673
584.328	24686
584.376	25103
584.400	25465
584.431	25868
584.472	26506
584.486	26693
584.541	27691
584.545	27715
584.596	28516
584.617	28463
584.651	28595
584.689	29881
584.706	30171
584.761	32200
584.762	32190
584.816	32470
584.834	33469
584.871	35263
584.906	36580
584.926	37376
584.978	40326
584.980	40471
585.035	44739
585.051	46336
585.090	51018
585.123	54912
585.145	57777
585.195	65727
585.200	66621
585.254	77776
585.267	81328
585.309	93829
585.340	103132
585.364	111567
585.412	131898
585.419	135486
585.473	169923
585.484	179869
585.528	236907
585.556	290701
585.583	386871
585.628	606938
585.637	682511
585.692	1284637
585.700	1379886
585.747	1693626
585.772	1561424
585.801	1146247
585.845	541910
585.856	451155
585.910	220780
585.917	200464
585.965	140530
585.989	119155
586.019	102481
586.061	85900
586.074	82293
586.128	71552
586.133	70747
586.183	64670
586.205	62562
586.237	60554
586.277	58683
586.292	58293
586.346	56739
586.349	56695
586.401	56126
586.421	55692
586.455	55463
586.493	54452
586.509	54430
586.564	55461
586.565	55480
586.618	60415
586.637	62533
586.672	70284
586.709	80492
586.727	85392
586.781	98489
586.781	98547
586.835	79876
586.853	74449
586.889	66057
586.925	59286
586.944	57540
586.996	54912
586.998	54914
587.052	53520
587.068	53126
587.106	53710
587.140	54276
587.161	54389
587.212	53908
587.215	53967
587.269	54495
587.284	54815
587.323	56430
587.356	57550
587.377	58581
587.427	60099
587.431	60195
587.485	60676
587.499	60591
587.539	61553
587.571	63213
587.593	64814
587.643	68041
587.648	68316
587.702	68947
587.715	69048
587.755	69531
587.786	69934
587.810	70411
587.858	70952
587.864	71010
587.917	70715
587.930	70446
587.971	70755
588.001	70998
588.025	70875
588.073	69763
588.079	69914
588.133	71052
588.145	71169
588.187	70459
588.217	69684
588.241	70572
588.288	72620
588.295	72993
588.348	75557
588.360	75694
588.402	75423
588.431	75482
588.456	75691
588.503	75958
588.510	76571
588.564	81099
588.575	81874
588.617	84160
588.646	85973
588.671	88180
588.718	91789
588.725	92751
588.778	101400
588.789	103586
588.832	133283
588.861	156993
588.886	219599
588.932	354149
588.939	368323
588.993	477496
589.004	477689
589.047	261450
589.075	138877
589.100	116240
589.147	89657
589.154	89165
589.207	85270
589.218	84434
589.261	86894
589.290	88814
589.314	90041
589.361	92690
589.368	94484
589.421	109326
589.433	113159
589.475	167888
589.504	210044
589.528	272315
589.576	406266
589.582	394446
589.635	219372
589.647	184127
589.689	122179
589.718	87006
589.742	85382
589.790	81996
589.795	82243
589.849	83161
589.861	83321
589.902	83402
589.932	83067
589.955	83074
590.004	82656
590.009	82791
590.062	82553
590.075	82223
590.115	82433
590.146	82550
590.168	82838
590.218	82700
590.222	83016
590.275	85197
590.289	85557
590.328	87024
590.360	87958
590.381	89008
590.431	90315
590.435	90548
590.488	91611
590.503	91642
590.541	93018
590.574	93968
590.594	95377
590.645	98281
590.647	98594
590.700	100620
590.716	101189
590.753	105004
590.787	107997
590.806	109492
590.859	112590
590.859	112864
590.912	113317
590.930	113232
590.965	114953
591.001	116093
591.018	115729
591.071	113490
591.072	113201
591.124	112769
591.143	112204
591.177	113360
591.214	114412
591.230	115256
591.283	116862
591.285	116635
591.336	116167
591.356	115694
591.389	115578
591.427	114662
591.442	114735
591.495	114079
591.498	113761
591.547	115611
591.569	116097
591.600	117555
591.640	118635
591.653	119219
591.706	120437
591.711	120296
591.759	124709
591.782	126469
591.811	129764
591.853	133743
591.864	133946
591.917	133177
591.924	132727
591.969	133277
591.995	133000
592.022	134399
592.066	135955
592.075	136826
592.127	139966
592.137	140202
592.180	143829
592.208	145546
592.233	147741
592.279	150762
592.285	151462
592.338	154043
592.350	154206
592.390	154701
592.421	154354
592.443	156059
592.491	158520
592.495	159130
592.548	161627
592.562	161874
592.600	161315
592.633	160042
592.653	161392
592.704	162876
592.705	163866
592.775	166513
592.846	172974
592.916	172695
592.987	175068
593.058	176838
593.128	180690
593.199	178197
593.270	180454
593.341	183169
593.411	190940
593.482	197218
593.553	202862
593.623	204052
593.694	212033
593.764	216970
593.835	214953
593.906	216870
593.976	223063
594.047	228020
594.117	240238
594.188	245865
594.258	244514
594.329	245220
594.399	253704
594.470	259868
594.540	269894
594.611	276274
594.681	273452
594.751	272587
594.822	284887
594.892	296557
594.963	304710
595.033	313700
595.103	319682
595.174	322912
595.244	332542
595.314	340818
595.384	350592
595.455	360095
595.525	371864
595.595	385987
595.665	385421
595.736	375080
595.806	383505
595.876	389582
595.946	390002
596.016	409856
596.087	420875
596.157	422012
596.227	424917
596.297	446409
596.367	475120
596.437	501247
596.507	496806
596.577	494183
596.647	513850
596.717	540806
596.787	547101
596.857	545892
596.927	553343
596.997	549959
597.067	560777
597.137	566271
597.207	572383
597.277	574848
597.347	554189
597.417	535627
597.487	534161
597.557	545689
597.626	563744
597.696	568886
597.766	564236
597.836	528042
597.906	505017
597.975	493040
598.045	504538
598.115	522527
598.185	561976
598.254	624406
598.324	679297
598.394	690402
598.464	667510
598.533	658352
598.603	615328
598.672	597100
598.742	608869
598.812	610691
598.881	629877
598.951	620442
599.020	633520
599.090	659030
599.159	663736
599.229	638591
599.299	627422
599.368	645200
599.437	633568
599.507	585902
599.576	566883
599.646	552550
599.715	548681
599.785	543490
599.854	524471
599.924	516280
599.993	514943
600.062	530783
600.132	543465
600.201	574192
600.270	661040
600.340	697033
600.409	683346
600.478	678275
600.547	693748
600.617	623475
600.686	502839
600.755	452197
600.824	425365
600.894	417206
600.963	423002
601.032	412102
601.101	398468
601.170	378810
601.239	367312
601.308	363307
601.378	363896
601.447	364733
601.516	369386
601.585	369992
601.654	376064
601.723	376517
601.792	387850
601.861	398578
601.930	409887
601.999	413993
602.068	412474
602.137	419199
602.206	426413
602.275	435429
602.343	435779
602.412	439751
602.481	445436
602.550	449287
602.619	464197
602.688	466902
602.756	471917
602.825	474691
602.894	487105
602.963	500649
603.032	506944
603.100	505024
603.169	509688
603.238	510143
603.307	513931
603.375	523338
603.444	528905
603.513	542349
603.581	548305
603.650	553058
603.719	552985
603.787	570319
603.856	583905
603.924	597984
603.993	618024
604.061	644022
604.130	668565
604.198	682224
604.267	693867
604.335	702230
604.404	715184
604.472	718664
604.541	730314
604.609	732131
604.678	732678
604.746	738265
604.815	761366
604.883	770958
604.951	771335
605.020	785664
605.088	801370
605.156	821105
605.225	832649
605.293	831644
605.361	835802
605.429	843219
605.498	865240
605.566	881381
605.634	920932
605.702	951688
605.771	980588
605.839	979085
605.907	966687
605.975	929677
606.043	918745
606.111	921129
606.180	915675
606.248	904225
606.316	894684
606.384	893402
606.452	905049
606.520	936278
606.588	967087
606.656	976402
606.724	954282
606.792	902510
606.860	822374
606.928	755924
606.996	728543
607.064	715951
607.132	736134
607.200	778378
607.267	802020
607.335	819391
607.403	835032
607.471	806733
607.539	783421
607.607	789294
607.674	696451
607.742	698654
607.810	690262
607.878	694377
607.946	710885
608.013	743572
608.081	757810
608.149	760643
608.216	792721
608.284	809507
608.352	811923
608.419	803690
608.487	785276
608.555	775827
608.622	799223
608.690	845861
608.757	924884
608.825	942821
608.893	918819
608.960	867037
609.028	833463
609.095	834404
609.163	836243
609.230	748315
609.298	692093
609.365	729712
609.432	782650
609.500	842774
609.567	956964
609.635	1070590
609.702	1115766
609.769	1063793
609.837	844691
609.904	747907
609.971	770684
610.039	826714
610.106	991380
610.173	1548617
610.241	2700964
610.308	1881462
610.375	979329
610.442	831179
610.509	784079
610.577	785091
610.644	792965
610.711	817298
610.778	829510
610.845	866665
610.912	913400
610.980	942209
611.047	940129
611.114	925258
611.181	898397
611.248	899063
611.315	945400
611.382	966153
611.449	997978
611.516	1011131
611.583	995322
611.650	1004109
611.717	1016971
611.784	1032854
611.851	1068795
611.918	1112027
611.984	1239540
612.051	1523526
612.118	2265167
612.185	3495465
612.252	2900746
612.319	1603970
612.386	1330857
612.452	1203707
612.519	1140893
612.586	1110968
612.653	1129645
612.719	1157388
612.786	1117095
612.853	1047460
612.919	1032608
612.986	1045381
613.053	989032
613.120	936559
613.186	910587
613.253	908386
613.319	912307
613.386	920850
613.453	932569
613.519	936143
613.586	918503
613.652	930195
613.719	918707
613.785	935151
613.852	940715
613.918	939029
613.985	943582
614.051	977989
614.118	965105
614.184	936903
614.250	937744
614.317	955275
614.383	945703
614.449	962788
614.516	953145
614.582	959661
614.648	940237
614.715	934936
614.781	917505
614.847	919241
614.914	912264
614.980	891370
615.046	893464
615.112	922784
615.179	925461
615.245	933892
615.311	921625
615.377	933290
615.443	942368
615.509	955984
615.575	984513
615.642	977779
615.708	996406
615.774	1037634
615.840	1083085
615.906	1134062
615.972	1279629
616.038	1657644
616.104	2591434
616.170	3696012
616.236	3445235
616.302	2080520
616.368	1693989
616.434	1316665
616.500	1192464
616.565	1277850
616.631	1543760
616.697	1344040
616.763	1328366
616.829	1770957
616.895	2721754
616.961	2631477
617.026	1511706
617.092	1109933
617.158	1011075
617.224	979639
617.289	904575
617.355	863734
617.421	859580
617.487	851231
617.552	809959
617.618	803590
617.684	807272
617.749	806284
617.815	773789
617.880	762510
617.946	762371
618.012	778225
618.077	791970
618.143	759460
618.208	765951
618.274	812441
618.339	817922
618.405	689507
618.470	692570
618.536	691610
618.601	678141
618.667	634989
618.732	606871
618.798	599281
618.863	599796
618.928	590596
618.994	598940
619.059	590022
619.124	594740
619.190	590287
619.255	589356
619.320	590608
619.386	598670
619.451	588996
619.516	571649
619.581	580833
619.647	601657
619.712	599825
619.777	573751
619.842	578458
619.907	590872
619.972	598032
620.038	594329
620.103	578629
620.168	582402
620.233	587762
620.298	590826
620.363	596931
620.428	612662
620.493	627506
620.558	633317
620.623	640029
620.688	638271
620.753	634032
620.818	647956
620.883	649294
620.948	647442
621.013	641107
621.078	630362
621.143	637242
621.207	642765
621.272	632299
621.337	613566
621.402	610447
621.467	604390
621.532	605893
621.596	607775
621.661	588833
621.726	589576
621.791	594919
621.855	592429
621.920	588774
621.985	597851
622.049	606911
622.114	608200
622.179	616569
622.243	627746
622.308	650709
622.373	666251
622.437	652687
622.502	622727
622.566	615130
622.631	619865
622.695	628117
622.760	623295
622.824	617236
622.889	627070
622.953	627415
623.018	660299
623.082	668729
623.147	659624
623.211	647992
623.276	646473
623.340	624334
623.404	610801
623.469	608078
623.533	618155
623.597	601322
623.662	601544
623.726	560693
623.790	534961
623.854	517517
623.919	530971
623.983	533607
624.047	545587
624.111	546464
624.176	556174
624.240	558463
624.304	575732
624.368	553332
624.432	556178
624.496	569369
624.560	598116
624.625	601633
624.689	594679
624.753	619810
624.817	593828
624.881	582067
624.945	529422
625.009	515701
625.073	527261
625.137	541774
625.201	563604
625.265	561357
625.329	541511
625.393	545574
625.456	552023
625.520	566015
625.584	573844
625.648	585152
625.712	598509
625.776	586398
625.839	556692
625.903	484673
625.967	457239
626.031	481975
626.095	564221
626.158	527576
626.222	427286
626.286	399110
626.349	385011
626.413	363531
626.477	359883
626.540	366290
626.604	363298
626.668	353834
626.731	353472
626.795	352008
626.858	353795
626.922	346704
626.986	342167
627.049	346023
627.113	358121
627.176	346088
627.240	334921
627.303	336802
627.366	333618
627.430	341065
627.493	332311
627.557	327049
627.620	332672
627.684	348539
627.747	349054
627.810	321091
627.874	289352
627.937	280215
628.000	287914
628.064	280555
628.127	255903
628.190	248892
628.253	244008
628.317	236310
628.380	224352
628.443	219418
628.506	217662
628.569	206569
628.632	202049
628.696	198783
628.759	200521
628.822	189188
628.885	186686
628.948	183701
629.011	180502
629.074	174418
629.137	168472
629.200	164785
629.263	163870
629.326	162319
629.389	162660
629.452	159995
629.515	156873
629.578	154944
629.641	158622
629.704	157509
629.767	155993
629.830	149906
629.892	148767
629.955	147157
630.018	151284
630.081	148151
630.144	147209
630.207	144161
630.269	147326
630.332	140928
630.395	140455
630.458	135160
630.520	130170
630.583	134367
630.646	135311
630.708	136427
630.771	139844
630.834	147691
630.896	144473
630.959	142144
631.021	138886
631.084	137366
631.146	141470
631.209	140380
631.272	140079
631.334	144238
631.397	145423
631.459	146356
631.522	153007
631.584	157463
631.646	164820
631.709	170413
631.771	169205
631.834	163106
631.896	157617
631.958	147998
632.021	143458
632.083	137997
632.145	135254
632.208	134644
632.270	134485
632.332	132620
632.395	132280
632.457	133477
632.519	129547
632.581	129894
632.643	129200
632.706	127898
632.768	126648
632.830	127977
632.892	134072
632.954	132512
633.016	135775
633.078	130790
633.141	131279
633.203	129668
633.265	131043
633.327	129781
633.389	132051
633.451	132512
633.513	132299
633.575	137416
633.637	132935
633.698	137464
633.760	143877
633.822	149578
633.884	151950
633.946	157228
634.008	159852
634.070	163771
634.132	172847
634.193	186891
634.255	202555
634.317	204794
634.379	198697
634.441	180756
634.502	168278
634.564	154309
634.626	143030
634.687	137500
634.749	131122
634.811	129723
634.873	130005
634.934	129129
634.996	130922
635.057	129423
635.119	133054
635.181	133139
635.242	136047
635.304	132907
635.365	137343
635.427	133861
635.488	135940
635.550	133339
635.611	135731
635.673	137485
635.734	145651
635.796	152101
635.857	165561
635.918	176218
635.980	192271
636.041	204204
636.102	215872
636.164	214941
636.225	205400
636.286	184171
636.348	165424
636.409	149852
636.470	143352
636.531	134553
636.593	131021
636.654	127129
636.715	122067
636.776	120254
636.838	117702
636.899	115962
636.960	115619
637.021	113777
637.082	111571
637.143	108726
637.204	106723
637.265	106955
637.326	110421
637.387	110707
637.448	110607
637.509	108940
637.570	108265
637.631	107711
637.692	103976
637.753	101638
637.814	102616
637.875	101767
637.936	101590
637.997	100971
638.058	102069
638.119	101005
638.179	101944
638.240	100509
638.301	102484
638.362	96665
638.423	96270
638.483	96167
638.544	93483
638.605	96780
638.666	97022
638.726	95770
638.787	94893
638.848	96115
638.908	92789
638.969	89576
639.030	88385
639.090	88867
639.151	90338
639.211	92447
639.272	93003
639.332	91993
639.393	96139
639.453	102999
639.514	103804
639.574	92300
639.635	86928
639.695	86835
639.756	84948
639.816	83281
639.877	84975
639.937	85236
639.997	84480
640.058	83975
640.118	84470
640.178	84967
640.239	85086
640.299	85445
640.359	87757
640.420	93056
640.480	102551
640.540	115822
640.600	117213
640.661	108523
640.721	107001
640.781	117206
640.841	119714
640.901	89665
640.961	89402
641.021	92089
641.082	97695
641.142	88115
641.202	85419
641.262	80842
641.322	82004
641.382	79364
641.442	80923
641.502	79889
641.562	82956
641.622	84803
641.682	91333
641.742	101354
641.802	94937
641.861	84959
641.921	78872
641.981	77508
642.041	75108
642.101	75023
642.161	73240
642.221	74652
642.280	76005
642.340	75011
642.400	76993
642.460	79041
642.519	78923
642.579	78815
642.639	79968
642.698	78065
642.758	83856
642.818	82013
642.877	79967
642.937	80688
642.997	81437
643.056	80538
643.116	80087
643.175	83328
643.235	85089
643.294	86003
643.354	90768
643.414	96621
643.473	108227
643.532	124116
643.592	156527
643.651	219715
643.711	346734
643.770	625884
643.830	1319621
643.889	2047368
643.948	806164
644.008	256930
644.067	159250
644.126	120805
644.186	105019
644.245	93988
644.304	85249
644.363	85879
644.423	81054
644.482	83125
644.541	87892
644.600	91802
644.659	106467
644.719	128082
644.778	177307
644.837	282290
644.896	548191
644.955	1097636
645.014	402061
645.073	135169
645.132	104877
645.191	95302
645.250	92239
645.309	94955
645.368	105355
645.427	135657
645.486	231692
645.545	373056
645.604	124295
645.663	85060
645.722	84825
645.781	86884
645.840	95260
645.898	109980
645.957	144143
646.016	201302
646.075	328418
646.134	590047
646.192	1340418
646.251	1638149
646.310	464690
646.369	186114
646.427	151268
646.486	115419
646.545	90389
646.603	82396
646.662	77206
646.721	75614
646.779	74974
646.838	77331
646.896	91685
646.955	119610
647.014	178752
647.072	330281
647.131	811017
647.189	390347
647.248	96640
647.306	72608
647.365	66909
647.423	60510
647.481	61439
647.540	58407
647.598	59448
647.657	58472
647.715	59812
647.773	54537
647.832	55928
647.890	50412
647.948	51136
648.007	51501
648.065	50921
648.123	48603
648.181	48562
648.240	49116
648.298	46914
648.356	47186
648.414	48366
648.472	46581
648.531	44582
648.589	44547
648.647	45821
648.705	45718
648.763	46580
648.821	47732
648.879	49201
648.937	52143
648.995	61334
649.053	73501
649.111	102535
649.169	155576
649.227	271310
649.285	545261
649.343	1267534
649.401	640607
649.459	140936
649.516	83147
649.574	66564
649.632	64860
649.690	71593
649.748	88185
649.806	129689
649.863	231733
649.921	613069
649.979	389634
650.037	75474
650.094	48829
650.152	45788
650.210	42423
650.268	43407
650.325	46892
650.383	55479
650.440	36472
650.498	35946
650.556	34918
650.613	32865
650.671	33449
650.728	35926
650.786	38995
650.843	54692
650.901	41270
650.958	33573
651.016	29989
651.073	30572
651.131	29496
651.188	28017
651.246	27985
651.303	27476
651.360	27352
651.418	27439
651.475	28433
651.532	26421
651.590	27438
651.647	26967
651.704	26163
651.762	26325
651.819	25903
651.876	25140
651.933	23643
651.990	25629
652.048	22942
652.105	24448
652.162	24426
652.219	24431
652.276	22971
652.333	24243
652.390	22437
652.448	22949
652.505	23187
652.562	23569
652.619	22857
652.676	23685
652.733	23669
652.790	22710
652.847	20483
652.904	22527
652.961	21092
653.017	21590
653.074	21170
653.131	21540
653.188	20262
653.245	21213
653.302	21606
653.359	21248
653.415	21499
653.472	21562
653.529	20873
653.586	20500
653.642	20630
653.699	21751
653.756	20830
653.813	21281
653.869	22390
653.926	22427
653.983	20566
654.039	22122
654.096	20524
654.152	21431
654.209	18686
654.266	20974
654.322	18295
654.379	20663
654.435	20336
654.492	20052
654.548	20370
654.605	20559
654.661	23472
654.717	20411
654.774	20807
654.830	20741
654.887	20722
654.943	22187
655.000	27930
655.056	23056
655.112	19541
655.168	19766
655.225	20795
655.281	21509
655.337	20421
655.394	18746
655.450	19038
655.506	19283
655.562	17282
655.618	20332
655.675	18228
655.731	19122
655.787	18081
655.843	19602
655.899	18150
655.955	21420
656.011	19386
656.067	18831
656.123	18563
656.179	19325
656.235	20170
656.291	19853
656.347	20890
656.403	18879
656.459	19599
656.515	19237
656.571	18217
656.627	19004
656.683	18075
656.739	18867
656.795	18250
656.850	18949
656.906	18609
656.962	20357
657.018	21787
657.074	27057
657.129	35338
657.185	56220
657.241	128436
657.297	66990
657.352	22453
657.408	19998
657.464	19139
657.519	18205
657.575	17213
657.630	17226
657.686	17406
657.742	16840
657.797	16520
657.853	17244
657.908	17884
657.964	15957
658.019	16784
658.075	16899
658.130	17306
658.186	16520
658.241	16966
658.297	16311
658.352	15963
658.407	17388
658.463	15813
658.518	16915
658.573	15821
658.629	16543
658.684	16045
658.739	15959
658.795	15447
658.850	16016
658.905	15405
658.960	15708
659.016	13534
659.071	14805
659.126	15614
659.181	15480
659.236	15888
659.291	16220
659.346	14431
659.401	15899
659.457	16513
659.512	14840
659.567	15357
659.622	16107
659.677	14548
659.732	15047
659.787	14789
659.842	14167
659.897	14314
659.952	16251
660.007	15570
660.061	14826
660.116	14252
660.171	14098
660.226	15238
660.281	15255
660.336	15038
660.391	15359
660.445	13183
660.500	14495
660.555	13607
660.610	14668
660.664	14689
660.719	13930
660.774	14132
660.828	14463
660.883	13512
660.938	15255
660.992	13976
661.047	13992
661.101	12375
661.156	14229
661.211	12867
661.265	13877
661.320	13909
661.374	14853
661.429	13234
661.483	14884
661.538	13768
661.592	15564
661.647	17722
661.701	25274
661.755	17134
661.810	14208
661.864	13580
661.919	13478
661.973	14104
662.027	13649
662.081	13540
662.136	14128
662.190	13321
662.244	14383
662.299	12796
662.353	14256
662.407	13879
662.461	13997
662.515	13774
662.569	12735
662.624	12653
662.678	13074
662.732	12657
662.786	13895
662.840	12954
662.894	14269
662.948	11996
663.002	14001
663.056	12946
663.110	13951
663.164	12926
663.218	14444
663.272	13284
663.326	14063
663.380	12368
663.434	14128
663.488	12164
663.542	13842
663.595	13652
663.649	13820
663.703	13980
663.757	13559
663.811	13114
663.864	13709
663.918	13650
663.972	13961
664.026	13572
664.079	13493
664.133	14263
664.187	14924
664.240	14949
664.294	16264
664.348	14757
664.401	14401
664.455	13683
664.508	13228
664.562	13074
664.615	13489
664.669	13137
664.722	12765
664.776	11902
664.829	14135
664.883	13568
664.936	13754
664.990	13834
665.043	14340
665.097	12805
665.150	14458
665.203	13241
665.257	14428
665.310	14232
665.363	14401
665.417	14348
665.470	14908
665.523	13829
665.576	15091
665.630	14531
665.683	14782
665.736	15041
665.789	15385
665.842	13483
665.895	14080
665.949	12961
666.002	13897
666.055	14467
666.108	15733
666.161	15133
666.214	15471
666.267	14275
666.320	15043
666.373	15717
666.426	16696
666.479	15624
666.532	16993
666.585	15760
666.638	17207
666.691	15886
666.744	16056
666.796	14481
666.849	15758
666.902	16788
666.955	14373
667.008	15989
667.060	14856
667.113	15478
667.166	15887
667.219	16215
667.271	16923
667.324	16342
667.377	15793
667.430	15054
667.482	15747
667.535	15472
667.587	15564
667.640	15487
667.693	14607
667.745	14718
667.798	15778
667.850	14207
667.903	16357
667.955	15314
668.008	16013
668.060	14822
668.113	14953
668.165	14007
668.218	15597
668.270	14937
668.322	15187
668.375	14363
668.427	15402
668.479	14065
668.532	15619
668.584	14271
668.636	13722
668.689	14287
668.741	13987
668.793	13610
668.845	14466
668.898	14984
668.950	14974
669.002	14684
669.054	14654
669.106	13278
669.158	13769
669.211	12889
669.263	13116
669.315	13222
669.367	14326
669.419	12620
669.471	13875
669.523	13336
669.575	14014
669.627	13316
669.679	13817
669.731	14081
669.783	13666
669.835	13380
669.886	13105
669.938	11856
669.990	14642
670.042	12781
670.094	12291
670.146	12860
670.197	13287
670.249	12442
670.301	13076
670.353	13033
670.404	12229
670.456	12699
670.508	13272
670.560	13292
670.611	13418
670.663	14828
670.715	18625
670.766	19503
670.818	15632
670.869	14483
670.921	16527
670.972	15329
671.024	14983
671.075	13996
671.127	14179
671.178	16604
671.230	17902
671.281	18828
671.333	21375
671.384	24675
671.436	33879
671.487	45580
671.538	64484
671.590	99581
671.641	163702
671.692	284093
671.744	498270
671.795	369748
671.846	157902
671.897	79357
671.949	52437
672.000	36972
672.051	29155
672.102	23829
672.153	21341
672.204	19369
672.256	17559
672.307	16041
672.358	16109
672.409	13757
672.460	14646
672.511	13145
672.562	11626
672.613	10969
672.664	10424
672.715	12006
672.766	10831
672.817	9647
672.868	10448
672.919	8918
672.970	10312
673.021	9793
673.071	9890
673.122	9512
673.173	10005
673.224	9410
673.275	10446
673.326	9534
673.376	9263
673.427	9578
673.478	10315
673.528	10702
673.579	10560
673.630	9952
673.680	11800
673.731	9391
673.782	10276
673.832	8920
673.883	10211
673.934	9643
673.984	10045
674.035	10079
674.085	10782
674.136	9607
674.186	10375
674.237	9326
674.287	10405
674.338	10628
674.388	10967
674.438	11033
674.489	12686
674.539	11926
674.589	11920
674.640	11071
674.690	11269
674.740	10709
674.791	11231
674.841	9433
674.891	9159
674.942	8548
674.992	8153
675.042	8043
675.092	8720
675.142	7566
675.193	8410
675.243	7404
675.293	10103
675.343	8148
675.393	9221
675.443	8887
675.493	9204
675.543	8424
675.593	9593
675.643	8241
675.693	9348
675.743	8283
675.793	8434
675.843	7257
675.893	7621
675.943	7544
675.993	7891
676.043	6439
676.093	8203
676.142	8200
676.192	7481
676.242	7209
676.292	7796
676.341	7228
676.391	8394
676.441	7228
676.491	7972
676.540	5668
676.590	6881
676.640	6381
676.689	6819
676.739	5577
676.789	7129
676.838	6436
676.888	6358
676.937	6431
676.987	6969
677.037	6594
677.086	6897
677.136	6406
677.185	7160
677.235	6355
677.284	7743
677.333	6218
677.383	7221
677.432	6539
677.482	6708
677.531	5734
677.580	5967
677.630	5646
677.679	6120
677.728	5999
677.778	6696
677.827	5814
677.876	6181
677.925	7189
677.975	8092
678.024	7186
678.073	7560
678.122	7526
678.171	8329
678.220	8811
678.269	9465
678.319	11098
678.368	11834
678.417	9066
678.466	8399
678.515	6988
678.564	6299
678.613	5093
678.662	5889
678.711	5284
678.760	6277
678.809	6642
678.857	6479
678.906	7732
678.955	6913
679.004	7541
679.053	8459
679.102	8875
679.151	6910
679.199	6200
679.248	6676
679.297	5561
679.346	6618
679.394	4283
679.443	6392
679.492	5135
679.540	6122
679.589	6110
679.638	6826
679.686	6688
679.735	8102
679.784	9123
679.832	11077
679.881	8127
679.929	6396
679.978	6393
680.026	7134
680.075	5888
680.123	5456
680.172	5234
680.220	6032
680.268	5147
680.317	5212
680.365	4381
680.414	5433
680.462	4775
680.510	6382
680.559	4843
680.607	5410
680.655	5494
680.703	5362
680.752	6032
680.800	4745
680.848	5715
680.896	6342
680.945	4839
680.993	5016
681.041	4728
681.089	5266
681.137	4594
681.185	5524
681.233	4786
681.258	5132
681.281	5420
681.329	4767
681.377	4620
681.380	4707
681.425	5559
681.473	6348
681.502	6033
681.521	5745
681.569	7366
681.617	6339
681.624	6348
681.665	6059
681.713	5882
681.745	6671
681.761	7004
681.809	5769
681.857	7211
681.867	6999
681.904	6060
681.952	6222
681.989	6017
682.000	5898
682.048	7171
682.096	5781
682.111	6190
682.143	6959
682.191	6650
682.233	7752
682.239	7879
682.286	5537
682.334	7543
682.354	7357
682.382	7010
682.430	7254
682.476	6165
682.477	6105
682.525	7450
682.572	6927
682.598	7363
682.620	7681
682.667	6941
682.715	7040
682.720	7079
682.763	7064
682.810	8715
682.841	7905
682.857	7435
682.905	7387
682.952	7750
682.963	7862
683.000	8088
683.047	7426
683.085	8756
683.095	9108
683.142	8803
683.190	8244
683.206	8057
683.237	7480
683.284	8605
683.328	7707
683.332	7607
683.379	8268
683.426	7329
683.449	7931
683.473	8584
683.521	8239
683.568	8912
683.571	8959
683.615	8907
683.662	8017
683.693	8130
683.709	8157
683.757	8259
683.804	7981
683.814	8053
683.851	8256
683.898	8731
683.936	9028
683.945	9073
683.992	8292
684.039	9232
684.057	9236
684.086	9132
684.133	9083
684.179	8253
684.180	8200
684.227	9091
684.274	9112
684.300	9198
684.321	9255
684.368	8460
684.415	9776
684.422	9721
684.462	9370
684.509	8894
684.543	9409
684.556	9543
684.603	10327
684.649	9614
684.665	9883
684.696	10394
684.743	9798
684.786	10579
684.790	10602
684.837	9397
684.883	10440
684.908	10056
684.930	9829
684.977	10156
685.023	9979
685.029	10150
685.070	11244
685.117	10665
685.150	10967
685.164	11036
685.210	10882
685.257	10773
685.272	11154
685.303	11854
685.350	12098
685.393	10584
685.396	10443
685.443	10638
685.490	10043
685.514	10267
685.536	10565
685.583	10269
685.629	10891
685.636	10898
685.675	10801
685.722	11044
685.757	10840
685.768	10745
685.815	11022
685.861	11275
685.878	11344
685.908	11564
685.954	10573
686.000	12242
686.000	12259
686.047	11592
686.093	12384
686.121	12414
686.139	12354
686.185	12977
686.232	11802
686.242	11992
686.278	12711
686.324	12187
686.363	12851
686.370	12926
686.416	12426
686.463	12335
686.484	12007
686.509	11727
686.555	12319
686.601	12238
686.606	12298
686.647	12712
686.693	12195
686.727	12175
686.739	12161
686.785	11969
686.831	12722
686.848	12518
686.877	12250
686.923	12209
686.969	12456
686.969	12457
687.015	13425
687.061	14008
687.090	14680
687.107	14892
687.153	14588
687.199	14532
687.211	14331
687.245	13545
687.291	14245
687.332	14002
687.336	14029
687.382	14685
687.428	14133
687.453	14513
687.474	14896
687.520	14683
687.565	16165
687.574	16204
687.611	17610
687.657	20363
687.695	22506
687.702	23216
687.748	29865
687.794	35737
687.816	36530
687.839	32996
687.885	25548
687.931	21138
687.937	20422
687.976	18850
688.022	17831
688.058	16302
688.067	16222
688.113	15701
688.158	15164
688.179	15113
688.204	15155
688.249	14692
688.295	15305
688.300	15208
688.340	14796
688.386	15586
688.421	15452
688.431	15393
688.477	15354
688.522	15733
688.542	15700
688.567	16014
688.613	16607
688.658	17578
688.663	17567
688.703	16732
688.749	16843
688.784	16282
688.794	16232
688.839	16833
688.884	17018
688.905	16874
688.930	16701
688.975	16377
689.020	16618
689.026	16581
689.065	16729
689.110	17638
689.146	17902
689.155	18058
689.201	19652
689.246	19805
689.267	19842
689.291	18904
689.336	18141
689.381	16530
689.388	16335
689.426	16529
689.471	16742
689.509	17031
689.516	17109
689.561	17415
689.606	17010
689.630	17099
689.651	17098
689.696	16497
689.741	17488
689.750	17227
689.785	16561
689.830	17381
689.871	17539
689.875	17536
689.920	17263
689.965	16930
689.992	16830
690.010	16937
690.054	16397
690.099	17020
690.112	16932
690.144	16831
690.189	17263
690.233	17062
690.233	17081
690.278	17215
690.323	17151
690.354	17442
690.367	17541
690.412	17156
690.457	16947
690.474	16751
690.501	16668
690.546	16602
690.590	17011
690.595	16989
690.635	16717
690.680	16540
690.716	16290
690.724	16311
690.769	16148
690.813	16514
690.836	16164
690.857	16220
690.902	17515
690.946	18317
690.957	18497
690.991	18512
691.035	17748
691.077	18243
691.080	18299
691.124	17885
691.168	17665
691.198	17225
691.213	17128
691.257	17849
691.301	17854
691.318	17909
691.346	17971
691.390	17915
691.434	17499
691.439	17478
691.478	17830
691.522	18859
691.559	18433
691.567	18419
691.611	19356
691.655	19770
691.680	19801
691.699	19573
691.743	19506
691.787	19697
691.800	19459
691.831	19034
691.875	19017
691.919	18768
691.921	18734
691.964	18920
692.008	19082
692.041	19003
692.052	19042
692.096	18988
692.139	19403
692.162	19470
692.183	19283
692.227	18915
692.271	18114
692.282	17978
692.315	18054
692.359	18065
692.402	18355
692.403	18387
692.447	17871
692.490	17524
692.523	17386
692.534	17547
692.578	17900
692.622	18027
692.643	18275
692.666	18495
692.709	18679
692.753	18931
692.763	18863
692.797	18553
692.840	18464
692.884	18527
692.884	18562
692.928	18212
692.971	18400
693.004	18242
693.015	18308
693.059	18415
693.102	18726
693.124	18770
693.146	18826
693.189	18983
693.233	18976
693.245	18946
693.276	19117
693.320	19339
693.363	19652
693.365	19625
693.407	19353
693.450	19207
693.485	18572
693.493	18573
693.537	18626
693.580	18791
693.605	18962
693.624	19032
693.667	18599
693.710	18545
693.725	18436
693.753	18445
693.797	18655
693.840	18680
693.845	18644
693.883	18614
693.926	18459
693.966	18402
693.970	18456
694.013	18457
694.056	18695
694.086	18724
694.099	18793
694.142	19245
694.185	19006
694.206	19057
694.229	19348
694.272	19572
694.315	20337
694.326	20372
694.358	20594
694.401	20745
694.444	21303
694.446	21276
694.487	21002
694.530	20324
694.566	20126
694.573	20233
694.616	20261
694.659	20777
694.686	20712
694.702	20784
694.745	21523
694.787	21535
694.806	21735
694.830	21704
694.873	21083
694.916	20964
694.926	20785
694.959	21162
695.002	22015
695.044	22436
695.046	22426
695.087	23014
695.130	22968
695.166	23058
695.172	23167
695.215	23524
695.258	24000
695.286	24256
695.301	24503
695.343	25210
695.386	25704
695.406	25887
695.428	27059
695.471	29202
695.514	31591
695.526	32203
695.556	34426
695.599	37369
695.641	40095
695.646	40327
695.684	38301
695.726	35718
695.766	33500
695.769	33503
695.811	32204
695.854	31025
695.886	30081
695.896	30292
695.938	31251
695.981	31487
696.005	31911
696.023	33028
696.065	35209
696.108	37793
696.125	38582
696.150	39091
696.192	40204
696.235	40820
696.245	41013
696.277	41467
696.319	41610
696.361	41964
696.365	41877
696.404	40645
696.446	39371
696.485	37974
696.488	38098
696.530	38796
696.572	39319
696.604	39690
696.614	39702
696.656	39162
696.698	38878
696.724	38550
696.740	38783
696.783	39279
696.825	39651
696.844	39767
696.867	40108
696.909	40402
696.951	40844
696.964	40859
696.992	41213
697.034	41731
697.076	42033
697.083	42031
697.118	43411
697.160	44824
697.202	46223
697.203	46152
697.244	45765
697.286	45490
697.323	44809
697.327	44919
697.369	45213
697.411	45432
697.442	45468
697.453	45584
697.494	45705
697.536	45821
697.562	45691
697.578	45658
697.620	45356
697.661	45080
697.682	44876
697.703	45954
697.744	47807
697.786	49706
697.801	50214
697.828	49954
697.869	49521
697.911	48965
697.921	48742
697.952	48429
697.994	47741
698.035	47176
698.040	46984
698.077	47430
698.118	47886
698.160	48263
698.160	48150
698.201	49922
698.243	51572
698.279	52974
698.284	53258
698.325	54663
698.367	56126
698.399	57094
698.408	57328
698.449	57813
698.491	58243
698.518	58406
698.532	58459
698.573	58170
698.614	57894
698.638	57589
698.656	57641
698.697	57467
698.738	57256
698.757	57028
698.779	57270
698.820	57447
698.862	57632
698.877	57560
698.903	57577
698.944	57376
698.985	57173
698.996	56978
699.026	57110
699.067	57095
699.116	56938
699.235	58031
699.354	56042
699.474	52843
699.593	52431
699.713	52433
699.832	52850
699.951	55704
700.070	54189
700.190	50872
700.309	50102
700.428	48725
700.547	47134
700.667	46490
700.786	47892
700.905	45136
701.024	47118
701.143	44967
701.262	48961
701.381	49468
701.500	49985
701.619	47987
701.738	49398
701.857	49015
701.976	43594
702.095	47605
702.214	47985
702.333	47203
702.452	48546
702.571	49743
702.690	48213
702.809	47850
702.928	44271
703.047	41390
703.165	43341
703.284	43026
703.403	42598
703.522	42814
703.640	40963
703.759	40893
703.878	39918
703.997	40666
704.115	42225
704.234	40292
704.353	44083
704.471	39250
704.590	38674
704.708	37619
704.827	36725
704.946	36913
705.064	37506
705.183	36118
705.301	38013
705.420	34970
705.538	35833
705.656	31733
705.775	32652
705.893	36315
706.012	34791
706.130	32635
706.249	35428
706.367	32777
706.485	34255
706.604	32365
706.722	35735
706.840	47396
706.958	86728
707.077	52901
707.195	32331
707.313	32902
707.431	28388
707.549	28713
707.668	27652
707.786	32325
707.904	28995
708.022	31970
708.140	28958
708.258	28540
708.376	32219
708.494	27268
708.612	31577
708.730	32055
708.848	30156
708.966	31470
709.084	31117
709.202	30433
709.320	27335
709.438	28067
709.556	27878
709.674	24736
709.791	24880
709.909	24986
710.027	25388
710.145	25632
710.263	24863
710.380	25275
710.498	24311
710.616	24978
710.733	23408
710.851	23701
710.969	23992
711.086	21646
711.204	24382
711.322	23714
711.439	23225
711.557	21285
711.674	22363
711.792	21293
711.909	20686
712.027	21498
712.144	21298
712.262	21777
712.379	22406
712.497	20884
712.614	22599
712.732	22718
712.849	21548
712.966	23527
713.084	23610
713.201	20957
713.318	23696
713.436	25876
713.553	25279
713.670	30316
713.787	27196
713.905	26474
714.022	27904
714.139	33259
714.256	43322
714.373	70292
714.490	144592
714.608	398833
714.725	1369044
714.842	1108011
714.959	164767
715.076	64520
715.193	44713
715.310	35532
715.427	26267
715.544	27026
715.661	26973
715.778	21773
715.895	23574
716.011	23376
716.128	21643
716.245	21514
716.362	20123
716.479	17531
716.596	18049
716.713	20765
716.829	18971
716.946	16562
717.063	17298
717.180	16437
717.296	17143
717.413	16723
717.530	16191
717.646	14976
717.763	16473
717.880	15135
717.996	14878
718.113	15049
718.229	15096
718.346	14836
718.462	15061
718.579	14931
718.695	15237
718.812	14810
718.928	15456
719.045	14964
719.161	15306
719.277	16922
719.394	18073
719.510	18809
719.626	23052
719.743	30670
719.859	58924
719.975	139101
720.092	554349
720.208	956381
720.324	133075
720.440	37970
720.557	24531
720.673	21550
720.789	17394
720.905	16582
721.021	15833
721.137	14059
721.253	13430
721.369	13845
721.486	13558
721.602	12695
721.718	12931
721.834	12384
721.950	13650
722.066	12623
722.181	11345
722.297	12197
722.413	13300
722.529	12053
722.645	12894
722.761	13651
722.877	12841
722.993	17533
723.108	27363
723.224	20913
723.340	14417
723.456	13151
723.571	11482
723.687	11105
723.803	12121
723.918	12480
724.034	10868
724.150	11285
724.265	11291
724.381	10298
724.497	10052
724.612	11262
724.728	11336
724.843	9305
724.959	10330
725.074	11456
725.190	11004
725.305	10495
725.421	10145
725.536	12137
725.651	11061
725.767	10196
725.882	11677
725.997	9878
726.113	11034
726.228	9986
726.343	10065
726.459	11356
726.574	9798
726.689	10106
726.804	10040
726.920	10638
727.035	10702
727.150	9841
727.265	10335
727.380	10173
727.495	10185
727.610	9690
727.725	9464
727.841	10857
727.956	10224
728.071	10415
728.186	10295
728.301	10159
728.416	11405
728.531	11123
728.645	8623
728.760	10573
728.875	10112
728.990	9766
729.105	9871
729.220	10779
729.335	10807
729.449	10602
729.564	10047
729.679	9883
729.794	11230
729.908	10821
730.023	10035
730.138	10891
730.253	12034
730.367	10546
730.482	11077
730.596	11979
730.711	15541
730.826	28159
730.940	32567
731.055	18150
731.169	16371
731.284	18482
731.398	18296
731.513	20617
731.627	24319
731.742	32165
731.856	40852
731.970	45433
732.085	63453
732.199	100534
732.313	191251
732.428	488230
732.542	1108375
732.656	583443
732.771	145890
732.885	76127
732.999	59681
733.113	57295
733.227	49758
733.342	45876
733.456	44787
733.570	41057
733.684	39695
733.798	36869
733.912	37963
734.026	37546
734.140	36456
734.254	35489
734.368	33744
734.482	34768
734.596	35097
734.710	33770
734.824	32589
734.938	32105
735.052	33186
735.166	32422
735.280	32573
735.393	30794
735.507	32033
735.621	29011
735.735	28174
735.849	31273
735.962	28507
736.076	29665
736.190	28106
736.303	29496
736.417	29261
736.531	27851
736.644	28008
736.758	27886
736.872	27793
736.985	27828
737.099	26773
737.212	26752
737.326	24968
737.439	28352
737.553	24521
737.666	26097
737.780	24981
737.893	27020
738.007	26100
738.120	26912
738.233	23363
738.347	25644
738.460	23885
738.573	26781
738.687	23278
738.800	23625
738.913	26017
739.026	24137
739.140	22585
739.253	23555
739.366	22673
739.479	23144
739.592	23098
739.705	20915
739.818	25849
739.932	20275
740.045	23776
740.158	21445
740.271	23462
740.384	22727
740.497	19896
740.610	22633
740.723	20928
740.836	21042
740.949	21888
741.062	23732
741.174	20193
741.287	20960
741.400	22019
741.513	18009
741.626	21665
741.739	20080
741.851	19569
741.964	21257
742.077	18442
742.189	16956
742.302	20444
742.415	19565
742.527	18584
742.640	19562
742.753	16332
742.865	20337
742.978	18410
743.090	17857
743.203	18808
743.316	16658
743.428	17246
743.541	18254
743.653	16040
743.766	17832
743.878	18124
743.990	16616
744.103	18816
744.215	16515
744.327	15967
744.440	20060
744.552	15447
744.664	14867
744.777	18910
744.889	16379
745.001	15541
745.113	19166
745.226	14850
745.338	14293
745.450	19199
745.562	15983
745.674	14788
745.786	19084
745.898	16306
746.010	15914
746.122	16457
746.234	16272
746.347	16327
746.459	14978
746.570	13143
746.682	17703
746.794	18404
746.906	14296
747.018	15513
747.130	15890
747.242	13283
747.354	14258
747.466	16029
747.577	13452
747.689	15444
747.801	14654
747.913	13558
748.024	13547
748.136	14342
748.248	12553
748.359	13150
748.471	15796
748.583	11834
748.694	11964
748.806	13924
748.918	12453
749.029	12862
749.141	13946
749.252	14255
749.364	11139
749.475	11497
749.587	11688
749.698	12232
749.809	13305
749.921	12988
750.032	12275
750.144	11111
750.255	11339
750.366	11775
750.478	10827
750.589	11817
750.700	10245
750.811	12920
750.923	10698
751.034	10128
751.145	13964
751.256	11307
751.367	10061
751.479	11041
751.590	10650
751.701	10793
751.812	9467
751.923	10210
752.034	13921
752.145	12274
752.256	11492
752.367	10853
752.478	10729
752.589	11195
752.700	12093
752.811	10515
752.922	10984
753.032	12029
753.143	12790
753.254	10806
753.365	13467
753.476	13568
753.586	11448
753.697	11316
753.808	10795
753.919	10408
754.029	9513
754.140	10409
754.251	9710
754.361	10605
754.472	11270
754.582	9744
754.693	10418
754.804	11967
754.914	9147
755.025	7946
755.135	10418
755.246	11397
755.356	9435
755.466	8319
755.577	8753
755.687	10787
755.798	9434
755.908	9411
756.018	9690
756.129	9368
756.239	9729
756.349	10801
756.460	11803
756.570	12951
756.680	10206
756.790	10207
756.900	10487
757.011	9363
757.121	8155
757.231	9556
757.341	8813
757.451	7805
757.561	7055
757.671	10441
757.781	10101
757.891	8716
758.001	8546
758.111	10275
758.221	11431
758.331	11939
758.441	11195
758.551	11985
758.661	13290
758.771	12670
758.880	12199
758.990	11599
759.100	11079
759.210	10395
759.320	11540
759.429	12702
759.539	15150
759.649	15382
759.758	19030
759.868	19471
759.978	20049
760.087	20985
760.197	21032
760.307	19862
760.416	17807
760.526	16891
760.635	17699
760.745	20250
760.854	21532
760.964	26455
761.073	25697
761.182	23092
761.292	18210
761.401	16052
761.511	14147
761.620	12289
761.729	12123
761.839	9998
761.948	9983
762.057	10103
762.166	11016
762.276	9134
762.385	11111
762.494	8492
762.603	9295
762.712	9514
762.822	8718
762.931	7332
763.040	6943
763.149	7500
763.258	8379
763.367	7669
763.476	7255
763.585	6197
763.694	6415
763.803	6282
763.912	6981
764.021	6780
764.130	6745
764.238	7608
764.347	8486
764.456	8905
764.565	7682
764.674	6952
764.783	6556
764.891	6647
765.000	6941
765.109	6160
765.217	5578
765.326	5954
765.435	5453
765.543	6945
765.652	6565
765.761	5993
765.869	6075
765.978	6305
766.086	7600
766.195	9744
766.303	18488
766.412	60064
766.520	40427
766.629	7656
766.737	7564
766.846	6191
766.954	5564
767.062	6687
767.171	6673
767.279	7236
767.387	6249
767.496	6609
767.604	4813
767.712	6080
767.820	5499
767.928	5396
768.037	4939
768.145	5655
768.253	5304
768.361	5981
768.469	5549
768.577	4808
768.685	6333
768.793	7291
768.901	5729
769.009	5305
769.117	5990
769.225	6057
769.333	6560
769.441	8022
769.549	7662
769.657	10259
769.765	21232
769.873	44055
769.981	11743
770.088	8242
770.196	7118
770.304	8962
770.412	7751
770.519	9105
770.627	9782
770.735	9209
770.842	8768
770.950	8545
771.058	10118
771.165	13597
771.273	15207
771.380	14895
771.488	22119
771.595	25999
771.703	20963
771.810	19853
771.918	21865
772.025	26684
772.133	29616
772.240	27384
772.348	32586
772.455	30931
772.562	28117
772.670	27876
772.777	27909
772.884	27534
772.991	25508
773.099	28299
773.206	25001
773.313	26234
773.420	26407
773.528	25384
773.635	24416
773.742	27194
773.849	22994
773.956	26041
774.063	23946
774.170	25001
774.277	24592
774.384	23114
774.491	23555
774.598	24002
774.705	23714
774.812	23528
774.919	22841
775.026	23045
775.133	23668
775.239	23434
775.346	21108
775.453	22057
775.560	20721
775.667	23235
775.773	20008
775.880	21692
775.987	19910
776.093	21972
776.200	22774
776.307	17868
776.413	18358
776.520	24614
776.627	20077
776.733	19195
776.840	17640
776.946	25125
777.053	18958
777.159	19296
777.266	17303
777.372	18974
777.478	21080
777.585	20282
777.691	16619
777.798	21548
777.904	17673
778.010	17804
778.117	19527
778.223	17610
778.329	18887
778.435	15761
778.542	20212
778.648	17557
778.754	16280
778.860	17729
778.966	17985
779.072	16478
779.178	17446
779.284	14273
779.391	16399
779.497	17927
779.603	19024
779.708	14135
779.815	13910
779.920	17012
780.026	14419
780.132	16379
780.238	15531
780.344	14006
780.450	19785
780.556	12746
780.661	14343
780.767	17399
780.873	11112
780.979	14263
781.085	17181
781.190	14672
781.296	13714
781.402	15279
781.507	15011
781.613	11203
781.719	14841
781.824	15706
781.930	13813
782.035	14865
782.141	16081
782.246	10463
782.352	11996
782.457	14222
782.563	14033
782.668	14726
782.773	11262
782.879	10644
782.984	13747
783.090	12263
783.195	12946
783.300	15505
783.405	11908
783.511	10793
783.616	12185
783.721	13819
783.826	11561
783.932	10956
784.037	12544
784.142	12358
784.247	11730
784.352	12649
784.457	9549
784.562	12503
784.667	13215
784.772	9470
784.877	8644
784.982	13001
785.087	12276
785.192	10420
785.297	10461
785.402	12570
785.507	11760
785.611	10507
785.716	8267
785.821	11128
785.926	11118
786.031	10248
786.135	9988
786.240	10866
786.345	8335
786.450	9226
786.554	10742
786.659	9440
786.763	9203
786.868	10688
786.973	11742
787.077	8414
787.182	8189
787.286	10919
787.391	12594
787.495	7633
787.600	7222
787.704	9745
787.809	9456
787.913	8921
788.017	9307
788.122	10933
788.226	9313
788.330	6280
788.435	9908
788.539	10649
788.643	8105
788.747	6699
788.852	8502
788.956	7874
789.060	9763
789.164	9073
789.268	8424
789.372	10324
789.476	7733
789.580	6300
789.684	6916
789.788	9837
789.892	9193
789.996	6678
790.100	5797
790.204	9504
790.308	10078
790.412	5676
790.516	5532
790.620	6872
790.724	9983
790.828	8019
790.931	4353
791.035	8024
791.139	7145
791.242	8438
791.346	8044
791.450	9236
791.554	6138
791.657	5592
791.761	6720
791.864	8775
791.968	8418
792.072	8169
792.175	6707
792.279	6547
792.382	6486
792.486	5082
792.589	6644
792.693	7826
792.796	6106
792.899	7595
793.003	7911
793.106	6206
793.209	6961
793.313	5832
793.416	2858
793.519	5930
793.623	8134
793.726	7400
793.829	5260
793.932	4351
794.035	5292
794.138	9176
794.242	8498
794.345	5148
794.448	4600
794.551	5024
794.654	7545
794.757	6912
794.860	5363
794.963	6189
795.066	5590
795.169	7148
795.272	5575
795.375	7221
795.477	4900
795.580	4904
795.683	4996
795.786	8032
795.889	5410
795.991	6715
796.094	6522
796.197	5860
796.300	7506
796.402	7265
796.505	4907
796.608	4807
796.710	6116
796.813	7651
796.915	7235
797.018	6929
797.120	7015
797.223	4997
797.326	8942
797.428	5438
797.530	4336
797.633	5808
797.735	8288
797.838	6700
797.940	8689
798.042	6771
798.145	5368
798.247	5562
798.349	4414
798.452	6779
798.554	6183
798.656	7388
798.758	8499
798.860	7026
798.962	4909
799.065	4793
799.167	5244
799.269	6346
799.371	8208
799.473	10305
799.575	8107
799.677	5954
799.779	6255
799.881	5633
799.983	7448
800.085	5603
800.187	4771
800.289	4070
800.390	5460
800.492	7358
800.594	6353
800.696	4804
800.798	4463
800.899	4931
801.001	5372
801.103	6284
801.205	5689
801.306	5709
801.408	6006
801.509	6218
801.611	5901
801.713	5992
801.814	3183
801.916	4189
802.017	3754
802.119	3831
802.220	5054
802.322	3605
802.423	5894
802.525	3331
802.626	4967
802.727	5600
802.829	5299
802.930	2019
803.031	4785
803.133	4603
803.234	4954
803.335	4536
803.436	3968
803.538	4302
803.639	3786
803.740	5092
803.841	4316
803.942	5173
804.043	4543
804.144	3623
804.245	4782
804.346	3941
804.447	4523
804.548	3858
804.649	5261
804.750	3856
804.851	3190
804.952	3965
805.053	4016
805.154	3245
805.255	4887
805.355	4639
805.456	4011
805.557	3932
805.658	3037
805.758	3987
805.859	4324
805.960	4683
806.061	3752
806.161	3892
806.262	3731
806.362	1946
806.463	3185
806.564	5561
806.664	3962
806.765	2899
806.865	2800
806.966	3054
807.066	2406
807.166	5091
807.267	3764
807.367	2668
807.468	4260
807.568	2558
807.668	3508
807.769	5158
807.869	3134
807.969	3229
808.069	2744
808.170	3893
808.270	2493
808.370	4733
808.470	3724
808.570	3043
808.670	2883
808.770	3367
808.870	2646
808.970	3853
809.070	2185
809.170	2889
809.271	4419
809.370	3968
809.470	3894
809.570	1655
809.670	2383
809.770	2685
809.870	3670
809.970	3483
810.070	3800
810.169	3650
810.269	1410
810.369	4848
810.469	3374
810.568	3928
810.668	3213
810.768	2865
810.867	2796
810.967	2390
811.066	2951
811.166	3267
811.265	4018
811.365	3104
811.464	2952
811.564	4470
811.663	3291
811.763	2485
811.862	5195
811.962	4074
812.061	3607
812.160	3113
812.260	2605
812.359	2899
812.458	3707
812.557	3803
812.657	2798
812.756	3605
812.855	3713
812.954	2260
813.053	2878
813.153	3192
813.252	2302
813.351	4632
813.450	3904
813.549	3224
813.648	4215
813.747	3349
813.846	4149
813.945	3518
814.044	4531
814.143	4256
814.242	4174
814.341	4125
814.439	4831
814.538	4633
814.637	4888
814.736	5849
814.835	6375
814.933	5227
815.032	8114
815.131	10899
815.229	19115
815.328	26712
815.427	19102
815.525	16329
815.624	16246
815.722	15777
815.821	17563
815.919	17836
816.018	16937
816.116	16666
816.215	17482
816.313	18748
816.412	22918
816.510	23269
816.609	24363
816.707	25404
816.805	22855
816.904	23113
817.002	23124
817.100	23884
817.198	24831
817.296	22155
817.395	23110
817.493	22339
817.591	21021
817.689	20383
817.787	20406
817.885	19404
817.983	18094
818.081	19011
818.179	18792
818.277	23866
818.375	19162
818.473	18054
818.571	16284
818.669	19774
818.767	20409
818.865	16309
818.963	14566
819.061	18805
819.158	17180
819.256	20798
819.354	17334
819.452	20720
819.549	18882
819.647	19917
819.745	14428
819.842	16690
819.940	17747
820.038	15468
820.135	14463
820.233	17296
820.330	15930
820.428	15301
820.525	17309
820.623	15137
820.720	15056
820.818	16541
820.915	16341
821.012	14088
821.110	13508
821.207	16297
821.304	13991
821.402	17523
821.499	15691
821.596	12175
821.693	14174
821.791	15678
821.888	14546
821.985	16957
822.082	11912
822.179	14843
822.276	15255
822.373	11916
822.470	12694
822.567	14985
822.664	12613
822.761	13880
822.858	14333
822.955	13185
823.052	11244
823.149	13909
823.246	14421
823.343	10257
823.440	12547
823.536	14542
823.633	13482
823.730	11183
823.827	14255
823.923	13370
824.020	10719
824.117	14308
824.213	13692
824.310	11276
824.407	10298
824.503	14141
824.600	11857
824.696	9513
824.793	14045
824.889	14171
824.986	10868
825.082	8583
825.179	9742
825.275	13851
825.371	15352
825.468	9458
825.564	6422
825.660	13436
825.757	15521
825.853	10749
825.949	8623
826.045	9515
826.142	10956
826.238	12714
826.334	11630
826.430	10700
826.526	6516
826.622	7602
826.718	12203
826.814	13970
826.910	10230
827.006	5771
827.102	7613
827.198	11533
827.294	12231
827.390	12212
827.486	7813
827.582	6143
827.678	7179
827.774	12805
827.869	8133
827.965	8208
828.061	7481
828.157	12489
828.252	11353
828.348	8860
828.444	8499
828.539	9075
828.635	10688
828.731	10195
828.826	7977
828.922	10363
829.017	11840
829.113	12499
829.208	9045
829.304	10878
829.399	13804
829.495	11534
829.590	9174
829.685	10513
829.781	10829
829.876	11173
829.971	5380
830.066	5236
830.162	9266
830.257	14211
830.352	9285
830.447	7684
830.543	8108
830.638	10239
830.733	11996
830.828	7639
830.923	11062
831.018	9886
831.113	11497
831.208	6059
831.303	5778
831.398	5793
831.493	9757
831.588	14142
831.683	6938
831.778	6248
831.873	6201
831.967	9682
832.062	10101
832.157	7236
832.252	7929
832.346	7324
832.441	10145
832.536	8187
832.631	8221
832.725	5907
832.820	7634
832.914	7894
833.009	6115
833.104	5571
833.198	5304
833.293	7640
833.387	10372
833.482	8901
833.576	8590
833.670	8033
833.765	8505
833.859	9846
833.954	9413
834.048	8135
834.142	6267
834.237	5172
834.331	7101
834.425	7640
834.519	6269
834.613	5477
834.708	6537
834.802	6105
834.896	6651
834.990	7060
835.084	5686
835.178	5072
835.272	6008
835.366	8416
835.460	9685
835.554	6796
835.648	4362
835.742	3974
835.836	5014
835.930	6425
836.024	7168
836.117	6575
836.211	4927
836.305	4756
836.399	4346
836.493	5222
836.586	6815
836.680	5843
836.774	4759
836.867	5247
836.961	3814
837.055	4414
837.148	4169
837.242	5932
837.335	5918
837.429	4953
837.522	4221
837.616	4791
837.709	4434
837.803	4644
837.896	7644
837.989	7646
838.083	3568
838.176	3320
838.269	2888
838.363	4929
838.456	4273
838.549	6386
838.642	4773
838.735	5054
838.829	5249
838.922	5003
839.015	4253
839.108	3988
839.201	4032
839.294	6549
839.387	4144
839.480	3063
839.573	3425
839.666	2796
839.759	4439
839.852	3572
839.945	5469
840.038	3779
840.131	4024
840.223	2913
840.316	5224
840.409	5960
840.502	6357
840.594	6679
840.687	2318
840.780	2620
840.873	2141
840.965	3047
841.058	4705
841.150	5776
841.243	2143
841.336	3877
841.428	3528
841.521	3506
841.613	4064
841.706	4091
841.798	3420
841.890	4118
841.983	2863
842.075	3751
842.167	3440
842.260	5057
842.352	5159
842.444	3827
842.537	2086
842.629	3004
842.721	2358
842.813	4230
842.905	3336
842.997	5018
843.090	3979
843.182	4192
843.274	1598
843.366	2827
843.458	4150
843.550	5634
843.642	3299
843.734	4786
843.826	2162
843.918	3605
844.009	4014
844.101	3850
844.193	4178
844.285	3831
844.377	4642
844.469	2504
844.560	1905
844.652	2480
844.744	3469
844.835	2603
844.927	4216
845.019	3307
845.110	3417
845.202	5149
845.293	2556
845.385	3221
845.476	3176
845.568	4107
845.659	3120
845.751	2935
845.842	2380
845.934	3033
846.025	2938
846.116	3311
846.208	3647
846.299	2188
846.390	1188
846.482	2641
846.573	3826
846.664	3569
846.755	3397
846.846	3459
846.937	1298
847.029	2431
847.120	2360
847.211	3138
847.302	3767
847.393	2831
847.484	3907
847.575	1798
847.666	1407
847.757	2672
847.847	3425
847.938	4046
848.029	4883
848.120	2874
848.211	2658
848.302	1991
848.392	2445
848.483	4253
848.574	2968
848.664	3560
848.755	3530
848.846	3480
848.936	2967
849.027	4781
849.118	4985
849.208	4125
849.299	7362
849.389	11942
849.480	23169
849.570	45342
849.661	83672
849.751	124044
849.841	48941
849.932	11872
850.022	5167
850.112	5510
850.203	5624
850.293	3815
850.383	3079
850.474	2960
850.564	2267
850.654	2450
850.744	2671
850.834	2871
850.924	4377
851.014	5194
851.104	4025
851.194	2713
851.284	2897
851.374	2968
851.464	3210
851.554	3437
851.644	3298
851.734	4408
851.824	4127
851.914	3855
852.004	4453
852.094	2436
852.183	2574
852.273	2607
852.363	3215
852.452	3841
852.542	3452
852.632	3480
852.721	3471
852.811	4693
852.901	5805
852.990	5642
853.080	5440
853.169	5655
853.259	7255
853.348	7622
853.438	8993
853.527	12489
853.617	17588
853.706	29125
853.795	49050
853.885	92074
853.974	156541
854.063	257930
854.152	305117
854.242	157135
854.331	56839
854.420	28238
854.509	18913
854.598	14330
854.687	10978
854.777	9112
854.866	6679
854.955	6672
855.044	5581
855.133	5307
855.222	5279
855.311	4457
855.400	4376
855.488	3823
855.577	4154
855.666	4169
855.755	4039
855.844	3005
855.933	3240
856.021	3721
856.110	2733
856.199	2495
856.288	1915
856.376	2364
856.465	2904
856.554	3120
856.642	3240
856.731	4436
856.819	3631
856.908	2963
856.996	2767
857.085	2195
857.173	2007
857.262	2337
857.350	2365
857.438	2771
857.527	2721
857.615	2890
857.703	2946
857.792	2918
857.880	2119
857.968	3003
858.056	2730
858.145	3442
858.233	3136
858.321	1932
858.409	3779
858.497	3248
858.585	2566
858.673	2715
858.761	2119
858.849	1678
858.937	1935
859.025	2291
859.113	2792
859.201	3421
859.289	4190
859.377	2603
859.465	2532
859.552	2462
859.640	1957
859.728	2890
859.816	2261
859.903	2140
859.991	1678
860.079	3098
860.166	2441
860.254	2117
860.342	3317
860.429	2639
860.517	2858
860.604	2461
860.692	2045
860.779	1119
860.867	2250
860.954	2733
861.042	3356
861.129	3967
861.216	2827
861.304	3618
861.391	2467
861.478	2911
861.565	2694
861.653	3567
861.740	999
861.827	1850
861.914	2500
862.001	3488
862.089	3325
862.176	3000
862.263	2079
862.350	2927
862.437	2199
862.524	2453
862.611	2806
862.698	3208
862.785	2829
862.871	4255
862.958	4531
863.045	4252
863.132	2922
863.219	2857
863.306	2254
863.392	3197
863.479	3500
863.566	3659
863.652	3456
863.739	2961
863.826	4065
863.912	4524
863.999	3643
864.086	4005
864.172	4493
864.259	5207
864.345	5285
864.432	5077
864.518	5531
864.604	5420
864.691	5416
864.777	6412
864.863	8087
864.950	11526
865.036	15897
865.122	26281
865.209	26982
865.295	23984
865.381	23689
865.467	22546
865.553	25297
865.639	30724
865.726	40982
865.812	63789
865.898	99000
865.984	140637
866.070	220293
866.156	208133
866.242	90114
866.328	42715
866.414	28254
866.499	25026
866.585	21945
866.671	20798
866.757	20133
866.843	19201
866.928	19093
867.014	16833
867.100	18424
867.186	17572
867.271	15950
867.357	17961
867.442	16275
867.528	17968
867.614	16274
867.699	16105
867.785	16054
867.870	15508
867.956	15482
868.041	15896
868.127	15009
868.212	15109
868.297	15341
868.383	15899
868.468	15844
868.553	16023
868.639	15105
868.724	14955
868.809	15313
868.894	14939
868.979	15303
869.065	13548
869.150	12315
869.235	14516
869.320	14757
869.405	12519
869.490	15289
869.575	14081
869.660	11434
869.745	15387
869.830	16185
869.915	13003
870.000	13071
870.085	12808
870.169	16709
870.254	16349
870.339	10467
870.424	11787
870.509	13728
870.593	15874
870.678	14502
870.763	12567
870.847	10626
870.932	15332
871.016	13720
871.101	9894
871.186	13567
871.270	16039
871.355	10113
871.439	11827
871.523	13569
871.608	10623
871.692	10424
871.777	14682
871.861	12786
871.945	11764
872.030	12000
872.114	11849
872.198	11191
872.282	10347
872.367	10811
872.451	11180
872.535	10751
872.619	11834
872.703	10956
872.787	12511
872.871	11817
872.955	9529
873.039	8809
873.123	11556
873.207	12219
873.291	7921
873.375	9402
873.459	12769
873.543	10807
873.627	9788
873.711	9525
873.794	11847
873.878	10010
873.962	7902
874.045	8225
874.129	9162
874.137	9246
874.213	10092
874.245	9901
874.296	9598
874.352	8477
874.380	7936
874.460	9994
874.464	10079
874.547	8792
874.568	9193
874.631	10387
874.676	9873
874.714	9422
874.784	10968
874.798	11284
874.881	9288
874.892	9002
874.965	7070
874.999	8309
875.048	9964
875.107	9412
875.131	9195
875.215	6707
875.215	6706
875.298	6611
875.323	7539
875.381	9690
875.430	11287
875.465	12363
875.538	9693
875.548	9337
875.631	7806
875.646	7531
875.714	6205
875.753	6398
875.798	6744
875.861	9099
875.881	9774
875.964	7931
875.968	7822
876.047	5990
876.076	6944
876.130	8708
876.183	8829
876.213	8942
876.291	9565
876.296	9586
876.379	7361
876.398	7122
876.462	6428
876.506	5907
876.545	5468
876.613	6168
876.628	6364
876.711	8575
876.721	8626
876.794	8786
876.828	8842
876.877	8782
876.935	6642
876.960	5845
877.043	6485
877.043	6492
877.125	8100
877.150	8555
877.208	9325
877.258	7703
877.291	6666
877.365	6047
877.374	5961
877.456	6298
877.472	6197
877.539	6139
877.579	7350
877.622	8471
877.687	8140
877.704	8032
877.787	7490
877.794	7499
877.869	7768
877.901	7730
877.952	7247
878.008	5536
878.034	4920
878.115	5714
878.117	5730
878.199	6253
878.222	6424
878.282	7126
878.329	8376
878.364	8980
878.437	8130
878.447	7992
878.529	6160
878.544	5933
878.611	5116
878.651	5608
878.694	6435
878.758	7354
878.776	7490
878.858	7277
878.865	7192
878.941	5635
878.972	5117
879.023	4788
879.078	5651
879.105	6090
879.185	6378
879.187	6380
879.269	7118
879.292	7179
879.351	7089
879.399	6163
879.433	5445
879.506	5511
879.516	5563
879.598	5812
879.613	5648
879.680	4890
879.720	5616
879.762	6499
879.827	5875
879.844	5630
879.926	5517
879.933	5565
880.007	5978
880.040	5661
880.089	5219
880.147	5663
880.171	6014
880.253	7150
880.254	7147
880.335	5114
880.360	5429
880.417	6932
880.467	6965
880.499	6669
880.574	6245
880.580	6227
880.662	6728
880.680	6391
880.744	4952
880.787	4859
880.825	4798
880.893	5011
880.907	5109
880.989	5057
881.000	5193
881.070	6226
881.106	6246
881.152	5832
881.213	4853
881.233	4580
881.315	4762
881.319	4773
881.396	5867
881.426	6036
881.478	5829
881.532	6444
881.559	6816
881.639	5650
881.641	5596
881.722	5131
881.745	4882
881.803	5429
881.852	5649
881.885	5293
881.958	4333
881.966	4335
882.047	5758
882.064	5644
882.129	4107
882.171	3639
882.210	3649
882.277	3716
882.291	3796
882.372	5388
882.383	5591
882.454	6960
882.489	6588
882.535	5764
882.596	6259
882.616	6413
882.697	5589
882.702	5511
882.778	3915
882.808	3790
882.859	3826
882.914	3955
882.940	4142
883.020	4893
883.021	4897
883.102	4946
883.127	5323
883.183	6880
883.233	6749
883.264	5541
883.339	3468
883.345	3395
883.426	2976
883.445	3027
883.507	3896
883.551	4391
883.587	4896
883.657	5633
883.668	5699
883.749	6215
883.763	6083
883.830	4367
883.869	3918
883.910	3679
883.975	3879
883.991	4130
884.072	4134
884.081	4264
884.152	5814
884.187	6465
884.233	6872
884.292	6401
884.314	5711
884.394	2838
884.398	2761
884.475	2906
884.504	2953
884.555	3112
884.610	3235
884.636	3595
884.716	5248
884.716	5259
884.797	6961
884.821	7104
884.877	5643
884.927	4709
884.958	4413
885.033	3720
885.038	3666
885.118	2862
885.139	2782
885.199	3019
885.244	3079
885.279	3725
885.350	5128
885.359	5274
885.439	6812
885.456	6810
885.520	5247
885.561	4727
885.600	4292
885.667	3720
885.680	3849
885.760	4294
885.773	4385
885.840	3855
885.878	3663
885.920	3424
885.984	3125
886.000	3419
886.080	4521
886.089	4665
886.160	4882
886.195	4799
886.240	4643
886.300	4566
886.320	4420
886.400	4142
886.406	4081
886.480	3565
886.511	3627
886.560	3811
886.616	3777
886.640	3632
886.720	3268
886.722	3260
886.800	3254
886.827	3259
886.879	3982
886.932	4750
886.959	5185
887.038	6418
887.039	6411
887.119	5325
887.143	5049
887.198	4508
887.248	3852
887.278	4009
887.354	4657
887.358	4642
887.437	4012
887.459	3966
887.517	4770
887.564	5122
887.596	4486
887.669	3066
887.676	3024
887.755	2809
887.774	2719
887.835	2914
887.880	3202
887.914	3870
887.985	4995
887.994	5061
888.073	5753
888.090	5873
888.153	6387
888.195	6587
888.232	5421
888.300	3548
888.311	3507
888.391	3116
888.405	3058
888.470	2991
888.510	2932
888.549	3431
888.615	4394
888.628	4516
888.708	5142
888.720	5226
888.787	5608
888.825	5787
888.866	4503
888.930	2630
888.945	2683
889.024	3005
889.035	3041
889.103	4465
889.140	5194
889.182	4493
889.245	3585
889.261	3720
889.340	4278
889.349	4346
889.419	4154
889.454	4049
889.498	3688
889.559	3244
889.577	3485
889.656	4528
889.664	4633
889.735	4568
889.768	4530
889.814	4511
889.873	4469
889.978	3745
890.083	4546
890.187	3124
890.292	5129
890.397	3720
890.501	4264
890.606	2238
890.710	3570
890.815	5424
890.919	3607
891.024	4018
891.128	3137
891.233	3297
891.337	5529
891.442	4232
891.546	4184
891.650	2326
891.755	2608
891.859	4420
891.963	5926
892.068	3498
892.172	4118
892.276	1940
892.380	3605
892.484	4935
892.589	5408
892.693	3828
892.797	2550
892.901	1917
893.005	2904
893.109	4634
893.213	4961
893.317	2930
893.421	1817
893.525	1920
893.629	2983
893.733	4397
893.837	3413
893.941	3817
894.045	2896
894.148	2388
894.252	2264
894.356	4102
894.460	6188
894.564	3404
894.667	3283
894.771	1575
894.875	1454
894.978	2471
895.082	3775
895.186	4301
895.289	3844
895.393	2256
895.496	4776
895.600	2524
895.703	2105
895.807	3441
895.910	3317
896.014	2980
896.117	3393
896.221	4374
896.324	4293
896.427	2353
896.531	2489
896.634	3346
896.737	2590
896.840	2438
896.944	4123
897.047	5177
897.150	3442
897.253	2192
897.356	2984
897.460	2057
897.563	3219
897.666	4537
897.769	3925
897.872	2290
897.975	2117
898.078	2005
898.181	2207
898.284	2945
898.387	3804
898.490	4645
898.593	3179
898.695	2400
898.798	2831
898.901	1837
899.004	2019
899.107	3205
899.209	2943
899.312	5183
899.415	3054
899.518	2177
899.620	1315
899.723	2069
899.826	2137
899.928	2597
900.031	2654
900.133	4829
900.236	3182
900.338	1490
900.441	1877
900.543	2922
900.646	2685
900.748	2924
900.851	3946
900.953	2428
901.055	2830
901.158	3316
901.260	2969
901.362	1990
901.465	2370
901.567	3074
901.669	4303
901.771	2650
901.873	2600
901.976	2523
902.078	2568
902.180	1614
902.282	1461
902.384	2088
902.486	4383
902.588	3240
902.690	1730
902.792	1768
902.894	2145
902.996	4119
903.098	3192
903.200	2253
903.302	2116
903.404	1852
903.505	1315
903.607	2010
903.709	3662
903.811	4751
903.913	2883
904.014	1438
904.116	1754
904.218	1924
904.319	2814
904.421	3600
904.523	3276
904.624	2486
904.726	1845
904.827	2191
904.929	1656
905.030	2063
905.132	4617
905.233	3071
905.335	2088
905.436	2278
905.537	1467
905.639	1952
905.740	2246
905.841	3584
905.943	3138
906.044	2910
906.145	1677
906.247	910
906.348	2291
906.449	2221
906.550	2318
906.651	2588
906.752	2176
906.854	2096
906.955	2053
907.056	2831
907.157	3960
907.258	3732
907.359	750
907.460	1139
907.561	1659
907.662	2743
907.762	2976
907.863	2834
907.964	3456
908.065	2961
908.166	2116
908.267	2042
908.367	1435
908.468	1696
908.569	2489
908.670	3842
908.770	2752
908.871	3091
908.971	2641
909.072	2504
909.173	1405
909.273	2081
909.374	3494
909.474	2785
909.575	1785
909.675	1849
909.776	2765
909.876	2209
909.977	2193
910.077	2385
910.177	3601
910.278	2395
910.378	1570
910.478	1676
910.579	3132
910.679	3066
910.779	3105
910.879	2541
910.980	2432
911.080	3654
911.180	2415
911.280	1854
911.380	1922
911.480	1598
911.580	1210
911.680	2214
911.780	3408
911.880	3509
911.980	1430
912.080	1838
912.180	2558
912.280	2144
912.380	1960
912.480	604
912.580	1701
912.679	1385
912.779	3643
912.879	1450
912.979	2927
913.078	1433
913.178	36
913.278	1835
913.377	1216
913.477	1500
913.577	1632
913.676	3431
913.776	3366
913.875	2584
913.975	2024
914.074	2297
914.174	2434
914.273	1802
914.373	2771
914.472	1900
914.572	920
914.671	1432
914.770	2163
914.870	1821
914.969	1469
915.068	3381
915.167	3146
915.267	1992
915.366	2564
915.465	2098
915.564	1919
915.663	2414
915.763	2419
915.862	3035
915.961	2780
916.060	1124
916.159	1705
916.258	1185
916.357	1540
916.456	1906
916.555	2776
916.654	2652
916.752	3700
916.851	2597
916.950	2059
917.049	1427
917.148	1997
917.247	1818
917.345	1641
917.444	1689
917.543	2139
917.642	2584
917.740	3529
917.839	4126
917.937	4611
918.036	3210
918.135	2562
918.233	2059
918.332	2326
918.430	1341
918.529	1844
918.627	2217
918.726	3897
918.824	2780
918.923	1528
919.021	2951
919.119	1659
919.218	2181
919.316	3496
919.414	2187
919.512	3214
919.611	3510
919.709	2729
919.807	3893
919.905	4962
920.003	4099
920.102	4137
920.200	3321
920.298	4152
920.396	4206
920.494	3956
920.592	3643
920.690	4115
920.788	3251
920.886	3730
920.984	5278
921.082	3973
921.180	4716
921.277	4099
921.375	5503
921.473	7935
921.571	7922
921.669	8477
921.766	6928
921.864	6572
921.962	6407
922.060	7262
922.157	6356
922.255	7722
922.352	6977
922.450	8815
922.548	8111
922.645	8857
922.743	11613
922.840	19445
922.938	23195
923.035	18711
923.133	19277
923.230	21230
923.327	26190
923.425	24055
923.522	23590
923.619	21405
923.717	19293
923.814	19710
923.911	17715
924.008	20288
924.106	19350
924.203	17668
924.300	19908
924.397	18841
924.494	18019
924.591	19289
924.688	17245
924.786	17722
924.883	19458
924.979	19352
925.077	19032
925.173	17104
925.270	18704
925.367	17855
925.464	20251
925.561	19894
925.658	20520
925.755	17019
925.852	20262
925.948	18706
926.045	17354
926.142	18649
926.239	19248
926.335	14361
926.432	17356
926.529	18441
926.625	20501
926.722	16801
926.818	15120
926.915	18177
927.011	17523
927.108	16091
927.204	17768
927.301	14456
927.397	17450
927.494	19855
927.590	13197
927.687	13392
927.783	19697
927.879	18886
927.976	15710
928.072	13200
928.168	17143
928.264	16739
928.361	14994
928.457	18703
928.553	14865
928.649	14389
928.745	15774
928.841	13755
928.937	15475
929.033	15998
929.129	14332
929.225	18119
929.321	13947
929.417	13133
929.513	16011
929.609	13929
929.705	13519
929.801	16630
929.897	12810
929.993	12993
930.089	15562
930.184	12949
930.280	13861
930.376	18657
930.471	13070
930.567	11748
930.663	14540
930.758	12307
930.854	12767
930.950	12478
931.045	11720
931.141	12704
931.236	17081
931.332	14308
931.427	9999
931.523	16607
931.618	14398
931.714	9800
931.809	11320
931.905	15999
932.000	10135
932.095	9414
932.191	15696
932.286	16029
932.381	13892
932.476	10019
932.572	12135
932.667	11249
932.762	11599
932.857	12443
932.952	15559
933.047	13412
933.142	9341
933.237	11765
933.332	13069
933.427	14828
933.522	11887
933.617	11036
933.712	11190
933.807	13523
933.902	15045
933.997	15269
934.092	9707
934.187	11922
934.282	13405
934.376	12044
934.471	13806
934.566	10345
934.661	9740
934.755	11805
934.850	12832
934.945	10774
935.039	10396
935.134	8993
935.228	11232
935.323	17180
935.417	9599
935.512	7405
935.606	8772
935.701	12085
935.795	12302
935.890	11946
935.984	9295
936.079	7109
936.173	10408
936.267	9477
936.362	8014
936.456	10529
936.550	14968
936.644	11294
936.738	8284
936.833	8833
936.927	7547
937.021	9402
937.115	10147
937.209	11317
937.303	9392
937.397	8100
937.491	7644
937.585	11391
937.679	10492
937.773	7392
937.867	7811
937.961	7880
938.055	11922
938.149	11485
938.243	7276
938.337	6284
938.430	8007
938.524	12505
938.618	9069
938.712	8210
938.805	8687
938.899	10579
938.993	13285
939.086	7512
939.180	5008
939.274	6812
939.367	10080
939.461	10999
939.554	7587
939.648	7681
939.741	6868
939.835	9328
939.928	12318
940.022	11300
940.115	8238
940.208	9884
940.302	11288
940.395	12624
940.488	7626
940.582	7169
940.675	6561
940.768	7495
940.861	10748
940.954	11900
941.048	6055
941.141	5483
941.234	7035
941.327	8055
941.420	9060
941.513	9873
941.606	7619
941.699	7767
941.792	11045
941.885	9141
941.978	9419
942.071	9546
942.164	5914
942.257	5990
942.349	6760
942.442	8886
942.535	5688
942.628	6921
942.721	7481
942.813	7079
942.906	7981
942.999	8019
943.091	5706
943.184	8071
943.277	7693
943.369	6070
943.462	4347
943.554	6950
943.647	6870
943.739	8829
943.832	9716
943.924	4484
944.017	4174
944.109	4379
944.201	6143
944.294	6581
944.386	6302
944.478	7194
944.571	5438
944.663	5867
944.755	6127
944.847	8115
944.940	6704
945.032	4686
945.124	3907
945.216	6286
945.308	7688
945.400	6732
945.492	5776
945.584	8177
945.676	8920
945.768	7288
945.860	7474
945.952	8930
946.044	7305
946.136	5771
946.228	7055
946.320	6139
946.412	6723
946.503	8431
946.595	8729
946.687	4699
946.779	4675
946.870	4539
946.962	6431
947.054	5813
947.145	7520
947.237	5656
947.329	5394
947.420	6825
947.512	5026
947.603	3951
947.695	4536
947.786	4580
947.878	4993
947.969	6466
948.061	6567
948.152	6151
948.243	3917
948.335	4058
948.426	3894
948.517	5798
948.609	6784
948.700	6430
948.791	6294
948.882	3126
948.973	3190
949.065	5438
949.156	5753
949.247	3689
949.338	5133
949.429	2179
949.520	3360
949.611	4649
949.702	7421
949.793	4672
949.884	5428
949.975	4608
950.066	2887
950.157	3554
950.247	4081
950.338	4217
950.429	4027
950.520	4713
950.611	2964
950.701	4510
950.792	6822
950.883	6846
950.973	4412
951.064	5108
951.155	5585
951.245	5547
951.336	5775
951.427	6756
951.517	7751
951.608	5554
951.698	5226
951.788	4744
951.879	3005
951.969	3605
952.060	3641
952.150	4498
952.240	6791
952.331	4424
952.421	6617
952.511	3450
952.602	2283
952.692	2855
952.782	3537
952.872	3952
952.962	5866
953.052	3494
953.143	4325
953.233	4905
953.323	4355
953.413	4843
953.503	6290
953.593	4417
953.683	4762
953.773	2829
953.863	3841
953.953	2193
954.042	4733
954.132	5413
954.222	5278
954.312	3703
954.402	3787
954.492	3797
954.581	4449
954.671	4624
954.761	3377
954.850	4973
954.940	2353
955.030	2631
955.119	2525
955.209	3351
955.298	3931
955.388	5214
955.477	5511
955.567	2676
955.656	3355
955.746	3781
955.835	2866
955.925	3635
956.014	4374
956.103	4574
956.193	6141
956.282	5846
956.371	3992
956.461	3823
956.550	4340
956.639	4149
956.728	4202
956.817	4206
956.906	3899
956.995	5198
957.085	2354
957.174	3528
957.263	3108
957.352	2851
957.441	3798
957.530	4201
957.619	3509
957.708	3760
957.796	3890
957.885	3688
957.974	3137
958.063	3836
958.152	2526
958.241	2626
958.329	3462
958.418	3202
958.507	2338
958.596	4841
958.684	3519
958.773	4558
958.861	2520
958.950	2682
959.039	2742
959.127	3111
959.216	3804
959.304	3229
959.393	3388
959.481	4585
959.570	3244
959.658	1652
959.746	2123
959.835	3651
959.923	2471
960.011	2252
960.100	3420
960.188	4583
960.276	3284
960.365	2304
960.453	2498
960.541	813
960.629	2373
960.717	2174
960.805	1125
960.893	2637
960.981	2652
961.069	5339
961.158	5776
961.245	5199
961.333	4261
961.421	3381
961.509	2873
961.597	3964
961.685	3652
961.773	2985
961.861	3495
961.949	4289
962.036	3471
962.124	2466
962.212	1852
962.299	2400
962.387	2665
962.475	3263
962.562	2747
962.650	4014
962.738	2732
962.825	2432
962.913	2018
963.000	1900
963.088	3631
963.175	3371
963.263	2414
963.350	3101
963.438	2640
963.525	2129
963.612	2719
963.700	2746
963.787	2899
963.874	3155
963.962	2334
964.049	2327
964.136	2651
964.223	2007
964.310	3023
964.398	2385
964.485	2191
964.572	2967
964.659	2463
964.746	2501
964.833	1836
964.920	3324
965.007	3185
965.094	3101
965.181	1944
965.268	4284
965.355	2311
965.441	2793
965.528	2078
965.615	3810
965.702	2966
965.789	2688
965.875	3508
965.962	4638
966.049	3126
966.136	4451
966.222	4232
966.309	5134
966.395	4484
966.482	4230
966.569	2826
966.655	3228
966.742	2615
966.828	2595
966.915	2290
967.001	2099
967.087	1324
967.174	2417
967.260	2698
967.347	2805
967.433	2764
967.519	3791
967.605	2783
967.692	3466
967.778	3374
967.864	2386
967.950	2370
968.036	3063
968.123	3322
968.209	2532
968.295	633
968.381	2932
968.467	2536
968.553	1182
968.639	3787
968.725	3805
968.811	6810
968.897	5322
968.983	3397
969.069	2135
969.154	1453
969.240	2753
969.326	1687
969.412	2573
969.497	1850
969.583	1722
969.669	3995
969.755	3253
969.840	3272
969.926	5893
970.012	8216
970.097	11042
970.183	9030
970.268	4958
970.354	2874
970.439	2437
970.525	2751
970.610	1531
970.696	3944
970.781	3549
970.866	1424
970.952	2567
971.037	1857
971.122	3024
971.208	3072
971.293	2228
971.378	1965
971.463	1907
971.549	1838
971.634	2617
971.719	2444
971.804	2286
971.889	2527
971.974	1942
972.059	2557
972.144	2392
972.229	2098
972.314	3057
972.399	2843
972.484	1185
972.569	1547
972.654	1812
972.739	3337
972.824	1745
972.908	1634
972.993	636
973.078	2127
973.163	2847
973.247	3059
973.332	1755
973.417	3240
973.501	1490
973.586	2341
973.671	2312
973.755	2910
973.840	3398
973.924	2977
974.009	3951
974.093	4330
974.178	4292
974.262	4001
974.346	2983
974.431	3484
974.515	2727
974.600	3384
974.684	3144
974.768	3084
974.852	3091
974.937	2060
975.021	4471
975.105	3181
975.189	2482
975.273	3059
975.358	2225
975.442	1618
975.526	3362
975.610	2472
975.694	1605
975.778	3455
975.862	3777
975.946	736
976.030	4145
976.114	2272
976.198	2413
976.281	2284
976.365	3308
976.449	2015
976.533	3132
976.617	2033
976.700	1801
976.784	2062
976.868	1731
976.951	1224
977.035	2138
977.119	2934
977.202	3160
977.286	2722
977.369	4069
977.453	7025
977.536	5769
977.620	4087
977.703	3871
977.787	2997
977.870	3818
977.953	3087
978.037	1217
978.120	3523
978.203	2708
978.287	4154
978.370	3186
978.453	2495
978.536	3030
978.620	3626
978.703	3580
978.786	2195
978.869	2146
978.952	1767
979.035	3556
979.118	3560
979.201	2395
979.284	2951
979.367	3105
979.450	3408
979.533	2172
979.616	2582
979.699	2629
979.782	3036
979.865	2932
979.948	2717
980.030	1935
980.113	2407
980.196	2011
980.279	2547
980.361	2818
980.444	2334
980.526	4341
980.609	6163
980.692	7466
980.774	6035
980.857	4393
980.939	5390
981.022	3766
981.104	3419
981.187	2989
981.269	3131
981.352	4237
981.434	2619
981.516	3619
981.599	4326
981.681	3320
981.763	3582
981.846	3255
981.928	2589
982.010	2420
982.092	2910
982.174	4337
982.256	2799
982.339	3130
982.421	2569
982.503	3096
982.585	1588
982.667	2762
982.749	2352
982.831	2863
982.913	1820
982.995	4361
983.077	2851
983.158	5334
983.240	2504
983.322	5006
983.404	7669
983.486	6679
983.568	6209
983.649	5371
983.731	5437
983.813	4844
983.894	4999
983.976	5030
984.058	4423
984.139	4818
984.221	3302
984.302	4617
984.384	3642
984.465	4817
984.547	4682
984.628	3983
984.710	5198
984.791	4423
984.872	4262
984.954	4072
985.035	5145
985.116	4431
985.198	3403
985.279	5595
985.360	3873
985.441	4272
985.522	4526
985.604	4605
985.685	2366
985.766	4621
985.847	5217
985.928	4973
986.009	4722
986.090	4814
986.171	4794
986.252	3917
986.333	4963
986.414	3921
986.495	4773
986.576	4665
986.656	4945
986.737	5482
986.818	4892
986.899	4367
986.980	4933
987.060	5276
987.141	5138
987.222	7195
987.302	7357
987.383	7404
987.464	6174
987.544	6761
987.625	6122
987.705	6933
987.786	6917
987.866	7037
987.947	6099
988.027	6817
988.108	6519
988.188	6293
988.268	5124
988.349	6416
988.429	6220
988.509	6083
988.589	5535
988.670	5384
988.750	6283
988.830	4646
988.910	5587
988.990	4782
989.070	5305
989.151	5774
989.231	4359
989.311	5876
989.391	4660
989.471	5613
989.551	4754
989.631	5089
989.711	5674
989.791	5336
989.870	3932
989.950	5700
990.030	4329
990.110	5759
990.190	4107
990.269	4595
990.349	3409
990.429	5460
990.509	4298
990.588	3721
990.668	4175
990.747	4701
990.827	3565
990.907	5309
990.986	4339
991.066	4655
991.145	3264
991.225	4896
991.304	3990
991.383	4099
991.463	4333
991.542	3720
991.622	3085
991.701	3356
991.780	2985
991.859	4093
991.939	4413
992.018	4442
992.097	5302
992.176	2923
992.256	2887
992.335	3870
992.414	4967
992.493	3689
992.572	2188
992.651	3964
992.730	4418
992.809	3280
992.888	2881
992.967	3499
993.046	4113
993.125	2333
993.203	3445
993.282	4024
993.361	2836
993.440	3091
993.519	2261
993.597	3538
993.676	3237
993.755	3659
993.834	3533
993.912	1534
993.991	2955
994.069	2100
994.148	3346
994.226	1996
994.305	2254
994.384	2845
994.462	3905
994.540	2314
994.619	1263
994.697	3079
994.776	2341
994.854	3100
994.932	2344
995.011	2557
995.089	2157
995.167	1710
995.245	3047
995.324	3080
995.402	3794
995.480	2098
995.558	2621
995.636	1467
995.714	1832
995.792	3159
995.870	2188
995.948	1529
996.026	2006
996.104	1073
996.182	3253
996.260	1218
996.338	1544
996.416	582
996.494	1589
996.572	2779
996.649	1053
996.727	2248
996.805	3003
996.883	2928
996.960	1980
997.038	2089
997.116	3016
997.193	1713
997.271	2033
997.348	841
997.426	1638
997.504	2184
997.581	3333
997.658	1519
997.736	-321
997.813	841
997.891	2430
997.968	1538
998.046	1115
998.123	1811
998.200	2343
998.277	1077
998.355	1635
998.432	-137
998.509	1716
998.586	2427
998.663	1702
998.741	964
998.818	798
998.895	653
998.972	1684
999.049	1717
999.126	595
999.203	1799
999.280	366
999.357	1331
999.434	1599
999.511	1128
999.587	1037
999.664	915
999.741	378
999.818	1987
999.895	1707
999.971	1168
1000.048	194
1000.125	1266
1000.202	805
1000.278	1228
1000.355	1387
1000.431	212
1000.508	49
1000.584	677
1000.661	1092
1000.738	-3
1000.814	182
1000.890	1657
1000.967	671
1001.043	944
1001.120	-6
1001.196	1338
1001.272	-32
1001.349	772
1001.425	1150
1001.501	616
1001.577	188
1001.654	1220
1001.730	565
1001.806	1149
1001.882	731
1001.958	1882
1002.034	1969
1002.110	617
1002.186	-697
1002.262	-306
1002.338	274
1002.414	1104
1002.490	691
1002.566	761
1002.642	-618
1002.718	174
1002.794	407
1002.870	449
1002.945	184
1003.021	1002
1003.097	8
1003.173	1280
1003.248	962
1003.324	1036
1003.400	-35
1003.475	-191
1003.551	-371
1003.626	747
1003.702	22
1003.777	746
1003.853	-421
1003.928	-95
1004.004	-73
1004.079	673
1004.155	1213
1004.230	-757
1004.305	782
1004.381	297
1004.456	-296
1004.531	101
1004.607	-576
1004.682	125
1004.757	59
1004.832	-500
1004.907	-270
1004.982	-34
1005.057	585
1005.133	675
1005.208	265
1005.283	-340
1005.358	681
1005.433	-877
1005.508	478
1005.583	131
1005.657	495
1005.732	292
1005.807	-540
1005.882	-68
1005.957	-157
1006.032	240
1006.106	-201
1006.181	441
1006.256	1045
1006.331	-821
1006.405	-810
1006.480	620
1006.554	-431
1006.629	-83
1006.704	-1237
1006.778	-495
1006.853	-51
1006.927	83
1007.002	-636
1007.076	80
1007.150	-646
1007.225	16
1007.299	-398
1007.373	-684
1007.448	-433
1007.522	485
1007.596	-27
1007.671	28
1007.745	-205
1007.819	-356
1007.893	-465
1007.967	448
1008.041	-633
1008.115	167
1008.190	-1120
1008.264	217
1008.338	-1369
1008.412	-586
1008.486	-1016
1008.560	72
1008.633	-807
1008.707	237
1008.781	379
1008.855	-576
1008.929	128
1009.003	-276
1009.076	-397
1009.150	169
1009.224	-311
1009.298	-225
1009.371	-1300
1009.445	-215
1009.519	-355
1009.592	-953
1009.666	-661
1009.739	-196
1009.813	-972
1009.886	-206
1009.960	-2252
1010.033	294
1010.107	-201
1010.180	-1117
1010.253	-379
1010.327	-579
1010.400	-1043
1010.473	-1381
1010.547	937
1010.620	-837
1010.693	-685
1010.766	-961
1010.840	-803
1010.913	-132
1010.986	-997
1011.059	-1280
1011.132	-2248
1011.205	817
1011.278	-292
1011.351	-1051
1011.424	255
1011.497	-1061
1011.570	-772
1011.643	-962
1011.716	-1507
1011.789	-655
1011.862	-993
1011.934	-404
1012.007	-1604
1012.080	-940
1012.153	-1402
1012.225	300
1012.298	-1220
1012.371	-752
1012.443	-138
1012.516	-945
1012.588	-654
1012.661	-111
1012.733	-1466
1012.806	-216
1012.879	-1500
1012.951	-1065
1013.023	-1114
1013.096	-231
1013.168	-1143
1013.241	175
1013.313	-1074
1013.385	-1807
1013.458	-679
1013.530	-679
1013.602	-1489
1013.674	109
1013.746	-2294
1013.819	-1348
1013.891	-1464
1013.963	-1156
1014.035	-1740
1014.107	-957
1014.179	-1552
1014.251	-1993
1014.323	-573
1014.395	-1412
1014.467	-639
1014.539	-643
1014.611	-1802
1014.683	-1383
1014.754	-1520
1014.826	-1707
1014.898	-677
1014.970	-1370
1015.042	-362
1015.113	-763
1015.185	-1060
1015.257	-1340
1015.328	-421
1015.400	-913
1015.471	-945
1015.543	-1432
1015.615	-956
1015.686	-1189
1015.757	-396
1015.829	-681
1015.901	-1070
1015.972	-896
1016.043	-1146
1016.115	-662
1016.186	-1234
1016.257	-1448
1016.328	-1515
1016.400	-995
1016.471	-2252
1016.542	-1246
1016.613	-597
1016.685	-550
1016.756	-958
1016.827	-178
1016.898	-2010
1016.969	-1361
1017.040	-1363
1017.111	-1665
1017.182	-1611
1017.253	-1394
1017.324	-672
1017.395	-1237
1017.466	-1221
1017.537	-1318
1017.608	-961
1017.678	-1422
1017.749	-1480
1017.820	-1472
1017.891	-1671
1017.961	-1291
1018.032	-1062
1018.103	-1059
1018.173	-1088
1018.244	-1508
1018.315	-1952
1018.385	-895
1018.456	-1412
1018.526	-1379
1018.597	-967
1018.667	-837
1018.738	-1466
1018.808	-1043
1018.878	-1669
1018.949	-1354
1019.019	-1329
1019.089	-914
1019.160	-1338
1019.230	-1643
1019.300	-602
1019.371	-1425
1019.441	-897
1019.511	-1321
1019.581	-2008
1019.651	-1302
1019.721	-1151
1019.791	-1614
1019.861	-1417
1019.931	-1059
1020.001	-554
1020.071	-1165
1020.141	-832
1020.211	-831
1020.281	-1751
1020.351	-1444
1020.421	-1658
1020.491	-924
1020.560	-1230
1020.630	-1271
1020.700	-1482
1020.770	-996
1020.839	-1634
1020.909	-2063
1020.979	-1602
1021.048	-1817
1021.118	-1229
1021.187	-1787
1021.257	-1668
1021.326	-1130
1021.396	-1557
1021.465	-1452
1021.535	-1526
1021.604	-2208
1021.674	-1775
1021.743	-851
1021.812	-1918
1021.882	-1204
1021.951	-1621
1022.020	-1437
1022.089	-1200
1022.159	-973
1022.228	-862
1022.297	-1322
1022.366	-2695
1022.435	-1257
1022.504	-652
1022.573	-1031
1022.642	-1096
1022.711	-991
1022.781	-767
1022.849	-1771
1022.918	-2014
1022.987	-1234
1023.056	-2124
1023.125	-1117
1023.194	-1363
1023.263	-1123
1023.331	-1168
1023.400	-1295
1023.469	-2202
1023.538	-1107
1023.606	-2492
1023.675	-1810
1023.744	-1659
1023.812	-1350
1023.881	-1452
1023.949	-2107
1024.018	-1594
1024.086	-1940
1024.155	-641
1024.223	-1655
1024.292	-1712
1024.360	-1649
1024.429	-587
1024.497	-2177
1024.565	-1253
1024.634	-1359
1024.702	-1907
1024.770	-933
1024.838	-1765
1024.907	-788
1024.975	-1473
1025.043	-893
1025.111	-1581
1025.179	-830
1025.247	-1222
1025.315	-1210
1025.383	-1602
1025.451	-1616
1025.519	-1862
1025.587	-2188
1025.655	-1220
1025.723	-2051
1025.791	-1042
1025.859	-1076
1025.927	-756
1025.995	-1199
1026.062	-1408
1026.130	-1254
1026.198	-2134
1026.266	-1082
1026.333	-1340
1026.401	-1361
1026.469	-704
1026.536	-1542
1026.604	-1183
1026.671	-1433
1026.739	-1311
1026.806	-1171
1026.874	-1718
1026.941	-1750
1027.009	-1446
1027.076	-1604
1027.144	-982
1027.211	-1987
1027.278	-1574
1027.345	-774
1027.413	-853
1027.480	-2135
1027.547	-1342
1027.614	-1048
1027.682	-955
1027.749	-1594
1027.816	-2080
1027.883	-1787
1027.950	-1190
1028.017	-1064
1028.084	-530
1028.151	-1929
1028.218	-1599
1028.285	-2100
1028.352	-2143
1028.419	-1403
1028.486	-1671
1028.553	-1246
1028.619	-1472
1028.686	-1595
1028.753	-2140
1028.820	-1670
1028.886	-1148
1028.953	-573
1029.020	-2098
1029.086	-1797
1029.153	-2380
1029.220	-1760
1029.286	-1524
1029.353	-1002
1029.419	-1502
1029.486	-1754
1029.552	-2157
1029.619	-1235
1029.685	-2111
1029.751	-1810
1029.818	-1080
1029.884	-1442
1029.951	-991
1030.017	-1229
1030.083	-1035
1030.149	-1606
1030.216	-2028
1030.282	-1180
1030.348	-1799
1030.414	-2255
1030.480	-1836
1030.546	-1879
1030.612	-693
1030.678	-1732
1030.744	-2033
1030.810	-1586
1030.876	-1508
1030.942	-2356
1031.008	-1325
1031.074	-2231
1031.140	-1827
1031.206	-1237
1031.272	-1963
1031.337	-1525
1031.403	-1331
1031.469	-1633
1031.534	-1655
1031.600	-885
1031.666	-1831
1031.731	-1651
1031.797	-1745
1031.863	-2325
1031.928	-2506
1031.994	-1858
1032.059	-1760
1032.125	-2350
1032.190	-1866
1032.256	-2117
1032.321	-2360
1032.386	-1963
1032.452	-871
1032.517	-2325
1032.582	-1659
1032.647	-2280
1032.713	-1236
1032.778	-1174
1032.843	-1194
1032.908	-1944
1032.974	-1264
1033.039	-1796
1033.104	-1332
1033.169	-862
1033.234	-2516
1033.299	-950
1033.364	-1803
1033.429	-2145
1033.494	-1583
1033.559	-1524
1033.624	-728
1033.688	-671
1033.753	-928
1033.818	-1701
1033.883	-1376
1033.948	-175
1034.013	-270
1034.077	1221
1034.142	1461
1034.207	3315
1034.271	5780
1034.336	7352
1034.400	4238
1034.465	2180
1034.530	-852
1034.594	-1272
1034.658	-622
1034.723	-1510
1034.787	-1573
1034.852	-1849
1034.916	-2073
1034.981	-2205
1035.045	-2345
1035.109	-2172
1035.173	-1126
1035.238	-879
1035.302	-1537
1035.366	-1583
1035.430	-1823
1035.495	-2123
1035.559	-960
1035.623	-1885
1035.687	-1861
1035.751	-1303
1035.815	-1805
1035.879	-1306
1035.943	-1712
1036.007	-2020
1036.071	-1928
1036.135	-2010
1036.198	-1399
1036.262	-1441
1036.326	-2453
1036.390	-1852
1036.454	-1598
1036.517	-1479
1036.581	-1715
1036.645	-1558
1036.709	-1419
1036.772	-1843
1036.836	-1354
1036.900	-1974
1036.963	-1545
1037.026	-2180
1037.090	-2346
1037.154	-1355
1037.217	-1458
1037.280	-2273
1037.344	-1739
1037.407	-2475
1037.471	-1642
1037.534	-1128
1037.597	-1187
1037.661	-1499
1037.724	-2195
1037.787	-1411
1037.850	-1787
1037.913	-1646
1037.977	-1561
1038.040	-1348
1038.103	-880
1038.166	-2024
1038.229	-1288
1038.292	-1109
1038.355	-2452
1038.418	-1410
1038.481	-1726
1038.544	-2216
1038.607	-1876
1038.670	-1583
1038.732	-2146
1038.795	-2177
1038.858	-2191
1038.921	-1625
1038.984	-1244
1039.046	-1429
1039.109	-2315
1039.172	-1738
1039.234	-1982
1039.297	-2419
1039.360	-2066
1039.422	-1545
1039.485	-2290
1039.547	-2581
1039.610	-2976
1039.672	-1631
1039.734	-2386
1039.797	-2632
1039.859	-1639
1039.922	-1896
1039.984	-2256
1040.046	-1951
1040.109	-2334
1040.171	-2495
1040.233	-2332
1040.295	-2495
1040.358	-1445
1040.420	-1628
1040.482	-2254
1040.544	-1396
1040.606	-2279
1040.668	-2148
1040.730	-2752
1040.792	-1691
1040.854	-2437
1040.916	-2097
1040.978	-1877
1041.040	-951
1041.102	-2479
1041.164	-1314
1041.225	-2664
1041.287	-2002
1041.349	-2046
1041.411	-2256
1041.472	-2128
1041.534	-2017
1041.596	-2667
1041.657	-2371
1041.719	-1570
1041.781	-1806
1041.842	-2203
1041.904	-1181
1041.965	-2285
1042.027	-2290
1042.088	-2330
1042.150	-1896
1042.211	-2209
1042.272	-1629
1042.334	-2144
1042.395	-1966
1042.456	-2200
1042.518	-1901
1042.579	-1781
1042.640	-2343
1042.701	-2094
1042.763	-2162
1042.824	-1984
1042.885	-2209
1042.946	-2225
1043.007	-1929
1043.068	-2749
1043.129	-1795
1043.190	-2630
1043.251	-1711
1043.312	-1965
1043.373	-1581
1043.434	-2551
1043.495	-1861
1043.556	-1301
1043.616	-1843
1043.677	-1672
1043.738	-1919
1043.799	-2609
1043.859	-2097
1043.920	-2821
1043.981	-1659
1044.041	-2439
1044.102	-2227
1044.162	-2919
1044.223	-2167
1044.284	-2479
1044.344	-1205
1044.405	-2286
1044.465	-1744
1044.525	-2653
1044.586	-1880
1044.646	-2216
1044.707	-1615
1044.767	-1704
1044.827	-1726
1044.887	-2646
1044.948	-2388
1045.008	-1727
1045.068	-2528
1045.128	-1512
1045.188	-1383
1045.249	-1730
1045.309	-1244
1045.369	-2066
1045.429	-1512
1045.489	-2098
1045.549	-1382
1045.609	-2080
1045.669	-2052
1045.729	-2381
1045.789	-1627
1045.848	-2234
1045.908	-1594
1045.968	-1492
1046.028	-1626
1046.088	-1066
1046.147	-1344
1046.207	-2487
1046.267	-1908
1046.326	-1437
1046.386	-1838
1046.446	-1380
1046.505	-1334
1046.565	-1608
1046.624	-1054
1046.684	-1149
1046.743	-388
1046.803	-138
1046.862	-838
1046.922	0
