'Start Wavelength	183.907
'End Wavelength	1046.922
'Gate Delay	5.000
'Gate Width (ms)	1.050
'Laser Output Level	0.000
'X Position	0.000
'Y Position	0.000
'Z Position	0.000
'Grid Point Number	1.000
'Shot Number	100.000
183.907	198.000
183.977	-87.000
184.047	-67
184.116	371
184.186	682
184.256	108
184.325	458
184.395	228
184.465	563
184.534	140
184.604	-343
184.674	140
184.743	94
184.813	464
184.883	150
184.952	117
185.022	924
185.092	149
185.161	335
185.231	162
185.301	131
185.370	449
185.440	114
185.509	435
185.579	-48
185.649	790
185.718	304
185.788	320
185.857	-294
185.927	449
185.996	330
186.066	1061
186.136	-180
186.205	364
186.275	293
186.344	956
186.414	385
186.483	342
186.553	837
186.622	1138
186.692	433
186.761	-203
186.831	167
186.900	691
186.970	117
187.039	-67
187.109	642
187.178	865
187.248	384
187.317	615
187.387	143
187.456	652
187.526	115
187.595	634
187.664	570
187.734	943
187.803	263
187.873	897
187.942	-252
188.012	892
188.081	354
188.150	-424
188.220	726
188.289	1017
188.358	56
188.428	1085
188.497	-377
188.567	839
188.636	-438
188.705	217
188.775	560
188.844	-16
188.913	445
188.983	99
189.052	253
189.121	260
189.191	11
189.260	1093
189.329	138
189.399	528
189.468	540
189.537	-386
189.606	-424
189.676	113
189.745	1017
189.814	404
189.883	69
189.953	746
190.022	359
190.091	634
190.161	306
190.230	807
190.299	278
190.368	189
190.437	-23
190.507	632
190.576	752
190.645	416
190.714	-731
190.783	183
190.853	421
190.922	1028
190.991	582
191.060	255
191.129	-245
191.198	750
191.268	748
191.337	243
191.406	11
191.475	722
191.544	-122
191.613	1144
191.682	-73
191.752	185
191.821	-1
191.890	202
191.959	315
192.028	749
192.097	182
192.166	1200
192.235	-796
192.304	490
192.373	-34
192.442	362
192.511	-100
192.580	363
192.650	910
192.719	485
192.788	42
192.857	619
192.926	-654
192.995	153
193.064	758
193.133	412
193.202	-100
193.271	138
193.340	764
193.409	836
193.478	225
193.547	-59
193.615	573
193.684	-118
193.753	414
193.822	655
193.891	513
193.960	253
194.029	-307
194.098	724
194.167	99
194.236	228
194.305	-412
194.374	560
194.443	248
194.512	802
194.580	-20
194.649	517
194.718	-50
194.787	251
194.856	-795
194.925	951
194.994	-612
195.062	248
195.131	-636
195.200	-58
195.269	344
195.338	113
195.407	598
195.475	374
195.544	-207
195.613	402
195.682	-131
195.751	50
195.819	-1039
195.888	614
195.957	825
196.026	745
196.094	277
196.163	-14
196.232	-279
196.301	74
196.369	223
196.438	324
196.507	-168
196.576	-148
196.644	-240
196.713	589
196.782	703
196.850	370
196.919	633
196.988	-237
197.056	1109
197.125	513
197.194	440
197.262	240
197.331	184
197.400	302
197.468	-336
197.537	105
197.606	262
197.674	114
197.743	127
197.812	730
197.880	-136
197.949	-846
198.017	-339
198.086	172
198.155	223
198.223	400
198.292	-604
198.360	729
198.429	-175
198.497	691
198.566	6
198.635	271
198.703	1058
198.772	172
198.840	-374
198.909	-317
198.977	165
199.046	-414
199.114	157
199.183	-595
199.251	687
199.320	129
199.388	-239
199.457	-12
199.525	-164
199.594	-539
199.662	-76
199.731	334
199.799	-393
199.867	523
199.936	-602
200.004	474
200.073	1098
200.141	1091
200.210	92
200.278	217
200.346	478
200.415	768
200.483	760
200.552	1047
200.620	627
200.688	623
200.757	1060
200.825	381
200.893	225
200.962	354
201.030	6
201.098	217
201.167	285
201.235	345
201.303	-575
201.372	16
201.440	-13
201.508	-288
201.577	-358
201.645	928
201.713	-85
201.781	-74
201.850	806
201.918	395
201.986	338
202.055	534
202.123	-570
202.191	898
202.259	868
202.327	283
202.396	251
202.464	539
202.532	822
202.600	-109
202.669	-10
202.737	606
202.805	-183
202.873	48
202.941	137
203.009	142
203.078	123
203.146	650
203.214	-462
203.282	-217
203.350	1195
203.418	599
203.487	15
203.555	797
203.623	-144
203.691	911
203.759	15
203.827	108
203.895	-452
203.963	-76
204.031	-352
204.099	1255
204.168	424
204.236	407
204.304	-165
204.372	127
204.440	134
204.508	-210
204.576	-248
204.644	566
204.712	-373
204.780	313
204.848	-696
204.916	524
204.984	-207
205.052	115
205.120	-152
205.188	-21
205.256	-1041
205.324	119
205.392	-228
205.460	832
205.528	-193
205.596	476
205.664	-1003
205.732	-158
205.799	-275
205.867	290
205.935	-70
206.003	1068
206.071	-16
206.139	-521
206.207	-504
206.275	-26
206.343	129
206.411	236
206.478	45
206.546	174
206.614	-19
206.682	239
206.750	-267
206.818	204
206.885	980
206.953	-920
207.021	941
207.089	1045
207.157	-692
207.225	290
207.292	124
207.360	598
207.428	-161
207.496	-336
207.563	319
207.631	714
207.699	-1111
207.767	607
207.834	-651
207.902	113
207.970	-586
208.038	176
208.105	-434
208.173	-271
208.241	62
208.309	698
208.376	-360
208.444	830
208.512	-110
208.579	-32
208.647	605
208.715	884
208.782	-250
208.850	633
208.918	-492
208.985	33
209.053	142
209.120	288
209.188	-1246
209.256	379
209.323	-340
209.391	105
209.459	1178
209.526	962
209.594	-708
209.661	214
209.729	201
209.796	281
209.864	162
209.932	-839
209.999	1067
210.067	415
210.134	-688
210.202	-339
210.269	449
210.337	1323
210.404	-417
210.472	776
210.539	-270
210.607	111
210.674	356
210.742	120
210.809	-227
210.877	-474
210.944	136
211.012	-219
211.079	1036
211.146	821
211.214	170
211.281	1304
211.349	909
211.416	443
211.484	683
211.551	192
211.618	-86
211.686	441
211.753	-371
211.821	712
211.888	253
211.955	734
212.023	-460
212.090	13
212.157	-347
212.225	237
212.292	91
212.359	357
212.427	-301
212.494	-425
212.561	-395
212.629	-52
212.696	-904
212.763	237
212.831	-715
212.898	804
212.965	104
213.032	1240
213.100	-698
213.167	-191
213.234	134
213.301	773
213.369	-49
213.436	-42
213.503	-435
213.570	371
213.638	-652
213.705	-16
213.772	-395
213.839	121
213.906	3
213.973	63
214.041	-749
214.108	66
214.175	700
214.242	-223
214.309	358
214.376	439
214.444	-326
214.511	-208
214.578	-595
214.645	1048
214.712	-5
214.779	-72
214.846	-785
214.913	623
214.980	299
215.048	1911
215.115	1855
215.182	114
215.249	833
215.316	258
215.383	474
215.450	-211
215.517	439
215.584	204
215.651	142
215.718	131
215.785	211
215.852	-74
215.919	652
215.986	423
216.053	-393
216.120	-493
216.187	-720
216.254	-304
216.321	-360
216.388	-617
216.455	-56
216.522	-177
216.589	-579
216.656	370
216.722	-13
216.789	-498
216.856	-341
216.923	-989
216.990	-146
217.057	-45
217.124	22
217.191	-93
217.258	196
217.324	259
217.391	-446
217.458	125
217.525	370
217.592	144
217.659	-1548
217.725	294
217.792	-770
217.859	972
217.926	-191
217.993	-814
218.059	7
218.126	127
218.193	-337
218.260	306
218.327	310
218.393	-15
218.460	21
218.527	147
218.594	-150
218.660	-278
218.727	-128
218.794	-542
218.860	-414
218.927	-42
218.994	-1106
219.061	177
219.127	-190
219.194	85
219.261	337
219.327	-305
219.394	512
219.461	-511
219.527	-24
219.594	97
219.661	-244
219.727	250
219.794	772
219.860	641
219.927	696
219.994	1150
220.060	2632
220.127	3652
220.193	2140
220.260	289
220.326	-385
220.393	65
220.460	-655
220.526	-576
220.593	-345
220.659	1524
220.726	45
220.792	-308
220.859	-870
220.925	-173
220.992	328
221.058	-498
221.125	-730
221.191	-767
221.258	-1154
221.324	78
221.391	-397
221.457	-469
221.524	-252
221.590	-163
221.657	-147
221.723	-260
221.789	-800
221.856	506
221.922	-1205
221.989	1238
222.055	233
222.121	242
222.188	1294
222.254	188
222.321	-279
222.387	539
222.453	-323
222.520	95
222.586	-648
222.652	234
222.719	-1029
222.785	443
222.851	-391
222.918	466
222.984	-1547
223.050	-721
223.116	-1201
223.183	597
223.249	-786
223.315	-32
223.382	-246
223.448	-257
223.514	-806
223.580	-386
223.647	-383
223.713	-296
223.779	-650
223.845	-68
223.911	-90
223.978	-231
224.044	104
224.110	-214
224.176	581
224.242	-410
224.309	-1100
224.375	702
224.441	-1055
224.507	445
224.573	-564
224.639	563
224.705	-966
224.772	-284
224.838	156
224.904	784
224.970	-433
225.036	-39
225.102	-619
225.168	527
225.234	435
225.300	-4
225.366	-323
225.432	842
225.499	141
225.565	-241
225.631	-331
225.697	-27
225.763	-521
225.829	-152
225.895	-462
225.961	-660
226.027	-219
226.093	-741
226.159	734
226.225	521
226.291	344
226.357	-355
226.423	-62
226.489	-128
226.554	190
226.620	353
226.686	-297
226.752	-332
226.818	-73
226.884	-32
226.950	-652
227.016	97
227.082	-158
227.148	-109
227.214	657
227.279	194
227.345	-358
227.411	1528
227.477	3062
227.543	6494
227.609	7361
227.674	3885
227.740	1290
227.806	1116
227.872	-76
227.938	435
228.003	960
228.069	92
228.135	-674
228.201	571
228.267	-105
228.332	-350
228.398	-1259
228.464	139
228.530	-453
228.595	-94
228.661	-1235
228.727	-475
228.792	600
228.858	-572
228.924	-1961
228.990	833
229.055	-1470
229.121	818
229.187	-421
229.252	-194
229.318	128
229.384	-168
229.449	-881
229.515	-1115
229.581	-962
229.646	1166
229.712	-74
229.777	679
229.843	-377
229.909	-675
229.974	134
230.040	-190
230.105	-613
230.171	-347
230.236	-293
230.302	-202
230.368	-999
230.433	-72
230.499	151
230.564	700
230.630	-1577
230.695	-197
230.761	-367
230.826	-1060
230.892	-54
230.957	-1360
231.023	-721
231.088	-354
231.154	-198
231.219	896
231.284	-974
231.350	834
231.415	-830
231.481	234
231.546	-1053
231.612	-440
231.677	-842
231.742	-700
231.808	709
231.873	-108
231.939	-2076
232.004	1056
232.069	-870
232.135	-937
232.200	-448
232.265	390
232.331	-838
232.396	-850
232.461	-906
232.527	-527
232.592	-981
232.657	-116
232.723	-375
232.788	-869
232.853	-25
232.918	685
232.984	-976
233.049	-917
233.114	-1245
233.179	494
233.245	312
233.310	-135
233.375	-1009
233.440	468
233.506	-1337
233.571	-296
233.636	-381
233.701	-1045
233.766	-628
233.832	69
233.897	-163
233.962	-1112
234.027	310
234.092	285
234.157	-189
234.222	149
234.288	410
234.353	-133
234.418	562
234.483	439
234.548	-391
234.613	-729
234.678	-372
234.743	-1223
234.808	246
234.873	-1509
234.938	259
235.004	-610
235.069	52
235.134	-1091
235.199	-645
235.264	91
235.329	-1845
235.394	585
235.459	446
235.524	-679
235.589	-334
235.654	170
235.719	-1684
235.784	225
235.849	288
235.913	-256
235.978	-115
236.043	-34
236.108	-676
236.173	-1401
236.238	-416
236.303	-1026
236.368	-553
236.433	349
236.498	-550
236.563	-191
236.627	-736
236.692	494
236.757	-359
236.822	245
236.887	-1704
236.952	-85
237.017	-952
237.081	1043
237.146	-1164
237.211	144
237.276	-461
237.341	-77
237.405	-1469
237.470	-409
237.535	-427
237.600	-579
237.664	413
237.729	-1067
237.794	-1799
237.859	-206
237.923	-1063
237.988	-1279
238.053	-158
238.118	-827
238.182	-225
238.247	1434
238.312	-1119
238.376	319
238.441	-1910
238.506	1082
238.570	-828
238.635	343
238.700	7
238.764	-318
238.829	316
238.893	-683
238.958	-339
239.023	45
239.087	-181
239.152	-123
239.216	-711
239.281	762
239.346	-501
239.410	-69
239.475	-671
239.539	1147
239.604	-439
239.668	2445
239.733	1793
239.797	5643
239.862	12351
239.926	10490
239.991	4230
240.055	2128
240.120	776
240.184	1133
240.249	-404
240.313	575
240.378	236
240.442	-204
240.507	67
240.571	-103
240.635	-705
240.700	-470
240.764	-563
240.829	469
240.893	-1244
240.957	843
241.022	-411
241.086	689
241.151	-1419
241.215	-725
241.279	647
241.344	-504
241.408	326
241.472	-682
241.537	-67
241.601	234
241.665	-1575
241.730	-852
241.794	296
241.858	-329
241.922	-189
241.987	178
242.051	-736
242.115	-1996
242.179	83
242.244	-421
242.308	177
242.372	-109
242.436	-1503
242.501	70
242.565	-1055
242.629	-601
242.693	227
242.757	-1202
242.822	-130
242.886	260
242.950	922
243.014	-777
243.078	348
243.142	-420
243.206	-957
243.271	-863
243.335	-612
243.399	627
243.463	-1086
243.527	-242
243.591	-1170
243.655	-850
243.719	-1166
243.783	127
243.847	-1383
243.911	160
243.975	-563
244.040	-2065
244.104	1278
244.168	-24
244.232	-658
244.296	-144
244.360	-359
244.424	-1234
244.488	-313
244.552	215
244.615	-1493
244.679	200
244.743	-313
244.807	-1187
244.871	-66
244.935	325
244.999	-1404
245.063	-821
245.127	19
245.191	-78
245.255	-958
245.319	-607
245.383	-1361
245.446	335
245.510	-613
245.574	690
245.638	542
245.702	-1573
245.766	-280
245.829	1405
245.893	-758
245.957	-757
246.021	22
246.085	-100
246.149	-169
246.212	1205
246.276	677
246.340	285
246.404	-840
246.467	634
246.531	-2801
246.595	551
246.659	208
246.722	-1285
246.786	268
246.850	-408
246.913	-877
246.977	-420
247.041	-448
247.104	-737
247.168	-135
247.232	46
247.295	1066
247.359	704
247.423	-886
247.486	-441
247.550	357
247.614	252
247.677	-650
247.741	-323
247.804	-470
247.868	216
247.932	-527
247.995	2612
248.059	89
248.122	-1137
248.186	1094
248.249	461
248.313	2337
248.376	3211
248.440	987
248.503	-1085
248.567	1258
248.630	-1041
248.694	-514
248.757	1530
248.821	2439
248.884	2542
248.948	112
249.011	2465
249.075	3010
249.138	2401
249.202	485
249.265	-113
249.328	89
249.392	-1099
249.455	472
249.519	203
249.582	-331
249.645	447
249.709	-1107
249.772	-752
249.835	-287
249.899	-361
249.962	218
250.025	17
250.089	154
250.152	1139
250.215	-445
250.279	-155
250.342	203
250.405	41
250.468	-599
250.532	-468
250.595	-99
250.658	-1344
250.721	-33
250.785	-325
250.848	472
250.911	-949
250.974	425
251.038	-750
251.101	1565
251.164	-224
251.227	191
251.290	-1001
251.354	-433
251.417	-807
251.480	-552
251.543	-356
251.606	-1053
251.669	304
251.732	-189
251.795	1277
251.859	1035
251.922	-826
251.985	-433
252.048	672
252.111	-252
252.174	-1169
252.237	467
252.300	3787
252.363	357
252.426	1583
252.489	33
252.552	638
252.615	-1256
252.678	549
252.741	1990
252.804	893
252.867	238
252.930	2342
252.993	57
253.056	1011
253.119	-636
253.182	-217
253.245	-294
253.308	976
253.371	-1165
253.434	-228
253.497	-143
253.559	1565
253.622	84
253.685	766
253.748	343
253.811	371
253.874	245
253.937	-118
254.000	132
254.062	403
254.125	211
254.188	1728
254.251	14
254.314	-539
254.376	-1297
254.439	520
254.502	243
254.565	787
254.628	1482
254.690	63
254.753	-545
254.816	-707
254.878	-4
254.941	243
255.004	1019
255.067	-60
255.129	-423
255.192	218
255.255	-1232
255.317	736
255.380	404
255.443	145
255.505	504
255.568	3
255.631	-612
255.693	275
255.756	-324
255.819	1477
255.881	409
255.944	721
256.006	-517
256.069	-111
256.132	-827
256.194	8
256.257	-116
256.319	-47
256.382	-67
256.444	2727
256.507	877
256.569	598
256.632	-195
256.694	-578
256.757	357
256.819	718
256.882	-1051
256.944	296
257.007	462
257.069	-382
257.132	-178
257.194	626
257.257	-533
257.319	-762
257.381	-827
257.444	903
257.506	303
257.569	974
257.631	1576
257.693	513
257.756	54
257.818	-678
257.880	-439
257.943	180
258.005	-433
258.067	-772
258.130	-330
258.192	228
258.254	-546
258.317	194
258.379	625
258.441	600
258.503	583
258.566	-61
258.628	484
258.690	-993
258.753	312
258.815	343
258.877	-188
258.939	322
259.001	-578
259.064	-9
259.126	-1241
259.188	-315
259.250	433
259.312	389
259.375	424
259.437	882
259.499	-215
259.561	844
259.623	91
259.685	47
259.747	52
259.809	221
259.872	200
259.934	871
259.996	555
260.058	1227
260.120	-656
260.182	-48
260.244	146
260.306	-269
260.368	544
260.430	-470
260.492	150
260.554	1452
260.616	883
260.678	1059
260.740	692
260.802	98
260.864	103
260.926	-609
260.988	1022
261.050	217
261.112	-33
261.174	231
261.236	-210
261.298	-278
261.359	529
261.421	1582
261.483	-174
261.545	1626
261.607	-716
261.669	1098
261.731	1379
261.793	1041
261.854	-834
261.916	1027
261.978	-118
262.040	430
262.102	1251
262.164	156
262.225	-93
262.287	448
262.349	289
262.411	323
262.472	1827
262.534	-518
262.596	354
262.658	654
262.719	-293
262.781	1385
262.843	83
262.904	874
262.966	653
263.028	-385
263.090	476
263.151	822
263.213	483
263.275	-297
263.336	332
263.398	1673
263.459	823
263.521	1189
263.583	1054
263.644	1058
263.706	336
263.767	15
263.829	376
263.891	120
263.952	-124
264.014	688
264.075	166
264.137	206
264.198	378
264.260	-144
264.321	93
264.383	193
264.444	315
264.506	-34
264.567	-131
264.629	1322
264.690	-819
264.752	597
264.813	-9
264.875	96
264.936	456
264.998	80
265.059	734
265.120	304
265.182	3
265.243	229
265.305	-10
265.366	845
265.427	219
265.489	1853
265.550	-637
265.611	1223
265.673	-352
265.734	1204
265.795	286
265.857	-666
265.918	-243
265.979	1194
266.040	-252
266.102	731
266.163	130
266.224	-150
266.286	808
266.347	-554
266.408	385
266.469	893
266.530	286
266.592	1094
266.653	949
266.714	455
266.775	843
266.836	562
266.898	-185
266.959	537
267.020	-52
267.081	1108
267.142	330
267.203	505
267.264	-674
267.326	1035
267.387	-537
267.448	327
267.509	533
267.570	169
267.631	368
267.692	-617
267.753	958
267.814	492
267.875	181
267.936	582
267.997	543
268.058	524
268.119	410
268.180	482
268.241	-1275
268.302	839
268.363	607
268.424	470
268.485	-52
268.546	636
268.607	765
268.668	178
268.729	-397
268.790	32
268.851	617
268.912	-61
268.972	920
269.033	-495
269.094	398
269.155	465
269.216	121
269.277	631
269.338	186
269.398	622
269.459	11
269.520	322
269.581	-64
269.642	666
269.702	156
269.763	264
269.824	-168
269.885	-266
269.945	-72
270.006	509
270.067	-76
270.128	-250
270.188	-520
270.249	147
270.310	-57
270.370	601
270.431	-338
270.492	334
270.553	289
270.613	1358
270.674	548
270.734	-266
270.795	249
270.856	1167
270.916	-121
270.977	874
271.038	1041
271.098	1263
271.159	25
271.219	251
271.280	429
271.340	546
271.401	101
271.462	689
271.522	-82
271.583	880
271.643	38
271.704	348
271.764	432
271.825	1054
271.885	3093
271.946	5269
272.006	1427
272.066	2532
272.127	5856
272.187	8786
272.248	4466
272.308	898
272.369	3681
272.429	2083
272.489	290
272.550	263
272.610	853
272.671	560
272.731	1317
272.791	567
272.852	-53
272.912	1696
272.972	-324
273.033	439
273.093	-65
273.153	463
273.214	1402
273.274	978
273.334	922
273.394	2454
273.455	1200
273.515	1972
273.575	1335
273.635	2535
273.696	1680
273.756	2708
273.816	1077
273.876	1387
273.936	725
273.997	1429
274.057	1105
274.117	-23
274.177	1078
274.237	3310
274.297	3628
274.358	859
274.418	1920
274.478	1534
274.538	464
274.598	612
274.658	924
274.718	1827
274.778	857
274.838	877
274.898	1282
274.958	2128
275.018	3319
275.078	2588
275.138	1337
275.198	894
275.258	734
275.318	1217
275.378	851
275.438	871
275.498	1222
275.558	1048
275.618	2316
275.678	2584
275.738	2229
275.798	1103
275.858	276
275.918	149
275.978	999
276.038	1454
276.098	1162
276.157	2252
276.217	1850
276.277	2044
276.337	251
276.397	1445
276.457	1076
276.517	610
276.576	905
276.636	855
276.696	826
276.756	1480
276.815	1268
276.875	1386
276.935	1860
276.995	1243
277.055	1628
277.114	2724
277.174	2239
277.234	1365
277.293	827
277.353	1119
277.413	82
277.472	162
277.532	379
277.592	817
277.651	1962
277.711	3774
277.771	715
277.830	4346
277.890	3249
277.950	2074
278.009	8327
278.069	4704
278.128	2908
278.188	4177
278.248	2241
278.307	4074
278.367	3653
278.426	1839
278.486	1397
278.545	1780
278.605	1342
278.664	1383
278.724	1096
278.783	2430
278.843	3845
278.902	2296
278.962	1151
279.021	1454
279.081	1591
279.140	1527
279.199	1406
279.259	1698
279.318	1352
279.378	2128
279.437	2959
279.496	14187
279.556	22518
279.615	17849
279.675	4461
279.734	3993
279.793	4688
279.853	12858
279.912	5498
279.971	2773
280.031	2343
280.090	5887
280.149	11609
280.208	5301
280.268	11244
280.327	14366
280.386	3310
280.445	3057
280.505	1939
280.564	1544
280.623	1112
280.682	2199
280.742	2728
280.801	1606
280.860	1839
280.919	2083
280.978	885
281.037	1478
281.097	644
281.156	1828
281.215	1306
281.274	2418
281.333	2472
281.392	2500
281.451	1445
281.510	1827
281.569	460
281.628	1954
281.688	2072
281.747	2088
281.806	1778
281.865	1383
281.924	1146
281.983	1553
282.042	1297
282.101	1595
282.160	1575
282.219	1060
282.278	1344
282.337	2184
282.396	638
282.454	1722
282.513	1291
282.572	2317
282.631	1859
282.690	1433
282.749	758
282.808	1652
282.867	1243
282.926	1502
282.985	1366
283.043	1733
283.102	2093
283.161	2378
283.220	1369
283.279	3068
283.338	1233
283.396	1948
283.455	1639
283.514	2616
283.573	1590
283.631	1652
283.690	1707
283.749	1065
283.808	2330
283.866	2566
283.925	1240
283.984	2069
284.043	1246
284.101	1874
284.160	1849
284.219	2005
284.277	2061
284.336	1777
284.395	2934
284.453	3369
284.512	1687
284.570	2268
284.629	1522
284.688	2194
284.746	2340
284.805	3068
284.863	2373
284.922	3178
284.981	2740
285.039	4472
285.098	7143
285.156	15456
285.215	46732
285.273	51560
285.332	22651
285.390	9987
285.449	6353
285.507	5372
285.566	3710
285.624	3817
285.683	3186
285.741	2737
285.799	1485
285.858	1797
285.916	1926
285.975	2308
286.033	1311
286.091	2019
286.150	1394
286.208	2435
286.267	2155
286.325	1968
286.383	1274
286.442	2027
286.500	1621
286.558	2924
286.616	1332
286.675	2286
286.733	2452
286.791	1872
286.850	2160
286.908	2095
286.966	2009
287.024	1900
287.083	1179
287.141	1862
287.199	2004
287.257	2432
287.315	2827
287.374	2088
287.432	2237
287.490	2627
287.548	2245
287.606	2187
287.664	2128
287.723	2209
287.781	1854
287.839	2861
287.897	2530
287.955	2590
288.013	1409
288.071	2841
288.129	1345
288.187	2086
288.245	2212
288.303	1863
288.361	1425
288.419	2446
288.477	1327
288.535	2224
288.593	2188
288.651	2525
288.709	1848
288.767	2605
288.825	1646
288.883	2643
288.941	992
288.999	2351
289.057	1616
289.115	2110
289.173	2724
289.231	3161
289.289	1699
289.346	2712
289.404	2546
289.462	2928
289.520	2562
289.578	2743
289.636	2196
289.694	2423
289.751	2041
289.809	3174
289.867	2005
289.925	3347
289.983	2729
290.040	2962
290.098	2148
290.156	2834
290.214	2176
290.271	2510
290.329	2780
290.387	2955
290.444	2584
290.502	3344
290.560	2770
290.617	3001
290.675	2762
290.733	2786
290.790	2543
290.848	3194
290.906	2903
290.963	2010
291.021	2677
291.078	2835
291.136	2217
291.194	3327
291.251	3546
291.309	2954
291.366	2514
291.424	2388
291.481	3153
291.539	3213
291.596	2437
291.654	3136
291.711	2449
291.769	2875
291.826	2840
291.884	3088
291.941	2043
291.999	2395
292.056	2443
292.114	2745
292.171	2338
292.228	4006
292.286	2812
292.343	3451
292.401	2778
292.458	3089
292.515	2728
292.573	3830
292.630	3508
292.687	3061
292.745	2134
292.802	2358
292.859	2932
292.917	3604
292.974	3801
293.031	2941
293.089	1803
293.146	2852
293.203	2583
293.260	3028
293.318	2014
293.375	2587
293.432	1752
293.489	2942
293.546	2200
293.604	2658
293.661	2441
293.718	6490
293.775	4288
293.832	3485
293.889	3466
293.947	3702
294.004	3305
294.061	3501
294.118	2358
294.175	4413
294.232	3140
294.289	2370
294.346	3392
294.403	3784
294.460	2791
294.517	2742
294.574	3025
294.631	3523
294.688	2847
294.745	3993
294.802	6404
294.859	5887
294.916	3118
294.973	3215
295.030	2809
295.087	3339
295.144	2797
295.201	3635
295.258	2519
295.315	2970
295.372	3475
295.429	6123
295.486	4362
295.542	3067
295.599	2666
295.656	2911
295.713	3430
295.770	5015
295.827	2914
295.883	3383
295.940	2586
295.997	3009
296.054	2516
296.111	3097
296.167	3424
296.224	3172
296.281	2037
296.338	2776
296.394	1657
296.451	3173
296.508	2987
296.564	4560
296.621	3719
296.678	6769
296.734	9105
296.791	4899
296.848	3496
296.904	3780
296.961	3664
297.018	4636
297.074	4938
297.131	3466
297.187	3796
297.244	2788
297.301	6476
297.357	10750
297.414	5756
297.470	3349
297.527	3013
297.583	3003
297.640	3038
297.696	3555
297.753	3506
297.809	2598
297.866	2987
297.922	3351
297.979	2512
298.035	3585
298.092	3238
298.148	3620
298.204	4502
298.261	3565
298.317	4567
298.374	8855
298.430	6191
298.486	3903
298.543	2483
298.599	2815
298.656	2577
298.712	3126
298.768	3230
298.824	3402
298.881	2300
298.937	3127
298.993	3442
299.050	2351
299.106	2901
299.162	2492
299.218	2697
299.275	3027
299.331	3284
299.387	5159
299.443	9434
299.500	23490
299.556	22802
299.612	10694
299.668	8881
299.724	18593
299.780	27775
299.837	12757
299.893	8115
299.949	15208
300.005	25708
300.061	20136
300.117	30675
300.173	17500
300.229	7849
300.285	5834
300.341	5369
300.397	4999
300.453	4903
300.510	5145
300.566	6395
300.622	9903
300.678	28310
300.734	42217
300.790	21574
300.845	15093
300.901	17754
300.957	29178
301.013	15768
301.069	7713
301.125	5701
301.181	5292
301.237	4344
301.293	4206
301.349	3568
301.405	4421
301.461	2728
301.516	3824
301.572	3104
301.628	3827
301.684	3194
301.740	3673
301.796	4589
301.851	4507
301.907	4566
301.963	5629
302.019	6866
302.074	16388
302.130	19010
302.186	10689
302.242	4416
302.297	3604
302.353	4256
302.409	5319
302.464	4118
302.520	3850
302.576	5569
302.631	8178
302.687	4923
302.743	3193
302.798	3114
302.854	3518
302.910	3239
302.965	3926
303.021	3113
303.076	3956
303.132	3400
303.187	3985
303.243	2876
303.299	3893
303.354	2362
303.410	2682
303.465	3061
303.521	3205
303.576	3082
303.632	2866
303.687	3233
303.743	6439
303.798	7373
303.853	4287
303.909	3688
303.964	2871
304.020	2859
304.075	3306
304.130	3417
304.186	3475
304.241	4860
304.297	4814
304.352	3789
304.358	3765
304.407	3573
304.449	3899
304.463	4013
304.518	3449
304.539	3405
304.573	3320
304.629	4030
304.630	4018
304.684	3600
304.720	4978
304.739	5650
304.794	8456
304.811	7943
304.850	6663
304.902	3677
304.905	3485
304.960	3064
304.992	2999
305.015	2963
305.071	2218
305.083	2359
305.126	2863
305.173	3024
305.181	3060
305.236	2824
305.264	3119
305.292	3361
305.347	3359
305.354	3380
305.402	3624
305.445	3467
305.457	3390
305.512	3284
305.535	3074
305.567	2845
305.622	2810
305.626	2860
305.678	3901
305.716	4765
305.733	5024
305.788	5787
305.807	5566
305.843	5429
305.897	6755
305.898	6763
305.953	7404
305.988	5750
306.008	4852
306.063	3659
306.078	3243
306.118	2406
306.168	2687
306.173	2700
306.228	2652
306.259	3081
306.283	3476
306.338	3112
306.349	3113
306.393	2862
306.440	2573
306.448	2584
306.503	3307
306.530	3139
306.558	2874
306.613	2736
306.620	2799
306.668	3643
306.711	4234
306.723	4183
306.778	4450
306.801	4020
306.833	3643
306.888	2570
306.892	2564
306.943	2621
306.982	2390
306.997	2298
307.052	2963
307.072	2838
307.107	2490
307.162	2599
307.163	2588
307.217	1909
307.253	2443
307.272	2563
307.327	1582
307.343	1730
307.381	2197
307.434	2062
307.436	2073
307.491	2442
307.524	2887
307.546	3011
307.600	3497
307.614	3381
307.655	2713
307.704	2412
307.710	2448
307.765	1799
307.795	2136
307.819	2258
307.874	2288
307.885	2202
307.929	1987
307.975	2726
307.984	2841
308.038	2705
308.065	2596
308.093	2561
308.148	2561
308.156	2512
308.202	2031
308.246	2355
308.257	2482
308.312	2480
308.336	2644
308.366	2812
308.421	3013
308.426	2948
308.475	2285
308.517	2110
308.530	1945
308.585	1907
308.607	1572
308.639	1486
308.694	2030
308.697	2024
308.748	1790
308.787	1876
308.803	1898
308.857	2251
308.877	2071
308.912	1721
308.967	1875
308.967	1876
309.021	2442
309.058	2746
309.076	2704
309.130	2916
309.148	2804
309.185	3152
309.238	3719
309.239	3718
309.293	3906
309.328	3891
309.348	3863
309.402	3195
309.418	3200
309.457	3327
309.508	2493
309.511	2488
309.566	3432
309.598	3835
309.620	4132
309.674	4920
309.688	5157
309.729	5168
309.778	5117
309.783	5076
309.837	4032
309.868	3643
309.892	3934
309.946	4253
309.959	4502
310.001	5123
310.049	5592
310.055	5482
310.109	4192
310.139	3474
310.163	3150
310.218	2553
310.229	2382
310.272	2362
310.319	2795
310.326	2788
310.381	2523
310.409	2389
310.435	2592
310.489	3016
310.499	3089
310.543	2950
310.589	2864
310.598	2899
310.652	3154
310.679	3199
310.706	3150
310.760	3177
310.769	3181
310.814	3081
310.859	2805
310.868	2811
310.923	3129
310.948	3200
310.977	3360
311.031	3617
311.038	3679
311.085	3324
311.128	2805
311.139	2816
311.193	3122
311.218	3170
311.247	3300
311.301	3620
311.308	3653
311.356	3199
311.398	2825
311.410	2915
311.464	3330
311.488	3545
311.518	3362
311.572	3041
311.578	2998
311.626	3208
311.668	3454
311.680	3394
311.734	3054
311.758	2944
311.788	2775
311.842	2436
311.847	2409
311.896	2966
311.937	3446
311.950	3384
312.004	3149
312.027	3051
312.058	2881
312.112	2591
312.117	2568
312.165	2646
312.207	2731
312.297	2588
312.386	2987
312.476	2911
312.566	3863
312.656	3301
312.745	2993
312.835	3808
312.925	3999
313.015	3656
313.104	4279
313.194	4935
313.284	3905
313.374	4589
313.463	4294
313.553	5129
313.643	4888
313.732	5873
313.822	6188
313.912	7316
314.001	7590
314.091	7741
314.180	7054
314.270	7632
314.360	7032
314.449	7604
314.539	6550
314.628	7622
314.718	7967
314.808	7899
314.897	8611
314.987	9769
315.076	8570
315.166	9120
315.255	8064
315.345	8390
315.434	8134
315.524	8090
315.613	8090
315.703	11125
315.792	25752
315.881	92562
315.971	31562
316.060	10435
316.150	7361
316.239	7206
316.328	7956
316.418	8258
316.507	8467
316.597	11190
316.686	9460
316.775	9901
316.865	8550
316.954	8322
317.043	6898
317.133	7201
317.222	6030
317.311	5658
317.400	4709
317.490	7318
317.579	7427
317.668	8811
317.757	14289
317.847	42580
317.936	134184
318.025	44035
318.114	39988
318.203	19462
318.293	8178
318.382	12563
318.471	14706
318.560	12038
318.649	8341
318.738	7210
318.828	5721
318.917	4354
319.006	4332
319.095	4063
319.184	4971
319.273	5164
319.362	5231
319.451	4552
319.540	4574
319.629	5226
319.718	5622
319.807	4905
319.896	4588
319.985	6000
320.074	5687
320.163	5722
320.252	5512
320.341	6311
320.430	6291
320.519	6802
320.608	7259
320.697	10374
320.786	10362
320.875	12121
320.964	13243
321.053	13284
321.142	14088
321.230	17000
321.319	18595
321.408	19413
321.497	19339
321.586	17353
321.675	13531
321.764	13621
321.852	13135
321.941	14728
322.030	14569
322.119	15178
322.207	18649
322.296	21280
322.385	23764
322.474	27226
322.562	27349
322.651	21289
322.740	16749
322.829	15918
322.917	12480
323.006	11464
323.095	10822
323.183	10357
323.272	8362
323.361	8115
323.449	8842
323.538	7452
323.626	7773
323.715	7380
323.804	5765
323.892	5995
323.981	6853
324.069	7015
324.158	5590
324.246	6173
324.335	5899
324.424	6335
324.512	6178
324.601	5293
324.689	5278
324.778	5069
324.866	6200
324.954	6173
325.043	4755
325.131	4377
325.220	5675
325.308	5993
325.397	4310
325.485	4982
325.574	5053
325.662	5294
325.750	5098
325.839	6038
325.927	4346
326.015	4420
326.104	3930
326.192	4648
326.280	4459
326.369	4649
326.457	4640
326.545	4202
326.634	4168
326.722	4363
326.810	5218
326.898	7173
326.987	6417
327.075	5077
327.163	5919
327.251	5266
327.340	6144
327.428	7999
327.516	10067
327.604	7292
327.692	6463
327.781	5303
327.869	4717
327.957	4070
328.045	3097
328.133	4602
328.221	4302
328.309	3539
328.397	4697
328.485	5727
328.574	9608
328.662	14295
328.750	8373
328.838	5621
328.926	4039
329.014	4833
329.102	4417
329.190	5281
329.278	3666
329.366	4336
329.454	3626
329.542	4302
329.630	4177
329.718	4088
329.806	3822
329.893	4123
329.981	3799
330.069	4047
330.157	4009
330.245	3266
330.333	4156
330.421	4563
330.509	3622
330.597	5438
330.684	4467
330.772	4573
330.860	4113
330.948	4010
331.036	3767
331.123	3754
331.211	4112
331.299	4181
331.387	3810
331.475	4736
331.562	5296
331.650	3844
331.738	4239
331.825	4994
331.913	3754
332.001	4173
332.089	4017
332.176	4445
332.264	4004
332.352	4486
332.439	4619
332.527	4684
332.614	3879
332.702	4711
332.790	3682
332.877	4493
332.965	4979
333.052	5145
333.140	4807
333.228	6314
333.315	4629
333.403	5068
333.490	5976
333.578	6012
333.665	7822
333.753	7570
333.840	7657
333.928	9058
334.015	9318
334.103	12481
334.190	14956
334.278	23215
334.365	31293
334.452	31230
334.540	21234
334.627	21602
334.715	26875
334.802	37948
334.889	56397
334.977	72539
335.064	49195
335.151	26381
335.239	18649
335.326	15425
335.413	15475
335.501	14849
335.588	16055
335.675	19460
335.762	23450
335.850	32142
335.937	44683
336.024	69434
336.111	101283
336.199	90447
336.286	46189
336.373	27678
336.460	17860
336.547	13935
336.635	12550
336.722	10266
336.809	8940
336.896	8964
336.983	8366
337.070	8788
337.157	7567
337.245	7788
337.332	8933
337.419	9086
337.506	6713
337.593	7773
337.680	7248
337.767	7743
337.854	6032
337.941	6522
338.028	5184
338.115	5840
338.202	6846
338.289	7065
338.376	6416
338.463	5824
338.550	4663
338.637	5368
338.724	5178
338.811	5190
338.898	5613
338.984	4150
339.071	4426
339.158	5474
339.245	4738
339.332	4559
339.419	5244
339.506	5400
339.593	5023
339.679	4666
339.766	4588
339.853	5332
339.940	5006
340.027	4816
340.113	4223
340.200	4475
340.287	3807
340.374	4406
340.460	4783
340.547	2796
340.634	4309
340.720	5579
340.807	4272
340.894	4512
340.980	4167
341.067	4391
341.154	5023
341.240	4893
341.327	4559
341.414	4794
341.500	4157
341.587	5078
341.674	4473
341.760	5659
341.847	4607
341.933	5274
342.020	3872
342.106	4633
342.193	4440
342.279	4819
342.366	4033
342.452	5131
342.539	3486
342.625	4246
342.712	4895
342.798	4983
342.885	4015
342.971	3845
343.058	4328
343.144	4912
343.230	5661
343.317	4693
343.403	4539
343.490	3899
343.576	4126
343.662	4666
343.749	3472
343.835	4961
343.921	5072
344.008	13240
344.094	25709
344.180	7295
344.267	5165
344.353	7223
344.439	6102
344.525	5091
344.612	4319
344.698	4167
344.784	3258
344.870	3886
344.957	3960
345.043	5307
345.129	2899
345.215	4511
345.301	4010
345.387	4130
345.474	3728
345.560	3775
345.646	4044
345.732	4067
345.818	4177
345.904	4132
345.990	3939
346.076	5167
346.162	3418
346.249	4524
346.335	4676
346.421	5568
346.507	5683
346.593	9451
346.679	4240
346.765	6651
346.851	10506
346.937	8297
347.023	5534
347.108	5535
347.194	4282
347.280	5339
347.366	6368
347.452	21609
347.538	29217
347.624	15089
347.710	8445
347.796	5772
347.882	4785
347.967	5412
348.053	4223
348.139	5333
348.225	4412
348.311	4384
348.397	4740
348.482	5987
348.568	6265
348.654	9744
348.740	30394
348.825	33869
348.911	13632
348.997	10185
349.083	11918
349.168	6437
349.254	5270
349.340	5111
349.425	3929
349.511	5309
349.597	5129
349.682	5213
349.768	7357
349.854	5721
349.939	5288
350.025	5326
350.110	4509
350.196	5499
350.282	3834
350.367	5529
350.453	4792
350.538	4380
350.624	4100
350.709	5490
350.795	3949
350.880	4839
350.966	5202
351.051	5317
351.137	4630
351.222	4791
351.308	4389
351.393	5813
351.479	4821
351.564	4476
351.649	4037
351.735	5338
351.820	5034
351.906	4799
351.991	4365
352.076	4709
352.162	6157
352.247	4760
352.332	4596
352.418	4556
352.503	4650
352.588	7910
352.673	5532
352.759	5439
352.844	4543
352.929	4098
353.014	4636
353.100	5833
353.185	7097
353.270	5405
353.355	4803
353.441	4725
353.526	3717
353.611	5141
353.696	4295
353.781	5088
353.866	3468
353.952	5277
354.037	4707
354.122	5601
354.207	4890
354.292	4935
354.377	4291
354.462	4676
354.547	4009
354.632	4931
354.717	6766
354.802	7938
354.887	4964
354.972	5182
355.057	4496
355.142	4213
355.227	4599
355.312	4902
355.397	5147
355.482	6130
355.567	4251
355.652	5909
355.737	5162
355.822	7190
355.907	5932
355.991	5253
356.076	3646
356.161	4856
356.246	5127
356.331	5846
356.416	5571
356.501	14978
356.585	12355
356.670	5761
356.755	6722
356.840	7186
356.924	13211
357.009	30523
357.094	13050
357.179	6436
357.263	4775
357.348	6199
357.433	5322
357.517	5544
357.602	5425
357.687	6005
357.771	6274
357.856	6301
357.941	6195
358.025	10930
358.110	36113
358.195	17392
358.279	5718
358.364	5857
358.448	7006
358.533	10594
358.617	8837
358.702	9869
358.787	6455
358.871	5661
358.956	6775
359.040	6241
359.125	4683
359.209	5829
359.294	6705
359.378	11123
359.462	9803
359.547	6079
359.631	5857
359.716	5212
359.800	4711
359.885	6168
359.969	4387
360.053	5687
360.138	5309
360.222	5282
360.306	5141
360.391	6482
360.475	5813
360.559	6021
360.644	6810
360.728	6994
360.812	10693
360.896	20168
360.981	8447
361.065	7158
361.149	7169
361.233	6740
361.318	5559
361.402	6266
361.486	7563
361.570	7083
361.654	7179
361.739	8865
361.823	15716
361.907	23630
361.991	13086
362.075	14431
362.159	19709
362.243	37973
362.327	85834
362.411	118076
362.495	49459
362.580	25639
362.664	23185
362.748	28396
362.832	42906
362.916	84537
363.000	202380
363.084	256789
363.168	112896
363.252	40859
363.336	24198
363.420	19772
363.503	16420
363.587	14514
363.671	14880
363.755	14413
363.839	17490
363.923	18899
364.007	24054
364.091	33385
364.175	50754
364.258	103613
364.342	227511
364.426	356467
364.510	199812
364.594	71525
364.677	37660
364.761	32626
364.845	23617
364.929	14805
365.013	12204
365.096	11003
365.180	9358
365.264	8794
365.347	8196
365.431	7178
365.515	6517
365.598	6541
365.682	9307
365.766	6841
365.849	7370
365.933	6503
366.017	8682
366.100	7593
366.184	6753
366.267	9109
366.351	7648
366.435	7642
366.518	7506
366.602	8158
366.685	7281
366.769	6819
366.852	7055
366.936	7666
367.019	6838
367.103	6238
367.186	7474
367.270	7384
367.353	7208
367.436	10037
367.520	8632
367.603	10072
367.687	7504
367.770	7814
367.853	9202
367.937	10069
368.020	11409
368.104	7183
368.187	7392
368.270	7465
368.353	6626
368.437	6438
368.520	5828
368.603	6897
368.687	7022
368.770	9645
368.853	5900
368.936	7575
369.020	5973
369.103	5894
369.186	5519
369.269	5109
369.352	6355
369.436	6084
369.519	5824
369.602	4384
369.685	6955
369.768	4297
369.851	5474
369.934	5635
370.018	4526
370.101	4822
370.184	7688
370.267	6944
370.350	5878
370.433	7583
370.516	20215
370.599	56595
370.682	25516
370.765	10983
370.848	8339
370.931	11028
371.014	7013
371.097	4784
371.180	4714
371.263	5875
371.346	4202
371.429	6141
371.511	4654
371.594	5057
371.677	6173
371.760	6994
371.843	5662
371.926	16238
372.009	31890
372.091	13406
372.174	7033
372.257	12639
372.340	6992
372.423	6461
372.505	6762
372.588	6162
372.671	7327
372.754	9992
372.836	6809
372.919	6289
373.002	6137
373.085	5810
373.167	7621
373.250	8149
373.332	12030
373.415	21099
373.498	39233
373.580	25440
373.663	80756
373.746	81661
373.828	16915
373.911	10382
373.993	7068
374.076	8723
374.159	7605
374.241	9128
374.324	11894
374.406	11298
374.489	14641
374.571	30168
374.654	13654
374.736	11708
374.819	19822
374.901	29813
374.983	29891
375.066	12692
375.148	10643
375.231	10178
375.313	10949
375.395	11450
375.478	10256
375.560	11098
375.643	10562
375.725	12266
375.807	23030
375.890	18968
375.972	7616
376.054	9172
376.136	8302
376.219	7203
376.301	11386
376.383	17348
376.465	9767
376.548	7205
376.630	7869
376.712	14073
376.794	8730
376.877	6802
376.959	4275
377.041	6059
377.123	5282
377.205	5383
377.287	5367
377.369	6817
377.452	6083
377.534	6410
377.616	5983
377.698	6076
377.780	4073
377.862	6424
377.944	7151
378.026	4517
378.108	6459
378.190	6576
378.272	6401
378.354	5819
378.436	4574
378.518	5006
378.600	4836
378.682	6649
378.764	7433
378.846	7419
378.928	5293
379.010	5448
379.091	6267
379.173	5919
379.255	4385
379.337	4919
379.419	6119
379.501	10089
379.583	6922
379.664	6055
379.746	5296
379.828	8988
379.910	7838
379.991	9357
380.073	4909
380.155	5852
380.237	4673
380.318	5349
380.400	4894
380.482	6735
380.564	5522
380.645	7381
380.727	7281
380.809	6591
380.890	4481
380.972	4896
381.053	5530
381.135	6402
381.217	4599
381.298	9334
381.380	5764
381.461	6276
381.543	13360
381.624	14874
381.706	6696
381.787	6267
381.869	6058
381.951	10514
382.032	27523
382.113	20084
382.195	5359
382.276	8272
382.358	9720
382.439	14065
382.521	16337
382.602	24731
382.684	13331
382.765	14255
382.846	14200
382.928	22469
383.009	14448
383.090	12572
383.172	32599
383.253	44343
383.334	18833
383.416	21098
383.497	13711
383.578	9867
383.659	12133
383.741	31296
383.822	72071
383.903	35878
383.984	15354
384.066	21167
384.147	14803
384.228	11568
384.309	11812
384.390	13075
384.471	13235
384.553	10788
384.634	9734
384.715	9970
384.796	8198
384.877	8374
384.958	11263
385.039	10185
385.120	8510
385.201	9225
385.282	7609
385.363	10948
385.444	10228
385.525	11847
385.606	16823
385.687	15683
385.768	12097
385.849	11644
385.930	22082
386.011	32268
386.092	15066
386.173	12732
386.254	12080
386.335	12642
386.416	10728
386.496	12419
386.577	13303
386.658	12156
386.739	10840
386.820	13153
386.901	12083
386.981	14488
387.062	15711
387.143	17058
387.224	20678
387.304	23052
387.385	22266
387.466	20719
387.547	23353
387.627	23399
387.708	24538
387.789	26541
387.869	25851
387.950	20696
388.031	16251
388.111	13640
388.192	16245
388.273	16383
388.353	13862
388.434	12614
388.514	12216
388.595	19834
388.676	19112
388.756	14336
388.837	12955
388.917	11239
388.998	7667
389.078	10929
389.159	10199
389.239	8025
389.320	10436
389.400	8565
389.480	10856
389.561	11638
389.641	11759
389.722	10006
389.802	8701
389.883	12443
389.963	14608
390.043	10806
390.124	8661
390.204	10847
390.284	11314
390.365	10232
390.445	10175
390.525	9776
390.605	10506
390.686	10211
390.766	11096
390.846	11274
390.927	10017
391.007	10080
391.087	11850
391.167	11812
391.247	8882
391.328	11934
391.408	11779
391.488	13504
391.568	12232
391.648	13490
391.728	15087
391.808	15537
391.888	15263
391.969	17027
392.049	18385
392.129	19361
392.209	20403
392.289	25176
392.369	24325
392.449	25252
392.529	26757
392.609	32492
392.689	36683
392.769	46636
392.849	54795
392.929	69661
393.009	93717
393.089	136414
393.169	233266
393.248	438402
393.328	645437
393.408	635219
393.488	432610
393.568	226149
393.648	127486
393.728	84076
393.807	59013
393.887	48098
393.967	37637
394.047	32901
394.127	26423
394.206	24857
394.286	22228
394.366	21149
394.446	19672
394.525	18137
394.605	17378
394.685	17192
394.764	20508
394.844	33971
394.924	45610
395.003	22737
395.083	15474
395.163	14953
395.242	13611
395.322	15210
395.402	13050
395.481	17798
395.561	18921
395.640	50734
395.720	101992
395.799	51280
395.879	22320
395.958	19416
396.038	20524
396.117	21608
396.197	24566
396.276	29371
396.356	32228
396.435	42992
396.515	59848
396.594	90633
396.673	174391
396.753	383417
396.832	593366
396.912	499971
396.991	239965
397.070	112764
397.150	67114
397.229	56395
397.308	90008
397.388	155166
397.467	78753
397.546	32049
397.625	20313
397.705	21302
397.784	17221
397.863	15978
397.942	14657
398.022	14253
398.101	12049
398.180	12752
398.259	11110
398.338	12531
398.417	10296
398.497	9947
398.576	10320
398.655	8724
398.734	9669
398.813	9014
398.892	7828
398.971	9248
399.050	7543
399.129	7184
399.208	7693
399.287	8447
399.366	6372
399.445	7513
399.524	6591
399.603	6209
399.682	7134
399.761	7678
399.840	7990
399.919	7209
399.998	6892
400.077	5860
400.156	4815
400.235	8303
400.313	5042
400.392	5082
400.471	7569
400.550	8566
400.629	5085
400.708	6865
400.786	4956
400.865	6072
400.944	4238
401.023	7900
401.102	5273
401.180	5174
401.259	4539
401.338	4599
401.416	4998
401.495	4557
401.574	5572
401.652	3829
401.731	5555
401.810	4486
401.888	4949
401.967	4323
402.046	4015
402.124	5515
402.203	3773
402.281	5102
402.360	4654
402.438	5442
402.517	3519
402.596	5591
402.674	4628
402.753	5036
402.831	4432
402.910	6324
402.988	12114
403.066	35880
403.145	22389
403.223	14636
403.302	31036
403.380	24989
403.459	24777
403.537	12700
403.615	7453
403.694	5780
403.772	6192
403.850	5988
403.929	5253
404.007	5361
404.085	8860
404.164	8349
404.242	5476
404.320	6759
404.398	5971
404.477	7511
404.555	17038
404.633	15374
404.711	6403
404.789	5710
404.868	5762
404.946	4702
405.024	5303
405.102	3456
405.180	4054
405.258	3592
405.336	4877
405.415	3445
405.493	5203
405.571	7099
405.649	3744
405.727	4501
405.805	6581
405.883	7196
405.961	6542
406.039	4589
406.117	3245
406.195	5133
406.273	4846
406.351	12077
406.429	9029
406.507	4288
406.585	4001
406.663	4065
406.740	3870
406.818	3452
406.896	3481
406.974	5245
407.052	2906
407.130	9243
407.208	9968
407.285	5806
407.363	3720
407.441	5088
407.519	4645
407.596	6462
407.674	18398
407.752	70754
407.830	51048
407.907	10445
407.985	5904
408.063	4934
408.141	4365
408.218	4988
408.296	4181
408.373	5768
408.451	6693
408.529	5947
408.606	5265
408.684	6857
408.762	7169
408.839	7294
408.917	7802
408.994	8998
409.072	9384
409.149	13106
409.227	20482
409.304	30034
409.382	33139
409.459	37711
409.537	47167
409.614	44251
409.692	36265
409.769	34446
409.846	48077
409.924	57060
410.001	43754
410.079	32077
410.156	24764
410.233	18680
410.311	15062
410.388	13724
410.465	12669
410.543	10979
410.620	11590
410.697	10785
410.775	10289
410.852	9740
410.929	11381
411.006	12080
411.083	11168
411.161	9805
411.238	8888
411.315	7984
411.392	8661
411.469	8419
411.547	7357
411.624	5759
411.701	6077
411.778	6738
411.855	6199
411.932	6244
412.009	5120
412.086	6506
412.163	5622
412.240	5385
412.317	5343
412.394	4882
412.471	5587
412.548	5268
412.625	4517
412.702	4401
412.779	4513
412.856	4934
412.933	4295
413.010	4836
413.087	4949
413.164	5549
413.241	6168
413.318	3406
413.395	4575
413.471	4423
413.548	4595
413.625	5161
413.702	2775
413.779	4909
413.855	4191
413.932	3527
414.009	2978
414.086	3820
414.162	4063
414.239	4133
414.316	5230
414.393	7220
414.469	4154
414.546	3619
414.623	3669
414.699	4143
414.776	3368
414.853	3244
414.929	3589
415.006	2395
415.082	4219
415.159	4093
415.236	3454
415.312	4560
415.389	3589
415.465	3336
415.542	2633
415.618	2210
415.695	3712
415.771	3599
415.848	3817
415.924	3255
416.000	3485
416.077	5071
416.153	2484
416.230	3469
416.306	2406
416.383	3911
416.459	3954
416.535	3117
416.612	3751
416.688	4117
416.764	3420
416.841	3354
416.917	3122
416.993	4195
417.069	3111
417.146	3462
417.222	2944
417.298	3265
417.374	2893
417.451	4036
417.527	3348
417.603	3617
417.679	4159
417.755	3632
417.831	3356
417.908	4270
417.984	4412
418.060	2825
418.136	4258
418.212	3697
418.288	4539
418.364	4485
418.440	3296
418.516	5197
418.592	4104
418.668	4211
418.744	4300
418.820	5732
418.896	4838
418.972	3682
419.048	4106
419.124	5904
419.200	3548
419.276	5378
419.352	4248
419.428	5190
419.504	4646
419.579	5289
419.655	5435
419.731	5407
419.807	6167
419.883	6173
419.959	6459
420.034	7443
420.110	7172
420.186	8460
420.262	9432
420.337	7595
420.413	7600
420.489	9238
420.565	10016
420.640	9900
420.716	10963
420.792	9914
420.867	12267
420.943	11880
421.019	13949
421.094	12908
421.170	14729
421.245	16945
421.321	17370
421.397	20853
421.472	32757
421.548	65110
421.623	45701
421.699	32462
421.774	34070
421.850	36211
421.925	44386
422.001	51761
422.076	62475
422.152	77890
422.227	99980
422.302	133838
422.378	180614
422.453	255248
422.529	328004
422.604	292029
422.679	190100
422.755	287509
422.830	336146
422.905	262836
422.981	190743
423.056	144232
423.131	108935
423.207	84824
423.282	68647
423.357	57661
423.432	46931
423.508	43856
423.583	36173
423.658	31679
423.733	28777
423.808	27042
423.883	26446
423.959	28239
424.034	31707
424.109	30078
424.184	20443
424.259	18049
424.334	15667
424.409	15053
424.484	12762
424.559	12368
424.634	11731
424.709	10934
424.784	10996
424.859	9761
424.934	8686
425.009	9862
425.084	10384
425.159	8321
425.234	8315
425.309	8424
425.384	8168
425.459	6697
425.534	7146
425.609	7168
425.683	6960
425.758	7186
425.833	5377
425.908	7502
425.983	6338
426.058	8426
426.132	6560
426.207	5761
426.282	6091
426.357	5328
426.431	4985
426.506	6236
426.581	5363
426.655	5674
426.730	5110
426.805	4349
426.879	5952
426.954	4906
427.029	4834
427.103	7068
427.178	9979
427.253	7280
427.327	5172
427.402	4152
427.476	4046
427.551	4374
427.625	4487
427.700	4839
427.774	4819
427.849	5595
427.923	5786
427.998	5806
428.072	7883
428.147	16823
428.221	59316
428.296	161263
428.370	92649
428.444	20002
428.519	8583
428.593	8010
428.667	7940
428.742	10436
428.816	24754
428.890	101670
428.965	147405
429.039	45007
429.113	11485
429.188	6980
429.262	5902
429.336	6557
429.410	6684
429.485	6132
429.559	5988
429.633	7809
429.707	9983
429.781	23687
429.855	95851
429.930	134662
430.004	43573
430.078	29204
430.152	75545
430.226	213369
430.300	205729
430.374	62429
430.448	21989
430.522	14612
430.596	13846
430.670	36893
430.744	127384
430.818	133175
430.892	31818
430.966	9622
431.040	6807
431.114	4724
431.188	4268
431.262	3991
431.336	4122
431.410	5401
431.484	5105
431.557	6255
431.631	6591
431.705	13041
431.779	50092
431.853	155504
431.927	108984
432.000	23444
432.074	7279
432.148	4825
432.222	3538
432.295	3478
432.369	2835
432.443	2879
432.516	4512
432.590	8488
432.664	4133
432.737	1998
432.811	1831
432.885	2302
432.958	2551
433.032	1927
433.106	2171
433.179	2817
433.253	1541
433.326	1890
433.400	2314
433.473	2603
433.547	2052
433.620	2698
433.694	1770
433.767	2777
433.841	2205
433.914	3069
433.988	3243
434.061	2751
434.134	3663
434.208	2707
434.281	1829
434.355	2286
434.428	2548
434.501	2813
434.575	2358
434.648	2614
434.721	3080
434.795	3040
434.868	2945
434.941	3955
435.014	2810
435.088	3768
435.161	4835
435.234	6184
435.307	6804
435.381	9521
435.454	14364
435.527	23253
435.600	26463
435.673	23022
435.746	18615
435.819	13744
435.892	10931
435.966	9049
436.039	6742
436.112	6994
436.185	5449
436.258	4902
436.331	4046
436.404	4020
436.477	3532
436.550	4541
436.623	3395
436.696	2755
436.769	3017
436.842	3120
436.915	3023
436.987	3486
437.060	1823
437.133	2395
437.206	2165
437.279	2644
437.352	2063
437.425	2481
437.498	2632
437.570	2582
437.643	1949
437.716	2003
437.789	917
437.861	2742
437.934	2543
438.007	2093
438.080	1983
438.152	2439
438.225	3082
438.298	6389
438.370	15143
438.443	7353
438.516	2795
438.588	2549
438.661	2256
438.734	2868
438.806	2058
438.879	3023
438.951	1991
439.024	2574
439.096	2531
439.169	2955
439.241	1881
439.314	3073
439.386	1766
439.459	3925
439.531	2109
439.604	2042
439.676	2764
439.749	1824
439.821	2032
439.893	3016
439.966	3183
440.038	2435
440.110	2243
440.183	2622
440.255	2282
440.327	3665
440.400	3132
440.472	7989
440.544	5752
440.617	3464
440.689	4451
440.761	3460
440.833	3226
440.905	3208
440.978	2340
441.050	2884
441.122	3567
441.194	3492
441.266	2588
441.338	3037
441.411	3685
441.483	5236
441.555	5200
441.627	4955
441.699	4350
441.771	4195
441.843	4846
441.915	5288
441.987	4751
442.059	6467
442.131	7626
442.203	9556
442.275	11483
442.347	20072
442.419	43893
442.491	152059
442.563	272103
442.635	136290
442.706	41162
442.778	20448
442.850	14113
442.922	12778
442.994	12696
443.066	13588
443.137	16890
443.209	22932
443.281	36051
443.353	69987
443.425	180030
443.496	378824
443.568	391587
443.640	202789
443.711	71843
443.783	34127
443.855	21283
443.926	15080
443.998	12180
444.070	10752
444.141	9016
444.213	8981
444.285	8384
444.356	8407
444.428	8002
444.499	7878
444.571	8513
444.642	9135
444.714	8943
444.785	9986
444.857	10012
444.928	12915
445.000	14379
445.071	19239
445.143	25315
445.214	37539
445.285	60334
445.357	129464
445.428	301037
445.500	427863
445.571	394628
445.642	291271
445.714	133503
445.785	55463
445.856	29649
445.928	20899
445.999	14810
446.070	11844
446.141	10113
446.213	9011
446.284	7022
446.355	6213
446.426	6310
446.497	5844
446.569	4636
446.640	5107
446.711	4913
446.782	4454
446.853	4206
446.924	3123
446.995	2551
447.066	3097
447.138	2817
447.209	3390
447.280	2499
447.351	2735
447.422	2095
447.493	2850
447.564	1716
447.635	2199
447.706	2019
447.777	2523
447.847	1805
447.918	1984
447.989	1648
448.060	2180
448.131	1618
448.202	2199
448.273	2056
448.344	2260
448.414	1986
448.485	2030
448.556	1430
448.627	2225
448.698	2857
448.768	2197
448.839	1437
448.910	1808
448.981	1786
449.051	2065
449.122	1056
449.193	2402
449.263	1810
449.334	2205
449.405	1351
449.475	1879
449.546	2728
449.616	2861
449.687	3183
449.758	1831
449.828	2415
449.899	1858
449.969	1760
450.040	2006
450.110	1419
450.181	2621
450.251	1958
450.322	1603
450.392	1393
450.463	2777
450.533	1550
450.604	2504
450.674	3447
450.744	3960
450.815	3146
450.885	4703
450.955	6026
451.026	4755
451.096	3910
451.166	4740
451.237	5621
451.307	6921
451.377	5451
451.447	4827
451.518	3330
451.588	3415
451.658	3008
451.728	2751
451.799	2061
451.869	2750
451.939	2047
452.009	2547
452.079	2526
452.149	3577
452.219	2653
452.289	3654
452.360	3969
452.430	5948
452.500	7275
452.570	13235
452.640	27136
452.710	62170
452.780	75153
452.850	47841
452.920	25342
452.990	16966
453.060	10132
453.129	6752
453.199	5530
453.269	5623
453.339	4634
453.409	3682
453.479	3737
453.549	2896
453.619	2699
453.688	2174
453.758	2771
453.828	2396
453.898	1817
453.968	2319
454.037	2270
454.087	2575
454.107	2669
454.168	1600
454.177	1408
454.247	2604
454.249	2616
454.316	2051
454.330	2013
454.386	1729
454.411	1722
454.456	1553
454.492	2032
454.525	2417
454.574	2482
454.595	2480
454.655	2649
454.665	2624
454.734	3433
454.736	3506
454.804	4659
454.817	4298
454.873	2602
454.898	2649
454.943	2605
454.979	2642
455.013	2650
455.060	3137
455.082	3276
455.141	2951
455.152	2848
455.221	2809
455.222	2847
455.291	2623
455.303	2672
455.360	2732
455.384	3137
455.430	3680
455.465	3925
455.499	4038
455.546	3688
455.569	3544
455.627	4056
455.638	4093
455.707	3260
455.708	3303
455.777	3879
455.789	3856
455.846	3600
455.869	3879
455.916	4215
455.950	4048
455.985	3788
456.031	4271
456.054	4497
456.112	4673
456.124	4700
456.193	4941
456.193	4896
456.262	4311
456.274	4557
456.332	5591
456.355	5465
456.401	5151
456.436	5163
456.470	5074
456.516	5639
456.540	5882
456.597	5901
456.609	5863
456.678	6857
456.678	6817
456.747	6918
456.759	6813
456.817	5960
456.840	6349
456.886	7008
456.920	6961
456.955	7012
457.001	7815
457.024	7919
457.082	7720
457.093	7708
457.162	8033
457.163	8082
457.232	8238
457.243	8380
457.301	9270
457.324	9553
457.370	10006
457.405	11117
457.439	12322
457.485	13056
457.508	13506
457.566	16149
457.577	17164
457.646	24060
457.647	24245
457.715	50791
457.727	57072
457.784	102036
457.808	131963
457.853	168271
457.889	198453
457.922	195990
457.969	144432
457.991	145734
458.050	159153
458.060	164169
458.129	261994
458.130	265136
458.198	272478
458.211	255624
458.267	166809
458.292	122900
458.336	86275
458.372	76065
458.405	89203
458.453	120438
458.474	148282
458.533	252890
458.543	261166
458.611	388253
458.614	390993
458.680	276555
458.694	234750
458.749	132566
458.775	96146
458.818	60773
458.855	46057
458.887	37576
458.936	30190
458.955	27584
459.016	21869
459.024	21340
459.093	19256
459.097	19156
459.162	16510
459.177	16320
459.230	16275
459.257	16106
459.299	15379
459.338	14678
459.368	14298
459.418	13892
459.437	13736
459.499	13434
459.505	13378
459.574	13332
459.579	13337
459.643	12996
459.659	12828
459.711	12327
459.740	12483
459.780	12741
459.820	12969
459.849	13138
459.900	12976
459.917	12905
459.981	13660
459.986	13640
460.054	12711
460.061	12688
460.123	12782
460.141	12889
460.191	13388
460.222	13300
460.260	13169
460.302	13451
460.328	13639
460.382	14271
460.397	14773
460.462	17093
460.465	17504
460.534	27345
460.543	28706
460.602	69777
460.623	85937
460.671	129885
460.703	168918
460.739	153773
460.783	123734
460.808	105257
460.864	33659
460.876	28079
460.944	16194
460.945	16070
461.013	14515
461.024	14321
461.081	12776
461.104	12436
461.150	12953
461.184	13001
461.218	12863
461.264	13347
461.286	13303
461.345	12689
461.355	12566
461.423	12106
461.425	12079
461.491	11629
461.505	11774
461.559	12099
461.585	11802
461.628	11907
461.665	12660
461.696	12491
461.745	11763
461.764	11903
461.825	12492
461.832	12542
461.901	13051
461.905	13096
461.969	12759
461.985	12580
462.037	12780
462.065	13171
462.105	13256
462.145	12862
462.173	12728
462.225	12735
462.241	12819
462.305	13309
462.310	13366
462.378	14290
462.385	14350
462.446	14104
462.465	14136
462.514	14286
462.545	14195
462.582	13684
462.625	13171
462.650	13047
462.705	12733
462.718	12871
462.785	13511
462.786	13503
462.854	12609
462.865	12478
462.922	12346
462.945	12287
462.990	12675
463.025	13012
463.058	13252
463.104	13676
463.126	13646
463.184	13502
463.194	13541
463.262	13022
463.264	13024
463.330	13858
463.344	13961
463.398	14326
463.424	14442
463.466	13419
463.504	12603
463.533	13196
463.583	13946
463.601	13736
463.663	13137
463.669	13180
463.737	13617
463.743	13623
463.805	13994
463.823	14164
463.873	13738
463.903	13482
463.940	13950
463.982	14163
464.008	13738
464.062	13064
464.076	13271
464.142	14102
464.144	14098
464.211	13284
464.221	13186
464.279	13732
464.301	13861
464.347	13926
464.381	13893
464.414	13481
464.461	13007
464.482	13372
464.540	14307
464.550	14217
464.617	13235
464.620	13201
464.685	14166
464.699	14223
464.753	13972
464.779	13973
464.820	13892
464.859	13752
464.888	13734
464.938	13716
464.956	14037
465.018	14818
465.023	14877
465.091	15533
465.098	15588
465.158	14597
465.177	14257
465.226	14390
465.257	14398
465.293	14864
465.336	15400
465.361	15354
465.416	15084
465.428	15044
465.495	14793
465.496	14811
465.563	13928
465.575	13780
465.631	14444
465.654	14647
465.698	14937
465.734	15165
465.765	15373
465.813	15538
465.833	15450
465.893	15307
465.900	15355
465.968	15241
465.972	15226
466.035	15034
466.052	14894
466.102	14860
466.131	14860
466.170	15017
466.210	15094
466.237	15313
466.290	15722
466.304	15752
466.369	15566
466.372	15590
466.439	15678
466.449	15640
466.506	15088
466.528	14832
466.573	15359
466.607	15761
466.641	16008
466.687	16261
466.708	16492
466.766	16996
466.775	17079
466.842	17475
466.845	17461
466.909	16697
466.925	16481
466.977	16675
467.004	16730
467.044	17272
467.083	17747
467.111	17647
467.163	17365
467.178	17503
467.242	17908
467.245	17913
467.312	17347
467.321	17240
467.379	17658
467.400	17758
467.446	18930
467.480	19715
467.559	20450
467.638	19276
467.717	20126
467.796	22042
467.875	23434
467.955	24177
468.034	26806
468.113	30007
468.192	36445
468.271	45924
468.350	61315
468.429	81906
468.508	84900
468.588	56461
468.667	37537
468.746	28507
468.825	25574
468.904	23630
468.983	21660
469.062	21798
469.141	20373
469.220	19274
469.299	19539
469.378	17491
469.456	18936
469.535	18644
469.614	18815
469.693	18145
469.772	18953
469.851	18969
469.930	18461
470.009	18296
470.088	19487
470.166	19643
470.245	20835
470.324	19716
470.403	19450
470.482	19373
470.560	18928
470.639	18319
470.718	18818
470.797	18578
470.875	18848
470.954	17778
471.033	17912
471.111	17466
471.190	17651
471.269	17697
471.347	18519
471.426	17499
471.505	17312
471.583	17952
471.662	17709
471.740	18083
471.819	18295
471.898	18068
471.976	17996
472.055	17367
472.133	21910
472.212	26178
472.290	19911
472.369	17635
472.447	17190
472.526	17472
472.604	18464
472.683	19486
472.761	18029
472.839	18800
472.918	19354
472.996	19173
473.075	19270
473.153	18644
473.231	18148
473.310	18977
473.388	19309
473.466	19819
473.545	20038
473.623	19817
473.701	21104
473.780	21716
473.858	18391
473.936	21018
474.014	19487
474.093	22277
474.171	26449
474.249	21869
474.327	20164
474.405	19428
474.484	20306
474.562	19414
474.640	19433
474.718	18822
474.796	18785
474.874	19158
474.952	18566
475.030	17929
475.108	18822
475.187	18703
475.265	20576
475.343	23950
475.421	24192
475.499	18876
475.577	18987
475.655	19434
475.733	18708
475.811	18224
475.889	18526
475.966	18020
476.044	18288
476.122	20183
476.200	22746
476.278	20078
476.356	17756
476.434	18110
476.512	20152
476.590	21975
476.667	20821
476.745	17634
476.823	18419
476.901	18025
476.979	17342
477.056	18126
477.134	17356
477.212	17552
477.290	17302
477.367	16618
477.445	17879
477.523	16269
477.601	16989
477.678	16948
477.756	17999
477.834	17801
477.911	17329
477.989	17136
478.066	18626
478.144	18268
478.222	20077
478.299	26459
478.377	28978
478.454	22942
478.532	18591
478.609	16334
478.687	17873
478.764	16807
478.842	17780
478.919	17066
478.997	18181
479.074	16640
479.152	18174
479.229	17785
479.307	17676
479.384	17887
479.461	17665
479.539	17440
479.616	17852
479.694	17991
479.771	18138
479.848	17427
479.926	15966
480.003	18391
480.080	18607
480.157	18643
480.235	18461
480.312	18594
480.389	18072
480.467	19160
480.544	20431
480.621	20925
480.698	21835
480.775	20028
480.853	19913
480.930	18978
481.007	20519
481.084	28481
481.161	44415
481.238	29314
481.315	18926
481.392	18828
481.470	20687
481.547	19755
481.624	19856
481.701	20539
481.778	20809
481.855	21581
481.932	23551
482.009	23971
482.086	26330
482.163	28661
482.240	34034
482.317	40443
482.393	34362
482.470	26565
482.547	26485
482.624	24897
482.701	24946
482.778	23402
482.855	23842
482.932	24653
483.009	26516
483.085	32837
483.162	43654
483.239	41551
483.316	33329
483.393	32272
483.469	28387
483.546	26703
483.623	25777
483.699	23562
483.776	22030
483.853	20780
483.930	21418
484.006	21341
484.083	21948
484.160	21503
484.236	22241
484.313	22323
484.389	26580
484.466	29793
484.543	35526
484.619	42647
484.696	46441
484.772	32725
484.849	25512
484.925	22063
485.002	22387
485.078	19756
485.155	19721
485.231	19300
485.308	17766
485.384	19075
485.461	19966
485.537	18239
485.614	19121
485.690	17081
485.766	17903
485.843	17381
485.919	17063
485.995	17761
486.072	18382
486.148	17576
486.224	17768
486.301	17795
486.377	18321
486.453	17795
486.530	19262
486.606	19668
486.682	20417
486.758	20952
486.835	23283
486.911	23199
486.987	25597
487.063	26066
487.139	35853
487.215	48387
487.292	48451
487.368	48649
487.444	62733
487.520	88706
487.596	141961
487.672	280292
487.748	774052
487.824	1143945
487.900	528484
487.976	174729
488.052	90816
488.128	59451
488.204	44550
488.280	38251
488.356	31263
488.432	28720
488.508	26034
488.584	24576
488.660	23790
488.736	22791
488.812	20237
488.888	20916
488.964	20274
489.039	20768
489.115	23215
489.191	24729
489.267	21049
489.343	18221
489.418	18011
489.494	17662
489.570	17371
489.646	18665
489.722	18044
489.797	18097
489.873	19140
489.949	18715
490.024	18763
490.100	18648
490.176	18146
490.251	18375
490.327	19175
490.403	17797
490.478	17624
490.554	17424
490.629	17478
490.705	17021
490.781	17720
490.856	16573
490.932	16122
491.007	17074
491.083	16169
491.158	16193
491.234	15319
491.309	15186
491.385	15441
491.460	14908
491.536	16398
491.611	15749
491.686	15637
491.762	15826
491.837	16684
491.913	17488
491.988	18032
492.063	19185
492.139	15310
492.214	14799
492.289	14298
492.365	14501
492.440	14651
492.515	13819
492.590	13870
492.666	13748
492.741	14343
492.816	14073
492.891	14162
492.967	15325
493.042	15623
493.117	13037
493.192	15295
493.267	15836
493.342	16030
493.418	15824
493.493	13510
493.568	13913
493.643	13951
493.718	14189
493.793	13149
493.868	13537
493.943	14668
494.018	13629
494.093	13447
494.168	14055
494.243	12940
494.318	13829
494.393	14601
494.468	12599
494.543	13261
494.618	12780
494.693	13029
494.768	14249
494.842	13061
494.917	13151
494.992	13714
495.067	12481
495.142	13749
495.217	13665
495.292	13058
495.366	12609
495.441	12753
495.516	14852
495.591	14018
495.665	16968
495.740	23245
495.815	17041
495.890	13398
495.964	12782
496.039	16911
496.114	21009
496.188	37405
496.263	27447
496.338	14465
496.412	12284
496.487	14278
496.561	12652
496.636	13176
496.710	14682
496.785	16287
496.860	14261
496.934	12482
497.009	13348
497.083	12211
497.158	11788
497.232	13686
497.307	12245
497.381	12788
497.455	12577
497.530	13475
497.604	11875
497.679	12711
497.753	12463
497.827	12060
497.902	11612
497.976	11899
498.050	12475
498.125	12724
498.199	13519
498.273	12345
498.348	12412
498.422	12988
498.496	12231
498.570	13285
498.645	12625
498.719	10675
498.793	12708
498.867	12687
498.941	12186
499.016	12011
499.090	12597
499.164	13609
499.238	13857
499.312	13961
499.386	12266
499.460	13926
499.534	13899
499.609	13055
499.683	13223
499.757	14315
499.831	12264
499.905	12469
499.979	12990
500.053	12686
500.127	12700
500.201	12768
500.275	13575
500.349	13117
500.422	12957
500.496	14179
500.570	14503
500.644	14610
500.718	13480
500.792	13526
500.866	13736
500.940	14571
501.013	14673
501.087	14200
501.161	15100
501.235	13112
501.309	16069
501.382	14019
501.456	14865
501.530	14619
501.603	12417
501.677	13161
501.751	11687
501.825	15297
501.898	13815
501.972	13762
502.046	12311
502.119	12991
502.193	12832
502.266	12696
502.340	13235
502.413	13848
502.487	13466
502.561	13220
502.634	14653
502.708	14749
502.781	14491
502.855	15214
502.928	13651
503.002	14994
503.075	13353
503.149	14271
503.222	15888
503.295	15903
503.369	17284
503.442	20193
503.516	21654
503.589	25390
503.662	30010
503.736	36563
503.809	46264
503.882	61830
503.956	92556
504.029	182955
504.102	468914
504.175	684642
504.249	317307
504.322	128368
504.395	72211
504.468	48128
504.542	33932
504.615	27754
504.688	23171
504.761	19817
504.834	21486
504.907	18331
504.980	16669
505.053	15428
505.127	12725
505.200	16535
505.273	12137
505.346	13200
505.419	12066
505.492	13983
505.565	11991
505.638	12184
505.711	11298
505.784	10951
505.857	11354
505.930	12273
506.003	9579
506.076	12730
506.149	10570
506.221	9508
506.294	12433
506.367	9264
506.440	10392
506.513	10435
506.586	10206
506.659	9627
506.731	10468
506.804	9775
506.877	9203
506.950	10490
507.022	10343
507.095	8271
507.168	10239
507.241	10769
507.313	8615
507.386	9367
507.459	11116
507.531	9642
507.604	9224
507.677	10129
507.749	8781
507.822	11342
507.894	9413
507.967	10675
508.040	8450
508.112	10467
508.185	9598
508.257	9204
508.330	10253
508.402	8872
508.475	9208
508.547	9067
508.620	9490
508.692	10335
508.765	10191
508.837	8829
508.909	10268
508.982	9871
509.054	10019
509.127	9776
509.199	8497
509.271	8900
509.344	8659
509.416	9881
509.488	9144
509.560	10061
509.633	9710
509.705	8491
509.777	9173
509.849	10193
509.922	7542
509.994	8603
510.066	9936
510.138	7311
510.210	10022
510.283	8786
510.355	9194
510.427	9756
510.499	10007
510.571	9541
510.643	7548
510.715	10245
510.787	7936
510.859	10108
510.931	9511
511.003	10297
511.076	10662
511.148	9053
511.219	7981
511.291	9828
511.363	9312
511.435	8672
511.507	8387
511.579	9823
511.651	10181
511.723	9246
511.795	9143
511.867	9683
511.939	8823
512.010	8243
512.082	9361
512.154	8380
512.226	9698
512.298	9901
512.369	9413
512.441	10509
512.513	10420
512.585	8548
512.656	9674
512.728	8289
512.800	9384
512.871	9271
512.943	9443
513.015	8328
513.086	9725
513.158	9346
513.230	8643
513.301	9550
513.373	10154
513.444	9691
513.516	9037
513.588	9351
513.659	9320
513.731	9854
513.802	8041
513.874	10641
513.945	9823
514.016	9468
514.088	9937
514.159	9396
514.231	9607
514.302	9256
514.374	9944
514.445	7720
514.516	11122
514.588	9441
514.659	8920
514.730	9418
514.802	10149
514.873	7692
514.944	11544
515.016	9997
515.087	9751
515.158	9240
515.229	10369
515.301	9094
515.372	10466
515.443	8476
515.514	9579
515.585	9900
515.656	11500
515.728	11708
515.799	8681
515.870	10284
515.941	11000
516.012	8474
516.083	11802
516.154	9212
516.225	10424
516.296	12237
516.367	11012
516.438	11053
516.509	11084
516.580	13111
516.651	19987
516.722	42319
516.793	23340
516.864	13130
516.935	12694
517.006	13746
517.077	13685
517.148	20765
517.219	56488
517.289	82350
517.360	18767
517.431	14395
517.502	12510
517.573	13844
517.643	13284
517.714	13291
517.785	14360
517.856	15040
517.926	18220
517.997	20166
518.068	21161
518.138	27626
518.209	30486
518.280	60630
518.350	160103
518.421	88542
518.492	62247
518.562	79073
518.633	108415
518.703	171596
518.774	359840
518.845	790324
518.915	732964
518.986	258526
519.056	114378
519.127	69286
519.197	49905
519.268	36654
519.338	29646
519.408	24319
519.479	22299
519.549	18799
519.620	19453
519.690	16903
519.760	15454
519.831	14912
519.901	13135
519.971	14461
520.042	12755
520.112	11421
520.182	12839
520.253	13080
520.323	10751
520.393	10500
520.463	13200
520.534	9325
520.604	12952
520.674	12495
520.744	10853
520.814	9969
520.885	11362
520.955	10575
521.025	9965
521.095	10470
521.165	11740
521.235	10109
521.305	9913
521.375	11354
521.445	11042
521.515	10906
521.585	12543
521.655	9981
521.725	12176
521.795	12128
521.865	9662
521.935	13098
522.005	10232
522.075	10867
522.145	11880
522.215	12870
522.285	12452
522.355	11702
522.424	12409
522.494	13101
522.564	13768
522.634	12349
522.704	16645
522.774	12749
522.843	12487
522.913	13797
522.983	12307
523.053	11244
523.122	13097
523.192	11894
523.262	13108
523.331	12750
523.401	12893
523.471	12753
523.540	12668
523.610	12142
523.680	13226
523.749	14323
523.819	17177
523.888	17535
523.958	13869
524.027	13356
524.097	13574
524.166	13657
524.236	13408
524.305	14784
524.375	13390
524.444	12317
524.514	15946
524.583	14392
524.653	12998
524.722	14424
524.791	12950
524.861	16800
524.930	15331
524.999	16206
525.069	17286
525.138	17276
525.207	16583
525.277	19354
525.346	19903
525.415	23464
525.484	25770
525.554	29870
525.623	36983
525.692	49687
525.761	54932
525.830	65437
525.900	86735
525.969	138838
526.038	270228
526.107	483835
526.176	1169079
526.245	946008
526.314	345384
526.383	652689
526.452	857532
526.522	1012048
526.591	935687
526.660	236224
526.729	136819
526.797	141249
526.867	197849
526.935	482500
527.004	1265461
527.073	931540
527.142	215875
527.211	94472
527.280	60976
527.349	46063
527.418	35102
527.487	31193
527.555	26075
527.624	23967
527.693	20899
527.762	22364
527.831	19315
527.899	21053
527.968	18582
528.037	17284
528.106	18691
528.174	17570
528.243	16472
528.312	16566
528.380	15159
528.449	14852
528.518	17217
528.586	15028
528.655	16115
528.723	15203
528.792	15086
528.861	15795
528.929	13316
528.998	16194
529.066	14728
529.135	14324
529.203	13032
529.272	13088
529.340	14290
529.409	15437
529.477	12626
529.545	13086
529.614	16344
529.682	12361
529.751	14052
529.819	17210
529.887	14313
529.956	13681
530.024	15339
530.092	13562
530.161	14979
530.229	15415
530.297	14136
530.365	16305
530.434	15627
530.502	14103
530.570	14473
530.638	13255
530.707	15240
530.775	16357
530.843	13948
530.911	15098
530.979	15256
531.047	14419
531.115	15629
531.183	14428
531.252	15616
531.320	15321
531.388	14650
531.456	17022
531.524	14447
531.592	16716
531.660	17642
531.728	15707
531.796	15640
531.864	16653
531.932	15750
532.000	15886
532.067	15818
532.135	17641
532.203	18901
532.271	19021
532.339	21945
532.407	22335
532.475	21335
532.542	20980
532.610	20241
532.678	18971
532.746	24951
532.814	30885
532.881	22418
532.949	22109
533.017	21552
533.084	20095
533.152	17860
533.220	17885
533.287	18956
533.355	19530
533.423	19517
533.490	20313
533.558	21375
533.625	23358
533.693	20793
533.761	21452
533.828	22602
533.896	21301
533.963	24490
534.031	24882
534.098	32998
534.166	37187
534.233	35349
534.300	40535
534.368	39895
534.435	38389
534.503	41369
534.570	46940
534.637	52817
534.705	59372
534.772	71785
534.840	135533
534.907	514684
534.974	621298
535.041	110341
535.109	53916
535.176	43394
535.243	40304
535.310	37918
535.378	36069
535.445	36188
535.512	39137
535.579	36331
535.646	35374
535.714	37703
535.781	39120
535.848	39878
535.915	38469
535.982	35418
536.049	36494
536.116	37992
536.183	35796
536.250	34779
536.317	36113
536.384	39372
536.451	39320
536.518	39744
536.585	37967
536.652	41600
536.719	40680
536.786	38662
536.853	37858
536.920	39478
536.987	40064
537.053	37878
537.120	45327
537.187	45400
537.254	43524
537.321	43208
537.388	44387
537.454	42198
537.521	42445
537.588	42275
537.654	43269
537.721	46063
537.788	47442
537.855	44558
537.921	44274
537.988	41765
538.055	40628
538.121	37448
538.188	37617
538.254	36967
538.321	37471
538.388	40814
538.454	47477
538.521	47670
538.587	46938
538.654	44238
538.720	44101
538.787	44575
538.853	44384
538.920	41514
538.986	37894
539.053	37696
539.119	41388
539.185	41202
539.252	44976
539.318	45171
539.385	50748
539.451	45633
539.517	44989
539.583	44424
539.650	45071
539.716	44705
539.782	40820
539.849	41713
539.915	42419
539.981	42795
540.047	41491
540.114	41277
540.180	44644
540.246	46063
540.312	49917
540.378	46325
540.444	45820
540.510	48134
540.576	49553
540.643	43306
540.709	43073
540.775	44901
540.841	41805
540.907	41047
540.973	43357
541.039	42446
541.105	44131
541.171	46694
541.237	48591
541.303	47116
541.369	48355
541.435	46323
541.500	44269
541.566	41078
541.632	41082
541.698	43494
541.764	46465
541.830	43907
541.896	44068
541.961	44109
542.027	43861
542.093	46990
542.159	49000
542.224	43108
542.290	46622
542.356	42656
542.421	43549
542.487	41597
542.553	40515
542.618	41831
542.684	42636
542.750	44353
542.815	44450
542.881	44358
542.947	48194
543.012	48011
543.078	43240
543.143	41315
543.209	43056
543.274	42541
543.340	43481
543.405	44696
543.471	46617
543.536	45358
543.602	44698
543.667	43679
543.732	46663
543.798	46076
543.863	47420
543.928	46083
543.994	45670
544.059	48674
544.124	47660
544.190	48436
544.255	49966
544.320	49928
544.386	49886
544.451	52043
544.516	49409
544.581	49607
544.646	51670
544.712	53677
544.777	51179
544.842	51406
544.907	52393
544.972	52083
545.037	55121
545.102	55576
545.168	56596
545.233	57864
545.298	56848
545.363	57144
545.428	60161
545.493	61836
545.558	62660
545.623	61532
545.688	60913
545.753	63982
545.818	65147
545.883	70017
545.947	71268
546.012	74855
546.077	75612
546.142	80442
546.207	82891
546.272	86592
546.337	88347
546.401	91612
546.466	96780
546.531	98113
546.596	108444
546.661	111841
546.725	118125
546.790	124256
546.855	135504
546.919	148042
546.984	165597
547.049	178581
547.113	200546
547.178	221214
547.243	246472
547.307	286364
547.372	313073
547.436	313390
547.501	331528
547.565	349998
547.630	323173
547.695	314846
547.759	313924
547.823	317597
547.888	325445
547.952	332762
548.017	348769
548.081	361177
548.146	352461
548.210	359580
548.274	387074
548.339	374569
548.403	345974
548.468	327817
548.532	323947
548.596	333095
548.660	333438
548.725	359264
548.789	387938
548.853	375060
548.917	362919
548.982	351327
549.046	319140
549.110	291766
549.174	301401
549.238	351786
549.303	380298
549.367	386864
549.431	370313
549.495	348460
549.559	348804
549.623	397343
549.687	431840
549.751	420400
549.815	495645
549.879	500329
549.943	484581
550.007	505809
550.071	501038
550.135	452547
550.199	435596
550.263	428894
550.327	407334
550.391	419057
550.455	461593
550.519	479213
550.582	503351
550.646	561256
550.710	567993
550.774	561389
550.838	569886
550.901	583436
550.965	615293
551.029	637196
551.093	673929
551.156	721806
551.220	765103
551.284	793587
551.347	675908
551.411	602068
551.475	581382
551.538	595704
551.602	566180
551.666	536780
551.729	511510
551.793	500253
551.856	492278
551.920	484265
551.983	485827
552.047	480305
552.110	482641
552.174	487290
552.237	497723
552.301	464489
552.364	447945
552.428	435402
552.491	450922
552.554	453357
552.618	450916
552.681	462410
552.745	443475
552.808	452311
552.871	469816
552.934	463678
552.998	453787
553.061	446050
553.124	431059
553.187	427415
553.251	440851
553.314	440431
553.377	444539
553.440	465455
553.503	477265
553.567	474367
553.630	473913
553.693	472484
553.756	473356
553.819	464339
553.882	452322
553.945	452394
554.008	454401
554.071	458996
554.134	458357
554.197	436341
554.260	428685
554.323	436059
554.386	440843
554.449	454320
554.512	455760
554.575	435960
554.638	433124
554.701	433428
554.764	427359
554.827	414178
554.889	404579
554.952	382008
555.015	374095
555.078	378067
555.141	385914
555.203	378366
555.266	375565
555.329	371786
555.391	359507
555.454	355538
555.517	340804
555.580	330774
555.642	323254
555.705	317898
555.768	315091
555.830	306229
555.893	292652
555.955	283461
556.018	279281
556.080	281884
556.143	287294
556.206	283256
556.268	274208
556.330	271919
556.393	263272
556.455	258316
556.518	251119
556.580	243655
556.643	235831
556.705	233498
556.767	227336
556.830	224995
556.892	220537
556.955	217253
557.017	210049
557.079	209740
557.142	203066
557.204	203465
557.266	197759
557.328	186312
557.391	177011
557.453	174548
557.515	173696
557.577	173877
557.639	174103
557.701	174561
557.764	173293
557.826	174822
557.888	177399
557.950	181945
558.012	193940
558.074	231541
558.136	407988
558.198	792420
558.260	361286
558.322	189195
558.384	182817
558.446	187101
558.508	196926
558.570	212180
558.632	239360
558.694	291894
558.756	437229
558.818	919567
558.880	1468761
558.942	905072
559.003	869882
559.065	479015
559.127	234071
559.189	215883
559.251	229143
559.312	301902
559.374	572423
559.436	1199202
559.498	765324
559.559	270776
559.621	217192
559.683	231795
559.744	333942
559.806	771555
559.868	1020923
559.929	356709
559.991	236690
560.052	336562
560.114	762126
560.176	536727
560.237	485836
560.299	701059
560.360	214552
560.422	108096
560.483	93434
560.545	85589
560.606	83381
560.667	80381
560.729	76521
560.790	73043
560.852	72687
560.913	67723
560.974	67785
561.036	67221
561.097	68137
561.158	65863
561.220	65170
561.281	61341
561.342	60786
561.403	60590
561.465	61152
561.526	60641
561.587	61127
561.648	56499
561.709	56004
561.771	55506
561.832	54682
561.893	53295
561.954	53358
562.015	53183
562.076	50191
562.137	50578
562.198	51457
562.259	51588
562.320	51677
562.381	52054
562.442	50501
562.503	49322
562.564	49268
562.625	48420
562.686	46942
562.747	47472
562.808	46486
562.869	46175
562.930	46094
562.991	44353
563.051	44458
563.112	44031
563.173	44428
563.234	43191
563.294	44397
563.355	43495
563.416	42731
563.477	42164
563.537	42145
563.598	42017
563.659	41708
563.720	41267
563.780	41046
563.841	42113
563.901	40635
563.962	39415
564.023	40117
564.083	40536
564.144	40447
564.204	39611
564.265	39013
564.325	38979
564.386	38926
564.446	39005
564.507	36918
564.567	37897
564.628	37735
564.688	37067
564.749	38099
564.809	38425
564.869	39251
564.930	38146
564.990	37855
565.050	36876
565.111	37122
565.171	38453
565.231	37139
565.292	38505
565.352	36545
565.412	37051
565.472	36873
565.532	38152
565.593	36166
565.653	36646
565.713	37348
565.773	38000
565.833	39016
565.893	38305
565.953	36695
566.013	34567
566.074	33865
566.134	35506
566.194	34709
566.254	34329
566.314	34299
566.374	33889
566.434	35129
566.494	34756
566.554	35352
566.614	35817
566.673	36573
566.733	38328
566.793	36271
566.853	38199
566.913	36310
566.973	35403
567.033	36979
567.092	35980
567.152	36729
567.212	37089
567.272	37104
567.331	37919
567.391	37841
567.451	39777
567.511	39633
567.570	39306
567.630	39448
567.690	36594
567.749	36567
567.809	36499
567.868	35840
567.928	35970
567.988	36150
568.047	37474
568.107	38429
568.166	36686
568.226	36611
568.285	36984
568.345	38487
568.404	37788
568.464	37643
568.523	36648
568.582	36973
568.642	36788
568.701	36225
568.761	34057
568.820	34053
568.879	34903
568.939	36204
568.998	36671
569.057	35666
569.116	35933
569.176	36491
569.235	36393
569.294	37078
569.353	35314
569.413	36474
569.472	33720
569.531	34100
569.590	34285
569.649	35216
569.708	33473
569.767	35272
569.827	35885
569.886	34404
569.945	35531
570.004	35784
570.063	35610
570.122	37718
570.181	37288
570.240	38266
570.299	37888
570.358	38002
570.417	37525
570.475	37413
570.534	37631
570.593	37684
570.652	37859
570.711	39458
570.770	36572
570.829	36379
570.887	36937
570.946	38041
571.005	38611
571.064	38980
571.122	37381
571.181	37916
571.240	37197
571.299	35692
571.357	34638
571.416	34444
571.475	36592
571.533	38527
571.592	39188
571.650	40581
571.709	40431
571.768	44142
571.826	46837
571.885	44476
571.943	40110
572.002	39000
572.060	37864
572.119	36637
572.177	37197
572.236	37670
572.294	38826
572.352	39678
572.411	39444
572.469	38082
572.528	37519
572.586	36968
572.644	35278
572.703	35512
572.761	36008
572.819	35684
572.877	33160
572.936	33186
572.994	32758
573.052	34335
573.110	34800
573.169	36350
573.227	35762
573.285	35922
573.343	35258
573.401	35218
573.459	34979
573.517	35669
573.576	37651
573.634	36388
573.692	35900
573.750	36481
573.808	34843
573.866	33323
573.924	33904
573.982	33632
574.040	33758
574.098	33735
574.155	32926
574.213	32963
574.271	34194
574.329	37502
574.387	33654
574.445	32319
574.503	31871
574.560	31525
574.618	31852
574.676	33179
574.734	31523
574.792	31796
574.849	29325
574.907	28218
574.965	26233
575.022	27213
575.080	26439
575.138	26322
575.195	26079
575.253	25614
575.311	25993
575.368	26382
575.426	24420
575.483	26254
575.541	29201
575.598	27763
575.656	26053
575.713	27968
575.771	28743
575.828	27804
575.886	25807
575.943	26437
576.001	24964
576.058	24769
576.115	24268
576.173	26118
576.230	26485
576.287	27143
576.345	26947
576.402	27172
576.459	27248
576.517	25762
576.574	25065
576.631	23960
576.688	24166
576.746	24612
576.803	24433
576.860	23008
576.917	24397
576.974	25382
577.031	25798
577.089	24154
577.146	23621
577.203	22975
577.260	22848
577.317	22485
577.374	23977
577.431	22119
577.488	22456
577.545	22712
577.602	22043
577.659	22196
577.716	23385
577.773	24034
577.830	23841
577.886	23401
577.943	21532
578.000	22752
578.057	22787
578.114	22783
578.171	22407
578.227	22038
578.284	22096
578.341	23740
578.398	22157
578.454	23108
578.511	22780
578.568	23605
578.625	22624
578.681	23062
578.738	23743
578.794	22360
578.851	23976
578.908	24075
578.964	23253
579.021	23166
579.077	23769
579.134	23157
579.190	24064
579.247	24884
579.303	22250
579.360	23118
579.416	23387
579.473	23368
579.529	22971
579.586	22358
579.642	23557
579.698	24509
579.755	24170
579.811	23907
579.867	24634
579.924	24231
579.980	24616
580.036	25443
580.093	24846
580.149	24089
580.205	25379
580.261	25529
580.317	26280
580.374	26245
580.430	26746
580.486	26418
580.542	24903
580.598	25743
580.619	25949
580.654	26340
580.692	25676
580.710	25401
580.765	26516
580.767	26584
580.823	26376
580.838	26600
580.879	27294
580.911	26699
580.935	26328
580.984	26627
580.991	26703
581.047	26764
581.057	26493
581.103	25439
581.130	25443
581.159	25506
581.203	25219
581.215	25176
581.270	24416
581.276	24354
581.326	24023
581.349	24552
581.382	25374
581.422	25070
581.438	24986
581.494	24312
581.494	24281
581.550	23151
581.567	23386
581.606	23945
581.640	24249
581.661	24489
581.713	25828
581.717	25947
581.773	24117
581.786	23984
581.829	23592
581.859	23730
581.885	23944
581.932	24583
581.940	24706
581.996	25050
582.004	25033
582.052	24952
582.077	24417
582.107	23885
582.150	23992
582.163	24027
582.219	23645
582.223	23558
582.274	22710
582.296	22843
582.330	23076
582.368	23158
582.386	23278
582.441	23933
582.441	23942
582.497	23704
582.514	23633
582.552	23726
582.587	23533
582.608	23375
582.659	22313
582.663	22237
582.719	23084
582.732	23054
582.774	22994
582.805	23277
582.830	23534
582.877	23097
582.885	23037
582.941	22858
582.950	22814
582.996	22288
583.023	22332
583.052	22706
583.095	22311
583.107	22135
583.162	23042
583.168	23054
583.218	23132
583.240	22543
583.273	21758
583.313	22105
583.328	22248
583.384	22514
583.385	22505
583.439	22172
583.458	22050
583.494	21842
583.531	22148
583.549	22419
583.603	22570
583.605	22555
583.660	23258
583.676	23064
583.715	22856
583.748	22661
583.770	22495
583.820	22865
583.825	22892
583.881	23044
583.893	22931
583.936	22596
583.965	22748
583.991	22741
584.038	22953
584.046	23032
584.101	22157
584.110	22350
584.156	23106
584.183	22855
584.211	22712
584.255	23700
584.266	23921
584.321	23367
584.328	23475
584.376	24130
584.400	24092
584.431	24274
584.472	24218
584.486	24048
584.541	24829
584.545	24870
584.596	25753
584.617	26000
584.651	26411
584.689	27527
584.706	27945
584.761	28367
584.762	28393
584.816	30172
584.834	30547
584.871	31341
584.906	32838
584.926	33380
584.978	34389
584.980	34456
585.035	39124
585.051	40109
585.090	42644
585.123	46149
585.145	48727
585.195	54954
585.200	55580
585.254	64243
585.267	66781
585.309	75555
585.340	82968
585.364	89443
585.412	104897
585.419	107483
585.473	136019
585.484	143678
585.528	185190
585.556	227366
585.583	297167
585.628	461984
585.637	513940
585.692	943839
585.700	1009905
585.747	1243556
585.772	1131747
585.801	831424
585.845	398270
585.856	328050
585.910	162585
585.917	148579
585.965	104730
585.989	89965
586.019	78121
586.061	65810
586.074	62894
586.128	55653
586.133	55114
586.183	50679
586.205	49393
586.237	47826
586.277	46392
586.292	45835
586.346	44927
586.349	44881
586.401	43885
586.421	43701
586.455	43405
586.493	42936
586.509	43029
586.564	43272
586.565	43372
586.618	47432
586.637	49067
586.672	54643
586.709	62636
586.727	66252
586.781	75279
586.781	75239
586.835	60713
586.853	56629
586.889	49296
586.925	44463
586.944	43315
586.996	41890
586.998	41824
587.052	40120
587.068	40144
587.106	40660
587.140	40740
587.161	40852
587.212	41584
587.215	41550
587.269	41819
587.284	41833
587.323	42065
587.356	42718
587.377	43215
587.427	44495
587.431	44488
587.485	44747
587.499	44617
587.539	44683
587.571	45764
587.593	46882
587.643	49622
587.648	49663
587.702	49387
587.715	49367
587.755	49161
587.786	49150
587.810	49253
587.858	49865
587.864	49827
587.917	49085
587.930	49052
587.971	48982
588.001	49014
588.025	48744
588.073	48324
588.079	48235
588.133	47738
588.145	47742
588.187	47838
588.217	48101
588.241	47980
588.288	47966
588.295	48019
588.348	48671
588.360	48833
588.402	47633
588.431	46660
588.456	46633
588.503	47999
588.510	48092
588.564	48454
588.575	48695
588.617	49950
588.646	50606
588.671	50246
588.718	50140
588.725	50224
588.778	51013
588.789	51349
588.832	53008
588.861	54962
588.886	60873
588.932	74801
588.939	76137
588.993	89092
589.004	87907
589.047	64082
589.075	52686
589.100	50004
589.147	47348
589.154	47134
589.207	46387
589.218	46353
589.261	46645
589.290	47003
589.314	46951
589.361	47358
589.368	47466
589.421	48411
589.433	48789
589.475	52527
589.504	56115
589.528	60807
589.576	71876
589.582	71276
589.635	58658
589.647	56174
589.689	50926
589.718	48787
589.742	48696
589.790	49157
589.795	49115
589.849	48986
589.861	49036
589.902	49092
589.932	49230
589.955	49123
590.004	48842
590.009	48790
590.062	49339
590.075	49472
590.115	48706
590.146	48288
590.168	48296
590.218	48771
590.222	48780
590.275	49959
590.289	50328
590.328	51381
590.360	52244
590.381	51822
590.431	50992
590.435	50998
590.488	52619
590.503	53225
590.541	53742
590.574	54154
590.594	54231
590.645	55016
590.647	55048
590.700	58133
590.716	59238
590.753	60266
590.787	61250
590.806	61536
590.859	62800
590.859	62720
590.912	63414
590.930	63801
590.965	63656
591.001	63754
591.018	63981
591.071	64466
591.072	64557
591.124	62276
591.143	61600
591.177	62397
591.214	63654
591.230	63943
591.283	64932
591.285	65065
591.336	64109
591.356	63806
591.389	63398
591.427	63223
591.442	62825
591.495	61741
591.498	61757
591.547	62709
591.569	63389
591.600	63544
591.640	63984
591.653	64324
591.706	66095
591.711	66399
591.759	67299
591.782	67960
591.811	68552
591.853	69658
591.864	69745
591.917	70569
591.924	70801
591.969	70633
591.995	70776
592.022	70904
592.066	71478
592.075	71584
592.127	73015
592.137	73398
592.180	74220
592.208	74956
592.233	75084
592.279	75799
592.285	75941
592.338	78286
592.350	78951
592.390	78133
592.421	77784
592.443	78682
592.491	81111
592.495	81038
592.548	81909
592.562	82287
592.600	81722
592.633	81493
592.653	81241
592.704	80522
592.705	81024
592.775	83469
592.846	85567
592.916	87958
592.987	86068
593.058	88513
593.128	88603
593.199	89204
593.270	89918
593.341	91765
593.411	93449
593.482	97242
593.553	101744
593.623	101601
593.694	105971
593.764	108241
593.835	106306
593.906	108349
593.976	110652
594.047	114479
594.117	118297
594.188	122497
594.258	122806
594.329	120699
594.399	126492
594.470	129653
594.540	133856
594.611	137516
594.681	136532
594.751	136318
594.822	141144
594.892	147670
594.963	149650
595.033	153662
595.103	160006
595.174	161512
595.244	163384
595.314	168743
595.384	173370
595.455	178952
595.525	185550
595.595	191929
595.665	190475
595.736	186471
595.806	191410
595.876	193296
595.946	195192
596.016	205333
596.087	209366
596.157	208516
596.227	212038
596.297	222336
596.367	238673
596.437	250368
596.507	247419
596.577	248104
596.647	254501
596.717	268426
596.787	272369
596.857	271893
596.927	275257
596.997	276194
597.067	278654
597.137	283105
597.207	284312
597.277	286271
597.347	276220
597.417	266081
597.487	266164
597.557	272777
597.626	278585
597.696	282262
597.766	280468
597.836	262136
597.906	251210
597.975	246202
598.045	252190
598.115	261135
598.185	281088
598.254	314635
598.324	337498
598.394	342974
598.464	330332
598.533	325145
598.603	303290
598.672	295142
598.742	302805
598.812	302641
598.881	314034
598.951	309789
599.020	315156
599.090	326907
599.159	332067
599.229	317196
599.299	312932
599.368	319239
599.437	315869
599.507	289570
599.576	279299
599.646	275425
599.715	271899
599.785	271961
599.854	262972
599.924	256996
599.993	256164
600.062	262263
600.132	271827
600.201	286098
600.270	329175
600.340	346493
600.409	337625
600.478	338364
600.547	343812
600.617	310515
600.686	249601
600.755	223710
600.824	211446
600.894	208854
600.963	208854
601.032	206746
601.101	196031
601.170	189018
601.239	180382
601.308	181456
601.378	181866
601.447	182033
601.516	183000
601.585	182719
601.654	187212
601.723	186784
601.792	189081
601.861	199204
601.930	201106
601.999	204873
602.068	204922
602.137	207512
602.206	211646
602.275	212830
602.343	215670
602.412	217543
602.481	220087
602.550	221778
602.619	228366
602.688	230076
602.756	231107
602.825	233029
602.894	242513
602.963	246789
603.032	250285
603.100	249469
603.169	251606
603.238	252968
603.307	252967
603.375	259908
603.444	261673
603.513	270626
603.581	270493
603.650	272016
603.719	273772
603.787	283728
603.856	289999
603.924	295053
603.993	305216
604.061	318832
604.130	332868
604.198	337521
604.267	345278
604.335	347971
604.404	354886
604.472	359216
604.541	362359
604.609	365902
604.678	364310
604.746	368149
604.815	378783
604.883	385062
604.951	383670
605.020	393555
605.088	400220
605.156	407201
605.225	415875
605.293	414087
605.361	418218
605.429	421159
605.498	428985
605.566	440487
605.634	462472
605.702	476553
605.771	487825
605.839	487531
605.907	481628
605.975	462466
606.043	456353
606.111	458038
606.180	455875
606.248	452394
606.316	445614
606.384	445588
606.452	451358
606.520	467244
606.588	482541
606.656	484319
606.724	475843
606.792	451011
606.860	409786
606.928	378042
606.996	362041
607.064	356393
607.132	367574
607.200	386752
607.267	400637
607.335	408893
607.403	415312
607.471	401803
607.539	389475
607.607	393660
607.674	349222
607.742	348345
607.810	346145
607.878	348293
607.946	353865
608.013	371674
608.081	377122
608.149	378501
608.216	392438
608.284	404106
608.352	405360
608.419	399167
608.487	391333
608.555	386671
608.622	400239
608.690	424279
608.757	459895
608.825	471765
608.893	458829
608.960	432148
609.028	417349
609.095	417494
609.163	416490
609.230	372566
609.298	343280
609.365	363157
609.432	388849
609.500	421103
609.567	475998
609.635	535148
609.702	557089
609.769	532392
609.837	422700
609.904	375853
609.971	388794
610.039	424953
610.106	530757
610.173	876074
610.241	1593489
610.308	1096326
610.375	521457
610.442	426021
610.509	397301
610.577	393657
610.644	398159
610.711	408579
610.778	415303
610.845	432065
610.912	453902
610.980	472651
611.047	470658
611.114	464295
611.181	450915
611.248	450984
611.315	474159
611.382	485244
611.449	500141
611.516	505869
611.583	498195
611.650	504124
611.717	512841
611.784	523563
611.851	543800
611.918	568508
611.984	648638
612.051	828698
612.118	1296751
612.185	2087239
612.252	1719877
612.319	886578
612.386	698134
612.452	621876
612.519	577410
612.586	561645
612.653	566579
612.719	581888
612.786	558723
612.853	524299
612.919	516150
612.986	520596
613.053	494834
613.120	467403
613.186	454599
613.253	457048
613.319	456549
613.386	459223
613.453	465330
613.519	468764
613.586	457766
613.652	462468
613.719	455804
613.785	463315
613.852	471015
613.918	467631
613.985	472517
614.051	488693
614.118	481170
614.184	465666
614.250	463267
614.317	475248
614.383	468339
614.449	479235
614.516	474396
614.582	475729
614.648	468500
614.715	464250
614.781	453845
614.847	455382
614.914	453623
614.980	443391
615.046	442568
615.112	459354
615.179	458361
615.245	464437
615.311	460082
615.377	465025
615.443	468827
615.509	478632
615.575	495490
615.642	494129
615.708	502683
615.774	522894
615.840	556194
615.906	589542
615.972	684475
616.038	930120
616.104	1533552
616.170	2245903
616.236	2079204
616.302	1224942
616.368	963028
616.434	716366
616.500	633331
616.565	695433
616.631	869139
616.697	738697
616.763	726585
616.829	1027912
616.895	1663497
616.961	1614594
617.026	864062
617.092	585640
617.158	519994
617.224	494392
617.289	455862
617.355	430153
617.421	425402
617.487	424008
617.552	399757
617.618	399159
617.684	397188
617.749	400058
617.815	381589
617.880	375031
617.946	373606
618.012	381331
618.077	387934
618.143	371574
618.208	375151
618.274	400235
618.339	403285
618.405	337163
618.470	336541
618.536	337175
618.601	331999
618.667	309798
618.732	294365
618.798	292019
618.863	290331
618.928	289578
618.994	291889
619.059	290449
619.124	291719
619.190	286705
619.255	287631
619.320	287385
619.386	289189
619.451	286260
619.516	275466
619.581	283844
619.647	289319
619.712	291315
619.777	278242
619.842	280954
619.907	285389
619.972	290754
620.038	287871
620.103	279967
620.168	282297
620.233	285426
620.298	285318
620.363	290155
620.428	295069
620.493	302086
620.558	304910
620.623	311126
620.688	308025
620.753	308016
620.818	313971
620.883	314721
620.948	313426
621.013	311183
621.078	304440
621.143	310407
621.207	311703
621.272	306255
621.337	297953
621.402	295952
621.467	293268
621.532	291784
621.596	293242
621.661	286491
621.726	283094
621.791	286556
621.855	287806
621.920	284042
621.985	287588
622.049	294287
622.114	294362
622.179	296614
622.243	303810
622.308	313926
622.373	323399
622.437	316674
622.502	298414
622.566	299615
622.631	299083
622.695	303271
622.760	299563
622.824	299681
622.889	303336
622.953	305399
623.018	318415
623.082	322147
623.147	319741
623.211	310078
623.276	312362
623.340	302050
623.404	291239
623.469	292799
623.533	295275
623.597	290900
623.662	290852
623.726	270310
623.790	256550
623.854	250024
623.919	253205
623.983	257368
624.047	259850
624.111	263779
624.176	268825
624.240	268910
624.304	277200
624.368	268452
624.432	268037
624.496	274557
624.560	286943
624.625	291949
624.689	288330
624.753	300841
624.817	286464
624.881	281117
624.945	255828
625.009	248601
625.073	251094
625.137	260783
625.201	270107
625.265	270228
625.329	260502
625.393	263430
625.456	266299
625.520	274176
625.584	276050
625.648	284328
625.712	287094
625.776	286659
625.839	268362
625.903	233999
625.967	218086
626.031	234258
626.095	271278
626.158	255396
626.222	203736
626.286	191529
626.349	182836
626.413	171709
626.477	170932
626.540	176043
626.604	173153
626.668	169348
626.731	167276
626.795	169147
626.858	168502
626.922	166234
626.986	163299
627.049	164115
627.113	171669
627.176	165881
627.240	162469
627.303	161323
627.366	158476
627.430	163826
627.493	159206
627.557	156776
627.620	160041
627.684	169471
627.747	169193
627.810	154741
627.874	139262
627.937	136217
628.000	139467
628.064	136934
628.127	121332
628.190	120552
628.253	116277
628.317	113588
628.380	107293
628.443	103925
628.506	102820
628.569	100600
628.632	95413
628.696	95276
628.759	96254
628.822	91823
628.885	89696
628.948	87650
629.011	85826
629.074	83477
629.137	80914
629.200	78570
629.263	77990
629.326	76920
629.389	78325
629.452	76348
629.515	75090
629.578	74329
629.641	75286
629.704	75866
629.767	74216
629.830	72436
629.892	70119
629.955	71409
630.018	72857
630.081	70288
630.144	72221
630.207	69816
630.269	70057
630.332	67180
630.395	67508
630.458	65903
630.520	62177
630.583	65304
630.646	65472
630.708	65878
630.771	67862
630.834	71008
630.896	69221
630.959	69472
631.021	67197
631.084	70130
631.146	67786
631.209	70292
631.272	69268
631.334	72397
631.397	73264
631.459	74857
631.522	79861
631.584	81739
631.646	88096
631.709	91911
631.771	93455
631.834	90040
631.896	83388
631.958	76418
632.021	74052
632.083	69461
632.145	69633
632.208	67196
632.270	65416
632.332	65574
632.395	63568
632.457	66129
632.519	63235
632.581	64233
632.643	62225
632.706	64107
632.768	61807
632.830	63491
632.892	65497
632.954	65161
633.016	67172
633.078	65168
633.141	64811
633.203	64688
633.265	64326
633.327	65885
633.389	64455
633.451	65833
633.513	64378
633.575	67172
633.637	66826
633.698	69317
633.760	73531
633.822	77255
633.884	78262
633.946	82919
634.008	85731
634.070	90960
634.132	96713
634.193	107796
634.255	116365
634.317	118378
634.379	116610
634.441	103635
634.502	93435
634.564	82834
634.626	75723
634.687	72182
634.749	67250
634.811	68859
634.873	66482
634.934	67015
634.996	67596
635.057	65673
635.119	67070
635.181	70689
635.242	71804
635.304	69104
635.365	71443
635.427	69644
635.488	69373
635.550	69361
635.611	71472
635.673	71699
635.734	79401
635.796	85762
635.857	93674
635.918	102324
635.980	113889
636.041	121273
636.102	131153
636.164	134356
636.225	126629
636.286	108453
636.348	95640
636.409	84535
636.470	77862
636.531	73599
636.593	69102
636.654	66116
636.715	63339
636.776	63198
636.838	58648
636.899	57724
636.960	56205
637.021	56324
637.082	55005
637.143	53266
637.204	52002
637.265	54225
637.326	53570
637.387	54999
637.448	54016
637.509	55075
637.570	53783
637.631	53364
637.692	49423
637.753	49090
637.814	48850
637.875	49067
637.936	49938
637.997	49592
638.058	47583
638.119	48554
638.179	48879
638.240	48399
638.301	48452
638.362	46296
638.423	45586
638.483	45635
638.544	43965
638.605	45890
638.666	43593
638.726	46381
638.787	45410
638.848	46225
638.908	44089
638.969	43070
639.030	42309
639.090	41255
639.151	42977
639.211	43802
639.272	44937
639.332	45860
639.393	48009
639.453	51244
639.514	53296
639.574	45448
639.635	40899
639.695	41791
639.756	39386
639.816	39853
639.877	40830
639.937	41378
639.997	41719
640.058	39812
640.118	39869
640.178	40980
640.239	40925
640.299	40808
640.359	42147
640.420	47450
640.480	53684
640.540	63329
640.600	64435
640.661	56825
640.721	53350
640.781	58273
640.841	53285
640.901	43629
640.961	43054
641.021	45765
641.082	49409
641.142	43908
641.202	40996
641.262	37276
641.322	38621
641.382	36988
641.442	37138
641.502	38195
641.562	39474
641.622	40707
641.682	45506
641.742	54155
641.802	48609
641.861	40876
641.921	37258
641.981	37431
642.041	36262
642.101	34894
642.161	33779
642.221	35293
642.280	35006
642.340	35432
642.400	35327
642.460	37760
642.519	36640
642.579	37785
642.639	38028
642.698	37226
642.758	41205
642.818	40014
642.877	37183
642.937	38585
642.997	38072
643.056	38165
643.116	37807
643.175	39074
643.235	40526
643.294	42128
643.354	44739
643.414	47872
643.473	54295
643.532	65599
643.592	84407
643.651	126753
643.711	207713
643.770	381334
643.830	808967
643.889	1230194
643.948	501945
644.008	153676
644.067	89463
644.126	64630
644.186	55424
644.245	49018
644.304	43901
644.363	44190
644.423	40017
644.482	40856
644.541	43408
644.600	44111
644.659	55962
644.719	70626
644.778	102072
644.837	172500
644.896	341970
644.955	669874
645.014	246277
645.073	75733
645.132	55705
645.191	50051
645.250	46006
645.309	49137
645.368	55374
645.427	76621
645.486	136729
645.545	230507
645.604	69312
645.663	43448
645.722	42386
645.781	44729
645.840	48741
645.898	57918
645.957	78285
646.016	115818
646.075	192898
646.134	363360
646.192	818495
646.251	991352
646.310	287364
646.369	107317
646.427	84706
646.486	61906
646.545	46058
646.603	42488
646.662	39086
646.721	37349
646.779	37403
646.838	39107
646.896	48712
646.955	64869
647.014	103828
647.072	201011
647.131	498598
647.189	240146
647.248	50963
647.306	36845
647.365	33217
647.423	28363
647.481	30468
647.540	26452
647.598	27131
647.657	27148
647.715	27335
647.773	24958
647.832	26420
647.890	23080
647.948	24011
648.007	24153
648.065	22094
648.123	22829
648.181	23350
648.240	22758
648.298	20512
648.356	21879
648.414	23268
648.472	21398
648.531	21099
648.589	20717
648.647	20694
648.705	21634
648.763	21700
648.821	22993
648.879	24011
648.937	26896
648.995	30882
649.053	39583
649.111	56531
649.169	92683
649.227	162426
649.285	333979
649.343	768915
649.401	394158
649.459	81450
649.516	44544
649.574	34880
649.632	34875
649.690	37919
649.748	51014
649.806	74783
649.863	141155
649.921	381663
649.979	242081
650.037	41960
650.094	24629
650.152	21002
650.210	19642
650.268	19782
650.325	20940
650.383	23922
650.440	16251
650.498	15086
650.556	16142
650.613	15513
650.671	16714
650.728	15850
650.786	19005
650.843	28833
650.901	19721
650.958	14620
651.016	13622
651.073	14429
651.131	13122
651.188	11652
651.246	13084
651.303	11322
651.360	12988
651.418	11826
651.475	12164
651.532	11014
651.590	12942
651.647	10457
651.704	11701
651.762	11541
651.819	11144
651.876	10463
651.933	11256
651.990	12037
652.048	10466
652.105	10206
652.162	11449
652.219	9484
652.276	10821
652.333	10263
652.390	9684
652.448	9421
652.505	10467
652.562	10143
652.619	9492
652.676	9907
652.733	11224
652.790	10113
652.847	8870
652.904	10224
652.961	9125
653.017	8492
653.074	9229
653.131	10163
653.188	9543
653.245	9148
653.302	10057
653.359	9153
653.415	10256
653.472	8605
653.529	9913
653.586	9299
653.642	9576
653.699	10565
653.756	8978
653.813	8742
653.869	10517
653.926	9639
653.983	10475
654.039	10066
654.096	9161
654.152	9255
654.209	8182
654.266	9105
654.322	7835
654.379	9321
654.435	10007
654.492	8294
654.548	8940
654.605	8361
654.661	10986
654.717	8729
654.774	9756
654.830	9639
654.887	9567
654.943	9923
655.000	12405
655.056	10045
655.112	9422
655.168	8640
655.225	10015
655.281	9944
655.337	9256
655.394	8339
655.450	9252
655.506	8039
655.562	8196
655.618	9226
655.675	7290
655.731	9302
655.787	7661
655.843	8589
655.899	8418
655.955	9124
656.011	9723
656.067	7537
656.123	9732
656.179	9098
656.235	10095
656.291	9075
656.347	10629
656.403	8496
656.459	8756
656.515	8955
656.571	8288
656.627	8237
656.683	8154
656.739	8674
656.795	8461
656.850	8161
656.906	8791
656.962	9979
657.018	10283
657.074	12916
657.129	18348
657.185	29238
657.241	68388
657.297	34688
657.352	10456
657.408	7732
657.464	8214
657.519	7464
657.575	6555
657.630	7670
657.686	7781
657.742	6941
657.797	7364
657.853	7314
657.908	9331
657.964	6765
658.019	6978
658.075	7000
658.130	7565
658.186	5833
658.241	8370
658.297	6116
658.352	7291
658.407	7562
658.463	5886
658.518	6827
658.573	7824
658.629	6253
658.684	7014
658.739	7449
658.795	6451
658.850	7325
658.905	6561
658.960	6657
659.016	6302
659.071	6182
659.126	6092
659.181	5838
659.236	7208
659.291	6524
659.346	6350
659.401	6810
659.457	6704
659.512	5810
659.567	6912
659.622	6119
659.677	6664
659.732	5743
659.787	6212
659.842	5560
659.897	6135
659.952	6834
660.007	6756
660.061	6848
660.116	5260
660.171	5623
660.226	5851
660.281	6428
660.336	6193
660.391	6657
660.445	4432
660.500	5285
660.555	6522
660.610	4569
660.664	5842
660.719	4715
660.774	5938
660.828	6130
660.883	5898
660.938	5948
660.992	5355
661.047	5461
661.101	5502
661.156	6135
661.211	4534
661.265	5128
661.320	5576
661.374	6040
661.429	5633
661.483	6349
661.538	5810
661.592	6089
661.647	7160
661.701	9427
661.755	6693
661.810	5200
661.864	4937
661.919	5056
661.973	6017
662.027	4491
662.081	6091
662.136	5659
662.190	6117
662.244	5606
662.299	5882
662.353	5699
662.407	4773
662.461	4945
662.515	5271
662.569	4717
662.624	5383
662.678	4438
662.732	5296
662.786	5055
662.840	5803
662.894	4780
662.948	4838
663.002	5393
663.056	5840
663.110	4768
663.164	5259
663.218	5235
663.272	5635
663.326	5977
663.380	5412
663.434	5592
663.488	4477
663.542	4473
663.595	6163
663.649	5436
663.703	5476
663.757	4719
663.811	5274
663.864	4200
663.918	5783
663.972	5353
664.026	5983
664.079	5489
664.133	6521
664.187	7025
664.240	6136
664.294	5733
664.348	6910
664.401	5438
664.455	5293
664.508	5435
664.562	5805
664.615	5814
664.669	4770
664.722	5258
664.776	4843
664.829	5176
664.883	5555
664.936	5445
664.990	5586
665.043	5385
665.097	5598
665.150	6098
665.203	5655
665.257	5619
665.310	6504
665.363	6177
665.417	6059
665.470	6235
665.523	6747
665.576	5347
665.630	6276
665.683	6456
665.736	6883
665.789	5708
665.842	5137
665.895	5660
665.949	5911
666.002	6255
666.055	6651
666.108	5929
666.161	6254
666.214	6415
666.267	6605
666.320	6379
666.373	6762
666.426	7054
666.479	6336
666.532	6625
666.585	7318
666.638	6984
666.691	7010
666.744	7223
666.796	6505
666.849	5836
666.902	6410
666.955	5931
667.008	6137
667.060	6202
667.113	6651
667.166	6605
667.219	7015
667.271	7429
667.324	6075
667.377	6275
667.430	6886
667.482	6054
667.535	5745
667.587	6412
667.640	5735
667.693	5442
667.745	7100
667.798	6299
667.850	6119
667.903	6256
667.955	7111
668.008	7445
668.060	6501
668.113	5885
668.165	6065
668.218	6391
668.270	6624
668.322	5661
668.375	6039
668.427	6443
668.479	5882
668.532	6229
668.584	5569
668.636	5470
668.689	5558
668.741	5595
668.793	6295
668.845	5226
668.898	6538
668.950	5795
669.002	6083
669.054	5119
669.106	6138
669.158	5713
669.211	5479
669.263	5433
669.315	5682
669.367	5319
669.419	5403
669.471	5525
669.523	5424
669.575	6262
669.627	5333
669.679	5885
669.731	5126
669.783	4875
669.835	6523
669.886	5153
669.938	5627
669.990	5137
670.042	4453
670.094	5913
670.146	5749
670.197	5336
670.249	5749
670.301	5507
670.353	5588
670.404	5460
670.456	5335
670.508	5095
670.560	6146
670.611	5490
670.663	5565
670.715	6990
670.766	5646
670.818	5762
670.869	5884
670.921	7517
670.972	8386
671.024	5918
671.075	5266
671.127	7361
671.178	7904
671.230	8671
671.281	8900
671.333	11246
671.384	13830
671.436	17767
671.487	26774
671.538	38992
671.590	62918
671.641	105414
671.692	184048
671.744	320796
671.795	244346
671.846	101995
671.897	48744
671.949	30676
672.000	22234
672.051	16334
672.102	13044
672.153	10389
672.204	10285
672.256	9188
672.307	7758
672.358	7146
672.409	6565
672.460	6115
672.511	6415
672.562	4764
672.613	5548
672.664	5133
672.715	6335
672.766	4879
672.817	4268
672.868	4481
672.919	4522
672.970	3482
673.021	4480
673.071	4063
673.122	3919
673.173	3417
673.224	4458
673.275	4676
673.326	4179
673.376	4609
673.427	3933
673.478	4216
673.528	5189
673.579	4370
673.630	5111
673.680	4934
673.731	4775
673.782	4371
673.832	4923
673.883	3442
673.934	4747
673.984	3947
674.035	4271
674.085	4273
674.136	4491
674.186	4966
674.237	5013
674.287	4798
674.338	5755
674.388	4798
674.438	5656
674.489	5910
674.539	6147
674.589	6022
674.640	5250
674.690	5836
674.740	6119
674.791	4568
674.841	4929
674.891	4437
674.942	3497
674.992	3926
675.042	3878
675.092	3063
675.142	3015
675.193	3631
675.243	3626
675.293	4230
675.343	4078
675.393	3578
675.443	4031
675.493	3956
675.543	3652
675.593	4126
675.643	4023
675.693	3779
675.743	3844
675.793	3710
675.843	3629
675.893	2899
675.943	3367
675.993	2801
676.043	2997
676.093	2842
676.142	2661
676.192	3201
676.242	3211
676.292	2832
676.341	1959
676.391	2694
676.441	1771
676.491	2953
676.540	2709
676.590	2699
676.640	2364
676.689	3012
676.739	2449
676.789	1932
676.838	2048
676.888	2140
676.937	2268
676.987	2608
677.037	2817
677.086	2761
677.136	2246
677.185	2512
677.235	2306
677.284	2657
677.333	2803
677.383	2194
677.432	1970
677.482	1422
677.531	2143
677.580	1483
677.630	1933
677.679	1695
677.728	2255
677.778	2430
677.827	1948
677.876	2191
677.925	3178
677.975	2220
678.024	2886
678.073	3093
678.122	2751
678.171	2782
678.220	4164
678.269	4956
678.319	5511
678.368	5830
678.417	4055
678.466	3917
678.515	2253
678.564	2406
678.613	2137
678.662	1728
678.711	2415
678.760	2241
678.809	3044
678.857	1876
678.906	3447
678.955	2613
679.004	2758
679.053	2977
679.102	2453
679.151	1638
679.199	1933
679.248	1847
679.297	2647
679.346	1226
679.394	1601
679.443	1457
679.492	1771
679.540	1755
679.589	2329
679.638	2446
679.686	2976
679.735	3564
679.784	3835
679.832	5103
679.881	3508
679.929	2646
679.978	1978
680.026	2068
680.075	2106
680.123	937
680.172	1606
680.220	1505
680.268	1646
680.317	651
680.365	1401
680.414	972
680.462	1710
680.510	2381
680.559	755
680.607	1939
680.655	1272
680.703	1634
680.752	1407
680.800	1326
680.848	1715
680.896	442
680.945	1422
680.993	682
681.041	503
681.089	1015
681.137	1926
681.185	822
681.233	1504
681.258	1511
681.281	1467
681.329	1643
681.377	1004
681.380	1085
681.425	1637
681.473	2552
681.502	2551
681.521	2465
681.569	2865
681.617	1964
681.624	2027
681.665	2004
681.713	2502
681.745	2789
681.761	2854
681.809	2697
681.857	3279
681.867	3337
681.904	3332
681.952	3590
681.989	3032
682.000	2801
682.048	3070
682.096	2574
682.111	2882
682.143	3355
682.191	3356
682.233	3883
682.239	3918
682.286	3936
682.334	3262
682.354	3461
682.382	3611
682.430	4332
682.476	3973
682.477	3918
682.525	2922
682.572	4024
682.598	4261
682.620	4404
682.667	4484
682.715	4632
682.720	4657
682.763	4355
682.810	5728
682.841	5496
682.857	5343
682.905	4481
682.952	5079
682.963	5299
683.000	5869
683.047	4897
683.085	6093
683.095	6383
683.142	5486
683.190	5899
683.206	5956
683.237	5844
683.284	5476
683.328	5956
683.332	5967
683.379	5475
683.426	5717
683.449	5415
683.473	5084
683.521	7017
683.568	6314
683.571	6406
683.615	6974
683.662	6645
683.693	6590
683.709	6477
683.757	6349
683.804	6099
683.814	6262
683.851	6725
683.898	7484
683.936	6888
683.945	6740
683.992	6752
684.039	7545
684.057	7733
684.086	7846
684.133	7138
684.179	6221
684.180	6161
684.227	7198
684.274	7315
684.300	7238
684.321	7205
684.368	7259
684.415	7599
684.422	7657
684.462	7882
684.509	7711
684.543	8386
684.556	8563
684.603	8457
684.649	8518
684.665	8629
684.696	8759
684.743	9490
684.786	9277
684.790	9218
684.837	8612
684.883	8878
684.908	8969
684.930	9169
684.977	9518
685.023	9561
685.029	9600
685.070	9603
685.117	9886
685.150	9650
685.164	9499
685.210	10061
685.257	10018
685.272	10065
685.303	10222
685.350	9827
685.393	10357
685.396	10353
685.443	9413
685.490	9532
685.514	9403
685.536	9379
685.583	9204
685.629	9079
685.636	9099
685.675	9306
685.722	10430
685.757	10562
685.768	10527
685.815	10519
685.861	10211
685.878	10188
685.908	10233
685.954	11016
686.000	11105
686.000	11096
686.047	10969
686.093	10764
686.121	10970
686.139	11050
686.185	11571
686.232	11419
686.242	11446
686.278	11422
686.324	11650
686.363	11486
686.370	11427
686.416	11735
686.463	11511
686.484	11614
686.509	11885
686.555	11532
686.601	12110
686.606	12144
686.647	12208
686.693	12473
686.727	11225
686.739	10739
686.785	12296
686.831	12212
686.848	11978
686.877	11791
686.923	12301
686.969	12432
686.969	12431
687.015	12954
687.061	13271
687.090	13804
687.107	14092
687.153	14016
687.199	14772
687.211	14578
687.245	13594
687.291	13735
687.332	13724
687.336	13781
687.382	14566
687.428	14033
687.453	14571
687.474	15019
687.520	15038
687.565	15498
687.574	15560
687.611	16532
687.657	17882
687.695	19095
687.702	19573
687.748	23446
687.794	26965
687.816	27742
687.839	25610
687.885	22520
687.931	19515
687.937	19041
687.976	17948
688.022	16711
688.058	16159
688.067	16213
688.113	15390
688.158	15344
688.179	14917
688.204	14564
688.249	15100
688.295	14427
688.300	14516
688.340	15362
688.386	15659
688.421	15549
688.431	15540
688.477	15790
688.522	15879
688.542	16216
688.567	16864
688.613	17285
688.658	18133
688.663	18147
688.703	17699
688.749	17100
688.784	17166
688.794	17243
688.839	17623
688.884	17458
688.905	17575
688.930	17675
688.975	17294
689.020	16485
689.026	16560
689.065	17580
689.110	17320
689.146	17549
689.155	17651
689.201	18374
689.246	19044
689.267	18999
689.291	18450
689.336	18163
689.381	17366
689.388	17199
689.426	17297
689.471	17408
689.509	18409
689.516	18538
689.561	18324
689.606	18077
689.630	17778
689.651	17486
689.696	17118
689.741	16928
689.750	16998
689.785	17876
689.830	17826
689.871	18222
689.875	18224
689.920	18226
689.965	17673
689.992	17383
690.010	17338
690.054	17527
690.099	17388
690.112	17458
690.144	17710
690.189	17234
690.233	17088
690.233	17112
690.278	17470
690.323	17679
690.354	17761
690.367	17826
690.412	18290
690.457	17566
690.474	17660
690.501	17724
690.546	17814
690.590	17563
690.595	17451
690.635	16664
690.680	16884
690.716	16551
690.724	16578
690.769	17014
690.813	17168
690.836	17245
690.857	17538
690.902	17901
690.946	18766
690.957	18821
690.991	18870
691.035	19014
691.077	19304
691.080	19344
691.124	19092
691.168	18993
691.198	19150
691.213	19196
691.257	18472
691.301	18434
691.318	18392
691.346	18670
691.390	18984
691.434	19094
691.439	19079
691.478	18963
691.522	18956
691.559	18842
691.567	18994
691.611	19333
691.655	20382
691.680	20781
691.699	20702
691.743	20361
691.787	20433
691.800	20200
691.831	19994
691.875	19829
691.919	20141
691.921	20088
691.964	19548
692.008	19913
692.041	19714
692.052	19757
692.096	20020
692.139	20349
692.162	20334
692.183	20163
692.227	19903
692.271	19580
692.282	19494
692.315	19666
692.359	19819
692.402	19743
692.403	19781
692.447	19730
692.490	19998
692.523	19868
692.534	19817
692.578	19406
692.622	19237
692.643	19216
692.666	19606
692.709	19675
692.753	20300
692.763	20398
692.797	20394
692.840	20099
692.884	19750
692.884	19792
692.928	19988
692.971	20085
693.004	20052
693.015	20070
693.059	20270
693.102	20107
693.124	20170
693.146	20358
693.189	20238
693.233	20419
693.245	20375
693.276	20283
693.320	20271
693.363	20183
693.365	20134
693.407	20552
693.450	20938
693.485	21319
693.493	21305
693.537	20636
693.580	20466
693.605	20301
693.624	20404
693.667	19883
693.710	19966
693.725	20041
693.753	20346
693.797	20192
693.840	19898
693.845	19857
693.883	20285
693.926	20951
693.966	21188
693.970	21217
694.013	20937
694.056	20913
694.086	20972
694.099	21164
694.142	21193
694.185	21376
694.206	21340
694.229	21532
694.272	21985
694.315	22548
694.326	22620
694.358	22322
694.401	21785
694.444	21353
694.446	21272
694.487	21540
694.530	21844
694.566	22067
694.573	22107
694.616	22148
694.659	22202
694.686	21962
694.702	22187
694.745	22806
694.787	23931
694.806	24145
694.830	24037
694.873	23794
694.916	23691
694.926	23582
694.959	23924
695.002	24424
695.044	24916
695.046	24873
695.087	25415
695.130	25835
695.166	26354
695.172	26453
695.215	26449
695.258	26496
695.286	26668
695.301	27026
695.343	27554
695.386	28324
695.406	28441
695.428	29505
695.471	31827
695.514	34005
695.526	34631
695.556	37060
695.599	39903
695.641	42990
695.646	43219
695.684	40814
695.726	37844
695.766	35347
695.769	35395
695.811	34606
695.854	33908
695.886	33276
695.896	33530
695.938	34217
695.981	34960
696.005	35268
696.023	36357
696.065	38934
696.108	41467
696.125	42417
696.150	42978
696.192	43723
696.235	44337
696.245	44397
696.277	44358
696.319	44292
696.361	44155
696.365	44026
696.404	43433
696.446	42815
696.485	42068
696.488	42154
696.530	41980
696.572	41739
696.604	41465
696.614	41636
696.656	41998
696.698	42268
696.724	42346
696.740	42610
696.783	42956
696.825	43533
696.844	43529
696.867	43577
696.909	43645
696.951	43766
696.964	43732
696.992	44427
697.034	44956
697.076	45708
697.083	45696
697.118	46511
697.160	47474
697.202	48430
697.203	48337
697.244	48009
697.286	47393
697.323	46778
697.327	46944
697.369	47375
697.411	47853
697.442	48078
697.453	48178
697.494	48088
697.536	47878
697.562	47745
697.578	47842
697.620	47636
697.661	47474
697.682	47302
697.703	48311
697.744	50013
697.786	51806
697.801	52271
697.828	52223
697.869	52012
697.911	51832
697.921	51638
697.952	51264
697.994	50633
698.035	49971
698.040	49772
698.077	50586
698.118	51267
698.160	52022
698.160	51892
698.201	53525
698.243	55076
698.279	56290
698.284	56538
698.325	57478
698.367	58450
698.399	59043
698.408	59351
698.449	60076
698.491	60784
698.518	61092
698.532	61243
698.573	61276
698.614	61241
698.638	61070
698.656	61261
698.697	61343
698.738	61445
698.757	61315
698.779	61292
698.820	60980
698.862	60641
698.877	60361
698.903	60386
698.944	60176
698.985	59969
698.996	59755
699.026	59915
699.067	59919
699.116	59768
699.235	61137
699.354	58853
699.474	56093
699.593	54656
699.713	55900
699.832	56819
699.951	58523
700.070	57355
700.190	54090
700.309	52031
700.428	49743
700.547	48263
700.667	48108
700.786	49611
700.905	47036
701.024	48895
701.143	47161
701.262	51544
701.381	52660
701.500	52424
701.619	51445
701.738	52604
701.857	50057
701.976	46190
702.095	49127
702.214	50836
702.333	48655
702.452	51661
702.571	51629
702.690	50094
702.809	50293
702.928	47633
703.047	44276
703.165	45434
703.284	45049
703.403	45613
703.522	45567
703.640	41618
703.759	43126
703.878	40913
703.997	43457
704.115	44236
704.234	43511
704.353	46073
704.471	39811
704.590	39900
704.708	39159
704.827	38618
704.946	39629
705.064	40635
705.183	38537
705.301	40336
705.420	37262
705.538	36319
705.656	34392
705.775	34304
705.893	36796
706.012	35536
706.130	35179
706.249	37572
706.367	34175
706.485	34855
706.604	33229
706.722	34939
706.840	43506
706.958	67323
707.077	46937
707.195	33018
707.313	33256
707.431	30000
707.549	32187
707.668	28841
707.786	33995
707.904	30884
708.022	32897
708.140	30995
708.258	29816
708.376	33249
708.494	29633
708.612	32875
708.730	33841
708.848	32315
708.966	32649
709.084	31929
709.202	31369
709.320	27625
709.438	29245
709.556	28947
709.674	24712
709.791	26743
709.909	26707
710.027	26268
710.145	25765
710.263	25628
710.380	26081
710.498	25160
710.616	25726
710.733	23753
710.851	24276
710.969	25211
711.086	23162
711.204	24690
711.322	25750
711.439	24329
711.557	21798
711.674	24187
711.792	23514
711.909	22219
712.027	21684
712.144	22811
712.262	22751
712.379	24237
712.497	24260
712.614	22483
712.732	23880
712.849	22244
712.966	23431
713.084	24824
713.201	20672
713.318	23651
713.436	27178
713.553	25310
713.670	29231
713.787	28155
713.905	25675
714.022	29694
714.139	33260
714.256	42628
714.373	66521
714.490	129428
714.608	358665
714.725	1231472
714.842	1079124
714.959	160242
715.076	62807
715.193	42495
715.310	35065
715.427	26069
715.544	26728
715.661	26041
715.778	23012
715.895	22191
716.011	22648
716.128	22039
716.245	23038
716.362	21084
716.479	17865
716.596	19794
716.713	19757
716.829	18898
716.946	17107
717.063	17119
717.180	16509
717.296	17158
717.413	17482
717.530	16858
717.646	15455
717.763	17094
717.880	15797
717.996	15003
718.113	16517
718.229	15959
718.346	15113
718.462	15778
718.579	16007
718.695	15814
718.812	15287
718.928	16415
719.045	15094
719.161	16049
719.277	17495
719.394	17132
719.510	18357
719.626	21381
719.743	30051
719.859	53404
719.975	123671
720.092	486436
720.208	912501
720.324	131595
720.440	36285
720.557	24751
720.673	20085
720.789	17827
720.905	16828
721.021	15438
721.137	13820
721.253	13634
721.369	14069
721.486	13669
721.602	13198
721.718	12813
721.834	13608
721.950	13451
722.066	12326
722.181	12469
722.297	12987
722.413	12666
722.529	12510
722.645	13562
722.761	11881
722.877	13843
722.993	17391
723.108	25737
723.224	20766
723.340	14787
723.456	12581
723.571	11156
723.687	11353
723.803	11617
723.918	12537
724.034	11428
724.150	12664
724.265	11907
724.381	10515
724.497	10180
724.612	12475
724.728	11426
724.843	10366
724.959	10641
725.074	11059
725.190	10846
725.305	11337
725.421	10296
725.536	11859
725.651	12147
725.767	10975
725.882	10133
725.997	10774
726.113	11467
726.228	10308
726.343	9641
726.459	11063
726.574	10472
726.689	10565
726.804	9803
726.920	10087
727.035	10447
727.150	11280
727.265	9864
727.380	10946
727.495	11347
727.610	10367
727.725	9963
727.841	11206
727.956	10574
728.071	9257
728.186	9567
728.301	9693
728.416	11103
728.531	11091
728.645	9805
728.760	9843
728.875	10536
728.990	10492
729.105	9609
729.220	10612
729.335	10409
729.449	9805
729.564	10225
729.679	9675
729.794	11316
729.908	12005
730.023	9710
730.138	10947
730.253	10690
730.367	11175
730.482	11592
730.596	11410
730.711	14314
730.826	24825
730.940	25907
731.055	17240
731.169	16419
731.284	16720
731.398	18382
731.513	18777
731.627	23269
731.742	29258
731.856	37064
731.970	43052
732.085	56452
732.199	89744
732.313	168730
732.428	435174
732.542	1041874
732.656	578209
732.771	138028
732.885	69815
732.999	55000
733.113	51932
733.227	46596
733.342	43183
733.456	41038
733.570	38744
733.684	36581
733.798	35111
733.912	34449
734.026	35070
734.140	34428
734.254	31844
734.368	31574
734.482	30933
734.596	32917
734.710	30134
734.824	30589
734.938	29144
735.052	30501
735.166	30129
735.280	29109
735.393	28459
735.507	27646
735.621	28022
735.735	26632
735.849	29323
735.962	25375
736.076	27786
736.190	27151
736.303	27059
736.417	27526
736.531	24873
736.644	26536
736.758	25421
736.872	25025
736.985	25541
737.099	24694
737.212	24978
737.326	22735
737.439	25849
737.553	22348
737.666	25086
737.780	22164
737.893	24806
738.007	23666
738.120	24901
738.233	21204
738.347	23515
738.460	21374
738.573	24466
738.687	21583
738.800	23072
738.913	24153
739.026	22500
739.140	21290
739.253	21933
739.366	21143
739.479	21037
739.592	21588
739.705	19453
739.818	23829
739.932	18905
740.045	20973
740.158	21405
740.271	21870
740.384	20824
740.497	17887
740.610	20679
740.723	18261
740.836	19495
740.949	19518
741.062	21358
741.174	18789
741.287	19632
741.400	18576
741.513	16787
741.626	19671
741.739	19778
741.851	18310
741.964	20251
742.077	18076
742.189	16506
742.302	19621
742.415	18547
742.527	17965
742.640	18648
742.753	14874
742.865	17491
742.978	16495
743.090	16471
743.203	18610
743.316	15994
743.428	16870
743.541	17711
743.653	14873
743.766	17316
743.878	16819
743.990	14938
744.103	17694
744.215	17460
744.327	14082
744.440	19180
744.552	15353
744.664	15682
744.777	17823
744.889	15187
745.001	13856
745.113	16911
745.226	15654
745.338	14008
745.450	17312
745.562	14481
745.674	13052
745.786	18059
745.898	15048
746.010	14037
746.122	15320
746.234	15954
746.347	15279
746.459	15347
746.570	12535
746.682	17187
746.794	20363
746.906	12976
747.018	13752
747.130	15376
747.242	12332
747.354	13430
747.466	15095
747.577	13570
747.689	14448
747.801	14544
747.913	11832
748.024	12027
748.136	13709
748.248	12647
748.359	13312
748.471	14765
748.583	12160
748.694	11164
748.806	12569
748.918	11739
749.029	12226
749.141	13584
749.252	13191
749.364	10259
749.475	10928
749.587	10919
749.698	11349
749.809	12802
749.921	11652
750.032	10684
750.144	10753
750.255	10913
750.366	11597
750.478	10263
750.589	10596
750.700	10143
750.811	11196
750.923	10174
751.034	9728
751.145	11836
751.256	10595
751.367	9429
751.479	10539
751.590	10841
751.701	9139
751.812	8677
751.923	9813
752.034	12798
752.145	11881
752.256	11000
752.367	10634
752.478	10441
752.589	10766
752.700	11757
752.811	9374
752.922	10718
753.032	10944
753.143	11386
753.254	10448
753.365	14106
753.476	12410
753.586	10558
753.697	9650
753.808	10389
753.919	9642
754.029	10054
754.140	9395
754.251	9390
754.361	9355
754.472	10815
754.582	9033
754.693	9303
754.804	11463
754.914	9010
755.025	7547
755.135	10241
755.246	10618
755.356	8952
755.466	7238
755.577	8698
755.687	9351
755.798	9136
755.908	7637
756.018	9260
756.129	9181
756.239	10057
756.349	9689
756.460	11062
756.570	12307
756.680	9884
756.790	9276
756.900	9808
757.011	8262
757.121	8024
757.231	8835
757.341	9571
757.451	8257
757.561	8584
757.671	9755
757.781	8449
757.891	8586
758.001	8386
758.111	9958
758.221	10620
758.331	10758
758.441	10663
758.551	10918
758.661	12432
758.771	11844
758.880	11337
758.990	9723
759.100	10401
759.210	10521
759.320	11077
759.429	11215
759.539	13870
759.649	14720
759.758	17669
759.868	17968
759.978	18395
760.087	19027
760.197	20316
760.307	18321
760.416	17043
760.526	14586
760.635	16302
760.745	17857
760.854	19787
760.964	23111
761.073	23186
761.182	21616
761.292	17191
761.401	14818
761.511	12201
761.620	9907
761.729	10838
761.839	8325
761.948	8761
762.057	8572
762.166	9660
762.276	8831
762.385	10407
762.494	8671
762.603	8148
762.712	8477
762.822	8676
762.931	7345
763.040	6967
763.149	6603
763.258	6903
763.367	7324
763.476	6843
763.585	6296
763.694	6544
763.803	7043
763.912	6361
764.021	6229
764.130	6414
764.238	7967
764.347	8070
764.456	8369
764.565	7809
764.674	6003
764.783	6427
764.891	5610
765.000	6767
765.109	5623
765.217	5271
765.326	5932
765.435	6436
765.543	6202
765.652	5616
765.761	6172
765.869	5310
765.978	4958
766.086	6718
766.195	6025
766.303	5645
766.412	6782
766.520	6913
766.629	5043
766.737	5309
766.846	5682
766.954	4256
767.062	5398
767.171	5686
767.279	6980
767.387	6144
767.496	5021
767.604	5191
767.712	5154
767.820	5515
767.928	5272
768.037	5128
768.145	4899
768.253	5672
768.361	4817
768.469	5090
768.577	4956
768.685	6247
768.793	6221
768.901	4462
769.009	5557
769.117	5421
769.225	5948
769.333	7229
769.441	6474
769.549	6052
769.657	5189
769.765	6174
769.873	8624
769.981	6609
770.088	6985
770.196	6610
770.304	6818
770.412	7158
770.519	7505
770.627	8702
770.735	7622
770.842	8413
770.950	8525
771.058	9816
771.165	11268
771.273	12400
771.380	12999
771.488	18462
771.595	21687
771.703	19036
771.810	17864
771.918	18276
772.025	22791
772.133	25974
772.240	23835
772.348	28156
772.455	26640
772.562	23422
772.670	22886
772.777	23957
772.884	23708
772.991	22198
773.099	24479
773.206	21274
773.313	21720
773.420	22494
773.528	22034
773.635	21573
773.742	22870
773.849	20362
773.956	22100
774.063	20881
774.170	21917
774.277	21515
774.384	19928
774.491	19396
774.598	21052
774.705	20007
774.812	20513
774.919	19919
775.026	20279
775.133	20599
775.239	20473
775.346	19288
775.453	18675
775.560	18982
775.667	20011
775.773	18007
775.880	18987
775.987	18175
776.093	17589
776.200	20940
776.307	15502
776.413	16615
776.520	20958
776.627	17717
776.733	15934
776.840	14765
776.946	22414
777.053	19603
777.159	20226
777.266	17587
777.372	19435
777.478	21358
777.585	17341
777.691	14379
777.798	18503
777.904	16111
778.010	14822
778.117	17678
778.223	15098
778.329	16990
778.435	14021
778.542	17683
778.648	15546
778.754	14248
778.860	16117
778.966	15781
779.072	14334
779.178	15995
779.284	12236
779.391	13815
779.497	15506
779.603	16361
779.708	13175
779.815	12236
779.920	14129
780.026	12294
780.132	13794
780.238	13612
780.344	12340
780.450	17223
780.556	10426
780.661	12090
780.767	16286
780.873	10677
780.979	12029
781.085	15447
781.190	12531
781.296	11915
781.402	12691
781.507	12706
781.613	9718
781.719	12427
781.824	14918
781.930	11663
782.035	12193
782.141	15506
782.246	8935
782.352	11195
782.457	13169
782.563	11945
782.668	12817
782.773	10877
782.879	9175
782.984	11884
783.090	10942
783.195	11987
783.300	12670
783.405	10533
783.511	8465
783.616	10842
783.721	11381
783.826	10123
783.932	9948
784.037	11436
784.142	11597
784.247	10899
784.352	11687
784.457	8834
784.562	9887
784.667	10368
784.772	9050
784.877	7280
784.982	11121
785.087	11416
785.192	7709
785.297	9461
785.402	10576
785.507	10452
785.611	10289
785.716	7897
785.821	10041
785.926	10664
786.031	9425
786.135	9904
786.240	9321
786.345	7221
786.450	7993
786.554	10273
786.659	8542
786.763	9165
786.868	9875
786.973	10035
787.077	7461
787.182	7799
787.286	8706
787.391	12244
787.495	6168
787.600	6026
787.704	8419
787.809	9831
787.913	7365
788.017	9229
788.122	10184
788.226	7991
788.330	5513
788.435	7577
788.539	9686
788.643	8584
788.747	5314
788.852	7844
788.956	7740
789.060	8744
789.164	8207
789.268	7351
789.372	9251
789.476	7792
789.580	6008
789.684	5985
789.788	8322
789.892	9672
789.996	5836
790.100	4975
790.204	7722
790.308	9528
790.412	6186
790.516	5134
790.620	6651
790.724	9677
790.828	7418
790.931	4219
791.035	7444
791.139	6800
791.242	7819
791.346	5968
791.450	6570
791.554	6389
791.657	4814
791.761	6351
791.864	8164
791.968	7828
792.072	7033
792.175	5880
792.279	5522
792.382	5499
792.486	5047
792.589	6606
792.693	6952
792.796	4864
792.899	6654
793.003	7675
793.106	5967
793.209	6778
793.313	5220
793.416	3824
793.519	4947
793.623	7866
793.726	7457
793.829	5220
793.932	4495
794.035	4703
794.138	8064
794.242	8812
794.345	4775
794.448	4370
794.551	3515
794.654	7212
794.757	6090
794.860	5648
794.963	6040
795.066	5205
795.169	6517
795.272	5031
795.375	7218
795.477	4086
795.580	5120
795.683	4233
795.786	6872
795.889	4708
795.991	4874
796.094	5689
796.197	4572
796.300	7610
796.402	7195
796.505	4269
796.608	4587
796.710	5366
796.813	6774
796.915	7281
797.018	6865
797.120	6097
797.223	5101
797.326	8273
797.428	5038
797.530	4651
797.633	5012
797.735	7173
797.838	6026
797.940	7509
798.042	5933
798.145	4714
798.247	5320
798.349	3143
798.452	5653
798.554	6706
798.656	7847
798.758	8469
798.860	6402
798.962	5717
799.065	4448
799.167	4592
799.269	5258
799.371	7943
799.473	9495
799.575	7908
799.677	5294
799.779	6358
799.881	4438
799.983	7009
800.085	4708
800.187	5245
800.289	3489
800.390	4640
800.492	6744
800.594	5208
800.696	3558
800.798	4164
800.899	4253
801.001	4816
801.103	5119
801.205	5106
801.306	4858
801.408	5082
801.509	4998
801.611	5513
801.713	5076
801.814	2790
801.916	3446
802.017	3497
802.119	2519
802.220	4285
802.322	2773
802.423	5045
802.525	2103
802.626	3546
802.727	5638
802.829	4741
802.930	1747
803.031	4380
803.133	3826
803.234	4172
803.335	4452
803.436	3443
803.538	4355
803.639	3485
803.740	4607
803.841	3269
803.942	4979
804.043	4578
804.144	2762
804.245	3269
804.346	3508
804.447	3515
804.548	4515
804.649	5348
804.750	2315
804.851	3427
804.952	3496
805.053	3712
805.154	2806
805.255	3794
805.355	3404
805.456	3113
805.557	3261
805.658	2207
805.758	3094
805.859	3897
805.960	3865
806.061	2892
806.161	2893
806.262	3071
806.362	2172
806.463	3034
806.564	4739
806.664	4379
806.765	2289
806.865	3244
806.966	2395
807.066	2300
807.166	4593
807.267	4279
807.367	1724
807.468	3846
807.568	1953
807.668	3397
807.769	4442
807.869	3491
807.969	3752
808.069	3362
808.170	3499
808.270	2612
808.370	3257
808.470	3486
808.570	2619
808.670	2357
808.770	2245
808.870	2065
808.970	3206
809.070	2887
809.170	2803
809.271	3891
809.370	3058
809.470	2996
809.570	2327
809.670	2781
809.770	2727
809.870	4145
809.970	3633
810.070	3890
810.169	3900
810.269	2488
810.369	4223
810.469	2758
810.568	2762
810.668	2755
810.768	3372
810.867	2926
810.967	2062
811.066	2960
811.166	2742
811.265	4136
811.365	3199
811.464	2377
811.564	3380
811.663	3569
811.763	2227
811.862	3821
811.962	4076
812.061	2964
812.160	2637
812.260	3533
812.359	2636
812.458	2715
812.557	2658
812.657	2326
812.756	4149
812.855	3490
812.954	2597
813.053	2840
813.153	2730
813.252	3172
813.351	3199
813.450	3876
813.549	3568
813.648	2781
813.747	2567
813.846	3904
813.945	3347
814.044	3697
814.143	3754
814.242	3663
814.341	3043
814.439	5241
814.538	4643
814.637	3976
814.736	3362
814.835	4622
814.933	4199
815.032	6604
815.131	8408
815.229	17247
815.328	23259
815.427	17283
815.525	14598
815.624	14674
815.722	13919
815.821	14660
815.919	15120
816.018	15092
816.116	15753
816.215	14852
816.313	16579
816.412	19302
816.510	19575
816.609	21491
816.707	22585
816.805	20525
816.904	19914
817.002	20947
817.100	21574
817.198	22760
817.296	19241
817.395	19798
817.493	19438
817.591	18031
817.689	18560
817.787	19067
817.885	17423
817.983	15876
818.081	17591
818.179	16553
818.277	19120
818.375	15690
818.473	17000
818.571	14643
818.669	17038
818.767	19582
818.865	16358
818.963	12372
819.061	16742
819.158	15422
819.256	17992
819.354	13976
819.452	14965
819.549	13952
819.647	17457
819.745	13880
819.842	14525
819.940	16765
820.038	14399
820.135	13492
820.233	16337
820.330	14946
820.428	13537
820.525	16097
820.623	13810
820.720	12997
820.818	14771
820.915	15840
821.012	12982
821.110	13428
821.207	14079
821.304	13342
821.402	13959
821.499	14816
821.596	12368
821.693	14152
821.791	14526
821.888	12855
821.985	15500
822.082	10922
822.179	13386
822.276	14643
822.373	10625
822.470	12085
822.567	14122
822.664	11510
822.761	12461
822.858	13506
822.955	12171
823.052	10660
823.149	12496
823.246	13689
823.343	9476
823.440	10896
823.536	12440
823.633	11855
823.730	10515
823.827	13103
823.923	11955
824.020	10021
824.117	13431
824.213	13184
824.310	10064
824.407	8563
824.503	12084
824.600	10583
824.696	9926
824.793	13897
824.889	12833
824.986	10400
825.082	7436
825.179	9497
825.275	11873
825.371	14620
825.468	8877
825.564	6064
825.660	12202
825.757	15069
825.853	9928
825.949	8365
826.045	8163
826.142	10838
826.238	11025
826.334	11153
826.430	9984
826.526	7108
826.622	6113
826.718	11495
826.814	12826
826.910	10875
827.006	6071
827.102	7336
827.198	9940
827.294	11770
827.390	11214
827.486	8868
827.582	6345
827.678	7683
827.774	12391
827.869	7396
827.965	7689
828.061	6579
828.157	10565
828.252	10084
828.348	7591
828.444	7750
828.539	7813
828.635	9797
828.731	9327
828.826	7697
828.922	9337
829.017	11424
829.113	11951
829.208	8556
829.304	9564
829.399	13229
829.495	10913
829.590	8802
829.685	9134
829.781	10285
829.876	10976
829.971	5613
830.066	5069
830.162	8406
830.257	12708
830.352	8611
830.447	6355
830.543	7855
830.638	9058
830.733	11156
830.828	8340
830.923	7818
831.018	9447
831.113	10829
831.208	7009
831.303	5543
831.398	5615
831.493	8904
831.588	13104
831.683	7442
831.778	5472
831.873	7134
831.967	9061
832.062	9917
832.157	7025
832.252	7918
832.346	7644
832.441	9722
832.536	7104
832.631	8031
832.725	4966
832.820	6699
832.914	7424
833.009	7022
833.104	4686
833.198	4971
833.293	7070
833.387	9034
833.482	8173
833.576	7463
833.670	7824
833.765	9045
833.859	9817
833.954	8976
834.048	6802
834.142	6429
834.237	4260
834.331	6121
834.425	6936
834.519	5953
834.613	4407
834.708	5847
834.802	5103
834.896	6785
834.990	7466
835.084	5070
835.178	5044
835.272	6111
835.366	8037
835.460	8582
835.554	6395
835.648	4311
835.742	3469
835.836	4802
835.930	5345
836.024	7468
836.117	5944
836.211	5006
836.305	4405
836.399	4253
836.493	4004
836.586	6793
836.680	5027
836.774	4713
836.867	4565
836.961	3892
837.055	4124
837.148	4397
837.242	4984
837.335	5501
837.429	3898
837.522	4396
837.616	3365
837.709	4474
837.803	4592
837.896	7125
837.989	6261
838.083	4365
838.176	3139
838.269	2357
838.363	5192
838.456	4183
838.549	6745
838.642	5174
838.735	4063
838.829	5911
838.922	4537
839.015	3917
839.108	3484
839.201	5002
839.294	5609
839.387	4519
839.480	2316
839.573	4134
839.666	3207
839.759	4096
839.852	3937
839.945	6198
840.038	3904
840.131	3549
840.223	2411
840.316	4990
840.409	6348
840.502	6036
840.594	6263
840.687	1208
840.780	2457
840.873	2158
840.965	2786
841.058	5022
841.150	5452
841.243	3247
841.336	3311
841.428	3385
841.521	3217
841.613	3583
841.706	3939
841.798	2702
841.890	4168
841.983	3155
842.075	3149
842.167	3320
842.260	4878
842.352	4880
842.444	4534
842.537	2413
842.629	2522
842.721	2490
842.813	4108
842.905	2857
842.997	4991
843.090	3719
843.182	3251
843.274	1645
843.366	3394
843.458	4033
843.550	4971
843.642	3798
843.734	3333
843.826	2699
843.918	2674
844.009	3720
844.101	3322
844.193	3862
844.285	4444
844.377	5147
844.469	2695
844.560	2545
844.652	1993
844.744	2440
844.835	3286
844.927	3941
845.019	3702
845.110	2579
845.202	4435
845.293	2858
845.385	1884
845.476	3612
845.568	3973
845.659	1794
845.751	3121
845.842	2178
845.934	4075
846.025	2245
846.116	3592
846.208	3622
846.299	2191
846.390	2563
846.482	2588
846.573	3951
846.664	3525
846.755	2705
846.846	3546
846.937	2108
847.029	1139
847.120	2457
847.211	2359
847.302	4396
847.393	2244
847.484	3309
847.575	1658
847.666	802
847.757	2894
847.847	3599
847.938	4462
848.029	4356
848.120	2945
848.211	3031
848.302	2711
848.392	2149
848.483	3203
848.574	3644
848.664	3731
848.755	3131
848.846	1902
848.936	3163
849.027	3995
849.118	4677
849.208	3626
849.299	6577
849.389	12626
849.480	21102
849.570	40707
849.661	76122
849.751	120680
849.841	46469
849.932	10841
850.022	5906
850.112	5583
850.203	4131
850.293	2644
850.383	3100
850.474	3277
850.564	2259
850.654	1985
850.744	3082
850.834	3109
850.924	3524
851.014	5127
851.104	4393
851.194	2852
851.284	1952
851.374	2404
851.464	2516
851.554	2469
851.644	3320
851.734	3839
851.824	3570
851.914	3296
852.004	4036
852.094	2079
852.183	2448
852.273	3221
852.363	2623
852.452	3221
852.542	2859
852.632	2712
852.721	3351
852.811	3699
852.901	4999
852.990	4856
853.080	4762
853.169	4895
853.259	5463
853.348	6256
853.438	7754
853.527	10854
853.617	15026
853.706	24582
853.795	42901
853.885	81297
853.974	140373
854.063	233592
854.152	287834
854.242	147032
854.331	52116
854.420	24826
854.509	16504
854.598	12334
854.687	9856
854.777	8231
854.866	5789
854.955	5408
855.044	4315
855.133	4915
855.222	4779
855.311	3613
855.400	4041
855.488	3030
855.577	3532
855.666	3045
855.755	3401
855.844	2606
855.933	3411
856.021	3538
856.110	3383
856.199	1622
856.288	1726
856.376	1925
856.465	2126
856.554	3025
856.642	3616
856.731	3768
856.819	3447
856.908	2217
856.996	2138
857.085	2435
857.173	1999
857.262	1929
857.350	2572
857.438	2826
857.527	1239
857.615	2297
857.703	3401
857.792	1979
857.880	1760
857.968	2444
858.056	2261
858.145	1692
858.233	2802
858.321	1539
858.409	3758
858.497	3242
858.585	2221
858.673	1937
858.761	1780
858.849	1492
858.937	1862
859.025	2351
859.113	2020
859.201	2518
859.289	4067
859.377	1768
859.465	2510
859.552	2026
859.640	1767
859.728	2005
859.816	1623
859.903	1658
859.991	1588
860.079	2505
860.166	2892
860.254	3037
860.342	2984
860.429	1893
860.517	2204
860.604	2100
860.692	1418
860.779	1306
860.867	2389
860.954	3092
861.042	3218
861.129	2809
861.216	4026
861.304	3069
861.391	3082
861.478	2672
861.565	2839
861.653	3090
861.740	2065
861.827	1720
861.914	3049
862.001	2597
862.089	2770
862.176	2954
862.263	2157
862.350	2864
862.437	2399
862.524	2157
862.611	3023
862.698	2381
862.785	3289
862.871	4009
862.958	4188
863.045	3653
863.132	3076
863.219	2436
863.306	2851
863.392	3197
863.479	2632
863.566	2843
863.652	3689
863.739	2706
863.826	3523
863.912	3647
863.999	4136
864.086	4260
864.172	4456
864.259	5187
864.345	5043
864.432	4779
864.518	4533
864.604	4497
864.691	4676
864.777	4975
864.863	8095
864.950	10783
865.036	14329
865.122	25915
865.209	26828
865.295	23700
865.381	23180
865.467	22139
865.553	24132
865.639	28105
865.726	36720
865.812	57401
865.898	90588
865.984	130160
866.070	201655
866.156	199264
866.242	86075
866.328	38448
866.414	26980
866.499	23561
866.585	21253
866.671	19531
866.757	20688
866.843	19320
866.928	18822
867.014	17435
867.100	18601
867.186	16890
867.271	17461
867.357	17132
867.442	16504
867.528	16748
867.614	16689
867.699	16426
867.785	16365
867.870	16511
867.956	15836
868.041	16221
868.127	15169
868.212	16010
868.297	15402
868.383	16219
868.468	15391
868.553	16626
868.639	15369
868.724	15396
868.809	15659
868.894	13976
868.979	14071
869.065	14787
869.150	12940
869.235	15230
869.320	14644
869.405	12584
869.490	15331
869.575	13781
869.660	10651
869.745	14519
869.830	15552
869.915	11907
870.000	13070
870.085	12105
870.169	16807
870.254	16135
870.339	9733
870.424	11031
870.509	14086
870.593	16424
870.678	14639
870.763	13210
870.847	11241
870.932	13825
871.016	14836
871.101	10350
871.186	13335
871.270	15897
871.355	10583
871.439	11194
871.523	14239
871.608	10329
871.692	11443
871.777	14271
871.861	13323
871.945	11478
872.030	12746
872.114	12116
872.198	11496
872.282	9431
872.367	11661
872.451	11872
872.535	10638
872.619	11407
872.703	10231
872.787	12539
872.871	12072
872.955	9436
873.039	8158
873.123	10708
873.207	12791
873.291	7496
873.375	10046
873.459	12387
873.543	10621
873.627	9401
873.711	8658
873.794	12100
873.878	10431
873.962	7640
874.045	9592
874.129	9308
874.137	9375
874.213	10042
874.245	9963
874.296	9846
874.352	8614
874.380	8013
874.460	9398
874.464	9456
874.547	8639
874.568	9186
874.631	10800
874.676	10386
874.714	10006
874.784	10403
874.798	10501
874.881	8018
874.892	7981
874.965	7768
874.999	8651
875.048	9773
875.107	9491
875.131	9391
875.215	7409
875.215	7408
875.298	6626
875.323	7281
875.381	8849
875.430	10856
875.465	12174
875.538	9775
875.548	9455
875.631	6856
875.646	6689
875.714	5994
875.753	6600
875.798	7327
875.861	9801
875.881	10519
875.964	8458
875.968	8387
876.047	7286
876.076	7516
876.130	8043
876.183	8580
876.213	8821
876.291	9975
876.296	10037
876.379	8365
876.398	8039
876.462	7048
876.506	6460
876.545	6025
876.613	6681
876.628	6841
876.711	7815
876.721	7958
876.794	9129
876.828	9185
876.877	8841
876.935	6643
876.960	5878
877.043	6883
877.043	6891
877.125	8810
877.150	9516
877.208	10694
877.258	8480
877.291	7013
877.365	6589
877.374	6575
877.456	5799
877.472	5839
877.539	6083
877.579	7057
877.622	8085
877.687	8379
877.704	8407
877.787	7352
877.794	7443
877.869	8722
877.901	8595
877.952	7724
878.008	6142
878.034	5710
878.115	6003
878.117	6008
878.199	7161
878.222	7310
878.282	8051
878.329	8814
878.364	9060
878.437	8592
878.447	8476
878.529	6372
878.544	6221
878.611	5868
878.651	6088
878.694	6850
878.758	7984
878.776	8168
878.858	8895
878.865	8822
878.941	7015
878.972	6296
879.023	5670
879.078	6175
879.105	6580
879.185	8093
879.187	8118
879.269	8335
879.292	8346
879.351	8173
879.399	7170
879.433	6228
879.506	6416
879.516	6559
879.598	6872
879.613	6788
879.680	6214
879.720	6730
879.762	7346
879.827	7056
879.844	6862
879.926	6356
879.933	6369
880.007	6847
880.040	6297
880.089	5561
880.147	6594
880.171	7146
880.253	7899
880.254	7894
880.335	6410
880.360	6748
880.417	8376
880.467	7962
880.499	7351
880.574	7469
880.580	7529
880.662	8242
880.680	8013
880.744	6113
880.787	5279
880.825	5484
880.893	7033
880.907	7108
880.989	6032
881.000	6077
881.070	7628
881.106	7881
881.152	7247
881.213	5683
881.233	5374
881.315	6160
881.319	6182
881.396	6969
881.426	7148
881.478	7595
881.532	8658
881.559	8967
881.639	7827
881.641	7784
881.722	6059
881.745	5974
881.803	7097
881.852	7659
881.885	7300
881.958	5587
881.966	5540
882.047	6794
882.064	6810
882.129	6030
882.171	5367
882.210	4899
882.277	4724
882.291	4894
882.372	6596
882.383	6776
882.454	8023
882.489	8184
882.535	7891
882.596	8175
882.616	8193
882.697	6969
882.702	6925
882.778	5698
882.808	5076
882.859	4570
882.914	5121
882.940	5643
883.020	6418
883.021	6430
883.102	6937
883.127	7528
883.183	9074
883.233	9175
883.264	7892
883.339	4726
883.345	4621
883.426	4379
883.445	4313
883.507	4997
883.551	5723
883.587	6714
883.657	8000
883.668	8087
883.749	9044
883.763	8932
883.830	5956
883.869	4658
883.910	4473
883.975	4927
883.991	5263
884.072	6389
884.081	6527
884.152	7949
884.187	8718
884.233	9580
884.292	9353
884.314	8158
884.394	3943
884.398	3778
884.475	3819
884.504	3765
884.555	3983
884.610	4426
884.636	5016
884.716	6822
884.716	6842
884.797	9005
884.821	9347
884.877	8434
884.927	7726
884.958	7125
885.033	5531
885.038	5463
885.118	4620
885.139	4459
885.199	4388
885.244	4284
885.279	4891
885.350	6215
885.359	6570
885.439	9861
885.456	10220
885.520	7561
885.561	6138
885.600	5279
885.667	4540
885.680	4976
885.760	6977
885.773	7238
885.840	5096
885.878	4138
885.920	4707
885.984	5535
886.000	5767
886.080	6741
886.089	6866
886.160	7695
886.195	7755
886.240	7142
886.300	6773
886.320	6891
886.400	7017
886.406	7013
886.480	5672
886.511	5192
886.560	5076
886.616	4749
886.640	4825
886.720	5181
886.722	5186
886.800	5346
886.827	5353
886.879	5628
886.932	5887
886.959	6605
887.038	8560
887.039	8558
887.119	7263
887.143	6836
887.198	6737
887.248	6760
887.278	6555
887.354	5801
887.358	5841
887.437	6567
887.459	6792
887.517	7354
887.564	7551
887.596	6847
887.669	5242
887.676	5134
887.755	3939
887.774	3637
887.835	4019
887.880	4385
887.914	5084
887.985	6217
887.994	6445
888.073	8722
888.090	9114
888.153	10625
888.195	11488
888.232	9497
888.300	6068
888.311	5921
888.391	4730
888.405	4508
888.470	4560
888.510	4612
888.549	4755
888.615	5032
888.628	5520
888.708	8345
888.720	8753
888.787	7577
888.825	6905
888.866	6068
888.930	4801
888.945	4930
889.024	5676
889.035	5747
889.103	7288
889.140	8106
889.182	6809
889.245	4935
889.261	5390
889.340	7503
889.349	7731
889.419	6537
889.454	5937
889.498	5834
889.559	5693
889.577	5918
889.656	6858
889.664	6945
889.735	7195
889.768	7291
889.814	6816
889.873	6149
889.978	7057
890.083	5744
890.187	6088
890.292	7713
890.397	6088
890.501	5792
890.606	5613
890.710	5491
890.815	8451
890.919	6782
891.024	6843
891.128	4521
891.233	3825
891.337	8480
891.442	8375
891.546	7286
891.650	4889
891.755	4639
891.859	7112
891.963	8363
892.068	7189
892.172	4643
892.276	3940
892.380	4765
892.484	7938
892.589	7755
892.693	6227
892.797	4199
892.901	3479
893.005	4602
893.109	9108
893.213	7904
893.317	5757
893.421	3639
893.525	3158
893.629	4620
893.733	6891
893.837	5642
893.941	5518
894.045	3729
894.148	3477
894.252	4219
894.356	7415
894.460	8742
894.564	5594
894.667	4847
894.771	3542
894.875	3226
894.978	4319
895.082	6888
895.186	7911
895.289	5620
895.393	4860
895.496	8144
895.600	5584
895.703	2654
895.807	4631
895.910	5992
896.014	6581
896.117	4237
896.221	6419
896.324	5979
896.427	3684
896.531	3486
896.634	5567
896.737	4472
896.840	5922
896.944	6693
897.047	7621
897.150	5469
897.253	3831
897.356	3821
897.460	4070
897.563	4924
897.666	6783
897.769	6950
897.872	3757
897.975	4455
898.078	4944
898.181	3635
898.284	4250
898.387	6517
898.490	6668
898.593	4381
898.695	4568
898.798	4194
898.901	4547
899.004	4191
899.107	4971
899.209	4421
899.312	8228
899.415	4608
899.518	3675
899.620	3209
899.723	3384
899.826	4498
899.928	3831
900.031	5127
900.133	7786
900.236	4151
900.338	2771
900.441	3585
900.543	4010
900.646	4720
900.748	5242
900.851	6940
900.953	4604
901.055	3055
901.158	4975
901.260	3868
901.362	2916
901.465	4433
901.567	4690
901.669	5990
901.771	4359
901.873	4148
901.976	4719
902.078	5044
902.180	3307
902.282	2312
902.384	5321
902.486	6605
902.588	6393
902.690	2612
902.792	3464
902.894	4146
902.996	6240
903.098	6151
903.200	3357
903.302	3544
903.404	3592
903.505	2989
903.607	4578
903.709	7085
903.811	6189
903.913	4797
904.014	3127
904.116	2979
904.218	3142
904.319	4778
904.421	7108
904.523	5670
904.624	4642
904.726	3763
904.827	2784
904.929	3074
905.030	3520
905.132	6714
905.233	5229
905.335	3208
905.436	2938
905.537	2785
905.639	3992
905.740	4149
905.841	5905
905.943	4984
906.044	4291
906.145	2902
906.247	3065
906.348	3909
906.449	4880
906.550	6116
906.651	2950
906.752	3545
906.854	3227
906.955	4032
907.056	4459
907.157	5607
907.258	6708
907.359	3225
907.460	1778
907.561	1949
907.662	3565
907.762	3559
907.863	4707
907.964	5792
908.065	4737
908.166	2651
908.267	3183
908.367	2100
908.468	2832
908.569	3451
908.670	5467
908.770	3916
908.871	4344
908.971	4188
909.072	3342
909.173	3531
909.273	3439
909.374	5729
909.474	4109
909.575	3255
909.675	3652
909.776	4112
909.876	4029
909.977	3158
910.077	4161
910.177	5356
910.278	4139
910.378	2781
910.478	3766
910.579	4472
910.679	5026
910.779	4597
910.879	4604
910.980	4405
911.080	5232
911.180	3446
911.280	3197
911.380	3480
911.480	2778
911.580	3402
911.680	4525
911.780	5023
911.880	5848
911.980	3150
912.080	4229
912.180	4639
912.280	3686
912.380	3344
912.480	2664
912.580	2807
912.679	4201
912.779	4694
912.879	4976
912.979	2662
913.078	3233
913.178	3032
913.278	2778
913.377	3595
913.477	3171
913.577	2273
913.676	5407
913.776	5770
913.875	4038
913.975	2722
914.074	4363
914.174	5004
914.273	3637
914.373	3884
914.472	3535
914.572	3108
914.671	3498
914.770	3744
914.870	3636
914.969	3225
915.068	4158
915.167	5644
915.267	3736
915.366	3285
915.465	4137
915.564	4071
915.663	4858
915.763	4286
915.862	5409
915.961	5244
916.060	3290
916.159	3538
916.258	2904
916.357	3875
916.456	4710
916.555	4426
916.654	5072
916.752	5292
916.851	4899
916.950	2776
917.049	3421
917.148	2860
917.247	3297
917.345	2887
917.444	3408
917.543	2698
917.642	3896
917.740	4380
917.839	6640
917.937	6616
918.036	5811
918.135	3907
918.233	4403
918.332	4024
918.430	4135
918.529	3376
918.627	4265
918.726	6321
918.824	4882
918.923	3541
919.021	4752
919.119	3565
919.218	2896
919.316	4762
919.414	3844
919.512	6185
919.611	5113
919.709	4320
919.807	6010
919.905	6153
920.003	6457
920.102	6149
920.200	7098
920.298	7860
920.396	7030
920.494	5450
920.592	6119
920.690	6104
920.788	6478
920.886	6841
920.984	7455
921.082	8173
921.180	9134
921.277	7712
921.375	9728
921.473	13987
921.571	12714
921.669	11646
921.766	10856
921.864	11909
921.962	11852
922.060	10779
922.157	11286
922.255	12636
922.352	11920
922.450	13524
922.548	13900
922.645	15463
922.743	20468
922.840	31727
922.938	36093
923.035	30851
923.133	31518
923.230	34436
923.327	43006
923.425	38068
923.522	37408
923.619	34910
923.717	31487
923.814	31025
923.911	29894
924.008	31864
924.106	30357
924.203	29410
924.300	31450
924.397	30397
924.494	30380
924.591	29365
924.688	28555
924.786	29110
924.883	30709
924.979	30152
925.077	29113
925.173	27566
925.270	29048
925.367	28834
925.464	30974
925.561	31593
925.658	31757
925.755	24801
925.852	31896
925.948	28098
926.045	28203
926.142	29132
926.239	30563
926.335	23673
926.432	28579
926.529	30565
926.625	33223
926.722	25650
926.818	25309
926.915	29607
927.011	27729
927.108	26268
927.204	28426
927.301	25376
927.397	28559
927.494	30894
927.590	21259
927.687	22390
927.783	30564
927.879	30156
927.976	25168
928.072	23078
928.168	26809
928.264	27375
928.361	24524
928.457	28937
928.553	23870
928.649	24361
928.745	27309
928.841	22420
928.937	25421
929.033	26047
929.129	24366
929.225	28544
929.321	23878
929.417	21280
929.513	26720
929.609	22583
929.705	21672
929.801	26316
929.897	20627
929.993	21988
930.089	24281
930.184	20445
930.280	23392
930.376	28880
930.471	21177
930.567	19103
930.663	22436
930.758	19652
930.854	21577
930.950	21695
931.045	19985
931.141	21179
931.236	26437
931.332	22358
931.427	16792
931.523	25609
931.618	23633
931.714	14426
931.809	18801
931.905	23723
932.000	16885
932.095	14817
932.191	24658
932.286	26989
932.381	21699
932.476	16644
932.572	20883
932.667	17342
932.762	18443
932.857	20084
932.952	23825
933.047	19844
933.142	15156
933.237	19779
933.332	22623
933.427	22594
933.522	20212
933.617	16297
933.712	17758
933.807	21597
933.902	24481
933.997	23967
934.092	16516
934.187	17299
934.282	20036
934.376	19451
934.471	21813
934.566	16881
934.661	16911
934.755	20642
934.850	22284
934.945	16898
935.039	15388
935.134	13788
935.228	16983
935.323	25079
935.417	16524
935.512	11817
935.606	13354
935.701	18951
935.795	20657
935.890	18364
935.984	15045
936.079	12258
936.173	17722
936.267	15391
936.362	13782
936.456	16572
936.550	22187
936.644	18190
936.738	13619
936.833	13386
936.927	10446
937.021	14700
937.115	17433
937.209	18273
937.303	15538
937.397	13054
937.491	14851
937.585	17411
937.679	16986
937.773	13094
937.867	12497
937.961	12527
938.055	20001
938.149	17186
938.243	11355
938.337	11409
938.430	13589
938.524	19305
938.618	15671
938.712	11785
938.805	14786
938.899	16522
938.993	20659
939.086	12978
939.180	9366
939.274	12120
939.367	17167
939.461	18016
939.554	13313
939.648	11458
939.741	12497
939.835	14748
939.928	19739
940.022	16240
940.115	13070
940.208	15562
940.302	18433
940.395	18899
940.488	13546
940.582	12039
940.675	11869
940.768	10563
940.861	16190
940.954	17374
941.048	9851
941.141	9423
941.234	11335
941.327	12576
941.420	14060
941.513	15681
941.606	11470
941.699	10326
941.792	16492
941.885	13228
941.978	14052
942.071	13152
942.164	10131
942.257	8736
942.349	11674
942.442	13536
942.535	9703
942.628	11111
942.721	12371
942.813	12024
942.906	13060
942.999	11692
943.091	10441
943.184	11870
943.277	12012
943.369	8280
943.462	7762
943.554	11141
943.647	11663
943.739	14265
943.832	15144
943.924	7421
944.017	7459
944.109	8805
944.201	10210
944.294	11273
944.386	11609
944.478	10594
944.571	9580
944.663	10092
944.755	10512
944.847	11802
944.940	10976
945.032	7558
945.124	7632
945.216	11077
945.308	12165
945.400	10654
945.492	9447
945.584	12954
945.676	14142
945.768	11154
945.860	12294
945.952	13681
946.044	10577
946.136	9500
946.228	10252
946.320	8945
946.412	11405
946.503	12561
946.595	13302
946.687	8914
946.779	6825
946.870	8399
946.962	8491
947.054	8781
947.145	11537
947.237	8950
947.329	9828
947.420	10815
947.512	9577
947.603	6314
947.695	7793
947.786	8380
947.878	7929
947.969	10072
948.061	11288
948.152	9933
948.243	5828
948.335	5993
948.426	6716
948.517	9478
948.609	10572
948.700	10028
948.791	9057
948.882	5296
948.973	6576
949.065	8573
949.156	9067
949.247	6842
949.338	8648
949.429	5449
949.520	6002
949.611	9721
949.702	9991
949.793	8034
949.884	8576
949.975	7868
950.066	5735
950.157	5825
950.247	6595
950.338	6022
950.429	6528
950.520	7727
950.611	6196
950.701	6959
950.792	11924
950.883	10155
950.973	7595
951.064	8683
951.155	10072
951.245	10403
951.336	9452
951.427	10487
951.517	12311
951.608	9738
951.698	8521
951.788	6087
951.879	5550
951.969	6390
952.060	7204
952.150	8560
952.240	11248
952.331	9544
952.421	9510
952.511	6035
952.602	4247
952.692	5644
952.782	5444
952.872	5658
952.962	8657
953.052	6616
953.143	6358
953.233	6431
953.323	6832
953.413	9214
953.503	9481
953.593	7393
953.683	6723
953.773	5485
953.863	5317
953.953	4808
954.042	6306
954.132	8257
954.222	7303
954.312	5621
954.402	5407
954.492	6342
954.581	6824
954.671	7531
954.761	5798
954.850	7696
954.940	4276
955.030	4113
955.119	5763
955.209	4895
955.298	6733
955.388	8107
955.477	8525
955.567	4948
955.656	6606
955.746	6229
955.835	6409
955.925	4912
956.014	7152
956.103	8905
956.193	10166
956.282	8146
956.371	6973
956.461	6552
956.550	6964
956.639	6785
956.728	6591
956.817	6685
956.906	6488
956.995	8254
957.085	6344
957.174	6762
957.263	5621
957.352	5919
957.441	7679
957.530	6558
957.619	5736
957.708	5521
957.796	6152
957.885	6113
957.974	5818
958.063	6293
958.152	4973
958.241	4085
958.329	4479
958.418	5167
958.507	6087
958.596	7881
958.684	5798
958.773	6586
958.861	5552
958.950	4276
959.039	4584
959.127	5387
959.216	6524
959.304	4926
959.393	5584
959.481	6314
959.570	3566
959.658	3909
959.746	3985
959.835	4922
959.923	5376
960.011	4806
960.100	5865
960.188	6932
960.276	6199
960.365	4161
960.453	3563
960.541	3809
960.629	4984
960.717	4034
960.805	3654
960.893	4185
960.981	6009
961.069	8274
961.158	9485
961.245	9425
961.333	7332
961.421	6657
961.509	6023
961.597	5850
961.685	5656
961.773	5373
961.861	6606
961.949	7268
962.036	4612
962.124	4369
962.212	4968
962.299	4583
962.387	4054
962.475	4713
962.562	4738
962.650	6110
962.738	5226
962.825	3650
962.913	4334
963.000	4759
963.088	6511
963.175	5651
963.263	4643
963.350	5147
963.438	6057
963.525	4159
963.612	5292
963.700	4393
963.787	6867
963.874	5235
963.962	4586
964.049	3630
964.136	4457
964.223	4348
964.310	4634
964.398	4258
964.485	4790
964.572	6263
964.659	5956
964.746	3809
964.833	4541
964.920	4360
965.007	4266
965.094	4406
965.181	4989
965.268	6497
965.355	5233
965.441	5135
965.528	4376
965.615	5929
965.702	4913
965.789	3808
965.875	6078
965.962	6194
966.049	5649
966.136	7681
966.222	7201
966.309	6342
966.395	6945
966.482	7068
966.569	5877
966.655	6504
966.742	5921
966.828	4555
966.915	4440
967.001	4714
967.087	3822
967.174	3618
967.260	5034
967.347	5297
967.433	4774
967.519	4623
967.605	5013
967.692	5347
967.778	5060
967.864	4916
967.950	4548
968.036	4928
968.123	5490
968.209	4710
968.295	2925
968.381	4254
968.467	3934
968.553	1814
968.639	5596
968.725	3737
968.811	5703
968.897	6504
968.983	4770
969.069	4077
969.154	3411
969.240	3394
969.326	3327
969.412	3870
969.497	4251
969.583	3234
969.669	5382
969.755	5492
969.840	5350
969.926	9253
970.012	10569
970.097	11491
970.183	9650
970.268	6255
970.354	6593
970.439	4386
970.525	5725
970.610	4614
970.696	5472
970.781	4825
970.866	3244
970.952	4569
971.037	4064
971.122	5085
971.208	5049
971.293	5354
971.378	4190
971.463	5188
971.549	4715
971.634	3860
971.719	4345
971.804	3846
971.889	4650
971.974	4488
972.059	4174
972.144	4557
972.229	4527
972.314	4057
972.399	4221
972.484	3362
972.569	3255
972.654	2979
972.739	5103
972.824	4152
972.908	4246
972.993	3208
973.078	4601
973.163	4829
973.247	4750
973.332	3070
973.417	5294
973.501	4005
973.586	5550
973.671	4784
973.755	4249
973.840	4656
973.924	6023
974.009	7240
974.093	7884
974.178	7930
974.262	6435
974.346	5900
974.431	5933
974.515	4513
974.600	6018
974.684	5276
974.768	5552
974.852	5022
974.937	4892
975.021	5812
975.105	5721
975.189	4446
975.273	5024
975.358	3582
975.442	3889
975.526	5037
975.610	3989
975.694	4269
975.778	5036
975.862	3876
975.946	3193
976.030	5718
976.114	4800
976.198	4437
976.281	4120
976.365	5069
976.449	4387
976.533	5030
976.617	4128
976.700	3519
976.784	3765
976.868	3413
976.951	4124
977.035	4067
977.119	4827
977.202	4726
977.286	6372
977.369	7246
977.453	11136
977.536	10201
977.620	7574
977.703	6478
977.787	5357
977.870	6491
977.953	6491
978.037	4555
978.120	5601
978.203	5114
978.287	5963
978.370	6583
978.453	4288
978.536	4521
978.620	5636
978.703	6178
978.786	5090
978.869	3917
978.952	4409
979.035	6813
979.118	6144
979.201	4270
979.284	5187
979.367	4600
979.450	5207
979.533	3641
979.616	4453
979.699	4424
979.782	4672
979.865	4827
979.948	5187
980.030	4950
980.113	5131
980.196	3787
980.279	6427
980.361	5053
980.444	5476
980.526	6961
980.609	9320
980.692	11722
980.774	9846
980.857	6838
980.939	8138
981.022	6056
981.104	6309
981.187	5577
981.269	7376
981.352	6953
981.434	5684
981.516	5848
981.599	7140
981.681	5865
981.763	5422
981.846	5241
981.928	6771
982.010	5837
982.092	5248
982.174	6259
982.256	5790
982.339	5411
982.421	5908
982.503	5637
982.585	4406
982.667	5099
982.749	5881
982.831	4941
982.913	5748
982.995	6748
983.077	6403
983.158	7577
983.240	5604
983.322	8429
983.404	13028
983.486	10886
983.568	9429
983.649	8394
983.731	9035
983.813	7946
983.894	7654
983.976	8511
984.058	7764
984.139	8150
984.221	7134
984.302	7366
984.384	7416
984.465	8080
984.547	7939
984.628	7436
984.710	8388
984.791	7892
984.872	7853
984.954	6404
985.035	7643
985.116	7107
985.198	7444
985.279	7929
985.360	7807
985.441	6883
985.522	7802
985.604	7736
985.685	5989
985.766	7871
985.847	9355
985.928	7613
986.009	6868
986.090	7515
986.171	7891
986.252	6763
986.333	8250
986.414	7619
986.495	7671
986.576	8816
986.656	9176
986.737	9467
986.818	9490
986.899	8879
986.980	7719
987.060	9483
987.141	9493
987.222	9932
987.302	11796
987.383	12734
987.464	11051
987.544	10704
987.625	10314
987.705	11737
987.786	12470
987.866	10235
987.947	10927
988.027	12228
988.108	9832
988.188	10299
988.268	9311
988.349	10319
988.429	10252
988.509	9761
988.589	9279
988.670	8472
988.750	10391
988.830	8746
988.910	10191
988.990	9960
989.070	9382
989.151	9128
989.231	8652
989.311	9707
989.391	8207
989.471	8661
989.551	9087
989.631	8216
989.711	9611
989.791	8685
989.870	7876
989.950	8731
990.030	8926
990.110	8546
990.190	6004
990.269	6509
990.349	8505
990.429	9369
990.509	7435
990.588	7076
990.668	7040
990.747	8060
990.827	7531
990.907	7172
990.986	9367
991.066	7158
991.145	6094
991.225	8160
991.304	7941
991.383	8314
991.463	7209
991.542	7707
991.622	6095
991.701	7035
991.780	7100
991.859	5671
991.939	6280
992.018	7706
992.097	8094
992.176	5654
992.256	6201
992.335	7124
992.414	8146
992.493	5418
992.572	5464
992.651	6989
992.730	6840
992.809	6272
992.888	5543
992.967	6342
993.046	6488
993.125	4493
993.203	5516
993.282	6469
993.361	6556
993.440	5175
993.519	5372
993.597	5437
993.676	5798
993.755	5995
993.834	5690
993.912	4479
993.991	5890
994.069	4881
994.148	5745
994.226	4090
994.305	4537
994.384	5458
994.462	7469
994.540	4773
994.619	4063
994.697	5225
994.776	5813
994.854	5739
994.932	4983
995.011	3742
995.089	4040
995.167	3568
995.245	4904
995.324	4246
995.402	6186
995.480	4100
995.558	4286
995.636	4040
995.714	4642
995.792	5504
995.870	4125
995.948	3969
996.026	4457
996.104	3476
996.182	5144
996.260	3517
996.338	4054
996.416	3463
996.494	4037
996.572	4929
996.649	3811
996.727	2980
996.805	3886
996.883	3780
996.960	3457
997.038	3775
997.116	4965
997.193	2841
997.271	3211
997.348	1941
997.426	3307
997.504	4361
997.581	5810
997.658	3838
997.736	1634
997.813	1772
997.891	4914
997.968	2349
998.046	3453
998.123	2342
998.200	4701
998.277	3446
998.355	4245
998.432	1402
998.509	2448
998.586	3678
998.663	3244
998.741	3150
998.818	2480
998.895	2969
998.972	4187
999.049	3935
999.126	3535
999.203	2655
999.280	2670
999.357	1864
999.434	3024
999.511	3087
999.587	2581
999.664	1454
999.741	1822
999.818	3783
999.895	2847
999.971	2062
1000.048	1782
1000.125	2378
1000.202	2157
1000.278	2760
1000.355	3421
1000.431	1683
1000.508	1859
1000.584	1114
1000.661	2342
1000.738	2062
1000.814	2659
1000.890	2707
1000.967	2488
1001.043	3124
1001.120	210
1001.196	1656
1001.272	1422
1001.349	1241
1001.425	3326
1001.501	2493
1001.577	2518
1001.654	2239
1001.730	1648
1001.806	1310
1001.882	758
1001.958	3293
1002.034	2566
1002.110	1269
1002.186	696
1002.262	1334
1002.338	1484
1002.414	1536
1002.490	2710
1002.566	1544
1002.642	629
1002.718	2430
1002.794	1992
1002.870	2541
1002.945	1239
1003.021	972
1003.097	1099
1003.173	2114
1003.248	1862
1003.324	1984
1003.400	1116
1003.475	755
1003.551	1624
1003.626	836
1003.702	1537
1003.777	592
1003.853	1090
1003.928	1401
1004.004	1280
1004.079	1077
1004.155	1801
1004.230	731
1004.305	1296
1004.381	685
1004.456	257
1004.531	-157
1004.607	1458
1004.682	989
1004.757	723
1004.832	768
1004.907	623
1004.982	1400
1005.057	1025
1005.133	458
1005.208	1177
1005.283	803
1005.358	1687
1005.433	-69
1005.508	1809
1005.583	1285
1005.657	981
1005.732	1516
1005.807	581
1005.882	314
1005.957	118
1006.032	1449
1006.106	301
1006.181	912
1006.256	1874
1006.331	383
1006.405	-223
1006.480	269
1006.554	609
1006.629	810
1006.704	-356
1006.778	30
1006.853	1764
1006.927	489
1007.002	82
1007.076	23
1007.150	261
1007.225	457
1007.299	1169
1007.373	-154
1007.448	613
1007.522	802
1007.596	-353
1007.671	79
1007.745	1068
1007.819	-209
1007.893	966
1007.967	449
1008.041	-858
1008.115	24
1008.190	237
1008.264	642
1008.338	-32
1008.412	-300
1008.486	757
1008.560	184
1008.633	1177
1008.707	874
1008.781	1375
1008.855	-190
1008.929	995
1009.003	-202
1009.076	-419
1009.150	422
1009.224	614
1009.298	471
1009.371	-277
1009.445	-91
1009.519	356
1009.592	-278
1009.666	278
1009.739	1221
1009.813	-95
1009.886	861
1009.960	-213
1010.033	-200
1010.107	610
1010.180	-1005
1010.253	-1180
1010.327	-1024
1010.400	-720
1010.473	-372
1010.547	600
1010.620	-892
1010.693	158
1010.766	-1354
1010.840	-125
1010.913	891
1010.986	-1022
1011.059	-1270
1011.132	-758
1011.205	456
1011.278	-1096
1011.351	-560
1011.424	-254
1011.497	20
1011.570	163
1011.643	-226
1011.716	476
1011.789	155
1011.862	-125
1011.934	-209
1012.007	-660
1012.080	-525
1012.153	-189
1012.225	81
1012.298	-511
1012.371	-337
1012.443	410
1012.516	-2120
1012.588	-145
1012.661	-1006
1012.733	-790
1012.806	211
1012.879	-249
1012.951	-579
1013.023	-509
1013.096	-217
1013.168	-664
1013.241	-1143
1013.313	-955
1013.385	-577
1013.458	52
1013.530	-492
1013.602	-942
1013.674	-729
1013.746	-1397
1013.819	-720
1013.891	-971
1013.963	-1357
1014.035	94
1014.107	-60
1014.179	-1115
1014.251	-1347
1014.323	-627
1014.395	173
1014.467	-96
1014.539	-958
1014.611	-1183
1014.683	-1571
1014.754	-252
1014.826	-1353
1014.898	-437
1014.970	-1560
1015.042	528
1015.113	-848
1015.185	-320
1015.257	-1856
1015.328	-148
1015.400	-1217
1015.471	-1137
1015.543	-1491
1015.615	-1045
1015.686	-318
1015.757	-819
1015.829	-916
1015.901	-260
1015.972	-939
1016.043	-514
1016.115	-830
1016.186	-57
1016.257	-1484
1016.328	-163
1016.400	-441
1016.471	-787
1016.542	-677
1016.613	-870
1016.685	-740
1016.756	-113
1016.827	-661
1016.898	-1445
1016.969	-572
1017.040	-1406
1017.111	-1650
1017.182	-2041
1017.253	-1384
1017.324	-1417
1017.395	-1636
1017.466	-1429
1017.537	-929
1017.608	-1589
1017.678	-521
1017.749	-633
1017.820	-1219
1017.891	-1018
1017.961	-1667
1018.032	-1000
1018.103	-1071
1018.173	-864
1018.244	-1882
1018.315	-1211
1018.385	-1568
1018.456	-734
1018.526	-1058
1018.597	-422
1018.667	-196
1018.738	-1676
1018.808	-1951
1018.878	-898
1018.949	-1236
1019.019	-1492
1019.089	-2231
1019.160	-672
1019.230	-2535
1019.300	-689
1019.371	-1573
1019.441	-302
1019.511	-651
1019.581	-1144
1019.651	-530
1019.721	-1562
1019.791	-797
1019.861	-1233
1019.931	-777
1020.001	-825
1020.071	-1220
1020.141	-1419
1020.211	-1465
1020.281	-1891
1020.351	-1384
1020.421	-1191
1020.491	-1369
1020.560	-1436
1020.630	-1742
1020.700	-907
1020.770	-982
1020.839	-679
1020.909	-778
1020.979	-1030
1021.048	-2139
1021.118	-1850
1021.187	-1347
1021.257	-1616
1021.326	-826
1021.396	-942
1021.465	-944
1021.535	-1387
1021.604	-2260
1021.674	-1071
1021.743	-921
1021.812	-448
1021.882	-556
1021.951	-959
1022.020	-1297
1022.089	-719
1022.159	-950
1022.228	-317
1022.297	-1045
1022.366	-1032
1022.435	-2206
1022.504	-1193
1022.573	-911
1022.642	-1199
1022.711	-2562
1022.781	-862
1022.849	-833
1022.918	-1864
1022.987	-1469
1023.056	-1748
1023.125	-1071
1023.194	-1186
1023.263	-1953
1023.331	-1079
1023.400	-1618
1023.469	-1565
1023.538	-1196
1023.606	-1346
1023.675	-1620
1023.744	-1421
1023.812	-1817
1023.881	-753
1023.949	-1080
1024.018	-1795
1024.086	-1766
1024.155	-1550
1024.223	-2022
1024.292	-1816
1024.360	-767
1024.429	-1289
1024.497	-2726
1024.565	-1588
1024.634	-1436
1024.702	-978
1024.770	-776
1024.838	-2015
1024.907	-1129
1024.975	-1923
1025.043	-1074
1025.111	-1755
1025.179	-966
1025.247	-1194
1025.315	-1554
1025.383	-1688
1025.451	-716
1025.519	-917
1025.587	-1358
1025.655	-673
1025.723	-2040
1025.791	-1891
1025.859	-1056
1025.927	-714
1025.995	-1487
1026.062	-1698
1026.130	-754
1026.198	-2077
1026.266	-2565
1026.333	-1272
1026.401	-1470
1026.469	-1670
1026.536	-1900
1026.604	-1641
1026.671	-1356
1026.739	-1157
1026.806	-1884
1026.874	-1823
1026.941	-1897
1027.009	-1528
1027.076	-2403
1027.144	-1410
1027.211	-2580
1027.278	-1836
1027.345	-1464
1027.413	-647
1027.480	-2051
1027.547	-869
1027.614	-2141
1027.682	-1693
1027.749	-1206
1027.816	-885
1027.883	-1244
1027.950	-792
1028.017	-1867
1028.084	-838
1028.151	-2247
1028.218	-2230
1028.285	-1244
1028.352	-1480
1028.419	-1581
1028.486	-2147
1028.553	-1705
1028.619	-1232
1028.686	-1803
1028.753	-2072
1028.820	-1719
1028.886	-1112
1028.953	-1344
1029.020	-1422
1029.086	-1395
1029.153	-1343
1029.220	-1292
1029.286	-1011
1029.353	-1740
1029.419	-1431
1029.486	-1307
1029.552	-1493
1029.619	-1850
1029.685	-1726
1029.751	-1403
1029.818	-550
1029.884	-1860
1029.951	-1132
1030.017	-1674
1030.083	-1900
1030.149	-1297
1030.216	-1460
1030.282	-594
1030.348	-1138
1030.414	-2131
1030.480	-1484
1030.546	-1080
1030.612	-938
1030.678	-2253
1030.744	-1209
1030.810	-1720
1030.876	-1038
1030.942	-2227
1031.008	-1672
1031.074	-2442
1031.140	-1596
1031.206	-947
1031.272	-1811
1031.337	-1821
1031.403	-822
1031.469	-1567
1031.534	-1831
1031.600	-1900
1031.666	-1527
1031.731	-869
1031.797	-1700
1031.863	-1468
1031.928	-1713
1031.994	-1625
1032.059	-1458
1032.125	-2092
1032.190	-2006
1032.256	-1913
1032.321	-1492
1032.386	-1813
1032.452	-1449
1032.517	-1497
1032.582	-1678
1032.647	-1280
1032.713	-1552
1032.778	-1808
1032.843	-1560
1032.908	-2143
1032.974	-949
1033.039	-1759
1033.104	-809
1033.169	-1561
1033.234	-1591
1033.299	-1504
1033.364	-1551
1033.429	-2192
1033.494	-869
1033.559	-2074
1033.624	-1194
1033.688	-982
1033.753	-1713
1033.818	-1732
1033.883	-541
1033.948	-816
1034.013	-190
1034.077	80
1034.142	2062
1034.207	1131
1034.271	4379
1034.336	5370
1034.400	2320
1034.465	340
1034.530	-607
1034.594	-1945
1034.658	-1281
1034.723	-1648
1034.787	-1239
1034.852	-1326
1034.916	-1268
1034.981	-1780
1035.045	-1177
1035.109	-1498
1035.173	-1552
1035.238	-2189
1035.302	-1142
1035.366	-1282
1035.430	-1625
1035.495	-2404
1035.559	-1009
1035.623	-1668
1035.687	-2030
1035.751	-1275
1035.815	-1760
1035.879	-2064
1035.943	-1642
1036.007	-2118
1036.071	-1752
1036.135	-1234
1036.198	-1749
1036.262	-1632
1036.326	-755
1036.390	-1456
1036.454	-1570
1036.517	-2095
1036.581	-1535
1036.645	-1135
1036.709	-1491
1036.772	-2579
1036.836	-1253
1036.900	-1547
1036.963	-1818
1037.026	-2028
1037.090	-2435
1037.154	-1447
1037.217	-1913
1037.280	-1393
1037.344	-1754
1037.407	-2173
1037.471	-1277
1037.534	-1055
1037.597	-1388
1037.661	-1149
1037.724	-784
1037.787	-1102
1037.850	-2921
1037.913	-1495
1037.977	-1048
1038.040	-2226
1038.103	-1939
1038.166	-2195
1038.229	-1221
1038.292	-1501
1038.355	-2232
1038.418	-1950
1038.481	-663
1038.544	-1672
1038.607	-1762
1038.670	-1853
1038.732	-1520
1038.795	-2113
1038.858	-1081
1038.921	-1180
1038.984	-1024
1039.046	-1569
1039.109	-2358
1039.172	-1835
1039.234	-1307
1039.297	-2626
1039.360	-2159
1039.422	-1598
1039.485	-1171
1039.547	-2454
1039.610	-1280
1039.672	-1727
1039.734	-1628
1039.797	-1380
1039.859	-2127
1039.922	-1869
1039.984	-665
1040.046	-1709
1040.109	-1729
1040.171	-2604
1040.233	-1873
1040.295	-1959
1040.358	-1632
1040.420	-2911
1040.482	-2533
1040.544	-1450
1040.606	-1537
1040.668	-2081
1040.730	-1625
1040.792	-2108
1040.854	-1824
1040.916	-1672
1040.978	-2235
1041.040	-2469
1041.102	-1591
1041.164	-2109
1041.225	-1633
1041.287	-2680
1041.349	-2248
1041.411	-1961
1041.472	-1997
1041.534	-1590
1041.596	-2327
1041.657	-1891
1041.719	-1467
1041.781	-2353
1041.842	-981
1041.904	-2017
1041.965	-1747
1042.027	-1401
1042.088	-2166
1042.150	-1792
1042.211	-2068
1042.272	-1582
1042.334	-2018
1042.395	-2532
1042.456	-1908
1042.518	-2237
1042.579	-421
1042.640	-3134
1042.701	-2038
1042.763	-1777
1042.824	-1846
1042.885	-2343
1042.946	-1593
1043.007	-1743
1043.068	-2754
1043.129	-1877
1043.190	-1807
1043.251	-1895
1043.312	-1893
1043.373	-1807
1043.434	-2226
1043.495	-1236
1043.556	-1090
1043.616	-1931
1043.677	-1905
1043.738	-1835
1043.799	-2115
1043.859	-1890
1043.920	-1540
1043.981	-2041
1044.041	-1796
1044.102	-1377
1044.162	-1839
1044.223	-1492
1044.284	-1203
1044.344	-1820
1044.405	-1326
1044.465	-1743
1044.525	-2153
1044.586	-1478
1044.646	-1845
1044.707	-1029
1044.767	-1596
1044.827	-2048
1044.887	-1438
1044.948	-974
1045.008	-1546
1045.068	-1530
1045.128	-1417
1045.188	-2030
1045.249	-1328
1045.309	-2713
1045.369	-1593
1045.429	-1758
1045.489	-1965
1045.549	-2043
1045.609	-1751
1045.669	-2038
1045.729	-2289
1045.789	-2025
1045.848	-1946
1045.908	-1731
1045.968	-1935
1046.028	-1389
1046.088	-1401
1046.147	-1358
1046.207	-1804
1046.267	-1533
1046.326	-1983
1046.386	-1007
1046.446	-334
1046.505	-1179
1046.565	-625
1046.624	-1243
1046.684	-342
1046.743	-687
1046.803	169
1046.862	279
1046.922	0
