'Start Wavelength	183.907
'End Wavelength	1046.922
'Gate Delay	5.000
'Gate Width (ms)	1.050
'Laser Output Level	0.000
'X Position	0.000
'Y Position	0.000
'Z Position	0.000
'Grid Point Number	1.000
'Shot Number	100.000
183.907	582.000
183.977	52.000
184.047	298
184.116	624
184.186	243
184.256	-35
184.325	-133
184.395	-1197
184.465	974
184.534	1098
184.604	-357
184.674	452
184.743	440
184.813	-23
184.883	736
184.952	896
185.022	154
185.092	-66
185.161	388
185.231	354
185.301	67
185.370	705
185.440	-328
185.509	-302
185.579	460
185.649	5
185.718	767
185.788	-36
185.857	-193
185.927	-459
185.996	109
186.066	-864
186.136	-102
186.205	-121
186.275	614
186.344	-289
186.414	222
186.483	145
186.553	1201
186.622	707
186.692	642
186.761	287
186.831	123
186.900	-438
186.970	388
187.039	108
187.109	-27
187.178	-82
187.248	679
187.317	-305
187.387	54
187.456	299
187.526	445
187.595	-224
187.664	577
187.734	755
187.803	360
187.873	108
187.942	447
188.012	556
188.081	-362
188.150	148
188.220	301
188.289	927
188.358	346
188.428	113
188.497	-767
188.567	-142
188.636	569
188.705	349
188.775	467
188.844	223
188.913	426
188.983	291
189.052	-46
189.121	127
189.191	-420
189.260	563
189.329	18
189.399	-310
189.468	190
189.537	459
189.606	260
189.676	-132
189.745	-37
189.814	-30
189.883	-314
189.953	-539
190.022	732
190.091	463
190.161	752
190.230	-17
190.299	163
190.368	-519
190.437	-583
190.507	-107
190.576	347
190.645	302
190.714	403
190.783	58
190.853	925
190.922	95
190.991	11
191.060	-218
191.129	-90
191.198	479
191.268	806
191.337	-215
191.406	270
191.475	425
191.544	256
191.613	-688
191.682	-427
191.752	112
191.821	550
191.890	-182
191.959	530
192.028	129
192.097	880
192.166	-10
192.235	86
192.304	110
192.373	-51
192.442	133
192.511	537
192.580	12
192.650	99
192.719	-167
192.788	104
192.857	-212
192.926	-209
192.995	-670
193.064	235
193.133	87
193.202	366
193.271	573
193.340	92
193.409	430
193.478	178
193.547	-986
193.615	-278
193.684	-143
193.753	357
193.822	883
193.891	109
193.960	1588
194.029	-109
194.098	72
194.167	186
194.236	245
194.305	574
194.374	368
194.443	-164
194.512	5
194.580	569
194.649	269
194.718	190
194.787	339
194.856	-89
194.925	-279
194.994	445
195.062	-523
195.131	312
195.200	-586
195.269	-123
195.338	-272
195.407	792
195.475	364
195.544	-98
195.613	-6
195.682	-282
195.751	35
195.819	180
195.888	325
195.957	1361
196.026	-280
196.094	241
196.163	-474
196.232	277
196.301	661
196.369	694
196.438	-1038
196.507	664
196.576	-251
196.644	81
196.713	-206
196.782	-496
196.850	1
196.919	618
196.988	400
197.056	-54
197.125	69
197.194	-120
197.262	538
197.331	-20
197.400	-618
197.468	-126
197.537	185
197.606	402
197.674	258
197.743	623
197.812	-427
197.880	-370
197.949	-544
198.017	585
198.086	-936
198.155	-131
198.223	179
198.292	393
198.360	-403
198.429	-26
198.497	415
198.566	87
198.635	-288
198.703	830
198.772	-67
198.840	-147
198.909	-253
198.977	-170
199.046	452
199.114	528
199.183	-151
199.251	66
199.320	-608
199.388	-420
199.457	-162
199.525	266
199.594	-241
199.662	305
199.731	-187
199.799	365
199.867	387
199.936	379
200.004	855
200.073	256
200.141	-63
200.210	213
200.278	-143
200.346	675
200.415	206
200.483	557
200.552	558
200.620	453
200.688	-606
200.757	560
200.825	173
200.893	-197
200.962	-319
201.030	-164
201.098	-78
201.167	635
201.235	-292
201.303	-20
201.372	-45
201.440	332
201.508	-371
201.577	629
201.645	-321
201.713	644
201.781	-704
201.850	-540
201.918	296
201.986	-626
202.055	356
202.123	1081
202.191	-418
202.259	8
202.327	539
202.396	255
202.464	422
202.532	607
202.600	46
202.669	910
202.737	-331
202.805	726
202.873	1003
202.941	382
203.009	40
203.078	-170
203.146	-372
203.214	293
203.282	-86
203.350	161
203.418	203
203.487	456
203.555	-349
203.623	-265
203.691	-399
203.759	-286
203.827	397
203.895	-143
203.963	-67
204.031	-46
204.099	-14
204.168	-1020
204.236	517
204.304	762
204.372	-428
204.440	371
204.508	-227
204.576	255
204.644	-651
204.712	-89
204.780	-657
204.848	509
204.916	-193
204.984	-646
205.052	23
205.120	-134
205.188	-284
205.256	307
205.324	-113
205.392	-90
205.460	-288
205.528	37
205.596	408
205.664	429
205.732	122
205.799	22
205.867	-395
205.935	-634
206.003	986
206.071	-105
206.139	-135
206.207	-370
206.275	-13
206.343	-50
206.411	-429
206.478	-205
206.546	-155
206.614	-329
206.682	-727
206.750	-120
206.818	-330
206.885	-20
206.953	-904
207.021	-228
207.089	-61
207.157	-207
207.225	-220
207.292	596
207.360	-163
207.428	-130
207.496	-915
207.563	-524
207.631	-376
207.699	-752
207.767	-269
207.834	-173
207.902	-126
207.970	50
208.038	-576
208.105	742
208.173	-285
208.241	35
208.309	-62
208.376	151
208.444	-9
208.512	-68
208.579	156
208.647	61
208.715	649
208.782	-697
208.850	-125
208.918	190
208.985	-264
209.053	281
209.120	-245
209.188	-543
209.256	-126
209.323	-69
209.391	-283
209.459	225
209.526	-96
209.594	-12
209.661	-248
209.729	1135
209.796	743
209.864	320
209.932	-1467
209.999	1366
210.067	2
210.134	-522
210.202	-750
210.269	-275
210.337	497
210.404	165
210.472	-282
210.539	-316
210.607	-520
210.674	-79
210.742	-292
210.809	-368
210.877	-163
210.944	83
211.012	-1318
211.079	1393
211.146	-146
211.214	173
211.281	-370
211.349	60
211.416	157
211.484	459
211.551	-371
211.618	273
211.686	301
211.753	-467
211.821	-40
211.888	-265
211.955	-308
212.023	-659
212.090	-462
212.157	-25
212.225	-1097
212.292	510
212.359	81
212.427	535
212.494	433
212.561	-162
212.629	-198
212.696	-823
212.763	-138
212.831	-582
212.898	127
212.965	-15
213.032	-442
213.100	140
213.167	-1139
213.234	-222
213.301	-754
213.369	-218
213.436	-456
213.503	-455
213.570	968
213.638	211
213.705	-647
213.772	-644
213.839	153
213.906	-172
213.973	-330
214.041	-1061
214.108	-120
214.175	-100
214.242	-307
214.309	-122
214.376	345
214.444	-191
214.511	323
214.578	-735
214.645	-65
214.712	216
214.779	-329
214.846	-21
214.913	195
214.980	187
215.048	123
215.115	21
215.182	61
215.249	772
215.316	-811
215.383	-643
215.450	-293
215.517	-640
215.584	-293
215.651	486
215.718	513
215.785	-196
215.852	-880
215.919	-114
215.986	314
216.053	306
216.120	-1093
216.187	685
216.254	-537
216.321	-406
216.388	-684
216.455	-184
216.522	-241
216.589	-108
216.656	649
216.722	-259
216.789	-315
216.856	-358
216.923	-712
216.990	313
217.057	-267
217.124	481
217.191	-458
217.258	687
217.324	-571
217.391	-273
217.458	-303
217.525	-514
217.592	-840
217.659	-1189
217.725	550
217.792	-3
217.859	190
217.926	-795
217.993	-736
218.059	-202
218.126	-172
218.193	-194
218.260	-422
218.327	341
218.393	-974
218.460	20
218.527	-176
218.594	111
218.660	-148
218.727	230
218.794	-1277
218.860	-167
218.927	-1009
218.994	143
219.061	-272
219.127	42
219.194	-869
219.261	175
219.327	-656
219.394	647
219.461	-180
219.527	844
219.594	-502
219.661	-514
219.727	11
219.794	287
219.860	-537
219.927	294
219.994	510
220.060	879
220.127	741
220.193	362
220.260	891
220.326	203
220.393	-960
220.460	-550
220.526	-1092
220.593	-517
220.659	663
220.726	-257
220.792	47
220.859	-256
220.925	-382
220.992	-478
221.058	-164
221.125	-54
221.191	152
221.258	-1087
221.324	-434
221.391	1121
221.457	-912
221.524	-406
221.590	434
221.657	600
221.723	-675
221.789	-24
221.856	533
221.922	-617
221.989	1200
222.055	603
222.121	-1128
222.188	1687
222.254	415
222.321	-77
222.387	-726
222.453	245
222.520	-835
222.586	206
222.652	443
222.719	-779
222.785	877
222.851	555
222.918	-34
222.984	42
223.050	-584
223.116	-808
223.183	910
223.249	-1186
223.315	-616
223.382	514
223.448	367
223.514	-384
223.580	248
223.647	-359
223.713	-615
223.779	29
223.845	-280
223.911	60
223.978	-715
224.044	298
224.110	-143
224.176	-290
224.242	-638
224.309	-170
224.375	274
224.441	-491
224.507	-476
224.573	-102
224.639	79
224.705	-292
224.772	-739
224.838	-22
224.904	-512
224.970	4
225.036	-1209
225.102	-876
225.168	-180
225.234	467
225.300	-332
225.366	597
225.432	-167
225.499	-408
225.565	-758
225.631	167
225.697	-957
225.763	313
225.829	-109
225.895	-233
225.961	-11
226.027	-288
226.093	-433
226.159	474
226.225	224
226.291	-271
226.357	-507
226.423	21
226.489	470
226.554	590
226.620	687
226.686	248
226.752	-393
226.818	-313
226.884	357
226.950	-194
227.016	-336
227.082	536
227.148	-116
227.214	353
227.279	-579
227.345	176
227.411	-221
227.477	1091
227.543	875
227.609	1381
227.674	291
227.740	54
227.806	346
227.872	527
227.938	-524
228.003	569
228.069	-853
228.135	-468
228.201	-206
228.267	-354
228.332	-448
228.398	-867
228.464	-386
228.530	-795
228.595	299
228.661	-613
228.727	184
228.792	530
228.858	-787
228.924	-1200
228.990	928
229.055	-1354
229.121	-161
229.187	-271
229.252	-364
229.318	-64
229.384	-859
229.449	245
229.515	-1659
229.581	-1236
229.646	1328
229.712	-231
229.777	-1285
229.843	-809
229.909	397
229.974	-175
230.040	71
230.105	-79
230.171	-420
230.236	123
230.302	-79
230.368	-92
230.433	-1521
230.499	211
230.564	-10
230.630	-757
230.695	97
230.761	111
230.826	-1539
230.892	1279
230.957	-1226
231.023	383
231.088	-84
231.154	-512
231.219	-284
231.284	-517
231.350	713
231.415	-1492
231.481	109
231.546	-162
231.612	28
231.677	44
231.742	-1759
231.808	716
231.873	-629
231.939	-1070
232.004	-321
232.069	-616
232.135	-281
232.200	-135
232.265	517
232.331	-226
232.396	-62
232.461	-256
232.527	-528
232.592	-1146
232.657	40
232.723	-611
232.788	-418
232.853	114
232.918	203
232.984	-617
233.049	-651
233.114	-1343
233.179	662
233.245	194
233.310	-674
233.375	-1233
233.440	94
233.506	-255
233.571	-1192
233.636	-58
233.701	-452
233.766	-307
233.832	-710
233.897	-309
233.962	-1617
234.027	-8
234.092	-973
234.157	-21
234.222	-669
234.288	-26
234.353	-117
234.418	-429
234.483	-394
234.548	-380
234.613	-598
234.678	-407
234.743	-1424
234.808	483
234.873	-1587
234.938	861
235.004	-78
235.069	-756
235.134	-618
235.199	753
235.264	-365
235.329	-1227
235.394	221
235.459	340
235.524	-1957
235.589	466
235.654	-1042
235.719	-1159
235.784	-411
235.849	72
235.913	59
235.978	-291
236.043	-190
236.108	-59
236.173	-1223
236.238	317
236.303	-1185
236.368	-331
236.433	-46
236.498	-1183
236.563	-338
236.627	345
236.692	-144
236.757	-171
236.822	-707
236.887	-635
236.952	-293
237.017	-1549
237.081	965
237.146	-1426
237.211	222
237.276	-316
237.341	669
237.405	-46
237.470	-243
237.535	-524
237.600	259
237.664	-131
237.729	-1551
237.794	-1186
237.859	-152
237.923	-508
237.988	-354
238.053	-291
238.118	-938
238.182	143
238.247	823
238.312	-1259
238.376	339
238.441	-1476
238.506	43
238.570	-1175
238.635	1120
238.700	-843
238.764	-832
238.829	-522
238.893	-1180
238.958	779
239.023	-450
239.087	296
239.152	98
239.216	-497
239.281	-62
239.346	197
239.410	-241
239.475	-409
239.539	21
239.604	-633
239.668	581
239.733	783
239.797	1791
239.862	3157
239.926	3065
239.991	1274
240.055	571
240.120	-332
240.184	-492
240.249	-826
240.313	-274
240.378	-249
240.442	163
240.507	-560
240.571	-824
240.635	-389
240.700	-481
240.764	-837
240.829	-277
240.893	-1047
240.957	-639
241.022	102
241.086	541
241.151	-770
241.215	-1365
241.279	568
241.344	-645
241.408	687
241.472	-1693
241.537	329
241.601	343
241.665	-1407
241.730	-1023
241.794	-59
241.858	-1210
241.922	-644
241.987	-140
242.051	-776
242.115	-1384
242.179	299
242.244	-1159
242.308	428
242.372	115
242.436	-297
242.501	-321
242.565	-817
242.629	-312
242.693	193
242.757	-1280
242.822	-102
242.886	-496
242.950	48
243.014	-1593
243.078	544
243.142	-657
243.206	-638
243.271	-124
243.335	-1047
243.399	-404
243.463	-690
243.527	1589
243.591	-697
243.655	-376
243.719	-1674
243.783	505
243.847	-204
243.911	-146
243.975	-1550
244.040	-1028
244.104	1094
244.168	-34
244.232	-1182
244.296	-628
244.360	-146
244.424	-1478
244.488	290
244.552	-426
244.615	-1763
244.679	-505
244.743	-820
244.807	-631
244.871	226
244.935	159
244.999	-1277
245.063	-1545
245.127	813
245.191	-907
245.255	-604
245.319	-605
245.383	-2155
245.446	455
245.510	-1228
245.574	179
245.638	258
245.702	-1803
245.766	162
245.829	769
245.893	-1602
245.957	-1103
246.021	-295
246.085	-946
246.149	-914
246.212	873
246.276	-511
246.340	-1108
246.404	-164
246.467	400
246.531	-2186
246.595	953
246.659	-61
246.722	-1515
246.786	432
246.850	-602
246.913	-853
246.977	-1741
247.041	-621
247.104	-988
247.168	-267
247.232	-522
247.295	525
247.359	44
247.423	-460
247.486	-431
247.550	165
247.614	-389
247.677	-485
247.741	-315
247.804	29
247.868	-48
247.932	-584
247.995	754
248.059	69
248.122	-1308
248.186	501
248.249	-296
248.313	1310
248.376	1564
248.440	645
248.503	-1654
248.567	1376
248.630	-1536
248.694	-393
248.757	396
248.821	2128
248.884	1259
248.948	-159
249.011	1152
249.075	1036
249.138	1233
249.202	62
249.265	-902
249.328	255
249.392	-838
249.455	389
249.519	-633
249.582	215
249.645	-486
249.709	-584
249.772	-864
249.835	-241
249.899	-1345
249.962	-260
250.025	-702
250.089	277
250.152	619
250.215	-322
250.279	-341
250.342	29
250.405	-195
250.468	-953
250.532	-471
250.595	-32
250.658	-475
250.721	3036
250.785	-257
250.848	871
250.911	-839
250.974	1205
251.038	-548
251.101	1305
251.164	6
251.227	7
251.290	-594
251.354	-166
251.417	1256
251.480	1726
251.543	282
251.606	3578
251.669	2611
251.732	708
251.795	90
251.859	1042
251.922	1513
251.985	1963
252.048	549
252.111	-321
252.174	-1238
252.237	158
252.300	1476
252.363	1148
252.426	4396
252.489	1100
252.552	646
252.615	-193
252.678	486
252.741	802
252.804	-86
252.867	3764
252.930	1747
252.993	532
253.056	788
253.119	-368
253.182	-1197
253.245	-347
253.308	826
253.371	-383
253.434	-206
253.497	606
253.559	1262
253.622	99
253.685	-942
253.748	-646
253.811	-815
253.874	522
253.937	-1379
254.000	-519
254.062	-235
254.125	650
254.188	924
254.251	262
254.314	-214
254.376	-572
254.439	-137
254.502	-637
254.565	-1144
254.628	1545
254.690	-669
254.753	-288
254.816	-510
254.878	-250
254.941	-122
255.004	853
255.067	-83
255.129	-508
255.192	31
255.255	-1556
255.317	-424
255.380	92
255.443	-1094
255.505	-507
255.568	-964
255.631	-683
255.693	225
255.756	-1198
255.819	470
255.881	-341
255.944	-323
256.006	-758
256.069	-309
256.132	-948
256.194	-320
256.257	-1
256.319	-3
256.382	-747
256.444	448
256.507	164
256.569	-281
256.632	-355
256.694	-1829
256.757	297
256.819	-83
256.882	-975
256.944	-851
257.007	901
257.069	-1011
257.132	-1158
257.194	770
257.257	-158
257.319	-1554
257.381	-860
257.444	547
257.506	643
257.569	9
257.631	1204
257.693	656
257.756	-647
257.818	-282
257.880	-345
257.943	-225
258.005	-317
258.067	-890
258.130	-940
258.192	-469
258.254	-500
258.317	-891
258.379	726
258.441	-105
258.503	701
258.566	-230
258.628	465
258.690	-1609
258.753	282
258.815	190
258.877	-867
258.939	-436
259.001	169
259.064	-388
259.126	-1052
259.188	-471
259.250	-345
259.312	95
259.375	501
259.437	-386
259.499	-317
259.561	-537
259.623	434
259.685	-614
259.747	-201
259.809	334
259.872	286
259.934	603
259.996	1898
260.058	-921
260.120	-414
260.182	-1088
260.244	290
260.306	-675
260.368	7
260.430	-100
260.492	78
260.554	833
260.616	381
260.678	-660
260.740	286
260.802	-494
260.864	64
260.926	-1597
260.988	276
261.050	-384
261.112	-1250
261.174	485
261.236	118
261.298	261
261.359	30
261.421	676
261.483	-827
261.545	433
261.607	-2097
261.669	-518
261.731	-597
261.793	-399
261.854	-1129
261.916	39
261.978	-141
262.040	-1015
262.102	95
262.164	-830
262.225	52
262.287	236
262.349	-568
262.411	-499
262.472	699
262.534	-1088
262.596	-808
262.658	-152
262.719	-1107
262.781	-179
262.843	-1148
262.904	416
262.966	-25
263.028	-458
263.090	376
263.151	227
263.213	515
263.275	-311
263.336	310
263.398	651
263.459	-632
263.521	-276
263.583	-81
263.644	-754
263.706	-824
263.767	-688
263.829	-85
263.891	-703
263.952	-171
264.014	246
264.075	-791
264.137	-758
264.198	180
264.260	-746
264.321	-314
264.383	-937
264.444	398
264.506	-495
264.567	-499
264.629	-338
264.690	-1681
264.752	349
264.813	397
264.875	-1291
264.936	392
264.998	-751
265.059	-320
265.120	-324
265.182	-695
265.243	12
265.305	-99
265.366	-636
265.427	-724
265.489	318
265.550	-1266
265.611	-796
265.673	-968
265.734	-136
265.795	124
265.857	-142
265.918	-108
265.979	613
266.040	-872
266.102	-119
266.163	-381
266.224	-609
266.286	-351
266.347	-1599
266.408	-677
266.469	-113
266.530	188
266.592	-399
266.653	235
266.714	-724
266.775	-748
266.836	-794
266.898	-508
266.959	-1081
267.020	208
267.081	-353
267.142	-164
267.203	-683
267.264	-906
267.326	226
267.387	-540
267.448	-558
267.509	-162
267.570	384
267.631	-394
267.692	-1345
267.753	322
267.814	-157
267.875	-119
267.936	365
267.997	-646
268.058	-699
268.119	-827
268.180	-766
268.241	-42
268.302	-768
268.363	-64
268.424	-40
268.485	-1185
268.546	-912
268.607	-721
268.668	-911
268.729	-765
268.790	-1001
268.851	-90
268.912	-277
268.972	332
269.033	-578
269.094	-728
269.155	-482
269.216	-172
269.277	-894
269.338	-131
269.398	-221
269.459	-1084
269.520	-895
269.581	-991
269.642	-750
269.702	-964
269.763	-497
269.824	-353
269.885	-1237
269.945	111
270.006	-603
270.067	-1027
270.128	-207
270.188	-551
270.249	-817
270.310	-821
270.370	269
270.431	-85
270.492	-1541
270.553	-922
270.613	-367
270.674	-413
270.734	-396
270.795	-1054
270.856	-7
270.916	-1350
270.977	-573
271.038	123
271.098	-137
271.159	-845
271.219	-266
271.280	-118
271.340	311
271.401	-728
271.462	-993
271.522	280
271.583	-299
271.643	124
271.704	-387
271.764	-510
271.825	233
271.885	1627
271.946	1921
272.006	372
272.066	265
272.127	2539
272.187	2743
272.248	1558
272.308	286
272.369	1088
272.429	-198
272.489	364
272.550	-730
272.610	621
272.671	-751
272.731	1076
272.791	-394
272.852	-159
272.912	12
272.972	37
273.033	-474
273.093	-1265
273.153	-46
273.214	-144
273.274	610
273.334	789
273.394	1485
273.455	644
273.515	660
273.575	415
273.635	420
273.696	1291
273.756	1005
273.816	602
273.876	595
273.936	1
273.997	566
274.057	-1086
274.117	-462
274.177	968
274.237	1147
274.297	1455
274.358	-140
274.418	671
274.478	686
274.538	222
274.598	-1104
274.658	-63
274.718	524
274.778	70
274.838	-594
274.898	-544
274.958	333
275.018	1165
275.078	963
275.138	-46
275.198	-791
275.258	-102
275.318	-301
275.378	-617
275.438	-806
275.498	-694
275.558	-224
275.618	549
275.678	713
275.738	616
275.798	128
275.858	-308
275.918	-364
275.978	-529
276.038	-253
276.098	-570
276.157	234
276.217	672
276.277	-94
276.337	-319
276.397	-242
276.457	-375
276.517	29
276.576	419
276.636	-1218
276.696	-342
276.756	991
276.815	-363
276.875	-340
276.935	-157
276.995	-474
277.055	150
277.114	604
277.174	-473
277.234	377
277.293	143
277.353	210
277.413	152
277.472	-288
277.532	189
277.592	527
277.651	1705
277.711	5039
277.771	1375
277.830	5209
277.890	5925
277.950	2642
278.009	9503
278.069	4221
278.128	4061
278.188	5497
278.248	2514
278.307	5500
278.367	4420
278.426	1188
278.486	365
278.545	588
278.605	225
278.664	770
278.724	173
278.783	-118
278.843	2297
278.902	18
278.962	-23
279.021	1419
279.081	1684
279.140	1585
279.199	1106
279.259	622
279.318	982
279.378	2185
279.437	3627
279.496	10423
279.556	37891
279.615	28810
279.675	6837
279.734	3253
279.793	4237
279.853	7311
279.912	3375
279.971	2210
280.031	2135
280.090	3046
280.149	6025
280.208	4530
280.268	22757
280.327	22543
280.386	3932
280.445	3193
280.505	1889
280.564	1775
280.623	1035
280.682	898
280.742	1435
280.801	268
280.860	92
280.919	428
280.978	-2
281.037	-47
281.097	-871
281.156	835
281.215	708
281.274	-796
281.333	1380
281.392	790
281.451	427
281.510	780
281.569	23
281.628	-31
281.688	10
281.747	333
281.806	84
281.865	244
281.924	42
281.983	556
282.042	-270
282.101	94
282.160	30
282.219	-102
282.278	-580
282.337	258
282.396	73
282.454	12
282.513	947
282.572	1208
282.631	507
282.690	-519
282.749	-885
282.808	177
282.867	-455
282.926	-517
282.985	432
283.043	341
283.102	-5
283.161	227
283.220	1055
283.279	733
283.338	678
283.396	705
283.455	408
283.514	-269
283.573	666
283.631	609
283.690	535
283.749	579
283.808	735
283.866	802
283.925	-263
283.984	851
284.043	-89
284.101	-85
284.160	892
284.219	1671
284.277	1445
284.336	1075
284.395	2882
284.453	1814
284.512	1402
284.570	1129
284.629	2427
284.688	2291
284.746	2665
284.805	4278
284.863	5549
284.922	7234
284.981	9716
285.039	12906
285.098	19372
285.156	27882
285.215	29500
285.273	25559
285.332	30151
285.390	22503
285.449	16131
285.507	11843
285.566	8142
285.624	6350
285.683	4561
285.741	4064
285.799	3039
285.858	2276
285.916	1899
285.975	1430
286.033	1912
286.091	1684
286.150	1226
286.208	898
286.267	954
286.325	1424
286.383	854
286.442	1237
286.500	934
286.558	900
286.616	369
286.675	290
286.733	952
286.791	247
286.850	-29
286.908	-76
286.966	434
287.024	-667
287.083	-43
287.141	212
287.199	645
287.257	770
287.315	1232
287.374	302
287.432	724
287.490	711
287.548	310
287.606	-69
287.664	292
287.723	-306
287.781	702
287.839	215
287.897	312
287.955	359
288.013	642
288.071	101
288.129	2343
288.187	10695
288.245	4603
288.303	825
288.361	353
288.419	519
288.477	-290
288.535	-724
288.593	-152
288.651	-592
288.709	170
288.767	-222
288.825	-650
288.883	436
288.941	-125
288.999	-599
289.057	-465
289.115	-770
289.173	76
289.231	654
289.289	-483
289.346	-4
289.404	296
289.462	-248
289.520	-376
289.578	-411
289.636	-174
289.694	147
289.751	475
289.809	92
289.867	581
289.925	543
289.983	316
290.040	-5
290.098	60
290.156	-219
290.214	-327
290.271	-104
290.329	23
290.387	-20
290.444	-243
290.502	128
290.560	-287
290.617	895
290.675	-120
290.733	-276
290.790	224
290.848	698
290.906	-102
290.963	-312
291.021	242
291.078	243
291.136	-142
291.194	-371
291.251	936
291.309	-533
291.366	411
291.424	396
291.481	-354
291.539	-231
291.596	216
291.654	-826
291.711	-211
291.769	896
291.826	117
291.884	-453
291.941	-646
291.999	178
292.056	-53
292.114	-201
292.171	138
292.228	-385
292.286	-186
292.343	-202
292.401	44
292.458	262
292.515	-245
292.573	392
292.630	130
292.687	-641
292.745	543
292.802	-75
292.859	934
292.917	1007
292.974	696
293.031	181
293.089	51
293.146	-153
293.203	64
293.260	-424
293.318	-280
293.375	-68
293.432	-404
293.489	-105
293.546	-99
293.604	253
293.661	193
293.718	2497
293.775	1185
293.832	207
293.889	1742
293.947	773
294.004	251
294.061	506
294.118	661
294.175	543
294.232	1313
294.289	764
294.346	372
294.403	16
294.460	-157
294.517	-468
294.574	-937
294.631	-1129
294.688	-776
294.745	-286
294.802	2021
294.859	880
294.916	646
294.973	-585
295.030	348
295.087	147
295.144	-131
295.201	-97
295.258	-796
295.315	-791
295.372	-70
295.429	1815
295.486	105
295.542	-212
295.599	-137
295.656	132
295.713	283
295.770	1245
295.827	-287
295.883	65
295.940	178
295.997	-608
296.054	-470
296.111	-921
296.167	434
296.224	-353
296.281	-678
296.338	-638
296.394	4
296.451	-262
296.508	153
296.564	1065
296.621	-141
296.678	1432
296.734	3384
296.791	171
296.848	40
296.904	-270
296.961	655
297.018	1477
297.074	1183
297.131	443
297.187	-77
297.244	-426
297.301	1825
297.357	3754
297.414	642
297.470	292
297.527	-41
297.583	-955
297.640	-35
297.696	-143
297.753	-901
297.809	-656
297.866	-807
297.922	-402
297.979	-309
298.035	-411
298.092	-412
298.148	1167
298.204	422
298.261	458
298.317	691
298.374	2773
298.430	1676
298.486	-172
298.543	-124
298.599	-588
298.656	-344
298.712	-260
298.768	-449
298.824	-758
298.881	-487
298.937	-319
298.993	-514
299.050	-172
299.106	-226
299.162	-614
299.218	223
299.275	-153
299.331	476
299.387	1191
299.443	3535
299.500	6975
299.556	4882
299.612	874
299.668	1268
299.724	3506
299.780	6727
299.837	2293
299.893	812
299.949	3891
300.005	7209
300.061	4003
300.117	8813
300.173	3331
300.229	778
300.285	428
300.341	803
300.397	-479
300.453	-333
300.510	-830
300.566	910
300.622	1555
300.678	7148
300.734	10268
300.790	5645
300.845	3568
300.901	4017
300.957	7489
301.013	4333
301.069	1364
301.125	824
301.181	-103
301.237	-122
301.293	-314
301.349	176
301.405	-567
301.461	-337
301.516	-200
301.572	22
301.628	-834
301.684	133
301.740	-428
301.796	879
301.851	379
301.907	642
301.963	203
302.019	682
302.074	6933
302.130	7181
302.186	2985
302.242	879
302.297	118
302.353	185
302.409	829
302.464	932
302.520	-69
302.576	1217
302.631	2070
302.687	131
302.743	-107
302.798	-377
302.854	-780
302.910	273
302.965	-427
303.021	-487
303.076	-421
303.132	106
303.187	-53
303.243	-879
303.299	-304
303.354	-912
303.410	-1290
303.465	-438
303.521	-1106
303.576	134
303.632	-299
303.687	1030
303.743	1539
303.798	1030
303.853	935
303.909	-356
303.964	-791
304.020	-283
304.075	-100
304.130	-606
304.186	335
304.241	797
304.297	-31
304.352	-571
304.358	-581
304.407	-664
304.449	349
304.463	690
304.518	-200
304.539	-267
304.573	-387
304.629	-88
304.630	-98
304.684	-566
304.720	521
304.739	1076
304.794	2659
304.811	2186
304.850	973
304.902	-225
304.905	-297
304.960	-760
304.992	-429
305.015	-192
305.071	-129
305.083	-194
305.126	-468
305.173	-132
305.181	-67
305.236	-215
305.264	100
305.292	371
305.347	-40
305.354	-29
305.402	193
305.445	367
305.457	388
305.512	215
305.535	7
305.567	-282
305.622	283
305.626	231
305.678	-290
305.716	510
305.733	763
305.788	2147
305.807	1651
305.843	837
305.897	1832
305.898	1841
305.953	2360
305.988	1248
306.008	698
306.063	2
306.078	144
306.118	499
306.168	-142
306.173	-190
306.228	-248
306.259	-440
306.283	-583
306.338	345
306.349	208
306.393	-437
306.440	-130
306.448	-38
306.503	-270
306.530	138
306.558	490
306.613	571
306.620	517
306.668	568
306.711	1228
306.723	1257
306.778	1666
306.801	1259
306.833	897
306.888	677
306.892	707
306.943	1050
306.982	450
306.997	257
307.052	376
307.072	498
307.107	735
307.162	400
307.163	392
307.217	-49
307.253	144
307.272	296
307.327	645
307.343	573
307.381	181
307.434	-155
307.436	-135
307.491	356
307.524	971
307.546	1256
307.600	1677
307.614	1702
307.655	1510
307.704	727
307.710	651
307.765	316
307.795	72
307.819	22
307.874	980
307.885	919
307.929	755
307.975	1306
307.984	1355
308.038	990
308.065	961
308.093	1434
308.148	1941
308.156	2315
308.202	3769
308.246	3717
308.257	3650
308.312	2440
308.336	2180
308.366	1876
308.421	1279
308.426	1196
308.475	900
308.517	845
308.530	812
308.585	1127
308.607	1069
308.639	1062
308.694	1426
308.697	1424
308.748	1487
308.787	1631
308.803	1696
308.857	1278
308.877	1384
308.912	1868
308.967	2750
308.967	2744
309.021	4008
309.058	5623
309.076	6473
309.130	8861
309.148	9474
309.185	11865
309.238	16202
309.239	16326
309.293	21269
309.328	22807
309.348	20884
309.402	13922
309.418	12034
309.457	9867
309.508	7344
309.511	7424
309.566	9061
309.598	10557
309.620	13767
309.674	22550
309.688	24891
309.729	24302
309.778	20625
309.783	20064
309.837	13067
309.868	9206
309.892	8355
309.946	6773
309.959	6490
310.001	6334
310.049	6062
310.055	5899
310.109	4000
310.139	3075
310.163	2500
310.218	1489
310.229	1258
310.272	1859
310.319	2419
310.326	2291
310.381	1474
310.409	978
310.435	1073
310.489	1338
310.499	1329
310.543	1324
310.589	1748
310.598	1750
310.652	1507
310.679	1335
310.706	1286
310.760	1138
310.769	1103
310.814	1629
310.859	2228
310.868	2252
310.923	2251
310.948	2187
310.977	2079
311.031	2038
311.038	2002
311.085	1592
311.128	1227
311.139	1386
311.193	2140
311.218	2519
311.247	2467
311.301	2193
311.308	2159
311.356	1859
311.398	1531
311.410	1617
311.464	1972
311.488	2161
311.518	1861
311.572	1266
311.578	1190
311.626	1628
311.668	2030
311.680	2080
311.734	2199
311.758	2262
311.788	2271
311.842	2243
311.847	2232
311.896	2481
311.937	2634
311.950	2547
312.004	2137
312.027	1948
312.058	1870
312.112	1710
312.117	1691
312.165	1604
312.207	1526
312.297	2019
312.386	1383
312.476	2749
312.566	1538
312.656	2304
312.745	1769
312.835	2004
312.925	2887
313.015	1837
313.104	2170
313.194	2209
313.284	2715
313.374	2776
313.463	3068
313.553	3349
313.643	2550
313.732	3393
313.822	3217
313.912	4017
314.001	4340
314.091	4657
314.180	3633
314.270	4305
314.360	4152
314.449	4134
314.539	3327
314.628	3536
314.718	3104
314.808	4477
314.897	4629
314.987	5313
315.076	4650
315.166	4993
315.255	4822
315.345	4591
315.434	4295
315.524	3925
315.613	4232
315.703	5172
315.792	9654
315.881	26644
315.971	9625
316.060	5449
316.150	4550
316.239	4056
316.328	3729
316.418	4606
316.507	4110
316.597	4963
316.686	4588
316.775	4675
316.865	4047
316.954	4244
317.043	3001
317.133	3029
317.222	3415
317.311	2898
317.400	2324
317.490	3524
317.579	3345
317.668	4076
317.757	5877
317.847	13953
317.936	40551
318.025	14568
318.114	11906
318.203	6322
318.293	4294
318.382	6995
318.471	7850
318.560	6429
318.649	4508
318.738	3360
318.828	3704
318.917	2577
319.006	2636
319.095	2335
319.184	2845
319.273	3202
319.362	3613
319.451	2380
319.540	2225
319.629	2297
319.718	3729
319.807	2737
319.896	2965
319.985	3466
320.074	3403
320.163	2668
320.252	3068
320.341	3598
320.430	3300
320.519	4298
320.608	4403
320.697	4757
320.786	4835
320.875	5560
320.964	6798
321.053	7216
321.142	7760
321.230	8961
321.319	9616
321.408	11952
321.497	10533
321.586	9185
321.675	6691
321.764	7827
321.852	7636
321.941	6636
322.030	6570
322.119	7132
322.207	10436
322.296	10172
322.385	11784
322.474	14617
322.562	16233
322.651	12564
322.740	10191
322.829	10410
322.917	6157
323.006	5964
323.095	6268
323.183	5020
323.272	5152
323.361	5279
323.449	5858
323.538	4234
323.626	5571
323.715	5095
323.804	3711
323.892	3640
323.981	4693
324.069	3955
324.158	3904
324.246	3547
324.335	4496
324.424	4214
324.512	3565
324.601	3037
324.689	3196
324.778	4100
324.866	4111
324.954	3112
325.043	2488
325.131	2234
325.220	3630
325.308	4210
325.397	2970
325.485	4131
325.574	3024
325.662	3730
325.750	3003
325.839	4110
325.927	2516
326.015	3557
326.104	2520
326.192	2931
326.280	3121
326.369	3451
326.457	3810
326.545	4404
326.634	3360
326.722	2448
326.810	3380
326.898	3991
326.987	4536
327.075	3218
327.163	3898
327.251	3239
327.340	3080
327.428	5158
327.516	5776
327.604	4421
327.692	3878
327.781	3677
327.869	3450
327.957	2847
328.045	2950
328.133	3618
328.221	1998
328.309	2660
328.397	3291
328.485	3508
328.574	6321
328.662	9061
328.750	5376
328.838	3496
328.926	3800
329.014	3315
329.102	3337
329.190	3908
329.278	3280
329.366	3523
329.454	2523
329.542	3444
329.630	2470
329.718	3252
329.806	2687
329.893	3676
329.981	2363
330.069	3315
330.157	3817
330.245	5123
330.333	3897
330.421	2751
330.509	2775
330.597	4025
330.684	3976
330.772	3040
330.860	2879
330.948	2918
331.036	3187
331.123	2957
331.211	4155
331.299	3479
331.387	3923
331.475	3177
331.562	3401
331.650	3346
331.738	2651
331.825	3489
331.913	3309
332.001	2991
332.089	3181
332.176	3367
332.264	2586
332.352	3147
332.439	3258
332.527	4419
332.614	2931
332.702	3088
332.790	3320
332.877	3953
332.965	5657
333.052	6019
333.140	5531
333.228	13691
333.315	5268
333.403	3725
333.490	4630
333.578	5788
333.665	18714
333.753	9503
333.840	5245
333.928	5243
334.015	5364
334.103	6473
334.190	8537
334.278	11449
334.365	15839
334.452	17762
334.540	10356
334.627	10165
334.715	12667
334.802	17783
334.889	25821
334.977	39754
335.064	27134
335.151	13161
335.239	9989
335.326	7903
335.413	7503
335.501	7819
335.588	8581
335.675	9140
335.762	10799
335.850	14246
335.937	19879
336.024	32565
336.111	50088
336.199	50982
336.286	24486
336.373	13438
336.460	8975
336.547	7969
336.635	6505
336.722	5730
336.809	4874
336.896	4748
336.983	5273
337.070	5903
337.157	4545
337.245	4818
337.332	5612
337.419	4481
337.506	4924
337.593	4334
337.680	3754
337.767	4860
337.854	3465
337.941	3985
338.028	3910
338.115	3372
338.202	5027
338.289	4341
338.376	4073
338.463	4262
338.550	3613
338.637	4118
338.724	3155
338.811	4572
338.898	4193
338.984	3894
339.071	2967
339.158	3662
339.245	4611
339.332	4353
339.419	3540
339.506	3693
339.593	3533
339.679	4577
339.766	3409
339.853	3574
339.940	3962
340.027	4340
340.113	2948
340.200	3656
340.287	3255
340.374	3080
340.460	3638
340.547	2262
340.634	4267
340.720	5722
340.807	3803
340.894	3814
340.980	4235
341.067	3778
341.154	4613
341.240	3477
341.327	4564
341.414	4089
341.500	3512
341.587	4288
341.674	4112
341.760	3976
341.847	3911
341.933	3910
342.020	3362
342.106	3955
342.193	4649
342.279	4205
342.366	2906
342.452	3772
342.539	3675
342.625	3889
342.712	4607
342.798	3948
342.885	3939
342.971	3150
343.058	3505
343.144	3013
343.230	3614
343.317	4331
343.403	2881
343.490	3687
343.576	2887
343.662	4315
343.749	2785
343.835	4573
343.921	4394
344.008	10107
344.094	21359
344.180	7314
344.267	4453
344.353	7346
344.439	6756
344.525	3884
344.612	3553
344.698	3438
344.784	2818
344.870	2880
344.957	3121
345.043	4087
345.129	3134
345.215	4135
345.301	3238
345.387	3298
345.474	2836
345.560	3355
345.646	2770
345.732	3601
345.818	3133
345.904	3787
345.990	3174
346.076	2991
346.162	2306
346.249	4234
346.335	3782
346.421	4086
346.507	4821
346.593	9891
346.679	3516
346.765	4822
346.851	6079
346.937	4438
347.023	5024
347.108	4137
347.194	3083
347.280	3841
347.366	5245
347.452	12010
347.538	20120
347.624	12106
347.710	7428
347.796	3870
347.882	3851
347.967	3459
348.053	3733
348.139	4127
348.225	2977
348.311	4197
348.397	4069
348.482	4960
348.568	4350
348.654	5914
348.740	16216
348.825	17227
348.911	7514
348.997	7999
349.083	11429
349.168	4656
349.254	3932
349.340	3712
349.425	3821
349.511	3910
349.597	3824
349.682	5069
349.768	8135
349.854	5374
349.939	4369
350.025	3741
350.110	3994
350.196	4535
350.282	3070
350.367	4738
350.453	3719
350.538	3632
350.624	2598
350.709	4216
350.795	3106
350.880	3630
350.966	4740
351.051	3843
351.137	2883
351.222	3852
351.308	4055
351.393	6245
351.479	3978
351.564	3347
351.649	3607
351.735	4271
351.820	3258
351.906	3141
351.991	3414
352.076	5259
352.162	6201
352.247	4751
352.332	3302
352.418	2739
352.503	3616
352.588	8170
352.673	5736
352.759	3625
352.844	2618
352.929	3784
353.014	2547
353.100	4551
353.185	7756
353.270	5339
353.355	4498
353.441	3393
353.526	2920
353.611	3056
353.696	3019
353.781	4587
353.866	3115
353.952	3534
354.037	2644
354.122	4676
354.207	4039
354.292	4325
354.377	3483
354.462	4023
354.547	3059
354.632	4388
354.717	5348
354.802	9281
354.887	4458
354.972	3912
355.057	3618
355.142	3421
355.227	3255
355.312	3130
355.397	3789
355.482	5459
355.567	3602
355.652	4346
355.737	4095
355.822	7226
355.907	6183
355.991	4810
356.076	3285
356.161	4678
356.246	3431
356.331	4569
356.416	4410
356.501	12786
356.585	12055
356.670	4147
356.755	6164
356.840	5499
356.924	13689
357.009	26510
357.094	11417
357.179	4817
357.263	4004
357.348	4969
357.433	4782
357.517	5848
357.602	4770
357.687	5129
357.771	5881
357.856	6340
357.941	5189
358.025	7518
358.110	24383
358.195	13419
358.279	4690
358.364	5136
358.448	5938
358.533	11564
358.617	9012
358.702	10681
358.787	5764
358.871	5925
358.956	5032
359.040	4739
359.125	4372
359.209	4797
359.294	4627
359.378	6531
359.462	6803
359.547	5058
359.631	4071
359.716	3417
359.800	4446
359.885	4700
359.969	2889
360.053	4333
360.138	3816
360.222	3676
360.306	3195
360.391	4121
360.475	4228
360.559	5040
360.644	6104
360.728	5400
360.812	9629
360.896	17434
360.981	7371
361.065	6072
361.149	4908
361.233	4438
361.318	3652
361.402	4018
361.486	4946
361.570	4561
361.654	5050
361.739	6236
361.823	11272
361.907	19840
361.991	7458
362.075	7964
362.159	9534
362.243	17532
362.327	37616
362.411	60954
362.495	25151
362.580	13115
362.664	10695
362.748	12783
362.832	18397
362.916	33934
363.000	89574
363.084	127932
363.168	61834
363.252	20273
363.336	12052
363.420	10132
363.503	7816
363.587	6971
363.671	7181
363.755	7569
363.839	9558
363.923	8771
364.007	11632
364.091	13689
364.175	20114
364.258	42575
364.342	94829
364.426	166768
364.510	98027
364.594	34817
364.677	17552
364.761	20210
364.845	16293
364.929	8604
365.013	6652
365.096	6664
365.180	5020
365.264	5365
365.347	5045
365.431	4356
365.515	4059
365.598	4130
365.682	6331
365.766	4559
365.849	4931
365.933	5180
366.017	6457
366.100	4482
366.184	5534
366.267	6149
366.351	4690
366.435	5599
366.518	4348
366.602	5410
366.685	4878
366.769	5087
366.852	4894
366.936	5384
367.019	6036
367.103	4204
367.186	5947
367.270	5643
367.353	4732
367.436	6896
367.520	5211
367.603	6193
367.687	4847
367.770	5772
367.853	5274
367.937	9316
368.020	11118
368.104	5409
368.187	5380
368.270	5766
368.353	5311
368.437	5275
368.520	5289
368.603	5224
368.687	6374
368.770	9255
368.853	5287
368.936	5443
369.020	5127
369.103	4850
369.186	4514
369.269	4932
369.352	4898
369.436	4768
369.519	4649
369.602	3474
369.685	5465
369.768	3692
369.851	5020
369.934	5124
370.018	4306
370.101	5269
370.184	6086
370.267	5556
370.350	4953
370.433	6154
370.516	11897
370.599	23621
370.682	9741
370.765	8804
370.848	8998
370.931	11776
371.014	9257
371.097	4554
371.180	6170
371.263	6271
371.346	4611
371.429	6789
371.511	5249
371.594	6738
371.677	8338
371.760	8194
371.843	7684
371.926	14254
372.009	26172
372.091	17891
372.174	11530
372.257	17613
372.340	10795
372.423	9735
372.505	10883
372.588	7388
372.671	8901
372.754	13376
372.836	9715
372.919	6911
373.002	7790
373.085	7171
373.167	8161
373.250	9054
373.332	13736
373.415	17172
373.498	28431
373.580	15506
373.663	28744
373.746	33579
373.828	9918
373.911	8350
373.993	6334
374.076	6420
374.159	6010
374.241	7134
374.324	11168
374.406	9310
374.489	10562
374.571	26734
374.654	12685
374.736	8921
374.819	17864
374.901	23103
374.983	22824
375.066	9435
375.148	6573
375.231	7132
375.313	7561
375.395	8373
375.478	7086
375.560	7299
375.643	7742
375.725	10069
375.807	19057
375.890	15717
375.972	5692
376.054	6451
376.136	6410
376.219	6019
376.301	8206
376.383	16645
376.465	9115
376.548	5934
376.630	6928
376.712	14809
376.794	8829
376.877	5418
376.959	4276
377.041	4783
377.123	4522
377.205	4453
377.287	4520
377.369	5583
377.452	5071
377.534	5986
377.616	5236
377.698	5510
377.780	5265
377.862	5743
377.944	6227
378.026	4286
378.108	4881
378.190	5194
378.272	5090
378.354	5383
378.436	4465
378.518	4417
378.600	5307
378.682	5153
378.764	7901
378.846	7383
378.928	4206
379.010	5458
379.091	4679
379.173	5602
379.255	4198
379.337	4629
379.419	5489
379.501	11944
379.583	6411
379.664	5636
379.746	4467
379.828	8798
379.910	8466
379.991	10200
380.073	4900
380.155	5565
380.237	4987
380.318	5172
380.400	4642
380.482	5541
380.564	5440
380.645	9527
380.727	7569
380.809	5722
380.890	4972
380.972	4305
381.053	6016
381.135	6645
381.217	5757
381.298	9577
381.380	6454
381.461	7176
381.543	12895
381.624	17530
381.706	7610
381.787	6884
381.869	7358
381.951	9242
382.032	22117
382.113	18499
382.195	6539
382.276	10131
382.358	12644
382.439	17722
382.521	19042
382.602	26053
382.684	17815
382.765	26639
382.846	51160
382.928	110244
383.009	67676
383.090	50382
383.172	126081
383.253	165256
383.334	66364
383.416	38251
383.497	26726
383.578	26196
383.659	43590
383.741	111031
383.822	205361
383.903	120228
383.984	43393
384.066	34773
384.147	21929
384.228	13738
384.309	11449
384.390	12392
384.471	10549
384.553	8666
384.634	10061
384.715	10056
384.796	8441
384.877	8235
384.958	11465
385.039	10319
385.120	8348
385.201	8953
385.282	7132
385.363	9305
385.444	9667
385.525	10770
385.606	15035
385.687	14219
385.768	9388
385.849	8443
385.930	15969
386.011	23582
386.092	11254
386.173	9218
386.254	7869
386.335	8774
386.416	7725
386.496	8998
386.577	10543
386.658	8251
386.739	6731
386.820	9579
386.901	6759
386.981	8973
387.062	9425
387.143	10220
387.224	14194
387.304	15217
387.385	13546
387.466	10835
387.547	13114
387.627	13877
387.708	14660
387.789	19713
387.869	20073
387.950	13514
388.031	9603
388.111	7263
388.192	9407
388.273	10294
388.353	8307
388.434	7357
388.514	7267
388.595	15363
388.676	16922
388.756	10485
388.837	9422
388.917	7728
388.998	5115
389.078	6973
389.159	5930
389.239	4862
389.320	7115
389.400	4386
389.480	7491
389.561	10262
389.641	8464
389.722	6775
389.802	5708
389.883	7493
389.963	13117
390.043	8500
390.124	4216
390.204	6123
390.284	9293
390.365	7701
390.445	5669
390.525	7059
390.605	8133
390.686	6817
390.766	6834
390.846	7220
390.927	5254
391.007	4934
391.087	6750
391.167	6019
391.247	4563
391.328	6218
391.408	6704
391.488	6821
391.568	4736
391.648	7228
391.728	8478
391.808	7285
391.888	7181
391.969	9233
392.049	11347
392.129	10362
392.209	10070
392.289	16017
392.369	12070
392.449	9823
392.529	9565
392.609	13132
392.689	14327
392.769	20041
392.849	22222
392.929	24652
393.009	35641
393.089	48111
393.169	76805
393.248	160193
393.328	303156
393.408	299559
393.488	167829
393.568	80202
393.648	44479
393.728	28582
393.807	20460
393.887	17514
393.967	14221
394.047	11839
394.127	8916
394.206	10038
394.286	10226
394.366	14271
394.446	15196
394.525	8437
394.605	7260
394.685	7730
394.764	8374
394.844	15654
394.924	21517
395.003	10783
395.083	6805
395.163	7397
395.242	6190
395.322	6353
395.402	5064
395.481	7826
395.561	7184
395.640	22242
395.720	47977
395.799	23398
395.879	9170
395.958	7870
396.038	8875
396.117	18116
396.197	22622
396.276	13456
396.356	11893
396.435	15895
396.515	20473
396.594	30695
396.673	58775
396.753	145866
396.832	274433
396.912	218605
396.991	88241
397.070	42783
397.150	24603
397.229	23131
397.308	37083
397.388	72857
397.467	37159
397.546	13851
397.625	8738
397.705	11218
397.784	8789
397.863	7587
397.942	7114
398.022	6728
398.101	6149
398.180	6210
398.259	6493
398.338	6779
398.417	5484
398.497	5294
398.576	6396
398.655	4615
398.734	5477
398.813	5007
398.892	5162
398.971	5783
399.050	3864
399.129	3975
399.208	4694
399.287	5237
399.366	3949
399.445	4904
399.524	4640
399.603	3120
399.682	4112
399.761	4700
399.840	4556
399.919	5339
399.998	4203
400.077	3275
400.156	2912
400.235	6328
400.313	3295
400.392	3284
400.471	5771
400.550	6990
400.629	3073
400.708	4595
400.786	2853
400.865	4046
400.944	2689
401.023	5376
401.102	3698
401.180	2955
401.259	2889
401.338	3608
401.416	3526
401.495	2925
401.574	4044
401.652	2236
401.731	4009
401.810	4074
401.888	3549
401.967	3170
402.046	3168
402.124	4279
402.203	3321
402.281	4006
402.360	2365
402.438	3385
402.517	2545
402.596	3964
402.674	3276
402.753	2826
402.831	3494
402.910	5249
402.988	7557
403.066	24147
403.145	16125
403.223	10071
403.302	23900
403.380	19829
403.459	22174
403.537	10457
403.615	5925
403.694	3256
403.772	4390
403.850	4147
403.929	3503
404.007	3015
404.085	6560
404.164	8135
404.242	5025
404.320	4690
404.398	3929
404.477	4602
404.555	15792
404.633	14132
404.711	5043
404.789	4120
404.868	4088
404.946	2567
405.024	2999
405.102	3061
405.180	2479
405.258	2370
405.336	3352
405.415	2423
405.493	3627
405.571	5999
405.649	3479
405.727	3284
405.805	3803
405.883	6053
405.961	4806
406.039	3303
406.117	1740
406.195	3558
406.273	4254
406.351	13584
406.429	8427
406.507	2665
406.585	2404
406.663	2577
406.740	2627
406.818	1676
406.896	2330
406.974	4276
407.052	1821
407.130	8545
407.208	10179
407.285	4572
407.363	2074
407.441	3834
407.519	2656
407.596	3107
407.674	4346
407.752	14611
407.830	11371
407.907	4583
407.985	3591
408.063	3331
408.141	1685
408.218	3954
408.296	3686
408.373	5211
408.451	5126
408.529	4237
408.606	4333
408.684	4570
408.762	4397
408.839	4614
408.917	4439
408.994	4858
409.072	4819
409.149	6398
409.227	11524
409.304	15620
409.382	16750
409.459	18210
409.537	24658
409.614	22316
409.692	15764
409.769	15731
409.846	24268
409.924	29600
410.001	19591
410.079	15013
410.156	11150
410.233	9432
410.311	7348
410.388	6189
410.465	7072
410.543	5882
410.620	7251
410.697	6544
410.775	6361
410.852	5796
410.929	7950
411.006	6924
411.083	6192
411.161	6783
411.238	5768
411.315	5375
411.392	5296
411.469	6320
411.547	4672
411.624	3515
411.701	3836
411.778	4870
411.855	3680
411.932	3222
412.009	3657
412.086	4342
412.163	4062
412.240	3605
412.317	3996
412.394	2995
412.471	4279
412.548	3616
412.625	3370
412.702	3488
412.779	3760
412.856	4060
412.933	3048
413.010	3772
413.087	3635
413.164	4623
413.241	5985
413.318	2352
413.395	3474
413.471	2813
413.548	2559
413.625	3949
413.702	1585
413.779	3193
413.855	2772
413.932	2521
414.009	2250
414.086	3084
414.162	3418
414.239	3973
414.316	4275
414.393	6900
414.469	3150
414.546	2557
414.623	2742
414.699	1877
414.776	2863
414.853	2278
414.929	3419
415.006	2764
415.082	2433
415.159	3401
415.236	2655
415.312	2856
415.389	2984
415.465	1969
415.542	2623
415.618	2343
415.695	3335
415.771	1621
415.848	2247
415.924	2992
416.000	1719
416.077	3261
416.153	1147
416.230	2353
416.306	2216
416.383	1070
416.459	2548
416.535	1857
416.612	1202
416.688	2604
416.764	2713
416.841	1541
416.917	2659
416.993	3042
417.069	2391
417.146	1587
417.222	2361
417.298	2286
417.374	1552
417.451	2135
417.527	2160
417.603	2002
417.679	2374
417.755	2141
417.831	775
417.908	2677
417.984	2105
418.060	1316
418.136	2155
418.212	2264
418.288	2592
418.364	3063
418.440	1644
418.516	3228
418.592	2357
418.668	3390
418.744	2444
418.820	3277
418.896	2343
418.972	1962
419.048	1787
419.124	4095
419.200	1500
419.276	3683
419.352	2453
419.428	3198
419.504	1559
419.579	3258
419.655	3282
419.731	3598
419.807	3284
419.883	3164
419.959	3624
420.034	4241
420.110	4064
420.186	5877
420.262	6472
420.337	4575
420.413	4430
420.489	5657
420.565	6073
420.640	5305
420.716	6460
420.792	5281
420.867	8020
420.943	6415
421.019	7540
421.094	7713
421.170	8756
421.245	8324
421.321	9242
421.397	10284
421.472	13672
421.548	18121
421.623	17346
421.699	16328
421.774	18182
421.850	20392
421.925	24585
422.001	27698
422.076	33493
422.152	41782
422.227	54004
422.302	72654
422.378	96845
422.453	135665
422.529	167609
422.604	149834
422.679	100303
422.755	139036
422.830	175137
422.905	144763
422.981	109301
423.056	81657
423.131	63518
423.207	48114
423.282	39120
423.357	32931
423.432	26581
423.508	24967
423.583	20917
423.658	18433
423.733	16229
423.808	15778
423.883	14098
423.959	15098
424.034	16975
424.109	15564
424.184	10961
424.259	10028
424.334	8740
424.409	8624
424.484	8061
424.559	7545
424.634	7175
424.709	6461
424.784	6879
424.859	5102
424.934	5327
425.009	7646
425.084	7193
425.159	5462
425.234	5736
425.309	4797
425.384	4784
425.459	3630
425.534	4813
425.609	3490
425.683	3669
425.758	3933
425.833	3963
425.908	4468
425.983	3500
426.058	7272
426.132	4439
426.207	3550
426.282	4137
426.357	2633
426.431	3912
426.506	3656
426.581	3272
426.655	3852
426.730	3309
426.805	2686
426.879	3780
426.954	2819
427.029	3710
427.103	5341
427.178	10138
427.253	6315
427.327	2635
427.402	2273
427.476	2701
427.551	2652
427.625	2283
427.700	2514
427.774	1945
427.849	3623
427.923	2497
427.998	3661
428.072	3610
428.147	7584
428.221	23187
428.296	68669
428.370	42649
428.444	8951
428.519	3766
428.593	3729
428.667	4066
428.742	4452
428.816	9477
428.890	42134
428.965	65546
429.039	20250
429.113	5428
429.188	3534
429.262	2730
429.336	3712
429.410	3857
429.485	2925
429.559	2859
429.633	4097
429.707	4583
429.781	9186
429.855	38110
429.930	59542
430.004	18413
430.078	11061
430.152	28645
430.226	88845
430.300	92385
430.374	26039
430.448	9506
430.522	5129
430.596	4946
430.670	13624
430.744	53942
430.818	62111
430.892	13246
430.966	4091
431.040	2307
431.114	2092
431.188	1927
431.262	1719
431.336	1534
431.410	2716
431.484	1367
431.557	3012
431.631	2657
431.705	4934
431.779	18217
431.853	67515
431.927	47300
432.000	9119
432.074	3473
432.148	1869
432.222	1475
432.295	1645
432.369	865
432.443	538
432.516	4006
432.590	9528
432.664	3924
432.737	907
432.811	640
432.885	1451
432.958	1090
433.032	554
433.106	578
433.179	1215
433.253	923
433.326	922
433.400	517
433.473	1151
433.547	772
433.620	1395
433.694	-150
433.767	1538
433.841	522
433.914	665
433.988	1344
434.061	1614
434.134	987
434.208	1570
434.281	1124
434.355	740
434.428	1074
434.501	622
434.575	65
434.648	529
434.721	883
434.795	1184
434.868	289
434.941	939
435.014	528
435.088	871
435.161	2592
435.234	3177
435.307	3361
435.381	4389
435.454	6251
435.527	11452
435.600	12914
435.673	10261
435.746	7354
435.819	5011
435.892	4326
435.966	3002
436.039	2528
436.112	2165
436.185	1135
436.258	1340
436.331	827
436.404	2092
436.477	928
436.550	127
436.623	872
436.696	1429
436.769	1581
436.842	698
436.915	820
436.987	1270
437.060	1396
437.133	1442
437.206	359
437.279	939
437.352	1010
437.425	1014
437.498	1061
437.570	1083
437.643	477
437.716	1360
437.789	805
437.861	1037
437.934	218
438.007	800
438.080	322
438.152	2153
438.225	1244
438.298	4244
438.370	13662
438.443	5309
438.516	1063
438.588	1384
438.661	994
438.734	1373
438.806	1661
438.879	1880
438.951	1074
439.024	1050
439.096	378
439.169	1564
439.241	599
439.314	1264
439.386	846
439.459	1121
439.531	776
439.604	560
439.676	1083
439.749	974
439.821	1244
439.893	1145
439.966	995
440.038	1272
440.110	873
440.183	299
440.255	109
440.327	1667
440.400	1893
440.472	8057
440.544	4999
440.617	1434
440.689	1890
440.761	1405
440.833	669
440.905	1539
440.978	602
441.050	1669
441.122	1756
441.194	995
441.266	1230
441.338	881
441.411	1096
441.483	2823
441.555	4463
441.627	1145
441.699	1862
441.771	1825
441.843	503
441.915	2679
441.987	1456
442.059	1997
442.131	2556
442.203	2872
442.275	3129
442.347	6431
442.419	13089
442.491	51478
442.563	106867
442.635	46903
442.706	11589
442.778	5904
442.850	4317
442.922	4160
442.994	3515
443.066	4430
443.137	4796
443.209	7010
443.281	9845
443.353	20881
443.425	60092
443.496	146606
443.568	160519
443.640	73815
443.711	20687
443.783	9059
443.855	5768
443.926	4938
443.998	3195
444.070	3276
444.141	2214
444.213	3001
444.285	2893
444.356	1708
444.428	2564
444.499	2254
444.571	2597
444.642	2734
444.714	2502
444.785	1976
444.857	1727
444.928	2720
445.000	3292
445.071	4684
445.143	6690
445.214	10216
445.285	16983
445.357	38765
445.428	104373
445.500	170540
445.571	150748
445.642	106249
445.714	41826
445.785	14523
445.856	7273
445.928	4929
445.999	3463
446.070	2988
446.141	2949
446.213	2775
446.284	1610
446.355	1856
446.426	1149
446.497	1449
446.569	916
446.640	840
446.711	1184
446.782	1637
446.853	715
446.924	1376
446.995	643
447.066	1016
447.138	415
447.209	913
447.280	270
447.351	-94
447.422	-348
447.493	746
447.564	-382
447.635	-344
447.706	108
447.777	-23
447.847	-462
447.918	-152
447.989	562
448.060	516
448.131	154
448.202	580
448.273	305
448.344	-84
448.414	339
448.485	3
448.556	-78
448.627	200
448.698	203
448.768	-101
448.839	-294
448.910	-242
448.981	251
449.051	53
449.122	10
449.193	499
449.263	-172
449.334	-158
449.405	302
449.475	411
449.546	731
449.616	639
449.687	-344
449.758	877
449.828	-613
449.899	51
449.969	-175
450.040	341
450.110	504
450.181	314
450.251	208
450.322	-440
450.392	342
450.463	404
450.533	-650
450.604	-716
450.674	120
450.744	515
450.815	-37
450.885	1333
450.955	1353
451.026	128
451.096	371
451.166	550
451.237	265
451.307	1331
451.377	1084
451.447	234
451.518	308
451.588	-465
451.658	881
451.728	-308
451.799	-275
451.869	227
451.939	-588
452.009	25
452.079	-308
452.149	275
452.219	344
452.289	46
452.360	195
452.430	-262
452.500	556
452.570	1872
452.640	7452
452.710	20950
452.780	22075
452.850	9729
452.920	3320
452.990	2348
453.060	1179
453.129	324
453.199	-203
453.269	157
453.339	-128
453.409	-407
453.479	-186
453.549	-73
453.619	-327
453.688	-466
453.758	375
453.828	-1209
453.898	-656
453.968	713
454.037	354
454.087	5
454.107	-144
454.168	-946
454.177	-1074
454.247	-102
454.249	-126
454.316	-830
454.330	-729
454.386	-397
454.411	-423
454.456	-492
454.492	-130
454.525	186
454.574	220
454.595	230
454.655	-220
454.665	-305
454.734	257
454.736	243
454.804	-640
454.817	-570
454.873	-355
454.898	-110
454.943	329
454.979	-179
455.013	-657
455.060	-353
455.082	-209
455.141	-589
455.152	-687
455.221	536
455.222	536
455.291	-165
455.303	-31
455.360	623
455.384	650
455.430	561
455.465	463
455.499	361
455.546	285
455.569	266
455.627	107
455.638	54
455.707	-30
455.708	-22
455.777	-71
455.789	-86
455.846	-57
455.869	182
455.916	589
455.950	204
455.985	-249
456.031	59
456.054	281
456.112	576
456.124	621
456.193	443
456.193	433
456.262	609
456.274	733
456.332	1281
456.355	854
456.401	5
456.436	366
456.470	712
456.516	90
456.540	-291
456.597	-91
456.609	3
456.678	832
456.678	822
456.747	276
456.759	247
456.817	548
456.840	641
456.886	773
456.920	906
456.955	896
457.001	1097
457.024	1236
457.082	1351
457.093	1355
457.162	1026
457.163	1034
457.232	889
457.243	889
457.301	799
457.324	709
457.370	650
457.405	1026
457.439	1390
457.485	1615
457.508	1733
457.566	1674
457.577	1730
457.646	2998
457.647	3022
457.715	7308
457.727	8420
457.784	15892
457.808	22664
457.853	31787
457.889	38158
457.922	39418
457.969	23667
457.991	21444
458.050	25148
458.060	25932
458.129	49261
458.130	49934
458.198	57916
458.211	51700
458.267	25679
458.292	17310
458.336	9385
458.372	8954
458.405	12406
458.453	18668
458.474	23746
458.533	45111
458.543	46920
458.611	82802
458.614	83020
458.680	53391
458.694	42342
458.749	16258
458.775	11336
458.818	6261
458.855	4756
458.887	3826
458.936	2957
458.955	2600
459.016	2251
459.024	2211
459.093	2174
459.097	2134
459.162	1846
459.177	1895
459.230	1431
459.257	1431
459.299	1869
459.338	1830
459.368	1516
459.418	1293
459.437	1390
459.499	1492
459.505	1456
459.574	1844
459.579	1770
459.643	1050
459.659	1097
459.711	1019
459.740	1245
459.780	1769
459.820	1813
459.849	1563
459.900	1345
459.917	1479
459.981	1830
459.986	1799
460.054	1062
460.061	1074
460.123	1515
460.141	1692
460.191	2108
460.222	1990
460.260	1909
460.302	1935
460.328	1863
460.382	1968
460.397	2059
460.462	2039
460.465	2068
460.534	3587
460.543	3668
460.602	9761
460.623	12549
460.671	19557
460.703	26230
460.739	25275
460.783	20686
460.808	17441
460.864	4543
460.876	3452
460.944	2627
460.945	2608
461.013	1765
461.024	1640
461.081	1637
461.104	1784
461.150	1570
461.184	1311
461.218	1561
461.264	1995
461.286	2075
461.345	2013
461.355	1999
461.423	2401
461.425	2393
461.491	1431
461.505	1396
461.559	1880
461.585	2002
461.628	1747
461.665	1421
461.696	1393
461.745	1602
461.764	1769
461.825	1738
461.832	1713
461.901	2171
461.905	2192
461.969	905
461.985	530
462.037	1602
462.065	2285
462.105	2027
462.145	1805
462.173	2076
462.225	2271
462.241	1996
462.305	835
462.310	876
462.378	2103
462.385	2172
462.446	1639
462.465	1586
462.514	1889
462.545	2158
462.582	2056
462.625	1622
462.650	1651
462.705	1799
462.718	1720
462.785	1558
462.786	1568
462.854	1873
462.865	1956
462.922	1982
462.945	1931
462.990	1939
463.025	1799
463.058	1637
463.104	1744
463.126	1883
463.184	2006
463.194	1979
463.262	1611
463.264	1617
463.330	2201
463.344	2194
463.398	1913
463.424	1926
463.466	1925
463.504	1861
463.533	2105
463.583	2556
463.601	2437
463.663	1759
463.669	1742
463.737	1853
463.743	1852
463.805	2672
463.823	2926
463.873	2721
463.903	2442
463.940	1930
463.982	1514
464.008	1617
464.062	1870
464.076	1999
464.142	2332
464.144	2324
464.211	2039
464.221	2037
464.279	2217
464.301	2147
464.347	2242
464.381	2426
464.414	2402
464.461	2298
464.482	2288
464.540	2275
464.550	2222
464.617	1631
464.620	1620
464.685	2148
464.699	2187
464.753	2308
464.779	2470
464.820	2549
464.859	2505
464.888	2148
464.938	1701
464.956	1933
465.018	2368
465.023	2399
465.091	3012
465.098	3079
465.158	2348
465.177	2079
465.226	2170
465.257	2228
465.293	2076
465.336	1854
465.361	2212
465.416	3105
465.428	2999
465.495	2314
465.496	2320
465.563	2510
465.575	2534
465.631	2071
465.654	1927
465.698	2278
465.734	2516
465.765	2281
465.813	1894
465.833	2111
465.893	2716
465.900	2666
465.968	2217
465.972	2183
466.035	2631
466.052	2722
466.102	2866
466.131	3016
466.170	2835
466.210	2506
466.237	2633
466.290	2974
466.304	2919
466.369	2553
466.372	2533
466.439	1857
466.449	1738
466.506	2188
466.528	2375
466.573	2377
466.607	2370
466.641	2685
466.687	3146
466.708	3046
466.766	2636
466.775	2654
466.842	2850
466.845	2853
466.909	2702
466.925	2662
466.977	3183
467.004	3452
467.044	3369
467.083	3272
467.111	3076
467.163	2683
467.178	2617
467.242	2350
467.245	2398
467.312	3357
467.321	3481
467.379	3368
467.400	3320
467.446	3486
467.480	3597
467.559	3573
467.638	2666
467.717	3228
467.796	3572
467.875	2697
467.955	2998
468.034	4487
468.113	4333
468.192	4922
468.271	5641
468.350	8050
468.429	13859
468.508	16007
468.588	9761
468.667	4578
468.746	4623
468.825	3668
468.904	3296
468.983	3768
469.062	4225
469.141	4514
469.220	3278
469.299	3014
469.378	2315
469.456	4160
469.535	3585
469.614	3012
469.693	3232
469.772	3442
469.851	3264
469.930	2749
470.009	2954
470.088	3544
470.166	4281
470.245	5975
470.324	7981
470.403	4878
470.482	3494
470.560	3580
470.639	3612
470.718	3586
470.797	3617
470.875	2987
470.954	3036
471.033	3910
471.111	3067
471.190	3247
471.269	2929
471.347	3052
471.426	2346
471.505	2406
471.583	2898
471.662	3432
471.740	3364
471.819	2523
471.898	3316
471.976	3126
472.055	3327
472.133	3186
472.212	4909
472.290	3558
472.369	2956
472.447	3037
472.526	2105
472.604	3288
472.683	3898
472.761	3208
472.839	2782
472.918	2464
472.996	2697
473.075	4090
473.153	4169
473.231	3380
473.310	2900
473.388	3813
473.466	4050
473.545	3668
473.623	2936
473.701	3345
473.780	3422
473.858	3257
473.936	4073
474.014	3276
474.093	3436
474.171	4049
474.249	3085
474.327	3303
474.405	3617
474.484	3382
474.562	2232
474.640	3045
474.718	3621
474.796	3775
474.874	3721
474.952	2946
475.030	3156
475.108	3671
475.187	3748
475.265	3463
475.343	6793
475.421	6574
475.499	2956
475.577	3260
475.655	3302
475.733	3265
475.811	3635
475.889	3133
475.966	3469
476.044	3872
476.122	4488
476.200	6106
476.278	4679
476.356	1967
476.434	3483
476.512	3638
476.590	5406
476.667	4862
476.745	3015
476.823	3103
476.901	3280
476.979	3412
477.056	3926
477.134	2251
477.212	3163
477.290	3334
477.367	3158
477.445	3544
477.523	3015
477.601	2650
477.678	4352
477.756	2976
477.834	3007
477.911	3072
477.989	4481
478.066	3514
478.144	3709
478.222	4612
478.299	7883
478.377	7590
478.454	4475
478.532	3252
478.609	3426
478.687	3406
478.764	3317
478.842	3094
478.919	3283
478.997	3919
479.074	2749
479.152	2760
479.229	3769
479.307	2655
479.384	3594
479.461	3522
479.539	2891
479.616	2271
479.694	3695
479.771	3918
479.848	2865
479.926	2260
480.003	4861
480.080	2066
480.157	3739
480.235	2920
480.312	3886
480.389	2496
480.467	3313
480.544	3499
480.621	4037
480.698	4109
480.775	3131
480.853	3458
480.930	3572
481.007	3467
481.084	3710
481.161	4522
481.238	4738
481.315	3608
481.392	2495
481.470	3118
481.547	2500
481.624	2418
481.701	3275
481.778	3652
481.855	4085
481.932	4150
482.009	4558
482.086	4646
482.163	4973
482.240	6622
482.317	11791
482.393	7695
482.470	4284
482.547	3952
482.624	3269
482.701	4401
482.778	3734
482.855	3177
482.932	3151
483.009	3731
483.085	5053
483.162	4915
483.239	6146
483.316	4164
483.393	5673
483.469	3801
483.546	5733
483.623	4556
483.699	2710
483.776	3810
483.853	3753
483.930	4299
484.006	3299
484.083	4325
484.160	3380
484.236	3532
484.313	3644
484.389	2866
484.466	5538
484.543	5577
484.619	7484
484.696	9062
484.772	6654
484.849	4853
484.925	4275
485.002	4076
485.078	4624
485.155	3478
485.231	3087
485.308	2620
485.384	3475
485.461	3716
485.537	2815
485.614	3450
485.690	3355
485.766	3707
485.843	2939
485.919	3742
485.995	3367
486.072	3671
486.148	3698
486.224	2960
486.301	3032
486.377	2745
486.453	2923
486.530	3872
486.606	3471
486.682	2885
486.758	3607
486.835	3530
486.911	2923
486.987	4407
487.063	4915
487.139	5038
487.215	6091
487.292	7440
487.368	7509
487.444	7841
487.520	12621
487.596	16832
487.672	41480
487.748	141867
487.824	229860
487.900	71856
487.976	16621
488.052	9294
488.128	7837
488.204	4985
488.280	6118
488.356	4667
488.432	5021
488.508	4506
488.584	3772
488.660	4205
488.736	3899
488.812	2900
488.888	3962
488.964	3260
489.039	4381
489.115	6025
489.191	5237
489.267	4082
489.343	3489
489.418	3821
489.494	3818
489.570	1831
489.646	4046
489.722	3341
489.797	3511
489.873	3277
489.949	3738
490.024	3111
490.100	3952
490.176	2943
490.251	3665
490.327	3659
490.403	2577
490.478	4167
490.554	2971
490.629	3864
490.705	3051
490.781	3280
490.856	3019
490.932	3016
491.007	3864
491.083	3091
491.158	3260
491.234	3395
491.309	3475
491.385	2744
491.460	2842
491.536	4212
491.611	2939
491.686	3109
491.762	3405
491.837	4002
491.913	4906
491.988	5074
492.063	5584
492.139	3657
492.214	4064
492.289	3588
492.365	2912
492.440	2834
492.515	3471
492.590	2794
492.666	3070
492.741	2433
492.816	3470
492.891	2242
492.967	3238
493.042	3775
493.117	2291
493.192	3198
493.267	4559
493.342	4538
493.418	5583
493.493	2986
493.568	3317
493.643	3234
493.718	3766
493.793	3158
493.868	3096
493.943	3357
494.018	2879
494.093	3495
494.168	3525
494.243	2643
494.318	3538
494.393	2985
494.468	3686
494.543	3565
494.618	3633
494.693	3342
494.768	3547
494.842	3625
494.917	3756
494.992	3512
495.067	3289
495.142	3150
495.217	3151
495.292	3186
495.366	3434
495.441	2594
495.516	4284
495.591	3276
495.665	4813
495.740	7636
495.815	5366
495.890	3803
495.964	1961
496.039	5905
496.114	4507
496.188	5048
496.263	4470
496.338	3349
496.412	3478
496.487	3709
496.561	4032
496.636	3234
496.710	3978
496.785	3235
496.860	3307
496.934	2986
497.009	4416
497.083	3212
497.158	4046
497.232	4049
497.307	3597
497.381	4293
497.455	4546
497.530	4239
497.604	3373
497.679	3406
497.753	3628
497.827	3222
497.902	2441
497.976	4251
498.050	3812
498.125	3802
498.199	3533
498.273	4389
498.348	3899
498.422	3726
498.496	5221
498.570	5583
498.645	4473
498.719	1556
498.793	4054
498.867	2376
498.941	2745
499.016	3752
499.090	3231
499.164	3461
499.238	4754
499.312	4321
499.386	4121
499.460	4784
499.534	4819
499.609	5408
499.683	4460
499.757	3524
499.831	3316
499.905	2888
499.979	3323
500.053	3018
500.127	3334
500.201	2323
500.275	4157
500.349	3760
500.422	4273
500.496	5156
500.570	4947
500.644	7527
500.718	6671
500.792	3417
500.866	3778
500.940	2009
501.013	3082
501.087	2691
501.161	4200
501.235	2256
501.309	4438
501.382	2494
501.456	3492
501.530	2535
501.603	2205
501.677	1915
501.751	1884
501.825	4093
501.898	2673
501.972	2467
502.046	2690
502.119	2456
502.193	3189
502.266	1957
502.340	2911
502.413	2555
502.487	2619
502.561	2083
502.634	2769
502.708	2696
502.781	2993
502.855	3155
502.928	1941
503.002	2183
503.075	3212
503.149	2866
503.222	3395
503.295	2462
503.369	3157
503.442	2627
503.516	4372
503.589	4026
503.662	4259
503.736	4588
503.809	7016
503.882	7444
503.956	11491
504.029	24733
504.102	80982
504.175	133001
504.249	46782
504.322	14664
504.395	7826
504.468	5479
504.542	3843
504.615	2511
504.688	4083
504.761	1598
504.834	4170
504.907	2447
504.980	3025
505.053	2479
505.127	18
505.200	5604
505.273	3012
505.346	1843
505.419	1330
505.492	3178
505.565	2173
505.638	2790
505.711	1864
505.784	1555
505.857	1973
505.930	3865
506.003	1201
506.076	4498
506.149	1457
506.221	1196
506.294	3046
506.367	780
506.440	1095
506.513	2497
506.586	2871
506.659	750
506.731	2963
506.804	1804
506.877	1617
506.950	1998
507.022	3430
507.095	887
507.168	2114
507.241	2569
507.313	2226
507.386	441
507.459	3811
507.531	1380
507.604	1382
507.677	2380
507.749	498
507.822	3130
507.894	1918
507.967	2114
508.040	1105
508.112	2612
508.185	2531
508.257	664
508.330	4046
508.402	2368
508.475	2357
508.547	1324
508.620	2058
508.692	1903
508.765	2914
508.837	1566
508.909	2067
508.982	1180
509.054	2660
509.127	2059
509.199	1781
509.271	1278
509.344	1680
509.416	2055
509.488	1906
509.560	2143
509.633	2469
509.705	2283
509.777	1731
509.849	3308
509.922	710
509.994	1562
510.066	2983
510.138	85
510.210	3772
510.283	1547
510.355	1770
510.427	2373
510.499	2504
510.571	2555
510.643	1536
510.715	3183
510.787	451
510.859	3445
510.931	1331
511.003	2647
511.076	3232
511.148	696
511.219	638
511.291	1922
511.363	2216
511.435	2874
511.507	1359
511.579	2262
511.651	3345
511.723	2032
511.795	990
511.867	1137
511.939	2373
512.010	2070
512.082	1769
512.154	902
512.226	2467
512.298	2434
512.369	1690
512.441	3042
512.513	1934
512.585	343
512.656	2641
512.728	1526
512.800	1677
512.871	2181
512.943	2480
513.015	953
513.086	2547
513.158	1947
513.230	1971
513.301	532
513.373	2832
513.444	2265
513.516	1541
513.588	1727
513.659	2534
513.731	2300
513.802	1485
513.874	3836
513.945	2242
514.016	1732
514.088	2722
514.159	1096
514.231	2601
514.302	1619
514.374	3376
514.445	599
514.516	4398
514.588	1667
514.659	2364
514.730	1238
514.802	3772
514.873	470
514.944	4057
515.016	3399
515.087	1483
515.158	1930
515.229	3083
515.301	1604
515.372	3098
515.443	1321
515.514	1510
515.585	1074
515.656	3150
515.728	2647
515.799	2029
515.870	2478
515.941	3566
516.012	1991
516.083	5163
516.154	1918
516.225	5299
516.296	5485
516.367	3909
516.438	4557
516.509	6305
516.580	9726
516.651	33311
516.722	114728
516.793	51184
516.864	9450
516.935	9184
517.006	10891
517.077	12296
517.148	28559
517.219	139281
517.289	230348
517.360	34085
517.431	9621
517.502	5109
517.573	5559
517.643	5021
517.714	4393
517.785	6628
517.856	5479
517.926	9241
517.997	10659
518.068	11152
518.138	16088
518.209	24536
518.280	89210
518.350	338272
518.421	140504
518.492	21392
518.562	14948
518.633	16572
518.703	21854
518.774	52702
518.845	151989
518.915	159454
518.986	42313
519.056	16413
519.127	10771
519.197	8290
519.268	5039
519.338	6171
519.408	4421
519.479	4238
519.549	2788
519.620	4945
519.690	3464
519.760	3735
519.831	3111
519.901	3518
519.971	3393
520.042	4084
520.112	2681
520.182	4440
520.253	3547
520.323	2378
520.393	1356
520.463	4960
520.534	-332
520.604	5072
520.674	3330
520.744	1737
520.814	2343
520.885	3412
520.955	1952
521.025	2135
521.095	1888
521.165	4092
521.235	2229
521.305	2051
521.375	2699
521.445	3568
521.515	2149
521.585	4207
521.655	1238
521.725	3869
521.795	2880
521.865	629
521.935	5471
522.005	2137
522.075	1693
522.145	4478
522.215	1539
522.285	3507
522.355	2626
522.424	3402
522.494	1876
522.564	3262
522.634	3561
522.704	6504
522.774	2247
522.843	3353
522.913	3484
522.983	2881
523.053	2531
523.122	4220
523.192	1831
523.262	3802
523.331	3450
523.401	3871
523.471	2395
523.540	3301
523.610	1271
523.680	3923
523.749	3587
523.819	4536
523.888	3047
523.958	3659
524.027	3182
524.097	2954
524.166	3350
524.236	2074
524.305	5022
524.375	2436
524.444	1071
524.514	4578
524.583	3313
524.653	2462
524.722	4303
524.791	3041
524.861	4373
524.930	2522
524.999	3046
525.069	4593
525.138	3205
525.207	2896
525.277	4771
525.346	4267
525.415	5173
525.484	5366
525.554	4511
525.623	7019
525.692	8518
525.761	9546
525.830	12665
525.900	15916
525.969	23694
526.038	46844
526.107	91896
526.176	281807
526.245	237008
526.314	65792
526.383	132282
526.452	195243
526.522	261140
526.591	260308
526.660	43306
526.729	24082
526.797	25913
526.867	34450
526.935	102622
527.004	390697
527.073	270031
527.142	35896
527.211	14601
527.280	11693
527.349	8085
527.418	5090
527.487	6613
527.555	4339
527.624	4459
527.693	3415
527.762	5317
527.831	2924
527.899	4794
527.968	3747
528.037	1441
528.106	4646
528.174	4210
528.243	4700
528.312	4142
528.380	3142
528.449	2637
528.518	5922
528.586	2884
528.655	4402
528.723	2841
528.792	3306
528.861	3658
528.929	3427
528.998	4941
529.066	5594
529.135	8984
529.203	8686
529.272	9171
529.340	14569
529.409	13312
529.477	11808
529.545	10830
529.614	13256
529.682	12584
529.751	15205
529.819	17489
529.887	18234
529.956	16906
530.024	17446
530.092	15245
530.161	16053
530.229	14602
530.297	17026
530.365	18011
530.434	18130
530.502	17650
530.570	16988
530.638	13688
530.707	14851
530.775	14804
530.843	13163
530.911	15101
530.979	15195
531.047	16446
531.115	17998
531.183	15639
531.252	14825
531.320	13786
531.388	14150
531.456	16060
531.524	16073
531.592	18478
531.660	22007
531.728	18107
531.796	16949
531.864	17365
531.932	17972
532.000	16421
532.067	18739
532.135	19797
532.203	20431
532.271	20901
532.339	22481
532.407	21781
532.475	21303
532.542	20992
532.610	19911
532.678	18433
532.746	24063
532.814	30481
532.881	24293
532.949	21174
533.017	19999
533.084	18811
533.152	18557
533.220	18395
533.287	17947
533.355	19163
533.423	20323
533.490	19633
533.558	19956
533.625	17974
533.693	17888
533.761	17127
533.828	17634
533.896	15645
533.963	19560
534.031	18122
534.098	22130
534.166	20907
534.233	19499
534.300	19421
534.368	19990
534.435	18912
534.503	18948
534.570	20913
534.637	21345
534.705	24017
534.772	25286
534.840	34949
534.907	124860
534.974	172865
535.041	32897
535.109	19944
535.176	17563
535.243	17524
535.310	18076
535.378	15762
535.445	17375
535.512	15981
535.579	15939
535.646	13706
535.714	15353
535.781	15440
535.848	15681
535.915	16958
535.982	15255
536.049	15272
536.116	15627
536.183	13632
536.250	13653
536.317	13065
536.384	15847
536.451	13988
536.518	14712
536.585	13875
536.652	16442
536.719	14758
536.786	13614
536.853	13272
536.920	14649
536.987	14294
537.053	11359
537.120	16742
537.187	18612
537.254	14760
537.321	14967
537.388	15284
537.454	13787
537.521	14136
537.588	13845
537.654	13436
537.721	14569
537.788	15135
537.855	13445
537.921	13574
537.988	13429
538.055	13787
538.121	12636
538.188	12015
538.254	12193
538.321	12119
538.388	13345
538.454	12933
538.521	14913
538.587	14224
538.654	14502
538.720	13298
538.787	14521
538.853	13687
538.920	12821
538.986	11682
539.053	11439
539.119	12054
539.185	12379
539.252	13599
539.318	13067
539.385	15496
539.451	12344
539.517	13259
539.583	13134
539.650	12627
539.716	14496
539.782	13020
539.849	11780
539.915	12839
539.981	12408
540.047	11662
540.114	12003
540.180	13752
540.246	11663
540.312	13662
540.378	13069
540.444	13490
540.510	13676
540.576	15434
540.643	13221
540.709	11245
540.775	12491
540.841	11314
540.907	12093
540.973	11635
541.039	11750
541.105	11826
541.171	12653
541.237	12563
541.303	13011
541.369	14688
541.435	13612
541.500	12495
541.566	11910
541.632	11245
541.698	11377
541.764	12872
541.830	11647
541.896	11034
541.961	12690
542.027	12260
542.093	12901
542.159	13738
542.224	12227
542.290	12816
542.356	11300
542.421	12533
542.487	11952
542.553	11012
542.618	11952
542.684	11786
542.750	13181
542.815	13498
542.881	11885
542.947	14395
543.012	14822
543.078	11748
543.143	10036
543.209	11957
543.274	11008
543.340	11836
543.405	12160
543.471	12884
543.536	13065
543.602	12325
543.667	11509
543.732	12450
543.798	12480
543.863	13267
543.928	12772
543.994	11967
544.059	13285
544.124	13053
544.190	12505
544.255	14223
544.320	14201
544.386	12837
544.451	14824
544.516	13580
544.581	13259
544.646	14920
544.712	16734
544.777	15339
544.842	13261
544.907	13477
544.972	14267
545.037	14782
545.102	15355
545.168	14664
545.233	16635
545.298	16035
545.363	15270
545.428	16394
545.493	17434
545.558	17336
545.623	17370
545.688	16265
545.753	18316
545.818	17929
545.883	20257
545.947	18822
546.012	21218
546.077	19317
546.142	22380
546.207	22613
546.272	24209
546.337	22678
546.401	24314
546.466	26442
546.531	25300
546.596	28486
546.661	31225
546.725	31459
546.790	33502
546.855	36936
546.919	39353
546.984	45047
547.049	47766
547.113	53742
547.178	60104
547.243	67898
547.307	77690
547.372	87933
547.436	88755
547.501	93427
547.565	101376
547.630	92632
547.695	89930
547.759	87937
547.823	90255
547.888	91864
547.952	95580
548.017	98049
548.081	99671
548.146	98800
548.210	101632
548.274	109276
548.339	111500
548.403	100290
548.468	93466
548.532	91772
548.596	94045
548.660	95037
548.725	102420
548.789	111638
548.853	109979
548.917	105678
548.982	101731
549.046	93994
549.110	84217
549.174	83644
549.238	97383
549.303	107925
549.367	113779
549.431	108131
549.495	101537
549.559	99753
549.623	114047
549.687	128930
549.751	123714
549.815	144055
549.879	150884
549.943	144839
550.007	150273
550.071	150106
550.135	137438
550.199	127594
550.263	128112
550.327	121209
550.391	120895
550.455	133650
550.519	140491
550.582	148288
550.646	167135
550.710	171067
550.774	169501
550.838	168035
550.901	172062
550.965	180717
551.029	187106
551.093	195360
551.156	206883
551.220	219871
551.284	234100
551.347	201148
551.411	180492
551.475	173463
551.538	183271
551.602	176062
551.666	164700
551.729	158838
551.793	152787
551.856	151209
551.920	148680
551.983	148810
552.047	145895
552.110	147181
552.174	148761
552.237	152993
552.301	145911
552.364	138273
552.428	132807
552.491	137599
552.554	142178
552.618	138538
552.681	141890
552.745	136904
552.808	142211
552.871	153166
552.934	146881
552.998	141215
553.061	139421
553.124	133682
553.187	131595
553.251	135716
553.314	135478
553.377	137454
553.440	145770
553.503	149152
553.567	149313
553.630	148599
553.693	150426
553.756	149699
553.819	148784
553.882	141963
553.945	141913
554.008	144092
554.071	143923
554.134	146247
554.197	140207
554.260	135939
554.323	138651
554.386	138693
554.449	144963
554.512	145650
554.575	139192
554.638	137578
554.701	137038
554.764	137478
554.827	131262
554.889	128867
554.952	122223
555.015	117480
555.078	120346
555.141	120237
555.203	117959
555.266	118454
555.329	118760
555.391	112525
555.454	111074
555.517	108011
555.580	103551
555.642	98735
555.705	99142
555.768	98227
555.830	95226
555.893	90378
555.955	87997
556.018	86042
556.080	87210
556.143	89485
556.206	87476
556.268	85628
556.330	83477
556.393	82109
556.455	79187
556.518	77863
556.580	75333
556.643	71537
556.705	71603
556.767	68381
556.830	69132
556.892	68714
556.955	65848
557.017	63478
557.079	64065
557.142	62103
557.204	61725
557.266	60069
557.328	55926
557.391	53383
557.453	52276
557.515	52963
557.577	52262
557.639	52159
557.701	52798
557.764	51134
557.826	51585
557.888	51799
557.950	52518
558.012	54419
558.074	62134
558.136	102493
558.198	221663
558.260	103176
558.322	52283
558.384	51823
558.446	52489
558.508	54250
558.570	57507
558.632	63217
558.694	73495
558.756	107675
558.818	254641
558.880	536550
558.942	244671
559.003	229140
559.065	131393
559.127	58803
559.189	55448
559.251	56482
559.312	72484
559.374	144151
559.436	399915
559.498	232046
559.559	64340
559.621	52213
559.683	58190
559.744	81677
559.806	214595
559.868	327110
559.929	91482
559.991	56163
560.052	78863
560.114	200753
560.176	147822
560.237	117506
560.299	195632
560.360	57854
560.422	28345
560.483	25915
560.545	24698
560.606	23210
560.667	23327
560.729	21568
560.790	20659
560.852	20215
560.913	20697
560.974	19665
561.036	20264
561.097	19402
561.158	18904
561.220	19875
561.281	16891
561.342	17975
561.403	18887
561.465	18100
561.526	18685
561.587	18952
561.648	16705
561.709	16501
561.771	17383
561.832	16724
561.893	15840
561.954	16246
562.015	16056
562.076	15173
562.137	15975
562.198	15333
562.259	15485
562.320	16023
562.381	15011
562.442	15104
562.503	16031
562.564	14748
562.625	15165
562.686	14340
562.747	14456
562.808	14558
562.869	14158
562.930	13642
562.991	13621
563.051	14295
563.112	12537
563.173	12992
563.234	13637
563.294	13360
563.355	13322
563.416	13186
563.477	13339
563.537	12162
563.598	12876
563.659	13145
563.720	11742
563.780	11852
563.841	12378
563.901	12454
563.962	12285
564.023	12004
564.083	12330
564.144	12418
564.204	12550
564.265	11927
564.325	12133
564.386	12324
564.446	12775
564.507	10864
564.567	11598
564.628	11308
564.688	11670
564.749	11260
564.809	11891
564.869	11767
564.930	12348
564.990	12487
565.050	10828
565.111	11759
565.171	11975
565.231	11463
565.292	12285
565.352	10303
565.412	11776
565.472	10776
565.532	11902
565.593	10894
565.653	11377
565.713	11051
565.773	11752
565.833	11908
565.893	12904
565.953	11248
566.013	11442
566.074	10959
566.134	11491
566.194	9360
566.254	10388
566.314	10837
566.374	10441
566.434	11284
566.494	10256
566.554	9898
566.614	10828
566.673	10977
566.733	12105
566.793	11628
566.853	11177
566.913	10471
566.973	10781
567.033	11858
567.092	10262
567.152	10974
567.212	12111
567.272	10415
567.331	11248
567.391	11336
567.451	12669
567.511	12669
567.570	11811
567.630	11023
567.690	12021
567.749	10923
567.809	11413
567.868	10942
567.928	10750
567.988	10966
568.047	11183
568.107	11459
568.166	11850
568.226	12189
568.285	12299
568.345	11642
568.404	11973
568.464	11462
568.523	11861
568.582	12534
568.642	10990
568.701	11466
568.761	11268
568.820	10668
568.879	11073
568.939	11183
568.998	11286
569.057	11491
569.116	11186
569.176	10436
569.235	11221
569.294	11336
569.353	11015
569.413	10466
569.472	11096
569.531	10701
569.590	10018
569.649	10707
569.708	10078
569.767	10922
569.827	10819
569.886	9448
569.945	10148
570.004	10544
570.063	10044
570.122	11455
570.181	12131
570.240	10346
570.299	11184
570.358	11203
570.417	12219
570.475	11185
570.534	12008
570.593	11353
570.652	12135
570.711	11136
570.770	10684
570.829	11641
570.887	11028
570.946	11878
571.005	11387
571.064	11559
571.122	12320
571.181	10783
571.240	10590
571.299	10394
571.357	11658
571.416	10012
571.475	9705
571.533	10839
571.592	11719
571.650	10861
571.709	12777
571.768	11582
571.826	12921
571.885	12585
571.943	11926
572.002	10145
572.060	10639
572.119	10935
572.177	11054
572.236	11231
572.294	10954
572.352	11518
572.411	12544
572.469	10553
572.528	10945
572.586	10933
572.644	11183
572.703	11415
572.761	11059
572.819	9846
572.877	9839
572.936	9555
572.994	9292
573.052	9890
573.110	10180
573.169	10543
573.227	9746
573.285	10201
573.343	9888
573.401	10494
573.459	11121
573.517	10193
573.576	10379
573.634	9681
573.692	9775
573.750	10112
573.808	9373
573.866	8984
573.924	9044
573.982	9351
574.040	9486
574.098	9392
574.155	9520
574.213	9745
574.271	9868
574.329	10064
574.387	8741
574.445	8782
574.503	9680
574.560	8000
574.618	8377
574.676	8507
574.734	8374
574.792	8332
574.849	8021
574.907	7883
574.965	8268
575.022	7250
575.080	7386
575.138	7056
575.195	7158
575.253	6839
575.311	7970
575.368	8107
575.426	7831
575.483	7954
575.541	8012
575.598	7571
575.656	7678
575.713	7365
575.771	8198
575.828	7518
575.886	7099
575.943	6594
576.001	6656
576.058	6962
576.115	7698
576.173	6836
576.230	7696
576.287	8428
576.345	6907
576.402	6951
576.459	7770
576.517	5608
576.574	7340
576.631	7446
576.688	7296
576.746	7145
576.803	7307
576.860	6867
576.917	7260
576.974	6792
577.031	7303
577.089	6819
577.146	6618
577.203	6397
577.260	7086
577.317	6728
577.374	6742
577.431	7093
577.488	6482
577.545	5631
577.602	7431
577.659	6178
577.716	8004
577.773	7942
577.830	6533
577.886	6085
577.943	6778
578.000	6578
578.057	6333
578.114	6978
578.171	6429
578.227	5558
578.284	6222
578.341	6940
578.398	6914
578.454	5903
578.511	6257
578.568	6693
578.625	7091
578.681	6742
578.738	7358
578.794	6260
578.851	7394
578.908	6659
578.964	6993
579.021	7434
579.077	6561
579.134	7466
579.190	7294
579.247	7504
579.303	7572
579.360	6489
579.416	7135
579.473	6622
579.529	6898
579.586	7316
579.642	6824
579.698	6184
579.755	7969
579.811	6394
579.867	7604
579.924	6242
579.980	7289
580.036	7802
580.093	7786
580.149	7396
580.205	7835
580.261	7845
580.317	8766
580.374	8032
580.430	8420
580.486	7898
580.542	7578
580.598	7930
580.619	8213
580.654	8705
580.692	8017
580.710	7677
580.765	8671
580.767	8698
580.823	9231
580.838	9063
580.879	8607
580.911	9261
580.935	9738
580.984	9905
580.991	9928
581.047	9606
581.057	9403
581.103	8459
581.130	9262
581.159	10107
581.203	9485
581.215	9320
581.270	10180
581.276	10063
581.326	8948
581.349	9102
581.382	9288
581.422	9775
581.438	9961
581.494	9042
581.494	9056
581.550	10142
581.567	9838
581.606	9147
581.640	9622
581.661	9900
581.713	10812
581.717	10880
581.773	10683
581.786	10583
581.829	10212
581.859	10708
581.885	11157
581.932	10877
581.940	10813
581.996	11754
582.004	11684
582.052	11153
582.077	10851
582.107	10540
582.150	11078
582.163	11230
582.219	11472
582.223	11483
582.274	11621
582.296	11656
582.330	11615
582.368	11293
582.386	11213
582.441	12775
582.441	12771
582.497	12587
582.514	12862
582.552	13591
582.587	13495
582.608	13388
582.659	13283
582.663	13270
582.719	13466
582.732	13561
582.774	13832
582.805	13794
582.830	13915
582.877	15054
582.885	15235
582.941	15841
582.950	16287
582.996	18715
583.023	19520
583.052	20328
583.095	20668
583.107	20588
583.162	18746
583.168	18697
583.218	18134
583.240	17607
583.273	17012
583.313	16824
583.328	16743
583.384	16871
583.385	16844
583.439	15963
583.458	15823
583.494	15828
583.531	15705
583.549	15608
583.603	15401
583.605	15391
583.660	15801
583.676	15659
583.715	15557
583.748	15486
583.770	15403
583.820	15829
583.825	15874
583.881	16379
583.893	16206
583.936	15713
583.965	16152
583.991	16432
584.038	16602
584.046	16701
584.101	17462
584.110	17434
584.156	17361
584.183	17711
584.211	17974
584.255	18374
584.266	18552
584.321	18843
584.328	18887
584.376	19169
584.400	19269
584.431	19437
584.472	19680
584.486	19860
584.541	21755
584.545	21743
584.596	21748
584.617	21713
584.651	21608
584.689	22374
584.706	22649
584.761	23153
584.762	23130
584.816	24041
584.834	24706
584.871	25303
584.906	24799
584.926	24782
584.978	25307
584.980	25361
585.035	27025
585.051	27413
585.090	28343
585.123	28415
585.145	28816
585.195	30572
585.200	30830
585.254	33483
585.267	34215
585.309	36985
585.340	39029
585.364	41222
585.412	45990
585.419	46994
585.473	56016
585.484	58009
585.528	72592
585.556	85293
585.583	114831
585.628	176089
585.637	200293
585.692	378802
585.700	409071
585.747	503647
585.772	472333
585.801	333176
585.845	151370
585.856	129843
585.910	71405
585.917	65013
585.965	53097
585.989	48172
586.019	45721
586.061	42286
586.074	41747
586.128	39857
586.133	39607
586.183	38134
586.205	37172
586.237	36114
586.277	35458
586.292	35519
586.346	34769
586.349	34703
586.401	34685
586.421	34429
586.455	34092
586.493	33682
586.509	33876
586.564	33184
586.565	33136
586.618	35952
586.637	36644
586.672	39222
586.709	42506
586.727	44418
586.781	49317
586.781	49413
586.835	42198
586.853	40126
586.889	37249
586.925	34909
586.944	34997
586.996	35142
586.998	35225
587.052	35296
587.068	35142
587.106	35379
587.140	35380
587.161	35593
587.212	36249
587.215	36389
587.269	36582
587.284	36716
587.323	37240
587.356	37809
587.377	38613
587.427	39661
587.431	39821
587.485	40546
587.499	40698
587.539	41668
587.571	42189
587.593	43189
587.643	45373
587.648	45579
587.702	45892
587.715	45903
587.755	46236
587.786	46262
587.810	46709
587.858	46882
587.864	47043
587.917	48122
587.930	48102
587.971	48310
588.001	48339
588.025	48487
588.073	48188
588.079	48357
588.133	48675
588.145	48548
588.187	49204
588.217	49711
588.241	50428
588.288	51451
588.295	51741
588.348	53278
588.360	53170
588.402	53625
588.431	54179
588.456	54961
588.503	56038
588.510	56651
588.564	60253
588.575	60865
588.617	64121
588.646	66327
588.671	68703
588.718	71931
588.725	73415
588.778	85299
588.789	87739
588.832	123400
588.861	149573
588.886	206729
588.932	321475
588.939	331827
588.993	404428
589.004	408513
589.047	254748
589.075	156565
589.100	127330
589.147	81307
589.154	80249
589.207	72053
589.218	70224
589.261	70993
589.290	71445
589.314	73516
589.361	76893
589.368	79224
589.421	97512
589.433	101657
589.475	160580
589.504	203017
589.528	257962
589.576	371032
589.582	360559
589.635	224198
589.647	194529
589.689	123984
589.718	78581
589.742	73765
589.790	64477
589.795	64602
589.849	63480
589.861	62986
589.902	62233
589.932	61489
589.955	61507
590.004	60857
590.009	61061
590.062	60998
590.075	60690
590.115	60713
590.146	60518
590.168	60834
590.218	60436
590.222	60736
590.275	62155
590.289	62256
590.328	63585
590.360	64240
590.381	64990
590.431	65924
590.435	66209
590.488	66799
590.503	66692
590.541	68079
590.574	69016
590.594	70072
590.645	71648
590.647	71997
590.700	74045
590.716	74329
590.753	76684
590.787	78488
590.806	79488
590.859	80999
590.859	81338
590.912	82861
590.930	83000
590.965	84158
591.001	84752
591.018	85093
591.071	85080
591.072	84748
591.124	83240
591.143	82260
591.177	83819
591.214	84917
591.230	85832
591.283	87727
591.285	87451
591.336	86702
591.356	85967
591.389	86922
591.427	87213
591.442	86961
591.495	84781
591.498	84281
591.547	85615
591.569	85805
591.600	88219
591.640	90442
591.653	91057
591.706	92178
591.711	91923
591.759	94655
591.782	95492
591.811	97562
591.853	99717
591.864	100127
591.917	99922
591.924	99498
591.969	101179
591.995	101491
592.022	102507
592.066	103134
592.075	104090
592.127	107301
592.137	107460
592.180	108591
592.208	108582
592.233	110487
592.279	112810
592.285	113733
592.338	117516
592.350	117898
592.390	117582
592.421	116456
592.443	118216
592.491	120537
592.495	121242
592.548	123972
592.562	124208
592.600	124939
592.633	124596
592.653	125185
592.704	124652
592.705	125430
592.775	128269
592.846	133254
592.916	134741
592.987	134933
593.058	136587
593.128	138892
593.199	141774
593.270	142612
593.341	147608
593.411	152620
593.482	158220
593.553	162373
593.623	162465
593.694	166126
593.764	168570
593.835	163066
593.906	166329
593.976	169993
594.047	174711
594.117	180473
594.188	183350
594.258	184265
594.329	182264
594.399	187929
594.470	194674
594.540	199790
594.611	203315
594.681	200649
594.751	201511
594.822	208747
594.892	218442
594.963	221770
595.033	226896
595.103	235815
595.174	236907
595.244	241634
595.314	249503
595.384	255677
595.455	262277
595.525	269141
595.595	280047
595.665	277860
595.736	275421
595.806	280288
595.876	281899
595.946	285973
596.016	295611
596.087	305426
596.157	303440
596.227	309127
596.297	321543
596.367	344812
596.437	362245
596.507	359933
596.577	356519
596.647	370845
596.717	388819
596.787	396372
596.857	393210
596.927	398478
596.997	398443
597.067	404612
597.137	408720
597.207	412967
597.277	415360
597.347	401327
597.417	388995
597.487	391058
597.557	400473
597.626	410679
597.696	413625
597.766	411120
597.836	392397
597.906	374290
597.975	368140
598.045	374188
598.115	388683
598.185	417110
598.254	455872
598.324	495253
598.394	502147
598.464	490157
598.533	479889
598.603	454950
598.672	442526
598.742	453024
598.812	453448
598.881	467529
598.951	463958
599.020	472336
599.090	486500
599.159	492576
599.229	482243
599.299	472571
599.368	485312
599.437	480267
599.507	451982
599.576	437147
599.646	433005
599.715	431378
599.785	429546
599.854	420160
599.924	416779
599.993	414913
600.062	427804
600.132	433879
600.201	459705
600.270	515417
600.340	540384
600.409	536939
600.478	534994
600.547	548192
600.617	504197
600.686	426394
600.755	398285
600.824	385953
600.894	380832
600.963	384680
601.032	383231
601.101	375961
601.170	365330
601.239	363274
601.308	366221
601.378	370575
601.447	372681
601.516	378985
601.585	382660
601.654	393756
601.723	395726
601.792	407739
601.861	417823
601.930	432770
601.999	446187
602.068	440944
602.137	450418
602.206	452618
602.275	456299
602.343	461378
602.412	464184
602.481	466877
602.550	472612
602.619	482561
602.688	482816
602.756	489471
602.825	486420
602.894	503609
602.963	504547
603.032	512446
603.100	512543
603.169	508573
603.238	521879
603.307	509147
603.375	512031
603.444	532488
603.513	517028
603.581	527327
603.650	543888
603.719	500623
603.787	500943
603.856	514254
603.924	522046
603.993	540264
604.061	557856
604.130	577113
604.198	586289
604.267	594449
604.335	603621
604.404	608481
604.472	620460
604.541	623998
604.609	634654
604.678	641194
604.746	643427
604.815	663754
604.883	664684
604.951	654525
605.020	666747
605.088	661772
605.156	657016
605.225	666117
605.293	663334
605.361	663458
605.429	664611
605.498	680095
605.566	685670
605.634	713857
605.702	729639
605.771	744939
605.839	754566
605.907	729854
605.975	720513
606.043	707483
606.111	700655
606.180	717698
606.248	693909
606.316	685828
606.384	704688
606.452	663716
606.520	654013
606.588	671950
606.656	681613
606.724	668596
606.792	634656
606.860	583280
606.928	536762
606.996	519743
607.064	509650
607.132	524878
607.200	551952
607.267	568161
607.335	576997
607.403	589221
607.471	571936
607.539	550451
607.607	556589
607.674	498931
607.742	493666
607.810	488263
607.878	492370
607.946	505719
608.013	520291
608.081	531016
608.149	534367
608.216	553043
608.284	568162
608.352	568245
608.419	564412
608.487	549719
608.555	538192
608.622	556208
608.690	587421
608.757	634493
608.825	646057
608.893	633203
608.960	600057
609.028	575458
609.095	575900
609.163	575277
609.230	519883
609.298	475906
609.365	504521
609.432	539693
609.500	579378
609.567	653306
609.635	725986
609.702	758000
609.769	724572
609.837	580056
609.904	507775
609.971	515153
610.039	535247
610.106	593572
610.173	807932
610.241	1263275
610.308	973029
610.375	614274
610.442	551826
610.509	528329
610.577	527161
610.644	537292
610.711	553293
610.778	568526
610.845	589428
610.912	619522
610.980	644280
611.047	640935
611.114	633451
611.181	616318
611.248	615830
611.315	644082
611.382	658647
611.449	676877
611.516	687511
611.583	678471
611.650	681947
611.717	684744
611.784	691511
611.851	704984
611.918	718547
611.984	772972
612.051	882895
612.118	1150102
612.185	1654932
612.252	1425729
612.319	933204
612.386	841887
612.452	787308
612.519	756007
612.586	746963
612.653	756284
612.719	781741
612.786	756819
612.853	713727
612.919	702935
612.986	709423
613.053	677444
613.120	643690
613.186	623007
613.253	626852
613.319	626395
613.386	631183
613.453	637957
613.519	643583
613.586	630889
613.652	638474
613.719	632282
613.785	643054
613.852	647283
613.918	646279
613.985	649617
614.051	671932
614.118	661918
614.184	642822
614.250	641936
614.317	658685
614.383	646408
614.449	659336
614.516	653631
614.582	659779
614.648	649192
614.715	642360
614.781	633149
614.847	632550
614.914	633939
614.980	616204
615.046	616478
615.112	634823
615.179	633667
615.245	643171
615.311	634103
615.377	640621
615.443	646645
615.509	652415
615.575	668259
615.642	662493
615.708	675240
615.774	690967
615.840	712614
615.906	720748
615.972	772098
616.038	917837
616.104	1298646
616.170	1758045
616.236	1642832
616.302	1115540
616.368	970113
616.434	804485
616.500	747374
616.565	783394
616.631	898855
616.697	810743
616.763	800490
616.829	973882
616.895	1378820
616.961	1341538
617.026	867156
617.092	707318
617.158	675505
617.224	664576
617.289	621363
617.355	602658
617.421	598187
617.487	597281
617.552	571946
617.618	571225
617.684	573533
617.749	575258
617.815	556998
617.880	548639
617.946	547524
618.012	554207
618.077	564728
618.143	542085
618.208	543792
618.274	578841
618.339	583289
618.405	493522
618.470	491696
618.536	490918
618.601	483205
618.667	456136
618.732	434671
618.798	431229
618.863	432235
618.928	430218
618.994	432026
619.059	427800
619.124	432960
619.190	429064
619.255	425937
619.320	424676
619.386	427194
619.451	425861
619.516	411171
619.581	420267
619.647	433697
619.712	434697
619.777	414524
619.842	417680
619.907	426453
619.972	434091
620.038	431269
620.103	420612
620.168	423207
620.233	428878
620.298	430273
620.363	436837
620.428	449557
620.493	463713
620.558	465940
620.623	469068
620.688	465025
620.753	461894
620.818	470668
620.883	472030
620.948	466587
621.013	464575
621.078	453420
621.143	458100
621.207	458979
621.272	450589
621.337	439374
621.402	435841
621.467	431799
621.532	429439
621.596	431102
621.661	421979
621.726	418589
621.791	423290
621.855	424263
621.920	418624
621.985	426683
622.049	433187
622.114	435146
622.179	441314
622.243	447000
622.308	460905
622.373	470909
622.437	465983
622.502	444512
622.566	440913
622.631	440068
622.695	448543
622.760	444888
622.824	446168
622.889	445280
622.953	445889
623.018	470915
623.082	474588
623.147	468740
623.211	461416
623.276	461674
623.340	444623
623.404	435095
623.469	434700
623.533	439918
623.597	430177
623.662	428081
623.726	402819
623.790	379307
623.854	370635
623.919	376161
623.983	380116
624.047	387889
624.111	390875
624.176	398223
624.240	401598
624.304	410391
624.368	397235
624.432	396601
624.496	406764
624.560	423877
624.625	428153
624.689	424582
624.753	443549
624.817	421687
624.881	412984
624.945	380069
625.009	367916
625.073	374935
625.137	385559
625.201	400526
625.265	401576
625.329	386714
625.393	390187
625.456	392478
625.520	403396
625.584	409181
625.648	420965
625.712	428228
625.776	420406
625.839	397301
625.903	345323
625.967	323758
626.031	343014
626.095	397762
626.158	378022
626.222	306586
626.286	287442
626.349	277258
626.413	259129
626.477	253505
626.540	261802
626.604	258412
626.668	253231
626.731	251737
626.795	252225
626.858	249996
626.922	246370
626.986	243118
627.049	247111
627.113	254832
627.176	249321
627.240	241336
627.303	241011
627.366	238112
627.430	242283
627.493	237317
627.557	235444
627.620	238524
627.684	248320
627.747	247008
627.810	228713
627.874	206567
627.937	199172
628.000	206227
628.064	202082
628.127	182019
628.190	177523
628.253	172513
628.317	167013
628.380	160811
628.443	156143
628.506	154914
628.569	147831
628.632	141469
628.696	143103
628.759	141185
628.822	135457
628.885	132318
628.948	130918
629.011	127579
629.074	125445
629.137	120084
629.200	117479
629.263	117911
629.326	115430
629.389	116280
629.452	115799
629.515	110451
629.578	111426
629.641	113013
629.704	114742
629.767	111994
629.830	108612
629.892	107499
629.955	105078
630.018	108678
630.081	107121
630.144	105572
630.207	103970
630.269	105613
630.332	101703
630.395	101624
630.458	98783
630.520	95852
630.583	98234
630.646	98752
630.708	98818
630.771	99653
630.834	106840
630.896	104171
630.959	103184
631.021	101026
631.084	100167
631.146	101044
631.209	101083
631.272	99259
631.334	101302
631.397	102028
631.459	102296
631.522	102814
631.584	106070
631.646	109592
631.709	111545
631.771	110770
631.834	107836
631.896	104297
631.958	100234
632.021	99137
632.083	95500
632.145	97081
632.208	96498
632.270	96461
632.332	94087
632.395	93858
632.457	94872
632.519	93602
632.581	94219
632.643	92282
632.706	93530
632.768	91539
632.830	93281
632.892	96654
632.954	95208
633.016	97386
633.078	95265
633.141	96516
633.203	94322
633.265	93722
633.327	93440
633.389	94803
633.451	95051
633.513	94505
633.575	96455
633.637	93587
633.698	96574
633.760	99910
633.822	102563
633.884	103671
633.946	105491
634.008	106852
634.070	105492
634.132	108808
634.193	112909
634.255	122798
634.317	121519
634.379	121077
634.441	113569
634.502	105860
634.564	99238
634.626	94345
634.687	91412
634.749	88197
634.811	89275
634.873	87687
634.934	89534
634.996	89368
635.057	88141
635.119	90845
635.181	91356
635.242	90307
635.304	90725
635.365	93599
635.427	89773
635.488	90893
635.550	88655
635.611	87942
635.673	88001
635.734	91796
635.796	94743
635.857	100031
635.918	103447
635.980	110390
636.041	114000
636.102	119399
636.164	121720
636.225	116863
636.286	104759
636.348	98257
636.409	91318
636.470	89105
636.531	86972
636.593	85026
636.654	85358
636.715	80923
636.776	82672
636.838	80746
636.899	79766
636.960	78107
637.021	78916
637.082	77153
637.143	77171
637.204	74482
637.265	75465
637.326	76607
637.387	77297
637.448	75758
637.509	75644
637.570	76227
637.631	76410
637.692	74029
637.753	72067
637.814	71826
637.875	72145
637.936	71816
637.997	71367
638.058	71343
638.119	71488
638.179	70282
638.240	70569
638.301	72535
638.362	70080
638.423	68313
638.483	69242
638.544	65890
638.605	67112
638.666	67602
638.726	66795
638.787	67277
638.848	68215
638.908	66588
638.969	64504
639.030	63333
639.090	63572
639.151	63570
639.211	65810
639.272	65435
639.332	65507
639.393	66134
639.453	68182
639.514	68909
639.574	65046
639.635	59501
639.695	62488
639.756	59062
639.816	59965
639.877	59412
639.937	61521
639.997	60138
640.058	59347
640.118	58813
640.178	60273
640.239	59631
640.299	59743
640.359	60164
640.420	63704
640.480	66320
640.540	73069
640.600	72859
640.661	67681
640.721	64884
640.781	66255
640.841	61280
640.901	60468
640.961	59581
641.021	61543
641.082	64470
641.142	61152
641.202	59338
641.262	55599
641.322	57435
641.382	57213
641.442	57650
641.502	56747
641.562	58720
641.622	58710
641.682	61645
641.742	65525
641.802	62293
641.861	58865
641.921	54365
641.981	55509
642.041	53189
642.101	52696
642.161	50587
642.221	53220
642.280	53108
642.340	53117
642.400	52736
642.460	54987
642.519	54819
642.579	54993
642.639	55681
642.698	53193
642.758	58399
642.818	56010
642.877	53623
642.937	56578
642.997	55292
643.056	54989
643.116	53203
643.175	56494
643.235	56916
643.294	56800
643.354	57932
643.414	60521
643.473	65514
643.532	69801
643.592	80858
643.651	106694
643.711	155444
643.770	263421
643.830	535896
643.889	842643
643.948	359922
644.008	125564
644.067	84610
644.126	69245
644.186	62868
644.245	58541
644.304	54402
644.363	55496
644.423	51011
644.482	52866
644.541	54187
644.600	54275
644.659	62358
644.719	68669
644.778	89094
644.837	131423
644.896	235351
644.955	456050
645.014	187531
645.073	74835
645.132	60038
645.191	57215
645.250	57113
645.309	58618
645.368	61655
645.427	74403
645.486	113400
645.545	182093
645.604	71233
645.663	52900
645.722	52018
645.781	54298
645.840	55253
645.898	60870
645.957	74402
646.016	96734
646.075	146617
646.134	249667
646.192	540932
646.251	685576
646.310	213976
646.369	94044
646.427	81012
646.486	66102
646.545	55332
646.603	52192
646.662	49246
646.721	47622
646.779	46196
646.838	46572
646.896	52472
646.955	62878
647.014	85551
647.072	145643
647.131	340265
647.189	180742
647.248	54476
647.306	46063
647.365	43313
647.423	39011
647.481	41142
647.540	39173
647.598	41211
647.657	40368
647.715	40496
647.773	38666
647.832	38478
647.890	35534
647.948	35086
648.007	35288
648.065	33192
648.123	34856
648.181	34314
648.240	33710
648.298	32669
648.356	32785
648.414	32915
648.472	31441
648.531	30993
648.589	29944
648.647	30617
648.705	30013
648.763	30609
648.821	31712
648.879	31382
648.937	34216
648.995	35801
649.053	40371
649.111	51702
649.169	72854
649.227	115054
649.285	220692
649.343	510460
649.401	279912
649.459	68332
649.516	45714
649.574	37255
649.632	36549
649.690	39213
649.748	45548
649.806	61378
649.863	102397
649.921	257226
649.979	176880
650.037	40915
650.094	28609
650.152	27909
650.210	26373
650.268	27123
650.325	24857
650.383	25660
650.440	22833
650.498	23123
650.556	24246
650.613	22686
650.671	24064
650.728	23710
650.786	25080
650.843	31819
650.901	25653
650.958	22099
651.016	20703
651.073	20761
651.131	18872
651.188	19364
651.246	20552
651.303	18800
651.360	19763
651.418	18795
651.475	19544
651.532	18116
651.590	19970
651.647	18991
651.704	18164
651.762	18700
651.819	18324
651.876	18033
651.933	18481
651.990	18356
652.048	17448
652.105	17743
652.162	17035
652.219	16217
652.276	17170
652.333	18142
652.390	16015
652.448	16941
652.505	17949
652.562	17644
652.619	16457
652.676	17209
652.733	17530
652.790	15685
652.847	15849
652.904	15789
652.961	13988
653.017	14730
653.074	16489
653.131	15249
653.188	15099
653.245	15734
653.302	15473
653.359	16466
653.415	15763
653.472	15479
653.529	16265
653.586	14031
653.642	15642
653.699	16909
653.756	15117
653.813	14737
653.869	16248
653.926	15682
653.983	15074
654.039	15376
654.096	15268
654.152	14691
654.209	13801
654.266	14875
654.322	14194
654.379	14719
654.435	15767
654.492	14777
654.548	15462
654.605	13669
654.661	15317
654.717	14680
654.774	15931
654.830	15073
654.887	14267
654.943	13898
655.000	14708
655.056	14381
655.112	13969
655.168	14009
655.225	14817
655.281	15052
655.337	14736
655.394	14153
655.450	13835
655.506	13215
655.562	13365
655.618	14466
655.675	13228
655.731	14035
655.787	13473
655.843	14018
655.899	13288
655.955	15302
656.011	15250
656.067	13861
656.123	14661
656.179	14911
656.235	15926
656.291	13938
656.347	15429
656.403	13697
656.459	14054
656.515	14769
656.571	13263
656.627	13436
656.683	13757
656.739	13529
656.795	13282
656.850	14135
656.906	13745
656.962	14506
657.018	14059
657.074	17474
657.129	21951
657.185	32477
657.241	71542
657.297	40515
657.352	15377
657.408	12837
657.464	13553
657.519	13297
657.575	11702
657.630	12145
657.686	12010
657.742	12062
657.797	12332
657.853	12154
657.908	14182
657.964	11418
658.019	12152
658.075	11998
658.130	11794
658.186	11770
658.241	12150
658.297	11041
658.352	10943
658.407	12826
658.463	10596
658.518	11604
658.573	11856
658.629	10617
658.684	11982
658.739	11328
658.795	10761
658.850	10758
658.905	11523
658.960	11974
659.016	10855
659.071	11192
659.126	10742
659.181	10004
659.236	12100
659.291	11760
659.346	10870
659.401	10892
659.457	11396
659.512	10877
659.567	11303
659.622	11250
659.677	10313
659.732	9601
659.787	10718
659.842	10517
659.897	10262
659.952	10410
660.007	10798
660.061	11262
660.116	9555
660.171	9767
660.226	10567
660.281	10879
660.336	9758
660.391	10687
660.445	9850
660.500	10478
660.555	9606
660.610	10012
660.664	10746
660.719	10009
660.774	10039
660.828	10302
660.883	9658
660.938	9976
660.992	9754
661.047	9816
661.101	9601
661.156	9724
661.211	9323
661.265	8624
661.320	9117
661.374	10447
661.429	9537
661.483	9828
661.538	8191
661.592	9384
661.647	9783
661.701	10430
661.755	9823
661.810	10280
661.864	9098
661.919	8887
661.973	9961
662.027	9674
662.081	8921
662.136	10007
662.190	10140
662.244	9840
662.299	8445
662.353	10656
662.407	8675
662.461	9737
662.515	9129
662.569	8952
662.624	9299
662.678	8523
662.732	9498
662.786	9203
662.840	8843
662.894	9395
662.948	9509
663.002	9337
663.056	9370
663.110	8968
663.164	9515
663.218	9968
663.272	9492
663.326	9536
663.380	9734
663.434	9877
663.488	8900
663.542	9444
663.595	8881
663.649	9058
663.703	8921
663.757	9603
663.811	9034
663.864	8712
663.918	8544
663.972	8978
664.026	8602
664.079	9569
664.133	9976
664.187	10460
664.240	9523
664.294	9255
664.348	9662
664.401	9596
664.455	9840
664.508	9497
664.562	9272
664.615	9173
664.669	8792
664.722	9070
664.776	9030
664.829	9244
664.883	8765
664.936	9236
664.990	8872
665.043	9881
665.097	8753
665.150	10982
665.203	8756
665.257	8665
665.310	8946
665.363	9294
665.417	10104
665.470	8917
665.523	10636
665.576	9805
665.630	9817
665.683	8683
665.736	10250
665.789	9651
665.842	8639
665.895	9310
665.949	9849
666.002	9836
666.055	9097
666.108	9982
666.161	9624
666.214	10348
666.267	10187
666.320	10768
666.373	10257
666.426	10152
666.479	10724
666.532	10406
666.585	9579
666.638	10599
666.691	10320
666.744	11235
666.796	9348
666.849	10473
666.902	10685
666.955	10276
667.008	10262
667.060	9718
667.113	10076
667.166	11245
667.219	10875
667.271	12177
667.324	11342
667.377	10929
667.430	10775
667.482	10896
667.535	10637
667.587	9609
667.640	10356
667.693	9887
667.745	10459
667.798	10753
667.850	10630
667.903	10884
667.955	10945
668.008	11423
668.060	11034
668.113	10834
668.165	10833
668.218	10877
668.270	10344
668.322	10369
668.375	9901
668.427	9617
668.479	10015
668.532	10860
668.584	9342
668.636	9524
668.689	9488
668.741	9404
668.793	9122
668.845	10112
668.898	10704
668.950	11235
669.002	10289
669.054	8923
669.106	9834
669.158	10745
669.211	8454
669.263	10277
669.315	8364
669.367	9615
669.419	9642
669.471	9838
669.523	9494
669.575	9005
669.627	8974
669.679	8983
669.731	9579
669.783	9705
669.835	9132
669.886	9034
669.938	9276
669.990	9120
670.042	8744
670.094	9309
670.146	9117
670.197	8869
670.249	9503
670.301	9786
670.353	9941
670.404	10891
670.456	11683
670.508	15031
670.560	20043
670.611	29150
670.663	46167
670.715	103525
670.766	155916
670.818	43141
670.869	14784
670.921	12657
670.972	11689
671.024	10553
671.075	9489
671.127	9052
671.178	9620
671.230	11139
671.281	10933
671.333	10585
671.384	12382
671.436	16863
671.487	21160
671.538	28500
671.590	44897
671.641	70866
671.692	125902
671.744	223065
671.795	157582
671.846	62028
671.897	31242
671.949	21846
672.000	15907
672.051	13599
672.102	11508
672.153	10541
672.204	10052
672.256	9841
672.307	8805
672.358	9266
672.409	8505
672.460	8299
672.511	7593
672.562	6736
672.613	6989
672.664	6592
672.715	8752
672.766	6908
672.817	7016
672.868	7578
672.919	6602
672.970	6572
673.021	6311
673.071	6074
673.122	6969
673.173	6573
673.224	6574
673.275	6312
673.326	6659
673.376	6325
673.427	6392
673.478	6394
673.528	8124
673.579	6244
673.630	6067
673.680	7939
673.731	6554
673.782	5683
673.832	6208
673.883	6363
673.934	6684
673.984	6400
674.035	6992
674.085	6148
674.136	6755
674.186	6390
674.237	6917
674.287	6818
674.338	6648
674.388	7167
674.438	6642
674.489	7771
674.539	7626
674.589	6827
674.640	7019
674.690	6534
674.740	6435
674.791	6597
674.841	6140
674.891	5154
674.942	4881
674.992	5807
675.042	4949
675.092	5360
675.142	4595
675.193	4938
675.243	5187
675.293	5762
675.343	6601
675.393	6161
675.443	6188
675.493	6270
675.543	4756
675.593	5303
675.643	6619
675.693	5941
675.743	6380
675.793	5540
675.843	4442
675.893	5778
675.943	4690
675.993	5539
676.043	4678
676.093	5189
676.142	5551
676.192	4935
676.242	5672
676.292	5909
676.341	4839
676.391	5161
676.441	4579
676.491	4374
676.540	4778
676.590	5305
676.640	4541
676.689	4987
676.739	3787
676.789	4515
676.838	4279
676.888	4197
676.937	4493
676.987	4864
677.037	4304
677.086	3811
677.136	4108
677.185	4039
677.235	4190
677.284	4381
677.333	4775
677.383	3794
677.432	4264
677.482	4741
677.531	3990
677.580	3835
677.630	4147
677.679	4022
677.728	3993
677.778	3979
677.827	3274
677.876	4364
677.925	4734
677.975	4236
678.024	4768
678.073	5067
678.122	4851
678.171	5350
678.220	4764
678.269	6151
678.319	6055
678.368	6061
678.417	4952
678.466	3968
678.515	4635
678.564	4276
678.613	4148
678.662	3943
678.711	3956
678.760	4458
678.809	3326
678.857	3404
678.906	4564
678.955	3957
679.004	4229
679.053	3792
679.102	3388
679.151	3751
679.199	4141
679.248	4352
679.297	4897
679.346	4176
679.394	2659
679.443	2947
679.492	3859
679.540	4319
679.589	3560
679.638	4222
679.686	4370
679.735	4590
679.784	4996
679.832	6098
679.881	4223
679.929	4702
679.978	3776
680.026	3657
680.075	4591
680.123	2768
680.172	3057
680.220	4468
680.268	3405
680.317	3406
680.365	2670
680.414	3195
680.462	3177
680.510	3752
680.559	3595
680.607	3766
680.655	3659
680.703	3511
680.752	3299
680.800	3936
680.848	3520
680.896	3468
680.945	3665
680.993	2600
681.041	3490
681.089	3370
681.137	3049
681.185	2882
681.233	3434
681.258	3223
681.281	3002
681.329	3217
681.377	3295
681.380	3304
681.425	3120
681.473	4534
681.502	4093
681.521	3743
681.569	4195
681.617	3528
681.624	3582
681.665	3780
681.713	4381
681.745	4224
681.761	4119
681.809	3446
681.857	4621
681.867	4437
681.904	3734
681.952	3921
681.989	3556
682.000	3409
682.048	3725
682.096	4354
682.111	4263
682.143	4032
682.191	3628
682.233	4675
682.239	4810
682.286	3970
682.334	4037
682.354	3957
682.382	3790
682.430	3952
682.476	4113
682.477	4096
682.525	4363
682.572	3633
682.598	3893
682.620	4119
682.667	4678
682.715	4263
682.720	4382
682.763	5259
682.810	4361
682.841	4784
682.857	4967
682.905	4072
682.952	5087
682.963	5068
683.000	4949
683.047	4405
683.085	5178
683.095	5377
683.142	4720
683.190	5191
683.206	5100
683.237	4812
683.284	4572
683.328	4704
683.332	4706
683.379	4623
683.426	4122
683.449	4883
683.473	5665
683.521	5377
683.568	4990
683.571	4993
683.615	4780
683.662	5336
683.693	5053
683.709	4832
683.757	4510
683.804	5036
683.814	4974
683.851	4742
683.898	5427
683.936	4996
683.945	4891
683.992	4741
684.039	5376
684.057	5220
684.086	4891
684.133	4921
684.179	4585
684.180	4561
684.227	4716
684.274	5132
684.300	5245
684.321	5304
684.368	4886
684.415	5227
684.422	5165
684.462	4850
684.509	5092
684.543	5475
684.556	5581
684.603	5942
684.649	5984
684.665	5921
684.696	5729
684.743	6018
684.786	6048
684.790	6025
684.837	5699
684.883	6023
684.908	5716
684.930	5543
684.977	6134
685.023	6049
685.029	6056
685.070	6020
685.117	6503
685.150	6719
685.164	6726
685.210	5957
685.257	6484
685.272	6529
685.303	6747
685.350	6231
685.393	6355
685.396	6336
685.443	5711
685.490	5967
685.514	6039
685.536	6247
685.583	6498
685.629	6405
685.636	6350
685.675	5785
685.722	6058
685.757	5848
685.768	5793
685.815	6112
685.861	6241
685.878	6371
685.908	6595
685.954	6104
686.000	7087
686.000	7098
686.047	5973
686.093	6323
686.121	6315
686.139	6300
686.185	6477
686.232	5701
686.242	6000
686.278	7035
686.324	6345
686.363	6995
686.370	7088
686.416	6900
686.463	6659
686.484	6732
686.509	6843
686.555	6660
686.601	6712
686.606	6760
686.647	7138
686.693	7040
686.727	6753
686.739	6638
686.785	6150
686.831	6447
686.848	6514
686.877	6703
686.923	6884
686.969	7357
686.969	7360
687.015	7331
687.061	7510
687.090	8127
687.107	8303
687.153	7787
687.199	7773
687.211	7744
687.245	7727
687.291	7476
687.332	7497
687.336	7508
687.382	7622
687.428	7800
687.453	7723
687.474	7703
687.520	8073
687.565	8516
687.574	8532
687.611	8582
687.657	8415
687.695	8635
687.702	8694
687.748	9438
687.794	9349
687.816	9281
687.839	8990
687.885	8782
687.931	8412
687.937	8402
687.976	8499
688.022	8429
688.058	8331
688.067	8310
688.113	8391
688.158	8522
688.179	8330
688.204	8178
688.249	8201
688.295	8246
688.300	8289
688.340	8622
688.386	8500
688.421	8146
688.431	8069
688.477	7945
688.522	8703
688.542	8984
688.567	9400
688.613	9408
688.658	9508
688.663	9505
688.703	9322
688.749	9342
688.784	9235
688.794	9198
688.839	9121
688.884	9477
688.905	9185
688.930	8873
688.975	8537
689.020	9050
689.026	8966
689.065	8489
689.110	9008
689.146	8841
689.155	8858
689.201	9330
689.246	9574
689.267	9537
689.291	9343
689.336	9538
689.381	9232
689.388	9269
689.426	9648
689.471	9497
689.509	9685
689.516	9726
689.561	9505
689.606	9393
689.630	9459
689.651	9514
689.696	9338
689.741	9526
689.750	9577
689.785	9923
689.830	9891
689.871	10325
689.875	10343
689.920	9976
689.965	9364
689.992	9197
690.010	9182
690.054	9308
690.099	9381
690.112	9247
690.144	9091
690.189	8957
690.233	9173
690.233	9185
690.278	9265
690.323	9362
690.354	9546
690.367	9717
690.412	9933
690.457	9872
690.474	9872
690.501	9631
690.546	10001
690.590	9426
690.595	9404
690.635	9501
690.680	9104
690.716	8953
690.724	8982
690.769	9519
690.813	10283
690.836	10251
690.857	10164
690.902	10194
690.946	9686
690.957	9722
690.991	9794
691.035	10000
691.077	10203
691.080	10240
691.124	10045
691.168	9948
691.198	10070
691.213	10021
691.257	9990
691.301	9601
691.318	9391
691.346	9423
691.390	9650
691.434	9922
691.439	9952
691.478	10145
691.522	10473
691.559	10373
691.567	10410
691.611	10711
691.655	10961
691.680	11096
691.699	10987
691.743	10725
691.787	10647
691.800	10406
691.831	10240
691.875	10762
691.919	11006
691.921	10979
691.964	10316
692.008	10345
692.041	10220
692.052	10235
692.096	9988
692.139	10238
692.162	10108
692.183	10056
692.227	10191
692.271	10067
692.282	10064
692.315	10142
692.359	10058
692.402	10252
692.403	10272
692.447	10275
692.490	10203
692.523	10339
692.534	10445
692.578	10536
692.622	10642
692.643	10752
692.666	10713
692.709	10440
692.753	10493
692.763	10365
692.797	10427
692.840	10714
692.884	11175
692.884	11195
692.928	10647
692.971	10412
693.004	10454
693.015	10556
693.059	10411
693.102	10276
693.124	10399
693.146	10582
693.189	10351
693.233	10411
693.245	10390
693.276	10501
693.320	10891
693.363	10924
693.365	10911
693.407	10801
693.450	10391
693.485	10324
693.493	10438
693.537	10413
693.580	10961
693.605	11230
693.624	11196
693.667	10909
693.710	10640
693.725	10520
693.753	10568
693.797	10420
693.840	10594
693.845	10581
693.883	10585
693.926	10327
693.966	10378
693.970	10457
694.013	11132
694.056	11496
694.086	11847
694.099	11773
694.142	11397
694.185	10817
694.206	10512
694.229	10641
694.272	11320
694.315	11777
694.326	11795
694.358	11822
694.401	12053
694.444	12109
694.446	12094
694.487	12005
694.530	11933
694.566	11751
694.573	11780
694.616	11770
694.659	11851
694.686	11843
694.702	11945
694.745	12268
694.787	12412
694.806	12456
694.830	12405
694.873	12284
694.916	12193
694.926	12145
694.959	12556
695.002	13231
695.044	13768
695.046	13761
695.087	13576
695.130	12984
695.166	12979
695.172	13079
695.215	13221
695.258	13319
695.286	13469
695.301	13605
695.343	13768
695.386	14107
695.406	14245
695.428	15093
695.471	16481
695.514	18195
695.526	18542
695.556	19148
695.599	20313
695.641	21080
695.646	21113
695.684	20028
695.726	18974
695.766	18082
695.769	18086
695.811	17324
695.854	16604
695.886	16065
695.896	16297
695.938	17100
695.981	17834
696.005	18256
696.023	18845
696.065	20402
696.108	21792
696.125	22250
696.150	22252
696.192	22401
696.235	22337
696.245	22320
696.277	22559
696.319	22594
696.361	22791
696.365	22750
696.404	22070
696.446	21240
696.485	20389
696.488	20449
696.530	20769
696.572	21076
696.604	21193
696.614	21280
696.656	21421
696.698	21647
696.724	21674
696.740	21763
696.783	22076
696.825	22311
696.844	22341
696.867	22483
696.909	22532
696.951	22714
696.964	22722
696.992	22788
697.034	22751
697.076	22754
697.083	22719
697.118	23573
697.160	24341
697.202	25280
697.203	25242
697.244	24919
697.286	24732
697.323	24407
697.327	24448
697.369	24303
697.411	24149
697.442	24046
697.453	24181
697.494	24433
697.536	24648
697.562	24709
697.578	24729
697.620	24745
697.661	24708
697.682	24660
697.703	25266
697.744	26363
697.786	27372
697.801	27657
697.828	27550
697.869	27368
697.911	27122
697.921	27014
697.952	26785
697.994	26388
698.035	25943
698.040	25833
698.077	26087
698.118	26299
698.160	26469
698.160	26407
698.201	27259
698.243	28009
698.279	28601
698.284	28776
698.325	29758
698.367	30798
698.399	31521
698.408	31590
698.449	31572
698.491	31522
698.518	31406
698.532	31435
698.573	31354
698.614	31186
698.638	31045
698.656	31172
698.697	31277
698.738	31402
698.757	31375
698.779	31520
698.820	31652
698.862	31807
698.877	31780
698.903	31737
698.944	31557
698.985	31378
698.996	31255
699.026	31480
699.067	31691
699.116	31870
699.235	30948
699.354	30582
699.474	28681
699.593	29553
699.713	29171
699.832	28428
699.951	30062
700.070	30422
700.190	27645
700.309	27339
700.428	26120
700.547	26770
700.667	26057
700.786	26405
700.905	25465
701.024	27557
701.143	25250
701.262	27555
701.381	26845
701.500	27317
701.619	27189
701.738	27246
701.857	26511
701.976	24409
702.095	25578
702.214	27468
702.333	24774
702.452	26686
702.571	27260
702.690	26300
702.809	26626
702.928	25186
703.047	23761
703.165	24966
703.284	24269
703.403	24400
703.522	23210
703.640	23021
703.759	22696
703.878	23047
703.997	23079
704.115	24140
704.234	22395
704.353	23744
704.471	21207
704.590	21795
704.708	20837
704.827	21444
704.946	20386
705.064	21443
705.183	20973
705.301	21405
705.420	19543
705.538	19699
705.656	18896
705.775	19367
705.893	19418
706.012	19594
706.130	18741
706.249	20781
706.367	18353
706.485	19134
706.604	18029
706.722	17907
706.840	19871
706.958	22244
707.077	17946
707.195	17729
707.313	18444
707.431	16806
707.549	16922
707.668	15013
707.786	18648
707.904	16846
708.022	17631
708.140	16737
708.258	15726
708.376	17721
708.494	14898
708.612	17339
708.730	16667
708.848	16084
708.966	16972
709.084	16844
709.202	16569
709.320	15057
709.438	14948
709.556	16082
709.674	13994
709.791	15377
709.909	13925
710.027	14129
710.145	13916
710.263	14628
710.380	14585
710.498	13809
710.616	14723
710.733	13128
710.851	13831
710.969	14519
711.086	12998
711.204	14322
711.322	13329
711.439	13473
711.557	12150
711.674	13804
711.792	13690
711.909	12616
712.027	12973
712.144	12184
712.262	12864
712.379	12536
712.497	12370
712.614	12956
712.732	12938
712.849	12628
712.966	12923
713.084	13394
713.201	10578
713.318	12856
713.436	13187
713.553	11075
713.670	13505
713.787	14246
713.905	10775
714.022	13718
714.139	12547
714.256	15038
714.373	20664
714.490	36371
714.608	88130
714.725	336477
714.842	298475
714.959	36186
715.076	16923
715.193	15529
715.310	13999
715.427	11455
715.544	12630
715.661	12773
715.778	11757
715.895	11940
716.011	10692
716.128	11512
716.245	11056
716.362	10938
716.479	8903
716.596	10374
716.713	9656
716.829	10586
716.946	10187
717.063	10211
717.180	8895
717.296	10388
717.413	9695
717.530	9399
717.646	8783
717.763	9403
717.880	8950
717.996	8695
718.113	9302
718.229	9381
718.346	7905
718.462	8159
718.579	9570
718.695	9422
718.812	8525
718.928	9095
719.045	8716
719.161	8597
719.277	8583
719.394	9952
719.510	8374
719.626	9692
719.743	11536
719.859	17784
719.975	33163
720.092	126191
720.208	249342
720.324	33355
720.440	11726
720.557	10733
720.673	9438
720.789	8842
720.905	7551
721.021	9046
721.137	7800
721.253	7262
721.369	7889
721.486	8822
721.602	7721
721.718	8197
721.834	7241
721.950	7897
722.066	6372
722.181	6476
722.297	7533
722.413	7169
722.529	6612
722.645	6940
722.761	6753
722.877	7575
722.993	7726
723.108	9594
723.224	6868
723.340	8077
723.456	7311
723.571	7319
723.687	5039
723.803	7822
723.918	7328
724.034	6617
724.150	6252
724.265	7129
724.381	5874
724.497	6069
724.612	7678
724.728	6806
724.843	5895
724.959	6124
725.074	6895
725.190	7444
725.305	5925
725.421	6762
725.536	6357
725.651	7408
725.767	6332
725.882	6586
725.997	6414
726.113	7454
726.228	6405
726.343	6248
726.459	6238
726.574	6513
726.689	6021
726.804	6468
726.920	6102
727.035	6666
727.150	6162
727.265	5921
727.380	6041
727.495	6789
727.610	6236
727.725	6472
727.841	6818
727.956	6890
728.071	5580
728.186	6090
728.301	6309
728.416	7724
728.531	6399
728.645	6185
728.760	6312
728.875	6821
728.990	6047
729.105	5751
729.220	5928
729.335	6765
729.449	5758
729.564	6020
729.679	4645
729.794	6710
729.908	5914
730.023	5904
730.138	6310
730.253	7072
730.367	5584
730.482	6599
730.596	5591
730.711	7473
730.826	11416
730.940	10091
731.055	8468
731.169	8727
731.284	8115
731.398	8401
731.513	9409
731.627	10394
731.742	13672
731.856	16709
731.970	14728
732.085	18431
732.199	23035
732.313	36693
732.428	90825
732.542	258338
732.656	142309
732.771	33421
732.885	22783
732.999	22596
733.113	24584
733.227	25426
733.342	23980
733.456	23359
733.570	21038
733.684	21812
733.798	19445
733.912	20216
734.026	20433
734.140	20846
734.254	18826
734.368	19695
734.482	19721
734.596	19218
734.710	18427
734.824	18692
734.938	18523
735.052	18430
735.166	18461
735.280	17523
735.393	17434
735.507	17276
735.621	17130
735.735	17424
735.849	18495
735.962	16954
736.076	17161
736.190	17487
736.303	17187
736.417	18085
736.531	15776
736.644	16560
736.758	16059
736.872	16187
736.985	16298
737.099	15787
737.212	14853
737.326	15200
737.439	16052
737.553	14768
737.666	16062
737.780	14145
737.893	15835
738.007	15356
738.120	14768
738.233	14861
738.347	14652
738.460	15153
738.573	15398
738.687	13811
738.800	14866
738.913	15189
739.026	13780
739.140	13638
739.253	13301
739.366	13096
739.479	13831
739.592	13175
739.705	12139
739.818	15059
739.932	11434
740.045	13574
740.158	12557
740.271	14568
740.384	12100
740.497	12363
740.610	13236
740.723	11755
740.836	12673
740.949	12526
741.062	13778
741.174	11490
741.287	12172
741.400	12074
741.513	10246
741.626	12871
741.739	11733
741.851	10729
741.964	12350
742.077	11769
742.189	9856
742.302	12349
742.415	12038
742.527	11188
742.640	10971
742.753	9779
742.865	10965
742.978	10451
743.090	9351
743.203	10864
743.316	10235
743.428	11125
743.541	10294
743.653	9302
743.766	10517
743.878	10795
743.990	8939
744.103	11778
744.215	10982
744.327	8530
744.440	12184
744.552	10201
744.664	8516
744.777	11482
744.889	7980
745.001	9773
745.113	11105
745.226	9428
745.338	8624
745.450	11393
745.562	8867
745.674	8448
745.786	10187
745.898	9615
746.010	8269
746.122	9704
746.234	8585
746.347	9952
746.459	8808
746.570	7102
746.682	10714
746.794	13566
746.906	7187
747.018	9410
747.130	9697
747.242	8175
747.354	8146
747.466	8324
747.577	6914
747.689	9705
747.801	8778
747.913	8439
748.024	7118
748.136	7673
748.248	6899
748.359	7555
748.471	8636
748.583	7218
748.694	6895
748.806	8104
748.918	7067
749.029	7290
749.141	7925
749.252	8653
749.364	6402
749.475	7037
749.587	5786
749.698	6961
749.809	7289
749.921	7164
750.032	6976
750.144	6890
750.255	6385
750.366	6690
750.478	5710
750.589	7210
750.700	5987
750.811	7540
750.923	5622
751.034	6562
751.145	7791
751.256	7305
751.367	5594
751.479	7046
751.590	6498
751.701	6077
751.812	5133
751.923	6615
752.034	7208
752.145	7044
752.256	6639
752.367	7199
752.478	6228
752.589	6356
752.700	6472
752.811	5901
752.922	6301
753.032	7258
753.143	5808
753.254	5555
753.365	6499
753.476	7938
753.586	5966
753.697	6410
753.808	6089
753.919	5536
754.029	5542
754.140	5742
754.251	4798
754.361	6122
754.472	6122
754.582	5346
754.693	5187
754.804	7070
754.914	5077
755.025	4932
755.135	5870
755.246	7014
755.356	4748
755.466	6609
755.577	6134
755.687	5493
755.798	4876
755.908	4963
756.018	4854
756.129	6280
756.239	5300
756.349	6435
756.460	4947
756.570	6578
756.680	4235
756.790	6069
756.900	5287
757.011	6041
757.121	5210
757.231	5267
757.341	5178
757.451	4722
757.561	4757
757.671	5272
757.781	4883
757.891	5116
758.001	4239
758.111	5368
758.221	5310
758.331	5572
758.441	4434
758.551	4887
758.661	5198
758.771	6258
758.880	4688
758.990	4233
759.100	4139
759.210	5301
759.320	4806
759.429	5949
759.539	5122
759.649	6055
759.758	6164
759.868	5885
759.978	5853
760.087	6991
760.197	5680
760.307	7532
760.416	4340
760.526	5166
760.635	5489
760.745	6740
760.854	6031
760.964	6844
761.073	6835
761.182	6727
761.292	6288
761.401	5598
761.511	4662
761.620	4686
761.729	4984
761.839	4933
761.948	5074
762.057	4230
762.166	4570
762.276	5022
762.385	3819
762.494	4732
762.603	4262
762.712	4700
762.822	4554
762.931	3683
763.040	3584
763.149	4251
763.258	3718
763.367	4452
763.476	3536
763.585	3645
763.694	4371
763.803	3972
763.912	4134
764.021	4435
764.130	3509
764.238	4602
764.347	3927
764.456	4899
764.565	3636
764.674	3881
764.783	3646
764.891	3893
765.000	3671
765.109	4538
765.217	3355
765.326	4436
765.435	3665
765.543	4122
765.652	4614
765.761	4271
765.869	4116
765.978	6206
766.086	8314
766.195	13445
766.303	34344
766.412	124575
766.520	74998
766.629	11191
766.737	5595
766.846	5345
766.954	3909
767.062	5073
767.171	3046
767.279	4494
767.387	3283
767.496	4147
767.604	3361
767.712	4436
767.820	2832
767.928	3994
768.037	2525
768.145	3915
768.253	4803
768.361	3585
768.469	3328
768.577	3132
768.685	3635
768.793	4862
768.901	3324
769.009	3846
769.117	4353
769.225	3848
769.333	4677
769.441	5733
769.549	7866
769.657	15252
769.765	49717
769.873	98050
769.981	18898
770.088	7246
770.196	6152
770.304	6326
770.412	4868
770.519	5836
770.627	5658
770.735	5497
770.842	6122
770.950	6104
771.058	5519
771.165	8405
771.273	9075
771.380	9810
771.488	13906
771.595	15949
771.703	12614
771.810	13115
771.918	12455
772.025	16432
772.133	18319
772.240	16189
772.348	20177
772.455	18212
772.562	16887
772.670	16001
772.777	17127
772.884	17445
772.991	14829
773.099	17306
773.206	15071
773.313	16063
773.420	15985
773.528	15074
773.635	14942
773.742	15840
773.849	13626
773.956	15803
774.063	14087
774.170	15364
774.277	15037
774.384	14469
774.491	13695
774.598	14901
774.705	13934
774.812	14616
774.919	14063
775.026	14051
775.133	14110
775.239	13763
775.346	13051
775.453	13746
775.560	13077
775.667	14515
775.773	10602
775.880	14438
775.987	12192
776.093	14222
776.200	13367
776.307	9860
776.413	12804
776.520	15641
776.627	11623
776.733	11241
776.840	10530
776.946	16121
777.053	13530
777.159	15682
777.266	11923
777.372	15528
777.478	14661
777.585	12661
777.691	10425
777.798	13621
777.904	10969
778.010	10839
778.117	11823
778.223	10592
778.329	11542
778.435	9993
778.542	11446
778.648	10345
778.754	9323
778.860	11039
778.966	9832
779.072	9742
779.178	10224
779.284	8733
779.391	9724
779.497	9879
779.603	11351
779.708	8011
779.815	8388
779.920	10935
780.026	8534
780.132	11259
780.238	8901
780.344	8519
780.450	11867
780.556	7662
780.661	8256
780.767	11465
780.873	5881
780.979	9338
781.085	9519
781.190	9072
781.296	8182
781.402	9038
781.507	7644
781.613	6692
781.719	8365
781.824	9338
781.930	7537
782.035	8932
782.141	9550
782.246	5761
782.352	7414
782.457	8894
782.563	7377
782.668	8820
782.773	6831
782.879	6488
782.984	6822
783.090	8047
783.195	8066
783.300	9465
783.405	6469
783.511	6170
783.616	6903
783.721	7944
783.826	6505
783.932	6423
784.037	7482
784.142	7531
784.247	6580
784.352	7632
784.457	5575
784.562	7877
784.667	6791
784.772	4941
784.877	4583
784.982	7955
785.087	7178
785.192	6212
785.297	5561
785.402	6447
785.507	5891
785.611	6010
785.716	4259
785.821	6357
785.926	7235
786.031	6430
786.135	6748
786.240	6715
786.345	4353
786.450	5671
786.554	5714
786.659	6137
786.763	5419
786.868	6482
786.973	6306
787.077	5847
787.182	3887
787.286	7331
787.391	7132
787.495	4692
787.600	3547
787.704	6108
787.809	5562
787.913	5446
788.017	5321
788.122	6575
788.226	5384
788.330	3600
788.435	5528
788.539	6909
788.643	4566
788.747	3512
788.852	5648
788.956	5377
789.060	6183
789.164	5665
789.268	4626
789.372	5839
789.476	4302
789.580	3910
789.684	3354
789.788	6252
789.892	5157
789.996	3753
790.100	3073
790.204	5276
790.308	5150
790.412	3384
790.516	3473
790.620	4006
790.724	6628
790.828	4502
790.931	2119
791.035	5153
791.139	4430
791.242	4516
791.346	5676
791.450	4946
791.554	3284
791.657	2857
791.761	4626
791.864	5041
791.968	4582
792.072	4935
792.175	3184
792.279	3778
792.382	3396
792.486	3782
792.589	3040
792.693	4322
792.796	2806
792.899	5129
793.003	4887
793.106	3470
793.209	3706
793.313	4542
793.416	2143
793.519	4280
793.623	4696
793.726	4405
793.829	2803
793.932	3628
794.035	2419
794.138	5390
794.242	5416
794.345	2678
794.448	2876
794.551	1837
794.654	4498
794.757	4133
794.860	3107
794.963	4197
795.066	2275
795.169	5052
795.272	2994
795.375	4371
795.477	1688
795.580	2994
795.683	1566
795.786	4759
795.889	2723
795.991	4045
796.094	3136
796.197	2429
796.300	4721
796.402	3870
796.505	1473
796.608	2204
796.710	1827
796.813	3990
796.915	3501
797.018	3360
797.120	2677
797.223	3290
797.326	4683
797.428	3086
797.530	1600
797.633	3017
797.735	4175
797.838	3223
797.940	4010
798.042	2734
798.145	1700
798.247	2364
798.349	972
798.452	3407
798.554	3061
798.656	2991
798.758	2995
798.860	2502
798.962	2294
799.065	1342
799.167	2104
799.269	2576
799.371	3632
799.473	4718
799.575	2238
799.677	2300
799.779	2877
799.881	2559
799.983	3192
800.085	2712
800.187	2194
800.289	1638
800.390	2326
800.492	3367
800.594	2831
800.696	2090
800.798	1878
800.899	2310
801.001	2201
801.103	3676
801.205	1662
801.306	3030
801.408	1637
801.509	3013
801.611	2593
801.713	3015
801.814	1431
801.916	1825
802.017	1834
802.119	1926
802.220	2385
802.322	1386
802.423	3604
802.525	1087
802.626	2357
802.727	3332
802.829	2392
802.930	157
803.031	2844
803.133	2704
803.234	2646
803.335	2805
803.436	701
803.538	2478
803.639	1170
803.740	2552
803.841	1750
803.942	3023
804.043	1659
804.144	1593
804.245	962
804.346	1898
804.447	997
804.548	2187
804.649	1931
804.750	2005
804.851	870
804.952	2035
805.053	1708
805.154	969
805.255	2549
805.355	1945
805.456	1378
805.557	2416
805.658	634
805.758	2611
805.859	1706
805.960	1928
806.061	921
806.161	1528
806.262	1784
806.362	1526
806.463	1828
806.564	2160
806.664	1741
806.765	1506
806.865	1178
806.966	1915
807.066	1288
807.166	2099
807.267	1338
807.367	1314
807.468	969
807.568	200
807.668	1688
807.769	2908
807.869	1258
807.969	2562
808.069	969
808.170	1891
808.270	1281
808.370	2515
808.470	1271
808.570	858
808.670	2395
808.770	1405
808.870	1314
808.970	2541
809.070	965
809.170	1235
809.271	2277
809.370	1134
809.470	984
809.570	2235
809.670	-21
809.770	1869
809.870	1613
809.970	2130
810.070	997
810.169	1577
810.269	-494
810.369	2142
810.469	1608
810.568	1745
810.668	1359
810.768	2238
810.867	1797
810.967	1193
811.066	1463
811.166	2189
811.265	2135
811.365	1570
811.464	1775
811.564	1188
811.663	1536
811.763	1933
811.862	1292
811.962	2182
812.061	919
812.160	578
812.260	779
812.359	1543
812.458	465
812.557	2430
812.657	466
812.756	2050
812.855	1108
812.954	877
813.053	1773
813.153	1239
813.252	604
813.351	1785
813.450	1383
813.549	1158
813.648	709
813.747	1334
813.846	2315
813.945	1697
814.044	1901
814.143	2255
814.242	1777
814.341	2157
814.439	2252
814.538	3321
814.637	2050
814.736	2996
814.835	3464
814.933	3334
815.032	3585
815.131	6670
815.229	9900
815.328	14810
815.427	10178
815.525	9673
815.624	9015
815.722	8991
815.821	8427
815.919	9066
816.018	8432
816.116	9563
816.215	9984
816.313	9873
816.412	11839
816.510	11985
816.609	12906
816.707	13639
816.805	11314
816.904	12067
817.002	11602
817.100	12049
817.198	12996
817.296	11247
817.395	11943
817.493	11780
817.591	10021
817.689	11088
817.787	11232
817.885	11582
817.983	9311
818.081	11372
818.179	11338
818.277	15455
818.375	12617
818.473	11190
818.571	8783
818.669	10096
818.767	11728
818.865	10001
818.963	7764
819.061	10536
819.158	10150
819.256	12960
819.354	11696
819.452	16762
819.549	11171
819.647	11795
819.745	9559
819.842	9054
819.940	8529
820.038	9274
820.135	8106
820.233	11679
820.330	8387
820.428	8277
820.525	9156
820.623	8099
820.720	7287
820.818	9630
820.915	9375
821.012	8931
821.110	7009
821.207	8943
821.304	7162
821.402	10009
821.499	8973
821.596	7985
821.693	8168
821.791	9558
821.888	8150
821.985	9470
822.082	5919
822.179	8758
822.276	8819
822.373	6485
822.470	7030
822.567	8512
822.664	5960
822.761	8337
822.858	7893
822.955	6857
823.052	5681
823.149	8241
823.246	8072
823.343	6183
823.440	5866
823.536	7631
823.633	6391
823.730	6632
823.827	7494
823.923	7754
824.020	5522
824.117	8733
824.213	6428
824.310	6205
824.407	5216
824.503	8175
824.600	5695
824.696	6018
824.793	7712
824.889	7432
824.986	5066
825.082	3552
825.179	4603
825.275	7817
825.371	7736
825.468	5189
825.564	3088
825.660	7024
825.757	8463
825.853	6421
825.949	4096
826.045	5228
826.142	5231
826.238	5902
826.334	6175
826.430	5662
826.526	3884
826.622	4118
826.718	5795
826.814	7909
826.910	5866
827.006	3222
827.102	3923
827.198	6361
827.294	6354
827.390	6260
827.486	5041
827.582	3591
827.678	3874
827.774	7597
827.869	3237
827.965	4690
828.061	3493
828.157	5712
828.252	5569
828.348	4361
828.444	4166
828.539	4500
828.635	4281
828.731	5510
828.826	2722
828.922	5316
829.017	4575
829.113	5328
829.208	3029
829.304	4562
829.399	6441
829.495	5448
829.590	3147
829.685	4894
829.781	4507
829.876	4989
829.971	1297
830.066	1505
830.162	4667
830.257	6984
830.352	4040
830.447	3375
830.543	3773
830.638	4434
830.733	5503
830.828	3071
830.923	3933
831.018	4312
831.113	5088
831.208	1899
831.303	1666
831.398	3162
831.493	3390
831.588	7614
831.683	3152
831.778	1868
831.873	2068
831.967	4697
832.062	3430
832.157	4021
832.252	2651
832.346	3250
832.441	3378
832.536	3557
832.631	3896
832.725	3171
832.820	3555
832.914	3069
833.009	1666
833.104	2816
833.198	2532
833.293	4141
833.387	4093
833.482	3773
833.576	2736
833.670	2761
833.765	2601
833.859	4211
833.954	3449
834.048	3808
834.142	2595
834.237	1762
834.331	3357
834.425	4231
834.519	2240
834.613	3469
834.708	1661
834.802	3334
834.896	2521
834.990	3124
835.084	2058
835.178	2076
835.272	2288
835.366	4276
835.460	3922
835.554	3132
835.648	1030
835.742	1137
835.836	1509
835.930	2240
836.024	2739
836.117	3888
836.211	1411
836.305	1706
836.399	2210
836.493	2157
836.586	3245
836.680	2545
836.774	2211
836.867	2869
836.961	1687
837.055	1790
837.148	1159
837.242	2122
837.335	2139
837.429	2945
837.522	1193
837.616	1821
837.709	1435
837.803	1388
837.896	2518
837.989	3101
838.083	1385
838.176	1964
838.269	836
838.363	3060
838.456	723
838.549	2903
838.642	1216
838.735	2040
838.829	2845
838.922	2435
839.015	2275
839.108	1424
839.201	1449
839.294	3020
839.387	1182
839.480	1393
839.573	1016
839.666	1997
839.759	2113
839.852	1042
839.945	2308
840.038	1429
840.131	1156
840.223	1511
840.316	1068
840.409	2906
840.502	2130
840.594	3438
840.687	231
840.780	1712
840.873	555
840.965	1136
841.058	2330
841.150	3090
841.243	-477
841.336	1212
841.428	1583
841.521	1457
841.613	877
841.706	2258
841.798	1215
841.890	2203
841.983	194
842.075	1889
842.167	1065
842.260	1894
842.352	1696
842.444	2065
842.537	518
842.629	1229
842.721	-444
842.813	1945
842.905	318
842.997	1680
843.090	1293
843.182	868
843.274	-664
843.366	2095
843.458	554
843.550	2299
843.642	1334
843.734	1262
843.826	307
843.918	807
844.009	1145
844.101	1505
844.193	1191
844.285	2205
844.377	1832
844.469	1583
844.560	551
844.652	1660
844.744	796
844.835	1262
844.927	1106
845.019	1797
845.110	897
845.202	2697
845.293	149
845.385	389
845.476	1059
845.568	1730
845.659	1042
845.751	1043
845.842	345
845.934	1752
846.025	180
846.116	2195
846.208	659
846.299	-83
846.390	654
846.482	701
846.573	859
846.664	955
846.755	66
846.846	1386
846.937	-157
847.029	492
847.120	294
847.211	946
847.302	1823
847.393	569
847.484	735
847.575	600
847.666	-40
847.757	739
847.847	286
847.938	2147
848.029	958
848.120	631
848.211	192
848.302	-356
848.392	-656
848.483	809
848.574	1227
848.664	760
848.755	646
848.846	1448
848.936	663
849.027	1553
849.118	1159
849.208	1094
849.299	1586
849.389	2228
849.480	4160
849.570	8312
849.661	15746
849.751	26863
849.841	8893
849.932	1934
850.022	562
850.112	1552
850.203	792
850.293	799
850.383	726
850.474	314
850.564	194
850.654	819
850.744	170
850.834	840
850.924	454
851.014	2788
851.104	70
851.194	-438
851.284	908
851.374	552
851.464	-221
851.554	359
851.644	-231
851.734	1096
851.824	808
851.914	831
852.004	810
852.094	788
852.183	267
852.273	1612
852.363	33
852.452	1413
852.542	514
852.632	-182
852.721	587
852.811	593
852.901	1734
852.990	2093
853.080	691
853.169	1033
853.259	1005
853.348	1477
853.438	1810
853.527	2460
853.617	1820
853.706	6100
853.795	7514
853.885	19131
853.974	32611
854.063	58189
854.152	80537
854.242	33135
854.331	8012
854.420	3187
854.509	3083
854.598	2322
854.687	1417
854.777	1518
854.866	279
854.955	1589
855.044	173
855.133	1008
855.222	-127
855.311	967
855.400	624
855.488	1070
855.577	94
855.666	1797
855.755	499
855.844	1388
855.933	426
856.021	1030
856.110	621
856.199	-489
856.288	-156
856.376	749
856.465	-457
856.554	1335
856.642	61
856.731	1706
856.819	626
856.908	301
856.996	32
857.085	306
857.173	-59
857.262	677
857.350	-599
857.438	792
857.527	1306
857.615	666
857.703	602
857.792	-133
857.880	-24
857.968	-222
858.056	-222
858.145	1022
858.233	531
858.321	507
858.409	461
858.497	1070
858.585	521
858.673	-612
858.761	-284
858.849	319
858.937	117
859.025	587
859.113	215
859.201	646
859.289	318
859.377	30
859.465	-106
859.552	650
859.640	-605
859.728	516
859.816	233
859.903	139
859.991	-174
860.079	357
860.166	336
860.254	1030
860.342	378
860.429	518
860.517	-111
860.604	1180
860.692	-57
860.779	37
860.867	252
860.954	1434
861.042	1541
861.129	970
861.216	268
861.304	1148
861.391	801
861.478	1227
861.565	234
861.653	1805
861.740	250
861.827	311
861.914	133
862.001	-53
862.089	540
862.176	1125
862.263	-178
862.350	847
862.437	178
862.524	377
862.611	554
862.698	1319
862.785	1077
862.871	1932
862.958	1309
863.045	667
863.132	721
863.219	628
863.306	-944
863.392	1190
863.479	107
863.566	949
863.652	524
863.739	522
863.826	847
863.912	1342
863.999	484
864.086	1415
864.172	1050
864.259	1798
864.345	2014
864.432	2002
864.518	712
864.604	2110
864.691	1099
864.777	1911
864.863	3057
864.950	5337
865.036	6784
865.122	13604
865.209	12760
865.295	11476
865.381	10330
865.467	10134
865.553	8943
865.639	10584
865.726	11027
865.812	17181
865.898	24007
865.984	33713
866.070	53189
866.156	55383
866.242	22718
866.328	12663
866.414	9825
866.499	9987
866.585	8966
866.671	8772
866.757	8738
866.843	8647
866.928	7508
867.014	7718
867.100	8276
867.186	8099
867.271	7325
867.357	7535
867.442	7156
867.528	7785
867.614	7368
867.699	7781
867.785	8350
867.870	7837
867.956	8329
868.041	7633
868.127	7448
868.212	7821
868.297	7893
868.383	8402
868.468	6978
868.553	8722
868.639	7176
868.724	7746
868.809	6905
868.894	6895
868.979	6640
869.065	7216
869.150	5600
869.235	6876
869.320	7414
869.405	5945
869.490	6946
869.575	6972
869.660	4782
869.745	7752
869.830	7093
869.915	6158
870.000	6702
870.085	6399
870.169	7515
870.254	7755
870.339	3944
870.424	5862
870.509	5751
870.593	8181
870.678	6924
870.763	6064
870.847	5059
870.932	7512
871.016	6692
871.101	4739
871.186	6781
871.270	7798
871.355	4459
871.439	5733
871.523	6172
871.608	4653
871.692	5066
871.777	7421
871.861	7097
871.945	5161
872.030	5832
872.114	6084
872.198	4272
872.282	5242
872.367	5093
872.451	4672
872.535	4787
872.619	5692
872.703	4303
872.787	5343
872.871	5063
872.955	4495
873.039	3702
873.123	5665
873.207	5249
873.291	3399
873.375	3551
873.459	7177
873.543	4842
873.627	4578
873.711	3063
873.794	4878
873.878	4724
873.962	3188
874.045	3742
874.129	5049
874.137	4947
874.213	3929
874.245	4128
874.296	4457
874.352	3606
874.380	3184
874.460	4798
874.464	4866
874.547	3427
874.568	3955
874.631	5477
874.676	4765
874.714	4189
874.784	6016
874.798	6378
874.881	5068
874.892	4859
874.965	3467
874.999	3911
875.048	4442
875.107	5112
875.131	5421
875.215	2807
875.215	2807
875.298	2728
875.323	2952
875.381	3512
875.430	4545
875.465	5271
875.538	3962
875.548	3775
875.631	2823
875.646	2679
875.714	2064
875.753	2647
875.798	3331
875.861	3897
875.881	4015
875.964	3750
875.968	3659
876.047	2422
876.076	2810
876.130	3332
876.183	3434
876.213	3600
876.291	4660
876.296	4709
876.379	3057
876.398	3138
876.462	3520
876.506	2826
876.545	2172
876.613	2827
876.628	3003
876.711	3031
876.721	3273
876.794	5003
876.828	4335
876.877	3336
876.935	3070
876.960	2981
877.043	2148
877.043	2153
877.125	3324
877.150	3613
877.208	4138
877.258	2826
877.291	2016
877.365	1934
877.374	1896
877.456	2715
877.472	2471
877.539	1829
877.579	2929
877.622	3925
877.687	2703
877.704	2389
877.787	3177
877.794	3154
877.869	2689
877.901	2587
877.952	2519
878.008	1637
878.034	1314
878.115	2365
878.117	2380
878.199	1711
878.222	2063
878.282	3031
878.329	3058
878.364	3081
878.437	3589
878.447	3643
878.529	2067
878.544	2069
878.611	2140
878.651	2258
878.694	2538
878.758	3416
878.776	3563
878.858	2512
878.865	2502
878.941	2458
878.972	2210
879.023	1796
879.078	2212
879.105	2492
879.185	1921
879.187	1910
879.269	3160
879.292	3165
879.351	2737
879.399	1962
879.433	1707
879.506	2255
879.516	2283
879.598	2335
879.613	2273
879.680	1818
879.720	2350
879.762	3038
879.827	2497
879.844	2361
879.926	2310
879.933	2333
880.007	2760
880.040	2465
880.089	1631
880.147	2081
880.171	2441
880.253	2992
880.254	2992
880.335	2310
880.360	2695
880.417	4063
880.467	4706
880.499	4968
880.574	5750
880.580	5755
880.662	3514
880.680	3205
880.744	2132
880.787	1630
880.825	1426
880.893	2000
880.907	2115
880.989	1874
881.000	1938
881.070	2329
881.106	2208
881.152	2064
881.213	1757
881.233	1595
881.315	1619
881.319	1631
881.396	2249
881.426	2234
881.478	2007
881.532	2417
881.559	2737
881.639	2514
881.641	2482
881.722	1598
881.745	1396
881.803	1756
881.852	2124
881.885	2214
881.958	1610
881.966	1535
882.047	2151
882.064	2023
882.129	1551
882.171	1427
882.210	1157
882.277	937
882.291	1004
882.372	1812
882.383	1837
882.454	1957
882.489	2171
882.535	2246
882.596	2166
882.616	2228
882.697	2380
882.702	2359
882.778	763
882.808	487
882.859	1176
882.914	1523
882.940	1465
883.020	1699
883.021	1702
883.102	1616
883.127	1980
883.183	2821
883.233	2200
883.264	1702
883.339	1286
883.345	1239
883.426	822
883.445	828
883.507	1536
883.551	1955
883.587	2099
883.657	2256
883.668	2275
883.749	2252
883.763	2140
883.830	1355
883.869	1208
883.910	1201
883.975	1674
883.991	1768
884.072	1397
884.081	1379
884.152	1992
884.187	2405
884.233	2463
884.292	2202
884.314	1954
884.394	629
884.398	602
884.475	628
884.504	517
884.555	792
884.610	1422
884.636	1502
884.716	1278
884.716	1278
884.797	1783
884.821	1694
884.877	1485
884.927	1508
884.958	1465
885.033	1031
885.038	992
885.118	1003
885.139	905
885.199	860
885.244	1026
885.279	1243
885.350	1686
885.359	1805
885.439	2917
885.456	2881
885.520	1549
885.561	1334
885.600	1269
885.667	968
885.680	993
885.760	1146
885.773	1111
885.840	1050
885.878	1290
885.920	1328
885.984	1222
886.000	1370
886.080	2003
886.089	2084
886.160	1923
886.195	1814
886.240	1673
886.300	1425
886.320	1440
886.400	1660
886.406	1654
886.480	1039
886.511	851
886.560	1038
886.616	1336
886.640	1285
886.720	1187
886.722	1175
886.800	1047
886.827	1212
886.879	1454
886.932	1313
886.959	1328
887.038	1834
887.039	1832
887.119	1239
887.143	1173
887.198	1326
887.248	1561
887.278	1767
887.354	1950
887.358	1922
887.437	1240
887.459	1176
887.517	1606
887.564	1663
887.596	1281
887.669	582
887.676	610
887.755	974
887.774	1086
887.835	849
887.880	667
887.914	798
887.985	891
887.994	989
888.073	2059
888.090	2259
888.153	2044
888.195	1800
888.232	1532
888.300	1252
888.311	1224
888.391	928
888.405	872
888.470	1215
888.510	1441
888.549	1161
888.615	731
888.628	784
888.708	1059
888.720	1101
888.787	1480
888.825	1691
888.866	883
888.930	-371
888.945	-218
889.024	653
889.035	779
889.103	1040
889.140	1119
889.182	1190
889.245	1381
889.261	1391
889.340	1410
889.349	1411
889.419	1030
889.454	849
889.498	905
889.559	997
889.577	1223
889.656	2216
889.664	2316
889.735	1931
889.768	1745
889.814	1886
889.873	2069
889.978	694
890.083	2595
890.187	1439
890.292	2272
890.397	1292
890.501	1072
890.606	721
890.710	982
890.815	1385
890.919	1133
891.024	1619
891.128	963
891.233	824
891.337	1759
891.442	950
891.546	739
891.650	559
891.755	885
891.859	2156
891.963	1873
892.068	1347
892.172	578
892.276	170
892.380	1085
892.484	1722
892.589	1185
892.693	759
892.797	432
892.901	187
893.005	821
893.109	1707
893.213	1313
893.317	1473
893.421	1367
893.525	339
893.629	845
893.733	941
893.837	1392
893.941	692
894.045	888
894.148	369
894.252	1307
894.356	984
894.460	2111
894.564	1241
894.667	947
894.771	-96
894.875	294
894.978	542
895.082	869
895.186	942
895.289	1213
895.393	1293
895.496	979
895.600	736
895.703	675
895.807	888
895.910	1023
896.014	634
896.117	1436
896.221	575
896.324	866
896.427	33
896.531	350
896.634	332
896.737	705
896.840	516
896.944	1260
897.047	1323
897.150	1690
897.253	151
897.356	628
897.460	-290
897.563	748
897.666	1362
897.769	1114
897.872	361
897.975	677
898.078	333
898.181	362
898.284	337
898.387	1153
898.490	994
898.593	445
898.695	807
898.798	556
898.901	94
899.004	543
899.107	542
899.209	217
899.312	720
899.415	769
899.518	-773
899.620	406
899.723	292
899.826	1272
899.928	-10
900.031	1065
900.133	551
900.236	458
900.338	-85
900.441	172
900.543	682
900.646	527
900.748	-176
900.851	1485
900.953	-48
901.055	709
901.158	217
901.260	511
901.362	-260
901.465	616
901.567	831
901.669	966
901.771	262
901.873	1135
901.976	749
902.078	920
902.180	230
902.282	882
902.384	521
902.486	1171
902.588	-80
902.690	398
902.792	-186
902.894	369
902.996	998
903.098	448
903.200	-307
903.302	250
903.404	-30
903.505	642
903.607	93
903.709	1652
903.811	1212
903.913	1033
904.014	20
904.116	251
904.218	261
904.319	995
904.421	1009
904.523	2006
904.624	695
904.726	232
904.827	-316
904.929	906
905.030	745
905.132	1180
905.233	206
905.335	-381
905.436	256
905.537	865
905.639	260
905.740	290
905.841	-301
905.943	943
906.044	792
906.145	463
906.247	-446
906.348	790
906.449	428
906.550	948
906.651	1028
906.752	846
906.854	-272
906.955	-514
907.056	296
907.157	438
907.258	799
907.359	187
907.460	16
907.561	357
907.662	220
907.762	248
907.863	293
907.964	1557
908.065	-60
908.166	766
908.267	234
908.367	-721
908.468	653
908.569	687
908.670	1021
908.770	1005
908.871	824
908.971	119
909.072	-302
909.173	-269
909.273	-130
909.374	955
909.474	69
909.575	658
909.675	-200
909.776	-11
909.876	-85
909.977	-9
910.077	228
910.177	510
910.278	-14
910.378	434
910.478	193
910.579	386
910.679	575
910.779	924
910.879	-350
910.980	365
911.080	433
911.180	419
911.280	315
911.380	184
911.480	223
911.580	-52
911.680	-292
911.780	737
911.880	857
911.980	67
912.080	-251
912.180	282
912.280	731
912.380	470
912.480	-65
912.580	579
912.679	-289
912.779	1593
912.879	1023
912.979	352
913.078	-822
913.178	561
913.278	137
913.377	28
913.477	-54
913.577	92
913.676	1196
913.776	644
913.875	-480
913.975	623
914.074	-277
914.174	558
914.273	-588
914.373	650
914.472	-58
914.572	56
914.671	497
914.770	331
914.870	-301
914.969	221
915.068	130
915.167	850
915.267	-643
915.366	465
915.465	41
915.564	33
915.663	89
915.763	918
915.862	206
915.961	573
916.060	238
916.159	-330
916.258	-233
916.357	-59
916.456	819
916.555	274
916.654	150
916.752	1265
916.851	-207
916.950	410
917.049	25
917.148	-307
917.247	129
917.345	468
917.444	-528
917.543	930
917.642	-223
917.740	429
917.839	1056
917.937	1904
918.036	737
918.135	903
918.233	84
918.332	-11
918.430	-212
918.529	598
918.627	195
918.726	106
918.824	-551
918.923	983
919.021	395
919.119	189
919.218	532
919.316	169
919.414	475
919.512	522
919.611	303
919.709	694
919.807	487
919.905	1140
920.003	292
920.102	806
920.200	304
920.298	966
920.396	458
920.494	605
920.592	435
920.690	883
920.788	-178
920.886	557
920.984	983
921.082	1051
921.180	1583
921.277	1315
921.375	1431
921.473	2843
921.571	964
921.669	1693
921.766	1116
921.864	2182
921.962	1553
922.060	1344
922.157	524
922.255	1730
922.352	1542
922.450	2313
922.548	2314
922.645	2342
922.743	3235
922.840	5390
922.938	6315
923.035	5577
923.133	5772
923.230	6572
923.327	7154
923.425	6753
923.522	6636
923.619	7233
923.717	5529
923.814	6443
923.911	5189
924.008	6183
924.106	5342
924.203	5307
924.300	4880
924.397	6226
924.494	5658
924.591	4868
924.688	5264
924.786	5459
924.883	5432
924.979	5073
925.077	4733
925.173	4305
925.270	4948
925.367	4878
925.464	4681
925.561	5216
925.658	5516
925.755	5008
925.852	5390
925.948	5096
926.045	4596
926.142	5837
926.239	5003
926.335	4327
926.432	5961
926.529	5731
926.625	5371
926.722	4671
926.818	5652
926.915	5114
927.011	4540
927.108	4912
927.204	5006
927.301	4462
927.397	5457
927.494	5244
927.590	3356
927.687	5275
927.783	5516
927.879	5396
927.976	3598
928.072	3417
928.168	4302
928.264	4914
928.361	4481
928.457	5460
928.553	3802
928.649	4741
928.745	4466
928.841	5141
928.937	4191
929.033	4032
929.129	3931
929.225	5477
929.321	3140
929.417	3647
929.513	4781
929.609	3807
929.705	3304
929.801	4489
929.897	3564
929.993	3623
930.089	3339
930.184	3714
930.280	4298
930.376	4781
930.471	3640
930.567	3745
930.663	3210
930.758	3353
930.854	3284
930.950	3848
931.045	2406
931.141	4585
931.236	4340
931.332	3669
931.427	2814
931.523	4345
931.618	3484
931.714	2666
931.809	3957
931.905	3933
932.000	1897
932.095	2476
932.191	4652
932.286	4565
932.381	3375
932.476	2667
932.572	2982
932.667	3394
932.762	2897
932.857	2954
932.952	3029
933.047	3539
933.142	2339
933.237	3682
933.332	3428
933.427	4370
933.522	2187
933.617	3234
933.712	3121
933.807	4093
933.902	3622
933.997	4212
934.092	2591
934.187	3462
934.282	2111
934.376	4177
934.471	3137
934.566	2490
934.661	2273
934.755	3540
934.850	3458
934.945	2875
935.039	2437
935.134	2513
935.228	3579
935.323	4730
935.417	3059
935.512	2294
935.606	1555
935.701	3105
935.795	3343
935.890	2881
935.984	1670
936.079	2330
936.173	2060
936.267	2713
936.362	2265
936.456	2697
936.550	3823
936.644	3600
936.738	1648
936.833	1396
936.927	1934
937.021	1683
937.115	2499
937.209	2362
937.303	3222
937.397	2006
937.491	1798
937.585	2748
937.679	2739
937.773	2373
937.867	1579
937.961	2225
938.055	2521
938.149	3094
938.243	1099
938.337	1268
938.430	2061
938.524	3142
938.618	2910
938.712	2174
938.805	2185
938.899	3548
938.993	3052
939.086	2950
939.180	2301
939.274	2669
939.367	2923
939.461	3304
939.554	2478
939.648	1935
939.741	1381
939.835	2516
939.928	2847
940.022	2485
940.115	1402
940.208	2604
940.302	2720
940.395	3444
940.488	1263
940.582	2026
940.675	926
940.768	2068
940.861	2519
940.954	2771
941.048	680
941.141	1466
941.234	1697
941.327	1770
941.420	2745
941.513	2688
941.606	1101
941.699	2849
941.792	2097
941.885	2339
941.978	2118
942.071	1903
942.164	656
942.257	1346
942.349	2193
942.442	1899
942.535	1161
942.628	1707
942.721	1164
942.813	1456
942.906	2889
942.999	1892
943.091	1396
943.184	1584
943.277	1072
943.369	1819
943.462	869
943.554	2284
943.647	777
943.739	2813
943.832	2081
943.924	407
944.017	1291
944.109	785
944.201	1787
944.294	1657
944.386	2048
944.478	1352
944.571	949
944.663	735
944.755	913
944.847	1702
944.940	2574
945.032	85
945.124	976
945.216	1996
945.308	1318
945.400	1792
945.492	2101
945.584	1763
945.676	2032
945.768	1881
945.860	1221
945.952	2173
946.044	1762
946.136	703
946.228	832
946.320	1509
946.412	1155
946.503	2216
946.595	2190
946.687	962
946.779	991
946.870	1036
946.962	899
947.054	1845
947.145	2332
947.237	1529
947.329	1433
947.420	1153
947.512	1299
947.603	848
947.695	1300
947.786	297
947.878	696
947.969	1332
948.061	1643
948.152	1663
948.243	919
948.335	1170
948.426	492
948.517	1807
948.609	529
948.700	1210
948.791	525
948.882	1063
948.973	845
949.065	1153
949.156	548
949.247	617
949.338	1578
949.429	402
949.520	590
949.611	510
949.702	703
949.793	837
949.884	642
949.975	-5
950.066	720
950.157	972
950.247	545
950.338	334
950.429	217
950.520	1365
950.611	1359
950.701	835
950.792	1184
950.883	1101
950.973	937
951.064	1333
951.155	827
951.245	1699
951.336	857
951.427	957
951.517	2131
951.608	1959
951.698	947
951.788	840
951.879	-56
951.969	623
952.060	757
952.150	1357
952.240	1436
952.331	777
952.421	1931
952.511	345
952.602	-139
952.692	819
952.782	913
952.872	831
952.962	1206
953.052	1408
953.143	-306
953.233	-31
953.323	858
953.413	849
953.503	658
953.593	241
953.683	334
953.773	74
953.863	421
953.953	581
954.042	531
954.132	940
954.222	1629
954.312	403
954.402	448
954.492	868
954.581	1420
954.671	459
954.761	1140
954.850	1907
954.940	-261
955.030	-4
955.119	-331
955.209	652
955.298	1440
955.388	938
955.477	1877
955.567	544
955.656	245
955.746	673
955.835	416
955.925	394
956.014	701
956.103	1706
956.193	1240
956.282	1507
956.371	554
956.461	622
956.550	615
956.639	784
956.728	136
956.817	1020
956.906	296
956.995	1607
957.085	-44
957.174	502
957.263	446
957.352	634
957.441	491
957.530	609
957.619	-565
957.708	629
957.796	324
957.885	996
957.974	498
958.063	1015
958.152	-1154
958.241	223
958.329	186
958.418	389
958.507	-314
958.596	1611
958.684	-112
958.773	1152
958.861	-36
958.950	868
959.039	172
959.127	367
959.216	337
959.304	363
959.393	-131
959.481	-432
959.570	-219
959.658	231
959.746	-571
959.835	432
959.923	53
960.011	84
960.100	886
960.188	1242
960.276	23
960.365	-360
960.453	249
960.541	-390
960.629	155
960.717	-247
960.805	-791
960.893	1085
960.981	-746
961.069	968
961.158	1143
961.245	2134
961.333	292
961.421	256
961.509	936
961.597	375
961.685	303
961.773	386
961.861	-332
961.949	1098
962.036	-406
962.124	840
962.212	77
962.299	-877
962.387	-397
962.475	26
962.562	-849
962.650	703
962.738	-409
962.825	83
962.913	933
963.000	454
963.088	302
963.175	-153
963.263	304
963.350	644
963.438	-824
963.525	-174
963.612	-83
963.700	-265
963.787	679
963.874	-112
963.962	300
964.049	207
964.136	-701
964.223	-170
964.310	455
964.398	-466
964.485	-850
964.572	-123
964.659	-351
964.746	373
964.833	-786
964.920	90
965.007	533
965.094	-291
965.181	-242
965.268	327
965.355	-25
965.441	-19
965.528	-1429
965.615	308
965.702	-375
965.789	248
965.875	555
965.962	197
966.049	-1297
966.136	759
966.222	12
966.309	556
966.395	278
966.482	753
966.569	-489
966.655	340
966.742	305
966.828	1536
966.915	-774
967.001	-60
967.087	-988
967.174	-353
967.260	-352
967.347	138
967.433	-578
967.519	490
967.605	-726
967.692	102
967.778	297
967.864	209
967.950	197
968.036	-899
968.123	371
968.209	-170
968.295	-961
968.381	1142
968.467	-1059
968.553	-1239
968.639	36
968.725	-674
968.811	320
968.897	-218
968.983	-558
969.069	-952
969.154	18
969.240	787
969.326	-25
969.412	-995
969.497	-770
969.583	-343
969.669	177
969.755	200
969.840	-685
969.926	1021
970.012	516
970.097	1656
970.183	94
970.268	210
970.354	-123
970.439	-311
970.525	432
970.610	-852
970.696	789
970.781	59
970.866	-2436
970.952	505
971.037	-26
971.122	198
971.208	-191
971.293	706
971.378	-969
971.463	123
971.549	408
971.634	241
971.719	-10
971.804	-465
971.889	368
971.974	-192
972.059	-399
972.144	165
972.229	-155
972.314	-94
972.399	-598
972.484	568
972.569	-246
972.654	-382
972.739	32
972.824	-1231
972.908	-845
972.993	-1401
973.078	-752
973.163	-75
973.247	49
973.332	-1187
973.417	746
973.501	-903
973.586	709
973.671	-274
973.755	-447
973.840	145
973.924	868
974.009	908
974.093	-351
974.178	1066
974.262	-347
974.346	-478
974.431	148
974.515	-67
974.600	376
974.684	318
974.768	-827
974.852	-144
974.937	-919
975.021	291
975.105	-390
975.189	-418
975.273	641
975.358	-1731
975.442	-330
975.526	895
975.610	-676
975.694	-857
975.778	1238
975.862	226
975.946	-2194
976.030	1185
976.114	-1341
976.198	-256
976.281	-362
976.365	777
976.449	-738
976.533	301
976.617	-670
976.700	299
976.784	-719
976.868	-261
976.951	-66
977.035	-556
977.119	-1026
977.202	-412
977.286	-10
977.369	347
977.453	1249
977.536	442
977.620	-513
977.703	1071
977.787	-881
977.870	934
977.953	559
978.037	85
978.120	385
978.203	-771
978.287	628
978.370	36
978.453	-411
978.536	260
978.620	-152
978.703	-258
978.786	-1063
978.869	-276
978.952	-1553
979.035	487
979.118	132
979.201	-796
979.284	783
979.367	-615
979.450	414
979.533	89
979.616	-545
979.699	-210
979.782	88
979.865	123
979.948	-73
980.030	-553
980.113	1011
980.196	-1566
980.279	-116
980.361	425
980.444	-384
980.526	246
980.609	1475
980.692	1317
980.774	1095
980.857	-391
980.939	768
981.022	-298
981.104	-252
981.187	480
981.269	-334
981.352	77
981.434	-462
981.516	-577
981.599	741
981.681	369
981.763	1011
981.846	620
981.928	-194
982.010	-492
982.092	-613
982.174	-135
982.256	412
982.339	-131
982.421	470
982.503	196
982.585	-541
982.667	-173
982.749	163
982.831	-496
982.913	-933
982.995	665
983.077	-726
983.158	690
983.240	-770
983.322	1818
983.404	852
983.486	456
983.568	870
983.649	602
983.731	755
983.813	96
983.894	461
983.976	962
984.058	32
984.139	1447
984.221	-185
984.302	1049
984.384	328
984.465	-178
984.547	-645
984.628	-96
984.710	776
984.791	593
984.872	394
984.954	-558
985.035	475
985.116	469
985.198	-28
985.279	1839
985.360	-16
985.441	-229
985.522	789
985.604	343
985.685	-1299
985.766	1916
985.847	1130
985.928	405
986.009	497
986.090	-298
986.171	1089
986.252	384
986.333	-194
986.414	331
986.495	140
986.576	1055
986.656	88
986.737	1263
986.818	324
986.899	126
986.980	-110
987.060	1983
987.141	261
987.222	1220
987.302	752
987.383	1144
987.464	760
987.544	770
987.625	691
987.705	1401
987.786	409
987.866	1621
987.947	616
988.027	860
988.108	626
988.188	1349
988.268	642
988.349	1258
988.429	-47
988.509	1292
988.589	457
988.670	-839
988.750	969
988.830	492
988.910	1381
988.990	715
989.070	109
989.151	352
989.231	-446
989.311	1203
989.391	735
989.471	392
989.551	201
989.631	369
989.711	1299
989.791	364
989.870	-561
989.950	944
990.030	224
990.110	377
990.190	-620
990.269	643
990.349	-297
990.429	585
990.509	593
990.588	90
990.668	298
990.747	-293
990.827	-157
990.907	460
990.986	-485
991.066	731
991.145	-233
991.225	829
991.304	-260
991.383	947
991.463	-357
991.542	198
991.622	64
991.701	100
991.780	-518
991.859	39
991.939	680
992.018	416
992.097	-434
992.176	-374
992.256	-18
992.335	-174
992.414	535
992.493	-357
992.572	-355
992.651	1145
992.730	318
992.809	-433
992.888	-1087
992.967	-397
993.046	-53
993.125	-899
993.203	-710
993.282	585
993.361	-819
993.440	792
993.519	-1636
993.597	-340
993.676	-846
993.755	239
993.834	-257
993.912	-599
993.991	654
994.069	-301
994.148	115
994.226	-874
994.305	-215
994.384	-1355
994.462	61
994.540	-829
994.619	-780
994.697	576
994.776	-1092
994.854	25
994.932	-1627
995.011	-431
995.089	-1524
995.167	-519
995.245	-303
995.324	-466
995.402	222
995.480	-22
995.558	-103
995.636	-960
995.714	-1073
995.792	265
995.870	-856
995.948	-843
996.026	-938
996.104	-1711
996.182	271
996.260	-1245
996.338	-589
996.416	-1040
996.494	-1183
996.572	646
996.649	-847
996.727	-1564
996.805	-965
996.883	-149
996.960	-868
997.038	-507
997.116	143
997.193	-626
997.271	-657
997.348	-1141
997.426	-501
997.504	-1015
997.581	-402
997.658	-885
997.736	-1775
997.813	-694
997.891	26
997.968	-1092
998.046	-762
998.123	-592
998.200	-706
998.277	-928
998.355	-1053
998.432	-1194
998.509	-1843
998.586	-285
998.663	-284
998.741	-581
998.818	-642
998.895	197
998.972	-254
999.049	-903
999.126	-525
999.203	-395
999.280	-911
999.357	-921
999.434	-1248
999.511	-111
999.587	-923
999.664	-1480
999.741	-728
999.818	-201
999.895	-938
999.971	-1325
1000.048	-1979
1000.125	-841
1000.202	-1809
1000.278	-731
1000.355	-1008
1000.431	-883
1000.508	-2149
1000.584	-1036
1000.661	-1139
1000.738	-326
1000.814	-1288
1000.890	-610
1000.967	-1378
1001.043	-685
1001.120	-1413
1001.196	-509
1001.272	-1980
1001.349	-141
1001.425	-1249
1001.501	-1049
1001.577	-1656
1001.654	-482
1001.730	-1652
1001.806	-746
1001.882	-1646
1001.958	-615
1002.034	-887
1002.110	-239
1002.186	-2394
1002.262	-1347
1002.338	-1986
1002.414	-1142
1002.490	-1632
1002.566	-1342
1002.642	-2108
1002.718	-366
1002.794	-1587
1002.870	-1714
1002.945	-1331
1003.021	-1003
1003.097	-1148
1003.173	-1168
1003.248	-1021
1003.324	-1408
1003.400	-1081
1003.475	-1409
1003.551	-1302
1003.626	-1444
1003.702	-1959
1003.777	-902
1003.853	-1749
1003.928	-2217
1004.004	-1045
1004.079	-509
1004.155	-1387
1004.230	-1691
1004.305	-164
1004.381	-1111
1004.456	-1445
1004.531	-1647
1004.607	-1407
1004.682	-665
1004.757	-1364
1004.832	-1216
1004.907	-1414
1004.982	-1435
1005.057	-1301
1005.133	-1323
1005.208	-1420
1005.283	-1228
1005.358	-1290
1005.433	-1725
1005.508	-1815
1005.583	-1419
1005.657	-1625
1005.732	-1089
1005.807	-1314
1005.882	-967
1005.957	-2317
1006.032	-777
1006.106	-1282
1006.181	-1258
1006.256	-552
1006.331	-2015
1006.405	-1793
1006.480	-1212
1006.554	-1841
1006.629	-888
1006.704	-1581
1006.778	-1434
1006.853	-729
1006.927	-1122
1007.002	-2151
1007.076	-588
1007.150	-1901
1007.225	-1260
1007.299	-1306
1007.373	-1995
1007.448	-1545
1007.522	-523
1007.596	-1680
1007.671	-1148
1007.745	-1153
1007.819	-1762
1007.893	-1321
1007.967	-730
1008.041	-2065
1008.115	-623
1008.190	-2064
1008.264	-1076
1008.338	-2195
1008.412	-666
1008.486	-2301
1008.560	-1130
1008.633	-2383
1008.707	-306
1008.781	-1401
1008.855	-1054
1008.929	-1254
1009.003	-1663
1009.076	-1915
1009.150	-1372
1009.224	-1923
1009.298	-1658
1009.371	-1812
1009.445	-605
1009.519	-1349
1009.592	-1682
1009.666	-1785
1009.739	-1323
1009.813	-2624
1009.886	-8
1009.960	-2374
1010.033	-1703
1010.107	-1199
1010.180	-2268
1010.253	-1687
1010.327	-2108
1010.400	-1355
1010.473	-1166
1010.547	-1188
1010.620	-2003
1010.693	-1823
1010.766	-2313
1010.840	-958
1010.913	-1724
1010.986	-2226
1011.059	-1403
1011.132	-2059
1011.205	-1103
1011.278	-922
1011.351	-1537
1011.424	-834
1011.497	-1986
1011.570	-1827
1011.643	-1930
1011.716	-1749
1011.789	-747
1011.862	-1716
1011.934	-1004
1012.007	-1509
1012.080	-1202
1012.153	-1502
1012.225	-215
1012.298	-1843
1012.371	-1730
1012.443	-1075
1012.516	-2048
1012.588	-1675
1012.661	-1112
1012.733	-2443
1012.806	-484
1012.879	-1223
1012.951	-1069
1013.023	-985
1013.096	-1703
1013.168	-2184
1013.241	197
1013.313	-1251
1013.385	-1607
1013.458	-1482
1013.530	-876
1013.602	-1888
1013.674	-1005
1013.746	-2136
1013.819	-1455
1013.891	-1539
1013.963	-1367
1014.035	-1524
1014.107	-1228
1014.179	-881
1014.251	-1778
1014.323	-1631
1014.395	-1216
1014.467	-2125
1014.539	-1369
1014.611	-2871
1014.683	-1327
1014.754	-1511
1014.826	-2027
1014.898	-772
1014.970	-1988
1015.042	-827
1015.113	-1658
1015.185	-1733
1015.257	-2040
1015.328	-1736
1015.400	-1466
1015.471	-2064
1015.543	-2020
1015.615	-2339
1015.686	-1108
1015.757	-2430
1015.829	-1299
1015.901	-1841
1015.972	-1516
1016.043	-1561
1016.115	-1407
1016.186	-1571
1016.257	-2243
1016.328	-1306
1016.400	-747
1016.471	-1723
1016.542	-784
1016.613	-1658
1016.685	-993
1016.756	-1339
1016.827	-1456
1016.898	-1702
1016.969	-984
1017.040	-1786
1017.111	-2189
1017.182	-1243
1017.253	-1591
1017.324	-1850
1017.395	-1237
1017.466	-1421
1017.537	-717
1017.608	-1946
1017.678	-1105
1017.749	-1649
1017.820	-1285
1017.891	-1673
1017.961	-1719
1018.032	-1748
1018.103	-949
1018.173	-1199
1018.244	-1335
1018.315	-1497
1018.385	-601
1018.456	-2011
1018.526	-1668
1018.597	-1160
1018.667	-776
1018.738	-2425
1018.808	-1646
1018.878	-2345
1018.949	-1719
1019.019	-1346
1019.089	-1030
1019.160	-967
1019.230	-1823
1019.300	-1244
1019.371	-2330
1019.441	-1080
1019.511	-1387
1019.581	-1839
1019.651	-1547
1019.721	-1844
1019.791	-1678
1019.861	-1868
1019.931	-1569
1020.001	-1596
1020.071	-1082
1020.141	-1719
1020.211	-1918
1020.281	-1703
1020.351	-1797
1020.421	-1559
1020.491	-987
1020.560	-1814
1020.630	-942
1020.700	-1512
1020.770	-1516
1020.839	-1898
1020.909	-888
1020.979	-1755
1021.048	-2148
1021.118	-1881
1021.187	-1720
1021.257	-1719
1021.326	-1838
1021.396	-2009
1021.465	-1252
1021.535	-2246
1021.604	-2147
1021.674	-2390
1021.743	-1121
1021.812	-2847
1021.882	-1531
1021.951	-1933
1022.020	-2109
1022.089	-1545
1022.159	-1136
1022.228	-2119
1022.297	-2445
1022.366	-2208
1022.435	-1289
1022.504	-1841
1022.573	-1999
1022.642	-1851
1022.711	-1820
1022.781	-823
1022.849	-1846
1022.918	-1755
1022.987	-1280
1023.056	-1930
1023.125	-1545
1023.194	-1498
1023.263	-1432
1023.331	-1420
1023.400	-2028
1023.469	-1940
1023.538	-1591
1023.606	-1664
1023.675	-1586
1023.744	-1868
1023.812	-2091
1023.881	-1612
1023.949	-1489
1024.018	-1998
1024.086	-1980
1024.155	-1632
1024.223	-1884
1024.292	-1728
1024.360	-1502
1024.429	-1661
1024.497	-2734
1024.565	-1932
1024.634	-1885
1024.702	-1996
1024.770	-1261
1024.838	-2863
1024.907	-1593
1024.975	-1994
1025.043	-1676
1025.111	-2890
1025.179	-2091
1025.247	-1457
1025.315	-1942
1025.383	-2742
1025.451	-1826
1025.519	-2819
1025.587	-1265
1025.655	-1785
1025.723	-1683
1025.791	-2200
1025.859	-1077
1025.927	-2271
1025.995	-2301
1026.062	-3044
1026.130	-2301
1026.198	-2074
1026.266	-1626
1026.333	-1616
1026.401	-2086
1026.469	-2741
1026.536	-2332
1026.604	-2593
1026.671	-2476
1026.739	-3219
1026.806	-1965
1026.874	-2209
1026.941	-1606
1027.009	-2231
1027.076	-2066
1027.144	-1045
1027.211	-2355
1027.278	-2359
1027.345	-2581
1027.413	-2556
1027.480	-1984
1027.547	-2097
1027.614	-1857
1027.682	-2017
1027.749	-2289
1027.816	-2611
1027.883	-1739
1027.950	-2449
1028.017	-2301
1028.084	-2281
1028.151	-1888
1028.218	-1225
1028.285	-1479
1028.352	-2919
1028.419	-1796
1028.486	-2900
1028.553	-1456
1028.619	-2265
1028.686	-2297
1028.753	-2263
1028.820	-1617
1028.886	-2303
1028.953	-1726
1029.020	-2000
1029.086	-2024
1029.153	-2119
1029.220	-2469
1029.286	-1636
1029.353	-907
1029.419	-2670
1029.486	-2571
1029.552	-2104
1029.619	-2078
1029.685	-2812
1029.751	-2627
1029.818	-2177
1029.884	-1856
1029.951	-1149
1030.017	-2286
1030.083	-2919
1030.149	-2722
1030.216	-2375
1030.282	-1759
1030.348	-2436
1030.414	-3348
1030.480	-2775
1030.546	-1698
1030.612	-2607
1030.678	-2624
1030.744	-1930
1030.810	-1929
1030.876	-2539
1030.942	-2174
1031.008	-2915
1031.074	-1887
1031.140	-1983
1031.206	-1660
1031.272	-2529
1031.337	-2065
1031.403	-2348
1031.469	-2170
1031.534	-2445
1031.600	-1660
1031.666	-2925
1031.731	-2565
1031.797	-2492
1031.863	-2228
1031.928	-3238
1031.994	-2063
1032.059	-1751
1032.125	-2756
1032.190	-3516
1032.256	-2511
1032.321	-3097
1032.386	-2101
1032.452	-1446
1032.517	-2831
1032.582	-2501
1032.647	-2376
1032.713	-2982
1032.778	-2053
1032.843	-2332
1032.908	-2616
1032.974	-2480
1033.039	-2123
1033.104	-2975
1033.169	-1883
1033.234	-2344
1033.299	-1522
1033.364	-2425
1033.429	-2742
1033.494	-1683
1033.559	-2673
1033.624	-2397
1033.688	-2023
1033.753	-3233
1033.818	-2280
1033.883	-2767
1033.948	-2045
1034.013	-1760
1034.077	-2307
1034.142	-1093
1034.207	-1683
1034.271	-1040
1034.336	-669
1034.400	-683
1034.465	-1918
1034.530	-2003
1034.594	-2458
1034.658	-2555
1034.723	-3272
1034.787	-2228
1034.852	-1867
1034.916	-2485
1034.981	-2471
1035.045	-2641
1035.109	-2655
1035.173	-1668
1035.238	-2102
1035.302	-2470
1035.366	-2659
1035.430	-3142
1035.495	-2105
1035.559	-2246
1035.623	-2278
1035.687	-2333
1035.751	-2731
1035.815	-2312
1035.879	-2331
1035.943	-2474
1036.007	-2796
1036.071	-2459
1036.135	-2268
1036.198	-2106
1036.262	-2639
1036.326	-2095
1036.390	-1942
1036.454	-2374
1036.517	-1791
1036.581	-2855
1036.645	-1922
1036.709	-2113
1036.772	-2602
1036.836	-2680
1036.900	-2288
1036.963	-2515
1037.026	-2053
1037.090	-2980
1037.154	-2310
1037.217	-2668
1037.280	-1579
1037.344	-2825
1037.407	-2517
1037.471	-2286
1037.534	-2107
1037.597	-2432
1037.661	-1699
1037.724	-3187
1037.787	-2483
1037.850	-2495
1037.913	-2435
1037.977	-1393
1038.040	-1815
1038.103	-2708
1038.166	-2460
1038.229	-2690
1038.292	-2330
1038.355	-2209
1038.418	-2054
1038.481	-2356
1038.544	-2934
1038.607	-3193
1038.670	-1562
1038.732	-2283
1038.795	-2010
1038.858	-3059
1038.921	-1737
1038.984	-1999
1039.046	-3086
1039.109	-2312
1039.172	-2656
1039.234	-3066
1039.297	-1877
1039.360	-1932
1039.422	-1841
1039.485	-2455
1039.547	-3144
1039.610	-1819
1039.672	-2193
1039.734	-2081
1039.797	-1723
1039.859	-3454
1039.922	-2158
1039.984	-2139
1040.046	-1593
1040.109	-2985
1040.171	-2112
1040.233	-2365
1040.295	-2065
1040.358	-2017
1040.420	-2032
1040.482	-2747
1040.544	-2412
1040.606	-2746
1040.668	-2220
1040.730	-2628
1040.792	-2002
1040.854	-2710
1040.916	-2281
1040.978	-2880
1041.040	-2211
1041.102	-2207
1041.164	-2453
1041.225	-2243
1041.287	-1882
1041.349	-2058
1041.411	-1620
1041.472	-2887
1041.534	-1860
1041.596	-2614
1041.657	-1923
1041.719	-1911
1041.781	-2806
1041.842	-2890
1041.904	-2060
1041.965	-1912
1042.027	-1988
1042.088	-1922
1042.150	-1603
1042.211	-2906
1042.272	-2324
1042.334	-2374
1042.395	-1812
1042.456	-2520
1042.518	-2510
1042.579	-2096
1042.640	-2338
1042.701	-2409
1042.763	-2402
1042.824	-2523
1042.885	-2163
1042.946	-2266
1043.007	-2821
1043.068	-2529
1043.129	-2313
1043.190	-1465
1043.251	-2206
1043.312	-2424
1043.373	-1565
1043.434	-1738
1043.495	-2452
1043.556	-1320
1043.616	-2355
1043.677	-2485
1043.738	-2233
1043.799	-2918
1043.859	-2393
1043.920	-1612
1043.981	-1595
1044.041	-2443
1044.102	-2739
1044.162	-1603
1044.223	-2837
1044.284	-2338
1044.344	-1133
1044.405	-1346
1044.465	-1786
1044.525	-2038
1044.586	-2426
1044.646	-3183
1044.707	-1975
1044.767	-1978
1044.827	-2951
1044.887	-2631
1044.948	-1576
1045.008	-1937
1045.068	-2360
1045.128	-1639
1045.188	-1671
1045.249	-1929
1045.309	-1310
1045.369	-2570
1045.429	-1766
1045.489	-1676
1045.549	-1637
1045.609	-1735
1045.669	-2011
1045.729	-2241
1045.789	-2213
1045.848	-1791
1045.908	-1121
1045.968	-1205
1046.028	-1472
1046.088	-1182
1046.147	-1079
1046.207	-2154
1046.267	-1151
1046.326	-1864
1046.386	-1822
1046.446	-965
1046.505	-1045
1046.565	-1275
1046.624	-948
1046.684	-1573
1046.743	-1012
1046.803	-994
1046.862	-658
1046.922	0
