'Start Wavelength	183.907
'End Wavelength	1046.922
'Gate Delay	5.000
'Gate Width (ms)	1.050
'Laser Output Level	0.000
'X Position	0.000
'Y Position	0.000
'Z Position	0.000
'Grid Point Number	1.000
'Shot Number	100.000
183.907	567.000
183.977	633.000
184.047	567
184.116	1168
184.186	-302
184.256	-64
184.325	300
184.395	-115
184.465	-50
184.534	-253
184.604	-657
184.674	274
184.743	-470
184.813	-438
184.883	-214
184.952	-5
185.022	442
185.092	110
185.161	-305
185.231	-609
185.301	59
185.370	-2
185.440	-515
185.509	-382
185.579	149
185.649	-675
185.718	293
185.788	385
185.857	-70
185.927	513
185.996	104
186.066	47
186.136	50
186.205	-352
186.275	-243
186.344	63
186.414	224
186.483	45
186.553	1064
186.622	1374
186.692	522
186.761	279
186.831	-261
186.900	-13
186.970	18
187.039	-279
187.109	9
187.178	38
187.248	-193
187.317	736
187.387	-179
187.456	464
187.526	-683
187.595	235
187.664	-847
187.734	852
187.803	-370
187.873	29
187.942	364
188.012	34
188.081	-37
188.150	234
188.220	371
188.289	897
188.358	931
188.428	793
188.497	-65
188.567	730
188.636	-48
188.705	-86
188.775	-134
188.844	-607
188.913	139
188.983	-211
189.052	-527
189.121	320
189.191	-393
189.260	269
189.329	141
189.399	238
189.468	456
189.537	128
189.606	316
189.676	-126
189.745	-439
189.814	-398
189.883	429
189.953	-228
190.022	-282
190.091	429
190.161	-99
190.230	727
190.299	28
190.368	-693
190.437	73
190.507	-51
190.576	-228
190.645	-99
190.714	146
190.783	-240
190.853	153
190.922	619
190.991	-429
191.060	179
191.129	-810
191.198	940
191.268	-381
191.337	624
191.406	-159
191.475	-7
191.544	448
191.613	606
191.682	-119
191.752	-145
191.821	215
191.890	364
191.959	74
192.028	391
192.097	-523
192.166	922
192.235	223
192.304	136
192.373	-132
192.442	-725
192.511	-151
192.580	982
192.650	373
192.719	-249
192.788	-352
192.857	-424
192.926	-495
192.995	340
193.064	176
193.133	-279
193.202	-96
193.271	-401
193.340	111
193.409	-23
193.478	-23
193.547	98
193.615	-233
193.684	270
193.753	-670
193.822	241
193.891	-166
193.960	614
194.029	-369
194.098	694
194.167	-326
194.236	244
194.305	378
194.374	-363
194.443	420
194.512	492
194.580	430
194.649	508
194.718	-686
194.787	-19
194.856	-1462
194.925	1065
194.994	-718
195.062	157
195.131	574
195.200	411
195.269	-306
195.338	-98
195.407	1090
195.475	-512
195.544	-176
195.613	-420
195.682	-120
195.751	-151
195.819	106
195.888	279
195.957	308
196.026	-128
196.094	123
196.163	-298
196.232	38
196.301	-323
196.369	-418
196.438	419
196.507	-725
196.576	-193
196.644	-609
196.713	-255
196.782	-553
196.850	440
196.919	85
196.988	262
197.056	-892
197.125	-228
197.194	78
197.262	-11
197.331	-112
197.400	-321
197.468	-381
197.537	26
197.606	-660
197.674	208
197.743	-312
197.812	-208
197.880	-18
197.949	-765
198.017	-88
198.086	-109
198.155	-782
198.223	62
198.292	106
198.360	11
198.429	-472
198.497	-455
198.566	-106
198.635	-403
198.703	-944
198.772	289
198.840	198
198.909	-339
198.977	-70
199.046	122
199.114	91
199.183	-225
199.251	-328
199.320	-44
199.388	-310
199.457	451
199.525	-440
199.594	189
199.662	25
199.731	-356
199.799	-69
199.867	101
199.936	-316
200.004	1109
200.073	-625
200.141	-209
200.210	-269
200.278	43
200.346	411
200.415	-35
200.483	285
200.552	440
200.620	100
200.688	-305
200.757	618
200.825	31
200.893	-725
200.962	159
201.030	92
201.098	-157
201.167	-1316
201.235	-154
201.303	-790
201.372	12
201.440	134
201.508	898
201.577	204
201.645	123
201.713	-160
201.781	-798
201.850	250
201.918	-190
201.986	-450
202.055	981
202.123	-375
202.191	-126
202.259	-432
202.327	505
202.396	-114
202.464	55
202.532	-263
202.600	558
202.669	-371
202.737	-744
202.805	-683
202.873	-74
202.941	-668
203.009	400
203.078	-844
203.146	505
203.214	-586
203.282	-1042
203.350	-227
203.418	-34
203.487	-112
203.555	-45
203.623	251
203.691	-732
203.759	-395
203.827	214
203.895	92
203.963	-131
204.031	-406
204.099	344
204.168	-754
204.236	-381
204.304	75
204.372	-823
204.440	136
204.508	-177
204.576	-798
204.644	-129
204.712	-42
204.780	56
204.848	426
204.916	-540
204.984	548
205.052	-8
205.120	-583
205.188	-568
205.256	-116
205.324	19
205.392	-784
205.460	130
205.528	-722
205.596	-176
205.664	-427
205.732	123
205.799	-1055
205.867	-293
205.935	-991
206.003	578
206.071	-627
206.139	-413
206.207	39
206.275	-568
206.343	-669
206.411	-14
206.478	48
206.546	64
206.614	15
206.682	614
206.750	50
206.818	702
206.885	832
206.953	-758
207.021	-111
207.089	232
207.157	-1091
207.225	-979
207.292	-67
207.360	-276
207.428	-688
207.496	-81
207.563	-174
207.631	-1050
207.699	-893
207.767	-353
207.834	-866
207.902	119
207.970	-626
208.038	-583
208.105	353
208.173	-196
208.241	-550
208.309	559
208.376	-354
208.444	58
208.512	-679
208.579	-656
208.647	-289
208.715	864
208.782	-463
208.850	109
208.918	-125
208.985	-120
209.053	-636
209.120	-894
209.188	-412
209.256	45
209.323	-786
209.391	-596
209.459	853
209.526	217
209.594	-614
209.661	312
209.729	-1027
209.796	-144
209.864	-362
209.932	-502
209.999	876
210.067	-402
210.134	-331
210.202	477
210.269	-273
210.337	1320
210.404	373
210.472	253
210.539	555
210.607	-347
210.674	-858
210.742	-515
210.809	240
210.877	-750
210.944	86
211.012	-465
211.079	700
211.146	189
211.214	56
211.281	1070
211.349	250
211.416	-497
211.484	-14
211.551	-112
211.618	-175
211.686	-627
211.753	-187
211.821	85
211.888	-156
211.955	680
212.023	-211
212.090	52
212.157	-945
212.225	-514
212.292	-517
212.359	478
212.427	-433
212.494	313
212.561	96
212.629	-199
212.696	-581
212.763	-160
212.831	-899
212.898	313
212.965	-910
213.032	-896
213.100	340
213.167	-731
213.234	-473
213.301	-72
213.369	-541
213.436	567
213.503	-168
213.570	474
213.638	-927
213.705	-267
213.772	-1141
213.839	-837
213.906	-381
213.973	260
214.041	-1416
214.108	-206
214.175	-520
214.242	-370
214.309	-690
214.376	-476
214.444	-106
214.511	-579
214.578	-701
214.645	725
214.712	407
214.779	-412
214.846	-322
214.913	954
214.980	-378
215.048	941
215.115	720
215.182	327
215.249	225
215.316	-518
215.383	-66
215.450	377
215.517	-323
215.584	225
215.651	-700
215.718	-544
215.785	148
215.852	-594
215.919	-62
215.986	-327
216.053	-81
216.120	-771
216.187	-74
216.254	-655
216.321	505
216.388	-763
216.455	-868
216.522	-317
216.589	-558
216.656	-295
216.722	-234
216.789	-148
216.856	-253
216.923	20
216.990	-665
217.057	205
217.124	-559
217.191	-479
217.258	-191
217.324	-630
217.391	-504
217.458	-227
217.525	123
217.592	101
217.659	-965
217.725	162
217.792	-1002
217.859	51
217.926	-805
217.993	-558
218.059	-169
218.126	-129
218.193	-273
218.260	128
218.327	-698
218.393	-298
218.460	-773
218.527	-292
218.594	171
218.660	-1072
218.727	-460
218.794	-749
218.860	-463
218.927	-22
218.994	-559
219.061	-451
219.127	-692
219.194	139
219.261	-819
219.327	-562
219.394	141
219.461	-608
219.527	-586
219.594	388
219.661	-933
219.727	-817
219.794	287
219.860	47
219.927	515
219.994	2436
220.060	2617
220.127	3379
220.193	2132
220.260	298
220.326	217
220.393	-350
220.460	-654
220.526	-602
220.593	-470
220.659	1088
220.726	-628
220.792	-76
220.859	-394
220.925	-329
220.992	-1014
221.058	-459
221.125	-393
221.191	-843
221.258	-477
221.324	-376
221.391	-1022
221.457	-69
221.524	-930
221.590	-476
221.657	-136
221.723	-581
221.789	-418
221.856	316
221.922	-974
221.989	-187
222.055	-130
222.121	-1148
222.188	1006
222.254	-766
222.321	-886
222.387	-335
222.453	60
222.520	-303
222.586	-512
222.652	337
222.719	-878
222.785	225
222.851	-435
222.918	-306
222.984	294
223.050	-246
223.116	-1723
223.183	-21
223.249	-550
223.315	-464
223.382	-311
223.448	-201
223.514	-1106
223.580	-10
223.647	-489
223.713	-728
223.779	-688
223.845	-1023
223.911	-514
223.978	-719
224.044	-543
224.110	-439
224.176	-249
224.242	-647
224.309	-1464
224.375	-66
224.441	-703
224.507	-573
224.573	-403
224.639	101
224.705	-824
224.772	749
224.838	-534
224.904	135
224.970	-868
225.036	163
225.102	-1426
225.168	402
225.234	418
225.300	-444
225.366	148
225.432	257
225.499	-714
225.565	-247
225.631	-10
225.697	-448
225.763	-193
225.829	-597
225.895	-506
225.961	519
226.027	-565
226.093	-1130
226.159	423
226.225	470
226.291	-443
226.357	309
226.423	-1247
226.489	-377
226.554	-369
226.620	-568
226.686	-337
226.752	194
226.818	-302
226.884	603
226.950	240
227.016	135
227.082	855
227.148	-94
227.214	-710
227.279	-165
227.345	20
227.411	1262
227.477	3898
227.543	5792
227.609	7200
227.674	5073
227.740	2047
227.806	1986
227.872	425
227.938	1040
228.003	-174
228.069	517
228.135	-400
228.201	-423
228.267	-1068
228.332	-296
228.398	-1050
228.464	-375
228.530	396
228.595	-660
228.661	-853
228.727	-746
228.792	186
228.858	-682
228.924	-2093
228.990	560
229.055	-980
229.121	117
229.187	-47
229.252	-608
229.318	-718
229.384	-355
229.449	-1166
229.515	-1918
229.581	-988
229.646	985
229.712	-537
229.777	-258
229.843	-83
229.909	-247
229.974	-588
230.040	-182
230.105	-908
230.171	-998
230.236	-782
230.302	-735
230.368	-609
230.433	-778
230.499	-1128
230.564	384
230.630	-579
230.695	-28
230.761	-113
230.826	-1556
230.892	70
230.957	-598
231.023	-991
231.088	-681
231.154	-591
231.219	-252
231.284	-972
231.350	646
231.415	-1276
231.481	-9
231.546	-183
231.612	-832
231.677	-1212
231.742	-863
231.808	491
231.873	-1200
231.939	-1801
232.004	327
232.069	-55
232.135	-744
232.200	-273
232.265	295
232.331	-1050
232.396	-745
232.461	-847
232.527	5
232.592	-1053
232.657	-49
232.723	571
232.788	-183
232.853	-330
232.918	-1547
232.984	-767
233.049	-82
233.114	-793
233.179	-846
233.245	603
233.310	502
233.375	-1128
233.440	-504
233.506	-1073
233.571	-511
233.636	-562
233.701	-462
233.766	-994
233.832	-246
233.897	-1086
233.962	-853
234.027	-406
234.092	-358
234.157	-738
234.222	-532
234.288	-45
234.353	-736
234.418	-364
234.483	-222
234.548	-762
234.613	-987
234.678	-783
234.743	-1119
234.808	632
234.873	-991
234.938	225
235.004	-365
235.069	-326
235.134	-507
235.199	-157
235.264	-762
235.329	-1774
235.394	-69
235.459	400
235.524	-1076
235.589	333
235.654	-546
235.719	-751
235.784	1238
235.849	-664
235.913	23
235.978	-344
236.043	237
236.108	-693
236.173	-573
236.238	-11
236.303	-546
236.368	-826
236.433	513
236.498	-1195
236.563	-80
236.627	-666
236.692	264
236.757	-209
236.822	-500
236.887	-1434
236.952	244
237.017	-1590
237.081	50
237.146	-1277
237.211	137
237.276	150
237.341	-284
237.405	-152
237.470	321
237.535	-1240
237.600	-673
237.664	16
237.729	-727
237.794	-1017
237.859	-728
237.923	-557
237.988	-682
238.053	127
238.118	-289
238.182	295
238.247	1290
238.312	-1558
238.376	231
238.441	-1640
238.506	406
238.570	-1463
238.635	775
238.700	-74
238.764	-627
238.829	-35
238.893	-1099
238.958	464
239.023	-279
239.087	-207
239.152	627
239.216	-470
239.281	264
239.346	-116
239.410	359
239.475	-757
239.539	1842
239.604	-407
239.668	1627
239.733	1883
239.797	7044
239.862	12128
239.926	11280
239.991	5086
240.055	2671
240.120	1098
240.184	1132
240.249	-976
240.313	109
240.378	261
240.442	548
240.507	-380
240.571	295
240.635	-759
240.700	13
240.764	-557
240.829	-307
240.893	-1125
240.957	146
241.022	-1160
241.086	728
241.151	-341
241.215	-1381
241.279	317
241.344	-877
241.408	172
241.472	-1343
241.537	678
241.601	254
241.665	-2095
241.730	-1091
241.794	179
241.858	-722
241.922	103
241.987	-180
242.051	-693
242.115	-973
242.179	-54
242.244	-402
242.308	820
242.372	281
242.436	-1081
242.501	-249
242.565	-535
242.629	-569
242.693	45
242.757	-772
242.822	-901
242.886	212
242.950	-497
243.014	-724
243.078	-720
243.142	-1479
243.206	-687
243.271	5
243.335	-712
243.399	259
243.463	-553
243.527	650
243.591	-938
243.655	-483
243.719	-1039
243.783	-207
243.847	-167
243.911	-603
243.975	-202
244.040	-1332
244.104	1064
244.168	-5
244.232	-1070
244.296	-1225
244.360	-1065
244.424	-663
244.488	-130
244.552	376
244.615	-1697
244.679	163
244.743	-985
244.807	-1192
244.871	250
244.935	-366
244.999	-1607
245.063	-880
245.127	-521
245.191	75
245.255	-996
245.319	-534
245.383	-1887
245.446	1203
245.510	-1179
245.574	-265
245.638	502
245.702	-1353
245.766	350
245.829	883
245.893	-1409
245.957	-943
246.021	78
246.085	79
246.149	-87
246.212	745
246.276	221
246.340	-159
246.404	275
246.467	408
246.531	-2303
246.595	614
246.659	-16
246.722	-1543
246.786	142
246.850	-373
246.913	-249
246.977	-896
247.041	-309
247.104	-636
247.168	183
247.232	603
247.295	854
247.359	801
247.423	-381
247.486	-188
247.550	-76
247.614	-443
247.677	-320
247.741	-402
247.804	-632
247.868	487
247.932	-576
247.995	1771
248.059	-20
248.122	-626
248.186	614
248.249	229
248.313	1828
248.376	3198
248.440	1002
248.503	-1027
248.567	785
248.630	-1466
248.694	134
248.757	566
248.821	2616
248.884	2140
248.948	-339
249.011	2018
249.075	3048
249.138	3540
249.202	3
249.265	351
249.328	-242
249.392	-283
249.455	489
249.519	-128
249.582	431
249.645	327
249.709	-336
249.772	-278
249.835	-259
249.899	53
249.962	187
250.025	-250
250.089	339
250.152	1519
250.215	-162
250.279	-824
250.342	-275
250.405	6
250.468	-732
250.532	-889
250.595	287
250.658	-1111
250.721	1186
250.785	-136
250.848	360
250.911	-1002
250.974	364
251.038	-1172
251.101	1824
251.164	-541
251.227	1014
251.290	-737
251.354	299
251.417	-407
251.480	252
251.543	370
251.606	1466
251.669	1175
251.732	304
251.795	420
251.859	830
251.922	440
251.985	-169
252.048	645
252.111	-885
252.174	-1331
252.237	-467
252.300	3286
252.363	-108
252.426	2016
252.489	-430
252.552	-327
252.615	-1014
252.678	377
252.741	2478
252.804	495
252.867	425
252.930	1911
252.993	423
253.056	993
253.119	-106
253.182	-714
253.245	-765
253.308	286
253.371	-989
253.434	-329
253.497	997
253.559	1890
253.622	-252
253.685	81
253.748	223
253.811	-275
253.874	58
253.937	-31
254.000	-282
254.062	653
254.125	1211
254.188	1031
254.251	-958
254.314	-657
254.376	-690
254.439	510
254.502	-557
254.565	243
254.628	2082
254.690	-204
254.753	123
254.816	-42
254.878	115
254.941	885
255.004	741
255.067	-72
255.129	-649
255.192	-439
255.255	-1481
255.317	508
255.380	225
255.443	-183
255.505	704
255.568	-449
255.631	-265
255.693	226
255.756	-17
255.819	2012
255.881	410
255.944	539
256.006	-400
256.069	-9
256.132	-1168
256.194	-244
256.257	169
256.319	528
256.382	127
256.444	2655
256.507	1908
256.569	628
256.632	109
256.694	-99
256.757	1152
256.819	1458
256.882	-836
256.944	-340
257.007	848
257.069	-480
257.132	-614
257.194	1455
257.257	-256
257.319	-1010
257.381	-604
257.444	1619
257.506	-21
257.569	800
257.631	1274
257.693	724
257.756	-319
257.818	-100
257.880	-176
257.943	689
258.005	-1264
258.067	-953
258.130	36
258.192	-707
258.254	-375
258.317	460
258.379	204
258.441	-386
258.503	212
258.566	839
258.628	1132
258.690	-38
258.753	49
258.815	381
258.877	-381
258.939	112
259.001	591
259.064	119
259.126	-449
259.188	-798
259.250	-50
259.312	452
259.375	2204
259.437	589
259.499	489
259.561	441
259.623	842
259.685	-30
259.747	417
259.809	649
259.872	766
259.934	1941
259.996	1048
260.058	876
260.120	-380
260.182	307
260.244	291
260.306	-1
260.368	810
260.430	-408
260.492	185
260.554	1441
260.616	183
260.678	447
260.740	798
260.802	579
260.864	593
260.926	-467
260.988	265
261.050	643
261.112	-1028
261.174	1519
261.236	590
261.298	196
261.359	1017
261.421	1286
261.483	-743
261.545	1037
261.607	-839
261.669	523
261.731	43
261.793	1055
261.854	-638
261.916	1063
261.978	-231
262.040	762
262.102	705
262.164	-280
262.225	538
262.287	985
262.349	70
262.411	520
262.472	663
262.534	660
262.596	-79
262.658	1104
262.719	-244
262.781	666
262.843	-305
262.904	300
262.966	535
263.028	422
263.090	340
263.151	716
263.213	789
263.275	-444
263.336	584
263.398	1112
263.459	-464
263.521	365
263.583	404
263.644	-178
263.706	226
263.767	-398
263.829	620
263.891	276
263.952	-161
264.014	273
264.075	-174
264.137	-103
264.198	995
264.260	-158
264.321	489
264.383	187
264.444	372
264.506	795
264.567	211
264.629	892
264.690	-1010
264.752	291
264.813	-208
264.875	-115
264.936	714
264.998	110
265.059	487
265.120	1144
265.182	-76
265.243	630
265.305	137
265.366	923
265.427	1192
265.489	902
265.550	170
265.611	320
265.673	-884
265.734	922
265.795	412
265.857	154
265.918	-630
265.979	894
266.040	-569
266.102	302
266.163	372
266.224	-99
266.286	227
266.347	-44
266.408	626
266.469	1052
266.530	562
266.592	725
266.653	959
266.714	823
266.775	-238
266.836	519
266.898	-251
266.959	186
267.020	400
267.081	1224
267.142	-168
267.203	-408
267.264	16
267.326	882
267.387	-203
267.448	-202
267.509	646
267.570	520
267.631	195
267.692	-232
267.753	177
267.814	237
267.875	152
267.936	-149
267.997	-381
268.058	409
268.119	293
268.180	578
268.241	-638
268.302	930
268.363	183
268.424	-175
268.485	-72
268.546	28
268.607	412
268.668	-502
268.729	181
268.790	284
268.851	640
268.912	-555
268.972	209
269.033	1124
269.094	279
269.155	742
269.216	-178
269.277	276
269.338	106
269.398	-11
269.459	-376
269.520	339
269.581	323
269.642	-129
269.702	105
269.763	497
269.824	-242
269.885	-29
269.945	663
270.006	304
270.067	639
270.128	-474
270.188	-30
270.249	1032
270.310	917
270.370	376
270.431	-178
270.492	259
270.553	282
270.613	-219
270.674	426
270.734	-105
270.795	126
270.856	979
270.916	-488
270.977	45
271.038	758
271.098	112
271.159	-251
271.219	234
271.280	454
271.340	360
271.401	-170
271.462	527
271.522	532
271.583	633
271.643	513
271.704	-306
271.764	870
271.825	604
271.885	3312
271.946	4827
272.006	1063
272.066	2483
272.127	5369
272.187	7739
272.248	3877
272.308	1489
272.369	2969
272.429	1436
272.489	1372
272.550	568
272.610	572
272.671	1127
272.731	842
272.791	813
272.852	-354
272.912	907
272.972	1244
273.033	842
273.093	737
273.153	1343
273.214	-124
273.274	101
273.334	603
273.394	2221
273.455	754
273.515	1622
273.575	1518
273.635	1402
273.696	1006
273.756	2677
273.816	1467
273.876	1077
273.936	310
273.997	1159
274.057	788
274.117	277
274.177	317
274.237	2691
274.297	2689
274.358	1012
274.418	1672
274.478	1867
274.538	678
274.598	432
274.658	1366
274.718	1395
274.778	1323
274.838	1053
274.898	-95
274.958	1808
275.018	2134
275.078	2465
275.138	277
275.198	1463
275.258	739
275.318	906
275.378	419
275.438	1615
275.498	940
275.558	1097
275.618	1996
275.678	1399
275.738	2011
275.798	1422
275.858	662
275.918	1362
275.978	735
276.038	609
276.098	1509
276.157	1093
276.217	1722
276.277	1529
276.337	731
276.397	372
276.457	1797
276.517	1643
276.576	1372
276.636	813
276.696	1248
276.756	808
276.815	1186
276.875	1886
276.935	663
276.995	2657
277.055	1432
277.114	2510
277.174	1801
277.234	1703
277.293	761
277.353	717
277.413	311
277.472	270
277.532	1009
277.592	1390
277.651	2642
277.711	6352
277.771	2628
277.830	6164
277.890	5658
277.950	3604
278.009	14209
278.069	6088
278.128	4545
278.188	7670
278.248	3665
278.307	6669
278.367	5698
278.426	2423
278.486	1708
278.545	1185
278.605	1351
278.664	738
278.724	1166
278.783	1485
278.843	3606
278.902	1241
278.962	858
279.021	1891
279.081	1382
279.140	1150
279.199	1354
279.259	1362
279.318	1977
279.378	2592
279.437	2363
279.496	12037
279.556	31735
279.615	27900
279.675	6440
279.734	4556
279.793	4175
279.853	10791
279.912	5198
279.971	2318
280.031	1625
280.090	4828
280.149	8454
280.208	4561
280.268	18755
280.327	23417
280.386	5403
280.445	3594
280.505	2229
280.564	1894
280.623	1459
280.682	1014
280.742	993
280.801	1242
280.860	1141
280.919	741
280.978	1609
281.037	313
281.097	747
281.156	1585
281.215	422
281.274	1195
281.333	1862
281.392	1140
281.451	1328
281.510	1590
281.569	1515
281.628	1183
281.688	746
281.747	1279
281.806	1106
281.865	1047
281.924	321
281.983	603
282.042	927
282.101	1501
282.160	1139
282.219	194
282.278	409
282.337	882
282.396	1196
282.454	1362
282.513	403
282.572	1746
282.631	1501
282.690	1458
282.749	129
282.808	1306
282.867	683
282.926	737
282.985	736
283.043	1304
283.102	1771
283.161	905
283.220	1814
283.279	1553
283.338	456
283.396	1178
283.455	1068
283.514	1125
283.573	1502
283.631	1915
283.690	1104
283.749	1123
283.808	1059
283.866	1860
283.925	417
283.984	993
284.043	583
284.101	925
284.160	941
284.219	1804
284.277	1680
284.336	1939
284.395	2118
284.453	2473
284.512	2386
284.570	1752
284.629	1911
284.688	2250
284.746	867
284.805	2371
284.863	2406
284.922	2951
284.981	3905
285.039	5641
285.098	9766
285.156	22972
285.215	51996
285.273	55254
285.332	28597
285.390	13720
285.449	7924
285.507	6255
285.566	3977
285.624	3380
285.683	2536
285.741	2687
285.799	2253
285.858	1568
285.916	1054
285.975	1994
286.033	1419
286.091	1682
286.150	1078
286.208	1262
286.267	1416
286.325	2097
286.383	1039
286.442	1439
286.500	1175
286.558	1312
286.616	863
286.675	1662
286.733	1432
286.791	1290
286.850	1517
286.908	1628
286.966	1891
287.024	1328
287.083	891
287.141	1670
287.199	1415
287.257	1625
287.315	1313
287.374	790
287.432	-110
287.490	1573
287.548	1240
287.606	1355
287.664	1309
287.723	1331
287.781	1178
287.839	673
287.897	1134
287.955	989
288.013	940
288.071	1797
288.129	1439
288.187	3926
288.245	2203
288.303	1635
288.361	677
288.419	813
288.477	813
288.535	1596
288.593	861
288.651	1199
288.709	1055
288.767	308
288.825	1222
288.883	781
288.941	948
288.999	485
289.057	1615
289.115	1406
289.173	1143
289.231	1085
289.289	1073
289.346	959
289.404	1718
289.462	1826
289.520	750
289.578	1870
289.636	1011
289.694	1094
289.751	1658
289.809	1447
289.867	1238
289.925	1568
289.983	1159
290.040	1133
290.098	789
290.156	806
290.214	866
290.271	1223
290.329	1744
290.387	2244
290.444	914
290.502	774
290.560	1507
290.617	1292
290.675	637
290.733	883
290.790	831
290.848	962
290.906	625
290.963	1350
291.021	738
291.078	1508
291.136	738
291.194	702
291.251	1640
291.309	1753
291.366	517
291.424	1811
291.481	1111
291.539	1496
291.596	676
291.654	1020
291.711	2065
291.769	1316
291.826	2233
291.884	1798
291.941	81
291.999	1264
292.056	1583
292.114	1143
292.171	1264
292.228	2117
292.286	1278
292.343	1491
292.401	816
292.458	1574
292.515	590
292.573	2175
292.630	1331
292.687	1193
292.745	1372
292.802	1215
292.859	2485
292.917	2101
292.974	1469
293.031	1704
293.089	1083
293.146	829
293.203	1855
293.260	1121
293.318	981
293.375	1898
293.432	1658
293.489	1584
293.546	1207
293.604	989
293.661	1757
293.718	3686
293.775	2433
293.832	2249
293.889	2125
293.947	2529
294.004	2323
294.061	1970
294.118	1614
294.175	2367
294.232	2234
294.289	1595
294.346	1276
294.403	2926
294.460	1185
294.517	1028
294.574	1886
294.631	2247
294.688	1573
294.745	1613
294.802	3393
294.859	2869
294.916	2095
294.973	1093
295.030	710
295.087	2248
295.144	1651
295.201	1166
295.258	598
295.315	1243
295.372	1963
295.429	2642
295.486	1968
295.542	1203
295.599	221
295.656	1414
295.713	982
295.770	2544
295.827	1182
295.883	1704
295.940	1513
295.997	1415
296.054	1072
296.111	1550
296.167	1728
296.224	1156
296.281	819
296.338	1275
296.394	1080
296.451	1550
296.508	1556
296.564	1900
296.621	2211
296.678	3694
296.734	6571
296.791	2264
296.848	1499
296.904	1302
296.961	1841
297.018	2925
297.074	1756
297.131	1798
297.187	1293
297.244	1711
297.301	3202
297.357	6893
297.414	3423
297.470	1982
297.527	1697
297.583	1303
297.640	1508
297.696	585
297.753	933
297.809	1284
297.866	1227
297.922	1590
297.979	1167
298.035	825
298.092	1051
298.148	1623
298.204	1745
298.261	1854
298.317	1978
298.374	4309
298.430	4000
298.486	1555
298.543	902
298.599	1610
298.656	1160
298.712	1326
298.768	2028
298.824	2100
298.881	1226
298.937	1544
298.993	1258
299.050	1930
299.106	1714
299.162	1099
299.218	1643
299.275	1704
299.331	1855
299.387	3144
299.443	6462
299.500	17857
299.556	17145
299.612	7046
299.668	5900
299.724	15449
299.780	21555
299.837	9390
299.893	5453
299.949	12376
300.005	20152
300.061	15080
300.117	24188
300.173	12018
300.229	4998
300.285	3860
300.341	3402
300.397	2617
300.453	1527
300.510	3130
300.566	3962
300.622	7347
300.678	24668
300.734	34022
300.790	15397
300.845	10092
300.901	14211
300.957	22890
301.013	10281
301.069	5472
301.125	3962
301.181	2955
301.237	3168
301.293	1777
301.349	2206
301.405	2264
301.461	1406
301.516	1508
301.572	944
301.628	1007
301.684	1411
301.740	1472
301.796	2113
301.851	1356
301.907	2066
301.963	1970
302.019	3616
302.074	9954
302.130	12325
302.186	5913
302.242	2435
302.297	1771
302.353	2128
302.409	1882
302.464	1402
302.520	1765
302.576	2665
302.631	3570
302.687	2335
302.743	1208
302.798	1616
302.854	1063
302.910	1441
302.965	1644
303.021	1630
303.076	1741
303.132	1024
303.187	1487
303.243	1662
303.299	446
303.354	663
303.410	875
303.465	1107
303.521	1064
303.576	247
303.632	1815
303.687	1811
303.743	3581
303.798	4357
303.853	2062
303.909	1208
303.964	1797
304.020	694
304.075	1896
304.130	1311
304.186	1588
304.241	2977
304.297	2504
304.352	1208
304.358	1251
304.407	1599
304.449	1276
304.463	1165
304.518	1807
304.539	1834
304.573	1851
304.629	1538
304.630	1536
304.684	1489
304.720	2598
304.739	3140
304.794	4068
304.811	3929
304.850	3463
304.902	1982
304.905	1890
304.960	1478
304.992	1644
305.015	1761
305.071	2037
305.083	1952
305.126	1660
305.173	1796
305.181	1825
305.236	1159
305.264	1178
305.292	1161
305.347	1813
305.354	1822
305.402	1916
305.445	1712
305.457	1636
305.512	2367
305.535	2121
305.567	1837
305.622	1873
305.626	1883
305.678	2329
305.716	2764
305.733	2846
305.788	3920
305.807	3684
305.843	3576
305.897	4693
305.898	4700
305.953	4610
305.988	3624
306.008	3108
306.063	2590
306.078	2429
306.118	2253
306.168	1739
306.173	1701
306.228	1863
306.259	2056
306.283	2187
306.338	2185
306.349	2185
306.393	2218
306.440	2228
306.448	2233
306.503	2809
306.530	2467
306.558	2171
306.613	2122
306.620	2170
306.668	2860
306.711	3489
306.723	3456
306.778	3410
306.801	2990
306.833	2645
306.888	2503
306.892	2530
306.943	3069
306.982	2522
306.997	2351
307.052	2312
307.072	2264
307.107	2128
307.162	2689
307.163	2685
307.217	2757
307.253	2401
307.272	2369
307.327	2520
307.343	2545
307.381	2457
307.434	2683
307.436	2715
307.491	3050
307.524	3265
307.546	3372
307.600	3834
307.614	3773
307.655	3220
307.704	2481
307.710	2457
307.765	2579
307.795	2454
307.819	2318
307.874	2723
307.885	2748
307.929	3045
307.975	3311
307.984	3365
308.038	3289
308.065	3224
308.093	3922
308.148	5969
308.156	6285
308.202	7953
308.246	9891
308.257	9631
308.312	5642
308.336	4480
308.366	4415
308.421	3645
308.426	3562
308.475	2790
308.517	2657
308.530	2762
308.585	2657
308.607	2644
308.639	2498
308.694	2649
308.697	2634
308.748	3044
308.787	3222
308.803	3244
308.857	3301
308.877	3409
308.912	3437
308.967	3288
308.967	3279
309.021	4678
309.058	5052
309.076	5388
309.130	7067
309.148	7581
309.185	12051
309.238	19007
309.239	19085
309.293	20708
309.328	20130
309.348	18158
309.402	11342
309.418	9628
309.457	8402
309.508	6874
309.511	6888
309.566	7332
309.598	7497
309.620	8547
309.674	11396
309.688	12148
309.729	12503
309.778	12315
309.783	12158
309.837	9378
309.868	8009
309.892	7954
309.946	7593
309.959	7648
310.001	8205
310.049	8323
310.055	8148
310.109	6535
310.139	5630
310.163	5514
310.218	4731
310.229	4661
310.272	5275
310.319	5999
310.326	6032
310.381	5689
310.409	5628
310.435	5406
310.489	4854
310.499	4719
310.543	4573
310.589	4577
310.598	4689
310.652	5144
310.679	5215
310.706	5183
310.760	5558
310.769	5566
310.814	5661
310.859	5705
310.868	5861
310.923	6505
310.948	6829
310.977	6773
311.031	6547
311.038	6507
311.085	6372
311.128	5989
311.139	6022
311.193	6316
311.218	6311
311.247	6472
311.301	6965
311.308	6975
311.356	6573
311.398	6252
311.410	6367
311.464	6740
311.488	6893
311.518	6609
311.572	6004
311.578	5913
311.626	6421
311.668	6801
311.680	6781
311.734	6613
311.758	6500
311.788	6551
311.842	6575
311.847	6556
311.896	7208
311.937	7726
311.950	7686
312.004	7361
312.027	7219
312.058	7269
312.112	7279
312.117	7254
312.165	7766
312.207	8155
312.297	7038
312.386	7527
312.476	8285
312.566	8237
312.656	8683
312.745	8668
312.835	8673
312.925	8785
313.015	9293
313.104	9788
313.194	10571
313.284	10338
313.374	10532
313.463	11048
313.553	12927
313.643	12179
313.732	12804
313.822	13237
313.912	14493
314.001	14330
314.091	16001
314.180	15275
314.270	16474
314.360	15750
314.449	15480
314.539	15021
314.628	15316
314.718	15621
314.808	17362
314.897	17848
314.987	18537
315.076	18619
315.166	18574
315.255	18025
315.345	17934
315.434	16705
315.524	17363
315.613	19041
315.703	24078
315.792	52294
315.881	175954
315.971	70312
316.060	22752
316.150	18242
316.239	17044
316.328	17573
316.418	18817
316.507	19825
316.597	22526
316.686	23899
316.775	21733
316.865	20034
316.954	18100
317.043	16503
317.133	14062
317.222	14212
317.311	12653
317.400	12099
317.490	14346
317.579	15837
317.668	18627
317.757	30029
317.847	80385
317.936	247124
318.025	92592
318.114	81100
318.203	42592
318.293	20759
318.382	28313
318.471	33037
318.560	25147
318.649	20228
318.738	14854
318.828	13772
318.917	10763
319.006	10674
319.095	10528
319.184	11780
319.273	11632
319.362	11597
319.451	10900
319.540	10726
319.629	11468
319.718	12217
319.807	11894
319.896	10869
319.985	12745
320.074	13137
320.163	12518
320.252	13521
320.341	14473
320.430	13913
320.519	16506
320.608	17647
320.697	19779
320.786	22715
320.875	26013
320.964	28014
321.053	28658
321.142	31159
321.230	33836
321.319	35783
321.408	38776
321.497	37444
321.586	34205
321.675	30859
321.764	29974
321.852	31001
321.941	33234
322.030	33349
322.119	35491
322.207	40576
322.296	42680
322.385	45489
322.474	49121
322.562	49666
322.651	40566
322.740	35541
322.829	32160
322.917	27303
323.006	24989
323.095	24330
323.183	23454
323.272	19757
323.361	19473
323.449	18812
323.538	16820
323.626	17043
323.715	16534
323.804	15368
323.892	15417
323.981	14819
324.069	14124
324.158	13762
324.246	13683
324.335	14362
324.424	13097
324.512	13728
324.601	13169
324.689	12390
324.778	12258
324.866	12213
324.954	11524
325.043	12156
325.131	11243
325.220	12338
325.308	11513
325.397	11418
325.485	11625
325.574	11106
325.662	10782
325.750	10042
325.839	10582
325.927	10539
326.015	10012
326.104	10637
326.192	9600
326.280	10466
326.369	10679
326.457	10407
326.545	10719
326.634	10461
326.722	10696
326.810	11758
326.898	12426
326.987	14280
327.075	12756
327.163	13872
327.251	12109
327.340	13189
327.428	17179
327.516	21419
327.604	18948
327.692	14827
327.781	12990
327.869	10465
327.957	9228
328.045	9393
328.133	8891
328.221	8706
328.309	8626
328.397	9699
328.485	11621
328.574	18410
328.662	26547
328.750	21251
328.838	14549
328.926	12240
329.014	9622
329.102	9312
329.190	9747
329.278	8841
329.366	9129
329.454	9096
329.542	8863
329.630	8420
329.718	8529
329.806	8369
329.893	9741
329.981	7447
330.069	8818
330.157	11104
330.245	13933
330.333	10988
330.421	9223
330.509	8742
330.597	10574
330.684	9446
330.772	9335
330.860	8399
330.948	8497
331.036	8599
331.123	9105
331.211	8165
331.299	8677
331.387	8925
331.475	9644
331.562	9479
331.650	9811
331.738	9468
331.825	9845
331.913	9320
332.001	9733
332.089	10031
332.176	10060
332.264	10228
332.352	10379
332.439	9767
332.527	10350
332.614	9891
332.702	10821
332.790	10625
332.877	11133
332.965	13766
333.052	13132
333.140	12032
333.228	15436
333.315	13034
333.403	13269
333.490	14064
333.578	14506
333.665	20982
333.753	20594
333.840	18511
333.928	21805
334.015	25142
334.103	30456
334.190	38843
334.278	49696
334.365	62045
334.452	62462
334.540	51426
334.627	53274
334.715	63787
334.802	83870
334.889	111351
334.977	126947
335.064	93397
335.151	58462
335.239	43962
335.326	38569
335.413	38018
335.501	37906
335.588	41641
335.675	49696
335.762	61173
335.850	78399
335.937	105884
336.024	144109
336.111	179874
336.199	157994
336.286	92821
336.373	60931
336.460	43694
336.547	35411
336.635	29941
336.722	25106
336.809	22807
336.896	21554
336.983	20339
337.070	19137
337.157	18289
337.245	18488
337.332	18758
337.419	18936
337.506	18016
337.593	16674
337.680	16743
337.767	15430
337.854	14906
337.941	14048
338.028	14819
338.115	14664
338.202	15106
338.289	15649
338.376	13486
338.463	13366
338.550	12276
338.637	12120
338.724	12038
338.811	11731
338.898	12539
338.984	11170
339.071	11513
339.158	11729
339.245	10167
339.332	11407
339.419	10870
339.506	11466
339.593	10717
339.679	11874
339.766	10830
339.853	11641
339.940	12221
340.027	10912
340.113	9858
340.200	10470
340.287	10890
340.374	9862
340.460	10539
340.547	9302
340.634	9794
340.720	12391
340.807	10323
340.894	10092
340.980	9944
341.067	9582
341.154	11403
341.240	9838
341.327	10739
341.414	10755
341.500	9622
341.587	10736
341.674	9964
341.760	10704
341.847	10159
341.933	10432
342.020	9487
342.106	9999
342.193	10578
342.279	10442
342.366	9789
342.452	9624
342.539	9522
342.625	9996
342.712	10843
342.798	10754
342.885	9883
342.971	9063
343.058	9721
343.144	8820
343.230	9907
343.317	9774
343.403	9604
343.490	9637
343.576	9265
343.662	9876
343.749	9765
343.835	9842
343.921	10453
344.008	21380
344.094	38338
344.180	14427
344.267	9762
344.353	12252
344.439	12502
344.525	10423
344.612	10119
344.698	9430
344.784	9159
344.870	9474
344.957	9271
345.043	9825
345.129	9468
345.215	10733
345.301	9606
345.387	9758
345.474	10025
345.560	9678
345.646	8574
345.732	9601
345.818	9477
345.904	8507
345.990	9656
346.076	9654
346.162	8812
346.249	10166
346.335	10117
346.421	12133
346.507	12619
346.593	17586
346.679	10818
346.765	13693
346.851	22453
346.937	20022
347.023	13894
347.108	11714
347.194	11293
347.280	11890
347.366	16736
347.452	39158
347.538	58296
347.624	30728
347.710	17997
347.796	12571
347.882	12309
347.967	10827
348.053	11039
348.139	10858
348.225	10441
348.311	10537
348.397	11055
348.482	12263
348.568	14145
348.654	20120
348.740	54739
348.825	72552
348.911	33933
348.997	21527
349.083	22307
349.168	13514
349.254	11818
349.340	11363
349.425	10948
349.511	11412
349.597	11155
349.682	10943
349.768	14349
349.854	12950
349.939	11370
350.025	9529
350.110	10538
350.196	10730
350.282	9015
350.367	10886
350.453	10456
350.538	10727
350.624	9640
350.709	10277
350.795	10549
350.880	9972
350.966	10575
351.051	10591
351.137	9563
351.222	10572
351.308	10490
351.393	12630
351.479	10830
351.564	9307
351.649	10333
351.735	10021
351.820	9553
351.906	9342
351.991	10240
352.076	10532
352.162	12774
352.247	10180
352.332	9882
352.418	9250
352.503	10036
352.588	12675
352.673	12008
352.759	10744
352.844	8844
352.929	9594
353.014	9857
353.100	10187
353.185	13113
353.270	11341
353.355	10520
353.441	10285
353.526	8895
353.611	8877
353.696	10058
353.781	11683
353.866	9015
353.952	10435
354.037	9548
354.122	10620
354.207	11272
354.292	10196
354.377	10014
354.462	10149
354.547	9720
354.632	9658
354.717	11193
354.802	12786
354.887	10497
354.972	10371
355.057	9839
355.142	9276
355.227	10205
355.312	9606
355.397	9870
355.482	13119
355.567	10395
355.652	11026
355.737	10630
355.822	13555
355.907	12933
355.991	11661
356.076	10443
356.161	10598
356.246	9830
356.331	11683
356.416	11346
356.501	21676
356.585	20822
356.670	11666
356.755	12189
356.840	11840
356.924	20463
357.009	41701
357.094	20504
357.179	11589
357.263	11416
357.348	11724
357.433	10783
357.517	11784
357.602	11139
357.687	11334
357.771	12289
357.856	11759
357.941	12480
358.025	17469
358.110	50951
358.195	27512
358.279	12624
358.364	12468
358.448	14489
358.533	18422
358.617	16659
358.702	16088
358.787	12777
358.871	11660
358.956	12554
359.040	12118
359.125	11735
359.209	12006
359.294	14680
359.378	23552
359.462	21793
359.547	13685
359.631	11759
359.716	10308
359.800	12606
359.885	12636
359.969	10252
360.053	12076
360.138	11783
360.222	11253
360.306	11875
360.391	12832
360.475	13385
360.559	14555
360.644	14983
360.728	13175
360.812	19320
360.896	30387
360.981	17467
361.065	15054
361.149	15406
361.233	14997
361.318	14521
361.402	15705
361.486	16391
361.570	16861
361.654	17769
361.739	20049
361.823	30248
361.907	42404
361.991	30999
362.075	36407
362.159	51653
362.243	89347
362.327	174692
362.411	210454
362.495	103265
362.580	62778
362.664	59493
362.748	73636
362.832	111230
362.916	199382
363.000	381009
363.084	422022
363.168	216165
363.252	95303
363.336	59212
363.420	46800
363.503	39570
363.587	37310
363.671	37145
363.755	38143
363.839	43804
363.923	50301
364.007	64797
364.091	89610
364.175	135879
364.258	243885
364.342	439160
364.426	557696
364.510	354385
364.594	160387
364.677	87696
364.761	67265
364.845	50499
364.929	34314
365.013	28721
365.096	26178
365.180	22806
365.264	21757
365.347	19975
365.431	18698
365.515	17443
365.598	17353
365.682	18730
365.766	17230
365.849	17446
365.933	17578
366.017	18992
366.100	16544
366.184	17160
366.267	18371
366.351	17030
366.435	16775
366.518	16490
366.602	15898
366.685	16032
366.769	16112
366.852	15736
366.936	16259
367.019	15832
367.103	15278
367.186	17295
367.270	15986
367.353	15656
367.436	19202
367.520	18618
367.603	18879
367.687	17925
367.770	17988
367.853	18520
367.937	19520
368.020	21130
368.104	15373
368.187	15786
368.270	14425
368.353	14661
368.437	13446
368.520	13807
368.603	13966
368.687	15118
368.770	17585
368.853	12820
368.936	13116
369.020	12652
369.103	12498
369.186	11922
369.269	11441
369.352	12120
369.436	12571
369.519	12653
369.602	10428
369.685	13823
369.768	11107
369.851	12370
369.934	11971
370.018	12210
370.101	12043
370.184	14228
370.267	13060
370.350	13494
370.433	15135
370.516	36240
370.599	107022
370.682	58550
370.765	20394
370.848	17427
370.931	19654
371.014	14538
371.097	11357
371.180	13220
371.263	12779
371.346	10202
371.429	11828
371.511	11904
371.594	11552
371.677	12006
371.760	13394
371.843	13009
371.926	24525
372.009	46405
372.091	21556
372.174	14281
372.257	21377
372.340	15686
372.423	13862
372.505	14427
372.588	12766
372.671	14535
372.754	18496
372.836	15884
372.919	13282
373.002	13832
373.085	12943
373.167	14379
373.250	16772
373.332	21423
373.415	32252
373.498	60152
373.580	43818
373.663	140067
373.746	152457
373.828	37383
373.911	20219
373.993	17478
374.076	16342
374.159	16608
374.241	17309
374.324	21572
374.406	21062
374.489	24889
374.571	44015
374.654	25730
374.736	20695
374.819	32426
374.901	44045
374.983	46541
375.066	22762
375.148	19428
375.231	18973
375.313	21696
375.395	21165
375.478	21773
375.560	20321
375.643	20771
375.725	22194
375.807	36841
375.890	30255
375.972	18007
376.054	18261
376.136	17428
376.219	16142
376.301	19224
376.383	28809
376.465	19092
376.548	15926
376.630	16999
376.712	24223
376.794	17118
376.877	14146
376.959	12509
377.041	13862
377.123	13514
377.205	12879
377.287	12846
377.369	13217
377.452	13916
377.534	13551
377.616	12858
377.698	12970
377.780	12951
377.862	12882
377.944	13587
378.026	12449
378.108	13311
378.190	12587
378.272	13266
378.354	12158
378.436	11670
378.518	12031
378.600	12468
378.682	12529
378.764	14068
378.846	14592
378.928	11866
379.010	12020
379.091	12292
379.173	11679
379.255	11555
379.337	12319
379.419	13575
379.501	17284
379.583	13834
379.664	11620
379.746	10669
379.828	15986
379.910	14539
379.991	16258
380.073	12039
380.155	12173
380.237	11589
380.318	11309
380.400	12096
380.482	13249
380.564	12027
380.645	13670
380.727	14095
380.809	13270
380.890	11662
380.972	11277
381.053	12385
381.135	12367
381.217	12814
381.298	16329
381.380	12843
381.461	13647
381.543	20949
381.624	25688
381.706	14029
381.787	13477
381.869	13659
381.951	18250
382.032	41253
382.113	31404
382.195	13789
382.276	16366
382.358	17690
382.439	24056
382.521	26552
382.602	39015
382.684	24690
382.765	29248
382.846	41713
382.928	69949
383.009	45839
383.090	40620
383.172	108740
383.253	143399
383.334	55240
383.416	40229
383.497	30844
383.578	27870
383.659	40675
383.741	104361
383.822	223620
383.903	117595
383.984	40345
384.066	40307
384.147	31168
384.228	25345
384.309	27788
384.390	30177
384.471	29004
384.553	26624
384.634	23212
384.715	22757
384.796	20931
384.877	21341
384.958	24345
385.039	23548
385.120	20648
385.201	20437
385.282	19973
385.363	22568
385.444	24326
385.525	26353
385.606	32048
385.687	32166
385.768	26838
385.849	26305
385.930	36813
386.011	52058
386.092	30671
386.173	27853
386.254	25573
386.335	26624
386.416	24913
386.496	26109
386.577	27429
386.658	25851
386.739	25006
386.820	27551
386.901	26799
386.981	30694
387.062	32683
387.143	35666
387.224	38457
387.304	41270
387.385	41148
387.466	39434
387.547	43835
387.627	43543
387.708	46649
387.789	49596
387.869	48442
387.950	41878
388.031	36977
388.111	31549
388.192	35396
388.273	34840
388.353	32293
388.434	26910
388.514	25921
388.595	33928
388.676	35566
388.756	26762
388.837	24828
388.917	23793
388.998	21395
389.078	22215
389.159	22008
389.239	20259
389.320	22293
389.400	20043
389.480	21343
389.561	23439
389.641	23087
389.722	20881
389.802	19103
389.883	22373
389.963	25016
390.043	22581
390.124	19606
390.204	20660
390.284	23999
390.365	21311
390.445	21054
390.525	21611
390.605	22376
390.686	21783
390.766	22841
390.846	23559
390.927	22787
391.007	21864
391.087	24138
391.167	23729
391.247	25034
391.328	26772
391.408	26922
391.488	27356
391.568	27266
391.648	29800
391.728	31929
391.808	33800
391.888	34353
391.969	37224
392.049	40092
392.129	42173
392.209	44444
392.289	52850
392.369	54353
392.449	57667
392.529	62766
392.609	72025
392.689	83270
392.769	99021
392.849	120081
392.929	153776
393.009	204526
393.089	291772
393.169	454177
393.248	703522
393.328	831576
393.408	804092
393.488	702693
393.568	456312
393.648	284073
393.728	190413
393.807	135126
393.887	105948
393.967	87200
394.047	72964
394.127	61182
394.206	55365
394.286	51244
394.366	60810
394.446	61877
394.525	42627
394.605	37684
394.685	37762
394.764	41609
394.844	66973
394.924	94477
395.003	53356
395.083	35758
395.163	33331
395.242	32151
395.322	31814
395.402	31129
395.481	35550
395.561	41924
395.640	91857
395.720	197233
395.799	118148
395.879	54584
395.958	45953
396.038	48404
396.117	76198
396.197	87138
396.276	69187
396.356	76862
396.435	99685
396.515	132570
396.594	198955
396.673	346163
396.753	617329
396.832	777891
396.912	717792
396.991	453671
397.070	245606
397.150	151480
397.229	119255
397.308	164266
397.388	288774
397.467	175135
397.546	73664
397.625	49821
397.705	43850
397.784	38024
397.863	33624
397.942	31263
398.022	29643
398.101	27622
398.180	25555
398.259	24743
398.338	24273
398.417	21936
398.497	21203
398.576	20838
398.655	19181
398.734	19802
398.813	18089
398.892	17660
398.971	17586
399.050	15914
399.129	16732
399.208	16308
399.287	16598
399.366	14985
399.445	15347
399.524	15044
399.603	13269
399.682	15003
399.761	14583
399.840	14766
399.919	14320
399.998	12670
400.077	12653
400.156	12327
400.235	14584
400.313	11379
400.392	11051
400.471	14201
400.550	14807
400.629	11623
400.708	13110
400.786	10837
400.865	11292
400.944	9772
401.023	12842
401.102	9999
401.180	10729
401.259	10648
401.338	9950
401.416	11014
401.495	9433
401.574	10687
401.652	9939
401.731	11797
401.810	10075
401.888	9631
401.967	9884
402.046	10316
402.124	10450
402.203	9265
402.281	10420
402.360	9082
402.438	10165
402.517	8456
402.596	10425
402.674	9640
402.753	10431
402.831	10965
402.910	13017
402.988	17000
403.066	38991
403.145	27683
403.223	19169
403.302	34859
403.380	28793
403.459	29848
403.537	19594
403.615	15400
403.694	12509
403.772	13643
403.850	12533
403.929	11863
404.007	12210
404.085	14394
404.164	14948
404.242	12624
404.320	12231
404.398	11969
404.477	13737
404.555	26264
404.633	24689
404.711	12771
404.789	11716
404.868	11960
404.946	9797
405.024	10298
405.102	10108
405.180	9201
405.258	7945
405.336	9271
405.415	8937
405.493	10191
405.571	10941
405.649	10096
405.727	9417
405.805	12175
405.883	12269
405.961	12368
406.039	9705
406.117	9009
406.195	10709
406.273	10161
406.351	19380
406.429	15200
406.507	9196
406.585	8945
406.663	9110
406.740	9010
406.818	8484
406.896	9314
406.974	10783
407.052	8669
407.130	14664
407.208	17390
407.285	12422
407.363	10757
407.441	11790
407.519	11784
407.596	16779
407.674	48509
407.752	182208
407.830	139176
407.907	30347
407.985	14270
408.063	12251
408.141	10673
408.218	11849
408.296	10859
408.373	12566
408.451	12616
408.529	13145
408.606	13016
408.684	14375
408.762	15241
408.839	15194
408.917	16689
408.994	18639
409.072	19809
409.149	25692
409.227	37420
409.304	51708
409.382	59995
409.459	69856
409.537	83485
409.614	83626
409.692	73582
409.769	70319
409.846	85968
409.924	101039
410.001	87114
410.079	70325
410.156	56515
410.233	45360
410.311	36844
410.388	32215
410.465	28658
410.543	25038
410.620	24972
410.697	21932
410.775	21115
410.852	21147
410.929	22063
411.006	21643
411.083	19353
411.161	18848
411.238	19101
411.315	17221
411.392	16232
411.469	17344
411.547	15646
411.624	13189
411.701	12461
411.778	13057
411.855	12864
411.932	11240
412.009	11453
412.086	12568
412.163	11496
412.240	10338
412.317	10915
412.394	10322
412.471	10207
412.548	9843
412.625	9987
412.702	9716
412.779	9822
412.856	9705
412.933	8104
413.010	9410
413.087	8974
413.164	9169
413.241	10571
413.318	8093
413.395	9669
413.471	8143
413.548	7451
413.625	8321
413.702	6246
413.779	8002
413.855	7532
413.932	7141
414.009	6581
414.086	7716
414.162	8165
414.239	7996
414.316	9387
414.393	11245
414.469	6741
414.546	6628
414.623	7426
414.699	6232
414.776	7421
414.853	6567
414.929	7521
415.006	7233
415.082	6690
415.159	7272
415.236	6980
415.312	7480
415.389	8179
415.465	6823
415.542	7101
415.618	6251
415.695	7701
415.771	6100
415.848	7190
415.924	6609
416.000	6915
416.077	8150
416.153	7003
416.230	6607
416.306	6565
416.383	5815
416.459	7533
416.535	6637
416.612	6607
416.688	7304
416.764	6133
416.841	6015
416.917	6935
416.993	6756
417.069	6933
417.146	6399
417.222	6365
417.298	7256
417.374	6388
417.451	8107
417.527	6243
417.603	7222
417.679	6993
417.755	7542
417.831	6512
417.908	7320
417.984	7193
418.060	6482
418.136	8212
418.212	8048
418.288	7862
418.364	8317
418.440	7192
418.516	8134
418.592	8117
418.668	8843
418.744	8434
418.820	9530
418.896	8795
418.972	8201
419.048	8459
419.124	10502
419.200	8921
419.276	10442
419.352	9750
419.428	11175
419.504	9674
419.579	10761
419.655	11093
419.731	11432
419.807	12450
419.883	13703
419.959	13114
420.034	14161
420.110	13550
420.186	15552
420.262	16764
420.337	15439
420.413	16520
420.489	17729
420.565	20042
420.640	20139
420.716	22327
420.792	20533
420.867	24938
420.943	24865
421.019	28068
421.094	28580
421.170	30544
421.245	33889
421.321	38612
421.397	43404
421.472	75047
421.548	163444
421.623	114460
421.699	66385
421.774	69021
421.850	77152
421.925	91719
422.001	105749
422.076	128394
422.152	157437
422.227	196003
422.302	251051
422.378	318044
422.453	396187
422.529	403085
422.604	276974
422.679	155883
422.755	253942
422.830	398955
422.905	401411
422.981	340934
423.056	271784
423.131	218940
423.207	172472
423.282	140782
423.357	117248
423.432	97893
423.508	87024
423.583	73948
423.658	67038
423.733	58428
423.808	53122
423.883	51908
423.959	54469
424.034	58407
424.109	54484
424.184	42718
424.259	36678
424.334	32672
424.409	28919
424.484	26165
424.559	24782
424.634	22368
424.709	21573
424.784	20393
424.859	19762
424.934	18700
425.009	18192
425.084	18781
425.159	16214
425.234	16380
425.309	14529
425.384	14816
425.459	14044
425.534	13234
425.609	12769
425.683	12083
425.758	12836
425.833	12335
425.908	12677
425.983	12074
426.058	13357
426.132	12465
426.207	11442
426.282	11659
426.357	9776
426.431	9609
426.506	11088
426.581	10007
426.655	10353
426.730	9111
426.805	9014
426.879	9622
426.954	8778
427.029	8774
427.103	11230
427.178	15279
427.253	11837
427.327	8453
427.402	8276
427.476	8908
427.551	7642
427.625	9466
427.700	8894
427.774	8650
427.849	9966
427.923	10550
427.998	12423
428.072	15777
428.147	30119
428.221	97667
428.296	249676
428.370	157661
428.444	38673
428.519	18065
428.593	15097
428.667	15378
428.742	19928
428.816	43497
428.890	159405
428.965	231105
429.039	76197
429.113	21675
429.188	14075
429.262	12466
429.336	11510
429.410	11322
429.485	11288
429.559	12242
429.633	14641
429.707	18935
429.781	41187
429.855	153216
429.930	210609
430.004	79224
430.078	55660
430.152	130505
430.226	317658
430.300	313789
430.374	116333
430.448	44576
430.522	28183
430.596	27897
430.670	61814
430.744	196320
430.818	207884
430.892	56587
430.966	18751
431.040	13515
431.114	10178
431.188	8566
431.262	8781
431.336	8523
431.410	8759
431.484	8501
431.557	10952
431.631	12971
431.705	24880
431.779	81924
431.853	237906
431.927	172941
432.000	40928
432.074	14606
432.148	9390
432.222	7280
432.295	6582
432.369	5713
432.443	5231
432.516	7197
432.590	12005
432.664	6559
432.737	4993
432.811	4143
432.885	3666
432.958	5711
433.032	4305
433.106	3960
433.179	4261
433.253	4836
433.326	4427
433.400	3844
433.473	5191
433.547	4363
433.620	4666
433.694	4500
433.767	5593
433.841	4870
433.914	5634
433.988	5553
434.061	6651
434.134	6151
434.208	5262
434.281	4722
434.355	4912
434.428	4854
434.501	4909
434.575	4078
434.648	4446
434.721	4940
434.795	5272
434.868	5725
434.941	6091
435.014	6287
435.088	7805
435.161	9024
435.234	10162
435.307	12573
435.381	15526
435.454	21532
435.527	33968
435.600	39064
435.673	36587
435.746	32045
435.819	25905
435.892	21121
435.966	17555
436.039	13766
436.112	13393
436.185	11198
436.258	9052
436.331	7663
436.404	8512
436.477	7047
436.550	6191
436.623	6477
436.696	6178
436.769	5255
436.842	4639
436.915	5030
436.987	5472
437.060	4642
437.133	5197
437.206	3368
437.279	4617
437.352	3329
437.425	3873
437.498	3932
437.570	4222
437.643	4095
437.716	3454
437.789	2999
437.861	3236
437.934	2378
438.007	3004
438.080	2985
438.152	3780
438.225	3695
438.298	6885
438.370	18142
438.443	7956
438.516	3944
438.588	3609
438.661	2971
438.734	3727
438.806	3688
438.879	4469
438.951	3558
439.024	4003
439.096	3143
439.169	3015
439.241	3690
439.314	3066
439.386	3319
439.459	3991
439.531	3548
439.604	2961
439.676	4219
439.749	2874
439.821	3533
439.893	3032
439.966	3410
440.038	2831
440.110	3187
440.183	2643
440.255	3255
440.327	4383
440.400	5171
440.472	8828
440.544	7617
440.617	4331
440.689	4616
440.761	4789
440.833	4875
440.905	4373
440.978	4340
441.050	4663
441.122	4928
441.194	5406
441.266	4474
441.338	3964
441.411	4908
441.483	6173
441.555	7092
441.627	6624
441.699	5911
441.771	5993
441.843	6648
441.915	7462
441.987	7384
442.059	9119
442.131	10750
442.203	13992
442.275	19338
442.347	33518
442.419	71998
442.491	216847
442.563	354005
442.635	185128
442.706	58729
442.778	30046
442.850	21633
442.922	19332
442.994	19190
443.066	21855
443.137	26346
443.209	36452
443.281	57442
443.353	111029
443.425	257872
443.496	448875
443.568	466629
443.640	269331
443.711	103144
443.783	50268
443.855	31885
443.926	22276
443.998	18234
444.070	15011
444.141	12651
444.213	12070
444.285	11872
444.356	10743
444.428	11141
444.499	11139
444.571	11310
444.642	12274
444.714	13220
444.785	14188
444.857	16147
444.928	19099
445.000	21862
445.071	29143
445.143	39520
445.214	59613
445.285	98517
445.357	196057
445.428	387926
445.500	473610
445.571	476788
445.642	367242
445.714	178919
445.785	73146
445.856	41445
445.928	28066
445.999	20309
446.070	16943
446.141	14307
446.213	11461
446.284	9995
446.355	8880
446.426	7863
446.497	7313
446.569	7000
446.640	6210
446.711	6373
446.782	4951
446.853	4534
446.924	5669
446.995	4485
447.066	4351
447.138	4233
447.209	3592
447.280	3019
447.351	3386
447.422	3287
447.493	2819
447.564	2987
447.635	2720
447.706	2467
447.777	2736
447.847	2516
447.918	1771
447.989	2576
448.060	2142
448.131	2546
448.202	2763
448.273	1976
448.344	2041
448.414	3046
448.485	2622
448.556	2808
448.627	2239
448.698	3176
448.768	2441
448.839	1978
448.910	1439
448.981	2477
449.051	2302
449.122	1893
449.193	2321
449.263	2316
449.334	1547
449.405	2090
449.475	2196
449.546	2852
449.616	3762
449.687	3633
449.758	3701
449.828	3316
449.899	1873
449.969	1125
450.040	2064
450.110	2243
450.181	2193
450.251	1442
450.322	2321
450.392	2505
450.463	1467
450.533	2048
450.604	2326
450.674	3330
450.744	4646
450.815	5066
450.885	5902
450.955	5977
451.026	5666
451.096	5219
451.166	5668
451.237	6345
451.307	8611
451.377	6676
451.447	5866
451.518	3986
451.588	3810
451.658	3372
451.728	3454
451.799	3536
451.869	3828
451.939	2672
452.009	3185
452.079	3567
452.149	4175
452.219	3699
452.289	4814
452.360	5378
452.430	6946
452.500	9197
452.570	15518
452.640	30927
452.710	69897
452.780	83541
452.850	53564
452.920	28690
452.990	17341
453.060	11795
453.129	7740
453.199	6600
453.269	5688
453.339	5012
453.409	4356
453.479	3620
453.549	3135
453.619	3653
453.688	2597
453.758	3150
453.828	2641
453.898	2143
453.968	2627
454.037	2509
454.087	2261
454.107	2150
454.168	2339
454.177	2354
454.247	1912
454.249	1918
454.316	1838
454.330	1841
454.386	1793
454.411	1821
454.456	1845
454.492	1985
454.525	2065
454.574	2710
454.595	3002
454.655	2151
454.665	1982
454.734	2695
454.736	2719
454.804	3332
454.817	3243
454.873	2747
454.898	2733
454.943	2724
454.979	2657
455.013	2540
455.060	2495
455.082	2444
455.141	2381
455.152	2366
455.221	3206
455.222	3215
455.291	2520
455.303	2774
455.360	3963
455.384	5188
455.430	7282
455.465	5389
455.499	3508
455.546	2951
455.569	2749
455.627	2482
455.638	2388
455.707	2597
455.708	2610
455.777	2217
455.789	2316
455.846	2651
455.869	2648
455.916	2780
455.950	3116
455.985	3215
456.031	2937
456.054	2875
456.112	2953
456.124	2950
456.193	3157
456.193	3140
456.262	3484
456.274	3565
456.332	3651
456.355	3584
456.401	3617
456.436	3699
456.470	3635
456.516	3587
456.540	3601
456.597	2995
456.609	2850
456.678	4056
456.678	4043
456.747	3798
456.759	3706
456.817	3481
456.840	3822
456.886	4206
456.920	4445
456.955	4721
457.001	4585
457.024	4466
457.082	4501
457.093	4518
457.162	5006
457.163	5024
457.232	5565
457.243	5664
457.301	5903
457.324	5961
457.370	6219
457.405	6844
457.439	7414
457.485	7655
457.508	7902
457.566	10491
457.577	11286
457.646	15678
457.647	15776
457.715	33010
457.727	37305
457.784	66582
457.808	90439
457.853	122963
457.889	149475
457.922	156536
457.969	110827
457.991	106169
458.050	110600
458.060	112697
458.129	189876
458.130	192220
458.198	220932
458.211	204918
458.267	129231
458.292	94899
458.336	59760
458.372	51965
458.405	59328
458.453	80861
458.474	99829
458.533	177159
458.543	183999
458.611	297103
458.614	298909
458.680	223298
458.694	187623
458.749	96716
458.775	70256
458.818	41395
458.855	31167
458.887	24632
458.936	19314
458.955	17564
459.016	14372
459.024	13955
459.093	12200
459.097	12108
459.162	10496
459.177	10239
459.230	9379
459.257	9207
459.299	8941
459.338	8446
459.368	8170
459.418	7590
459.437	7264
459.499	7384
459.505	7458
459.574	7963
459.579	7973
459.643	7110
459.659	6912
459.711	7033
459.740	7361
459.780	7203
459.820	6825
459.849	6837
459.900	6968
459.917	6981
459.981	6829
459.986	6794
460.054	6839
460.061	6819
460.123	6725
460.141	6832
460.191	7434
460.222	7657
460.260	7619
460.302	7732
460.328	8100
460.382	8780
460.397	9108
460.462	10681
460.465	11112
460.534	21702
460.543	23241
460.602	66117
460.623	82953
460.671	129010
460.703	174188
460.739	166118
460.783	134530
460.808	113095
460.864	29700
460.876	22169
460.944	11004
460.945	10891
461.013	8006
461.024	7721
461.081	7113
461.104	7141
461.150	7438
461.184	7309
461.218	7198
461.264	7038
461.286	6736
461.345	6602
461.355	6686
461.423	6898
461.425	6907
461.491	6482
461.505	6363
461.559	6591
461.585	6727
461.628	6439
461.665	6365
461.696	6633
461.745	6841
461.764	6594
461.825	5769
461.832	5838
461.901	6416
461.905	6482
461.969	5999
461.985	5753
462.037	6176
462.065	6518
462.105	5771
462.145	5146
462.173	5457
462.225	5855
462.241	5858
462.305	5820
462.310	5872
462.378	6922
462.385	7022
462.446	6827
462.465	6713
462.514	6722
462.545	6889
462.582	6613
462.625	5942
462.650	5851
462.705	6098
462.718	6155
462.785	6186
462.786	6186
462.854	6092
462.865	6038
462.922	5976
462.945	6112
462.990	6559
463.025	6638
463.058	6243
463.104	5859
463.126	5902
463.184	6181
463.194	6169
463.262	5567
463.264	5559
463.330	6154
463.344	6225
463.398	6291
463.424	6322
463.466	6227
463.504	6218
463.533	6617
463.583	7079
463.601	6915
463.663	6643
463.669	6587
463.737	5623
463.743	5519
463.805	6224
463.823	6530
463.873	6538
463.903	6501
463.940	6624
463.982	6576
464.008	6313
464.062	5992
464.076	6206
464.142	7074
464.144	7051
464.211	5758
464.221	5615
464.279	6028
464.301	6112
464.347	6396
464.381	6613
464.414	6441
464.461	6151
464.482	6172
464.540	6199
464.550	6132
464.617	5817
464.620	5788
464.685	5938
464.699	6025
464.753	6545
464.779	6778
464.820	6895
464.859	6961
464.888	6687
464.938	6091
464.956	6311
465.018	7301
465.023	7278
465.091	6731
465.098	6652
465.158	7146
465.177	7358
465.226	6977
465.257	6621
465.293	6483
465.336	6410
465.361	6524
465.416	6728
465.428	6657
465.495	6108
465.496	6119
465.563	6524
465.575	6595
465.631	6520
465.654	6444
465.698	6982
465.734	7434
465.765	7216
465.813	6758
465.833	6784
465.893	6903
465.900	6916
465.968	7048
465.972	7034
466.035	6883
466.052	6853
466.102	6587
466.131	6418
466.170	6390
466.210	6298
466.237	6439
466.290	6747
466.304	6866
466.369	7238
466.372	7232
466.439	6822
466.449	6739
466.506	7211
466.528	7390
466.573	7142
466.607	6888
466.641	7175
466.687	7611
466.708	7937
466.766	8722
466.775	8673
466.842	8260
466.845	8226
466.909	7728
466.925	7585
466.977	7951
467.004	8149
467.044	8149
467.083	8104
467.111	8275
467.163	8569
467.178	8497
467.242	8124
467.245	8142
467.312	8300
467.321	8309
467.379	8223
467.400	8169
467.446	8715
467.480	9086
467.559	9106
467.638	10078
467.717	9303
467.796	10490
467.875	11573
467.955	11256
468.034	12855
468.113	14511
468.192	18359
468.271	23317
468.350	32379
468.429	44996
468.508	49167
468.588	32611
468.667	20241
468.746	14943
468.825	12512
468.904	11942
468.983	10882
469.062	9721
469.141	9870
469.220	8949
469.299	9446
469.378	8488
469.456	8607
469.535	9142
469.614	8391
469.693	7559
469.772	9043
469.851	9220
469.930	9031
470.009	8500
470.088	8632
470.166	10061
470.245	8864
470.324	10614
470.403	9153
470.482	9882
470.560	8917
470.639	9191
470.718	8959
470.797	8585
470.875	6958
470.954	7469
471.033	8287
471.111	8242
471.190	7400
471.269	8380
471.347	7299
471.426	7964
471.505	7555
471.583	8759
471.662	7916
471.740	8175
471.819	8410
471.898	8774
471.976	8918
472.055	9760
472.133	11750
472.212	17022
472.290	10635
472.369	7958
472.447	8101
472.526	8306
472.604	9085
472.683	7728
472.761	8342
472.839	8424
472.918	7973
472.996	8065
473.075	8455
473.153	9066
473.231	9203
473.310	9990
473.388	9868
473.466	9120
473.545	9273
473.623	8680
473.701	8579
473.780	10672
473.858	8768
473.936	10942
474.014	9873
474.093	13408
474.171	17247
474.249	12545
474.327	9813
474.405	9031
474.484	10038
474.562	8807
474.640	8093
474.718	8831
474.796	8671
474.874	8563
474.952	8244
475.030	8707
475.108	8794
475.187	8515
475.265	9909
475.343	10328
475.421	11067
475.499	8683
475.577	9052
475.655	9283
475.733	8899
475.811	7888
475.889	8175
475.966	8868
476.044	7687
476.122	9258
476.200	8701
476.278	7602
476.356	8686
476.434	8021
476.512	8820
476.590	9622
476.667	10057
476.745	7810
476.823	8843
476.901	8631
476.979	8630
477.056	8298
477.134	8178
477.212	7522
477.290	7944
477.367	9192
477.445	7836
477.523	7520
477.601	7518
477.678	7153
477.756	7491
477.834	8127
477.911	8525
477.989	8599
478.066	7734
478.144	8952
478.222	8570
478.299	12028
478.377	15844
478.454	13982
478.532	8097
478.609	8634
478.687	8946
478.764	7749
478.842	7815
478.919	7496
478.997	8032
479.074	8454
479.152	8074
479.229	8634
479.307	7440
479.384	7571
479.461	8409
479.539	8093
479.616	7888
479.694	7630
479.771	8461
479.848	7681
479.926	6917
480.003	9248
480.080	8486
480.157	8348
480.235	8055
480.312	8966
480.389	8590
480.467	9368
480.544	9661
480.621	10250
480.698	10663
480.775	11097
480.853	10092
480.930	9892
481.007	10748
481.084	20973
481.161	39967
481.238	22761
481.315	8901
481.392	9413
481.470	9748
481.547	10045
481.624	10245
481.701	10787
481.778	11103
481.855	10913
481.932	11749
482.009	12274
482.086	13730
482.163	16007
482.240	18621
482.317	20530
482.393	16723
482.470	15274
482.547	14548
482.624	13199
482.701	12715
482.778	11785
482.855	12651
482.932	13503
483.009	14724
483.085	20796
483.162	31957
483.239	31678
483.316	19360
483.393	19525
483.469	16554
483.546	14568
483.623	13068
483.699	12149
483.776	11065
483.853	10658
483.930	11185
484.006	10976
484.083	11994
484.160	11851
484.236	11392
484.313	12658
484.389	12239
484.466	16095
484.543	18866
484.619	24420
484.696	26879
484.772	18569
484.849	13544
484.925	12158
485.002	11834
485.078	11802
485.155	9338
485.231	9838
485.308	9359
485.384	10221
485.461	11403
485.537	10570
485.614	10034
485.690	8875
485.766	8122
485.843	8686
485.919	8482
485.995	9228
486.072	8474
486.148	9297
486.224	8674
486.301	9911
486.377	9214
486.453	8571
486.530	9740
486.606	10235
486.682	11455
486.758	11234
486.835	14118
486.911	14228
486.987	13955
487.063	15369
487.139	21969
487.215	36879
487.292	33807
487.368	27912
487.444	35302
487.520	53972
487.596	86941
487.672	172124
487.748	510576
487.824	830293
487.900	358780
487.976	104047
488.052	50419
488.128	32991
488.204	22617
488.280	20421
488.356	16348
488.432	15312
488.508	13553
488.584	12129
488.660	11331
488.736	11869
488.812	10919
488.888	11114
488.964	10362
489.039	10837
489.115	14259
489.191	16271
489.267	13031
489.343	8978
489.418	9074
489.494	8628
489.570	7946
489.646	10195
489.722	9018
489.797	9269
489.873	9542
489.949	10312
490.024	9885
490.100	9377
490.176	9400
490.251	9907
490.327	10419
490.403	8794
490.478	9208
490.554	9059
490.629	9681
490.705	8906
490.781	9063
490.856	9289
490.932	8234
491.007	8189
491.083	8213
491.158	8161
491.234	8054
491.309	8213
491.385	7338
491.460	7115
491.536	8551
491.611	7638
491.686	7674
491.762	7487
491.837	8238
491.913	8406
491.988	8832
492.063	9408
492.139	7901
492.214	7988
492.289	7355
492.365	6726
492.440	6694
492.515	6222
492.590	6524
492.666	7380
492.741	8258
492.816	7153
492.891	6275
492.967	7446
493.042	7223
493.117	7367
493.192	7138
493.267	7990
493.342	10611
493.418	13742
493.493	7500
493.568	7930
493.643	6643
493.718	6630
493.793	6539
493.868	7194
493.943	6847
494.018	7389
494.093	6908
494.168	7215
494.243	6898
494.318	6814
494.393	7322
494.468	6205
494.543	8019
494.618	7296
494.693	6622
494.768	6194
494.842	5950
494.917	7713
494.992	6996
495.067	7330
495.142	6158
495.217	6483
495.292	6737
495.366	7372
495.441	6205
495.516	7785
495.591	6383
495.665	9492
495.740	11806
495.815	9378
495.890	7075
495.964	5770
496.039	10649
496.114	14963
496.188	36677
496.263	29780
496.338	8911
496.412	7169
496.487	6868
496.561	7627
496.636	7010
496.710	8564
496.785	11067
496.860	9277
496.934	6035
497.009	6584
497.083	6534
497.158	6560
497.232	6273
497.307	7249
497.381	6097
497.455	6975
497.530	7371
497.604	6702
497.679	6939
497.753	6562
497.827	6465
497.902	5953
497.976	6682
498.050	7112
498.125	6792
498.199	6156
498.273	7125
498.348	6916
498.422	7174
498.496	7213
498.570	7391
498.645	6471
498.719	5361
498.793	6925
498.867	6669
498.941	6913
499.016	6091
499.090	6958
499.164	6606
499.238	7021
499.312	7970
499.386	7565
499.460	7017
499.534	7836
499.609	6938
499.683	7407
499.757	8119
499.831	7340
499.905	6169
499.979	6688
500.053	6886
500.127	6858
500.201	7149
500.275	8409
500.349	6366
500.422	6288
500.496	7788
500.570	7894
500.644	7754
500.718	8385
500.792	7883
500.866	8600
500.940	6966
501.013	8321
501.087	6954
501.161	8604
501.235	6447
501.309	9382
501.382	8079
501.456	8536
501.530	7126
501.603	6857
501.677	8184
501.751	5963
501.825	8219
501.898	7501
501.972	6844
502.046	7965
502.119	5841
502.193	8452
502.266	6612
502.340	7281
502.413	6875
502.487	8010
502.561	7001
502.634	8634
502.708	7906
502.781	7440
502.855	8338
502.928	7356
503.002	7999
503.075	7843
503.149	8706
503.222	8012
503.295	8262
503.369	10035
503.442	9880
503.516	11773
503.589	13731
503.662	16130
503.736	19934
503.809	26780
503.882	34665
503.956	52274
504.029	107145
504.102	292908
504.175	464144
504.249	221063
504.322	82438
504.395	43941
504.468	28456
504.542	19514
504.615	15007
504.688	14051
504.761	11198
504.834	11577
504.907	9453
504.980	8919
505.053	7436
505.127	6295
505.200	9952
505.273	7406
505.346	6699
505.419	6581
505.492	7977
505.565	6578
505.638	7475
505.711	5905
505.784	5458
505.857	6370
505.930	7400
506.003	5169
506.076	8121
506.149	5520
506.221	3914
506.294	6965
506.367	4216
506.440	4914
506.513	5966
506.586	6247
506.659	4551
506.731	5584
506.804	4815
506.877	4818
506.950	5070
507.022	5957
507.095	4371
507.168	5203
507.241	6236
507.313	5032
507.386	4050
507.459	6771
507.531	4847
507.604	4821
507.677	5387
507.749	4400
507.822	5671
507.894	5388
507.967	5016
508.040	4124
508.112	5327
508.185	5369
508.257	4207
508.330	7130
508.402	4712
508.475	4927
508.547	4872
508.620	5056
508.692	5011
508.765	5679
508.837	5093
508.909	5609
508.982	4047
509.054	6019
509.127	5075
509.199	4653
509.271	4086
509.344	4923
509.416	4604
509.488	4925
509.560	5298
509.633	4581
509.705	4665
509.777	4553
509.849	5109
509.922	3797
509.994	5317
510.066	5648
510.138	3902
510.210	6828
510.283	4110
510.355	4063
510.427	5623
510.499	4708
510.571	4356
510.643	4466
510.715	5802
510.787	3430
510.859	6135
510.931	4202
511.003	5351
511.076	6017
511.148	4275
511.219	4749
511.291	5624
511.363	5895
511.435	4810
511.507	3938
511.579	5688
511.651	6263
511.723	5227
511.795	4901
511.867	4110
511.939	4229
512.010	3999
512.082	5884
512.154	3061
512.226	5357
512.298	5426
512.369	4244
512.441	5461
512.513	5474
512.585	3807
512.656	6394
512.728	4565
512.800	4396
512.871	5107
512.943	4958
513.015	3649
513.086	5476
513.158	5393
513.230	3819
513.301	3905
513.373	6825
513.444	4669
513.516	5902
513.588	4312
513.659	5430
513.731	4698
513.802	4236
513.874	6234
513.945	4699
514.016	4654
514.088	5552
514.159	3425
514.231	5733
514.302	5505
514.374	5461
514.445	3641
514.516	6339
514.588	3927
514.659	5057
514.730	4161
514.802	6492
514.873	3339
514.944	7656
515.016	5140
515.087	5047
515.158	4431
515.229	5991
515.301	4280
515.372	6154
515.443	4356
515.514	5487
515.585	6868
515.656	7620
515.728	7208
515.799	4701
515.870	5733
515.941	6188
516.012	4302
516.083	5902
516.154	5636
516.225	6378
516.296	7754
516.367	6071
516.438	6430
516.509	6139
516.580	8162
516.651	17066
516.722	43611
516.793	27071
516.864	8569
516.935	8705
517.006	9413
517.077	10173
517.148	15552
517.219	62760
517.289	109997
517.360	22185
517.431	10869
517.502	7116
517.573	8119
517.643	8225
517.714	8082
517.785	9528
517.856	7498
517.926	11867
517.997	12958
518.068	13737
518.138	19017
518.209	23196
518.280	53990
518.350	182309
518.421	104349
518.492	41106
518.562	47616
518.633	65802
518.703	102619
518.774	225079
518.845	553020
518.915	566153
518.986	193749
519.056	78473
519.127	45110
519.197	31214
519.268	22252
519.338	19283
519.408	14581
519.479	13715
519.549	11198
519.620	11747
519.690	11228
519.760	8986
519.831	8403
519.901	8262
519.971	7683
520.042	6208
520.112	6841
520.182	7567
520.253	7575
520.323	5849
520.393	5420
520.463	8964
520.534	3306
520.604	8891
520.674	6575
520.744	5861
520.814	5123
520.885	7455
520.955	6091
521.025	6051
521.095	5459
521.165	7380
521.235	6079
521.305	5284
521.375	6034
521.445	6624
521.515	5499
521.585	6809
521.655	3707
521.725	6900
521.795	7327
521.865	4448
521.935	7741
522.005	6239
522.075	6495
522.145	8193
522.215	8283
522.285	8753
522.355	5868
522.424	7910
522.494	8930
522.564	9004
522.634	6630
522.704	10169
522.774	6814
522.843	7761
522.913	9948
522.983	8823
523.053	6411
523.122	7263
523.192	6849
523.262	7081
523.331	7238
523.401	7563
523.471	6669
523.540	8344
523.610	7479
523.680	7638
523.749	8942
523.819	12384
523.888	13951
523.958	9001
524.027	8145
524.097	8192
524.166	7134
524.236	7613
524.305	9664
524.375	7799
524.444	7167
524.514	10339
524.583	7350
524.653	7935
524.722	8206
524.791	7776
524.861	10285
524.930	8542
524.999	8326
525.069	10044
525.138	9604
525.207	10749
525.277	11760
525.346	11699
525.415	14761
525.484	16463
525.554	18627
525.623	25649
525.692	38529
525.761	39074
525.830	45288
525.900	58505
525.969	90164
526.038	180957
526.107	343937
526.176	967704
526.245	846703
526.314	268944
526.383	474894
526.452	710940
526.522	859308
526.591	879025
526.660	193108
526.729	98131
526.797	96652
526.867	134297
526.935	345370
527.004	1181795
527.073	899482
527.142	173350
527.211	65796
527.280	42517
527.349	29019
527.418	21740
527.487	18954
527.555	15373
527.624	14264
527.693	12318
527.762	13412
527.831	11305
527.899	12708
527.968	10471
528.037	9000
528.106	10963
528.174	9988
528.243	9837
528.312	9385
528.380	9033
528.449	8385
528.518	11253
528.586	7869
528.655	10394
528.723	8235
528.792	8531
528.861	7787
528.929	7414
528.998	8663
529.066	7236
529.135	7716
529.203	7130
529.272	6917
529.340	9009
529.409	8794
529.477	6681
529.545	6107
529.614	10161
529.682	6565
529.751	7773
529.819	10412
529.887	8513
529.956	7542
530.024	9004
530.092	6746
530.161	8753
530.229	7118
530.297	7816
530.365	9045
530.434	8757
530.502	7852
530.570	8529
530.638	6928
530.707	9181
530.775	9507
530.843	7985
530.911	8338
530.979	9988
531.047	8060
531.115	9143
531.183	9350
531.252	9556
531.320	8251
531.388	8026
531.456	9217
531.524	7344
531.592	10133
531.660	11129
531.728	8112
531.796	9312
531.864	9048
531.932	9513
532.000	9292
532.067	9588
532.135	9883
532.203	11889
532.271	9718
532.339	12611
532.407	12739
532.475	12259
532.542	12007
532.610	11895
532.678	9674
532.746	13346
532.814	16718
532.881	12532
532.949	11851
533.017	12139
533.084	10955
533.152	10170
533.220	10138
533.287	9903
533.355	10557
533.423	10977
533.490	10496
533.558	11678
533.625	12108
533.693	12293
533.761	12124
533.828	12462
533.896	11218
533.963	13857
534.031	14870
534.098	17392
534.166	20219
534.233	18415
534.300	22685
534.368	23198
534.435	22575
534.503	25483
534.570	27389
534.637	32485
534.705	37287
534.772	47376
534.840	90889
534.907	391103
534.974	567217
535.041	94073
535.109	33755
535.176	24373
535.243	22200
535.310	20590
535.378	19431
535.445	19805
535.512	21006
535.579	20090
535.646	18802
535.714	21057
535.781	22111
535.848	21443
535.915	21102
535.982	19242
536.049	19535
536.116	21644
536.183	19030
536.250	18201
536.317	18818
536.384	20974
536.451	21287
536.518	21124
536.585	19558
536.652	23314
536.719	22151
536.786	19103
536.853	19168
536.920	21825
536.987	20934
537.053	19223
537.120	22899
537.187	25561
537.254	23055
537.321	23471
537.388	24339
537.454	22299
537.521	22276
537.588	21888
537.654	23198
537.721	24260
537.788	24980
537.855	22070
537.921	22716
537.988	21752
538.055	21910
538.121	19811
538.188	20385
538.254	20111
538.321	19262
538.388	22094
538.454	24421
538.521	25433
538.587	25826
538.654	24091
538.720	22654
538.787	24428
538.853	23074
538.920	23356
538.986	20153
539.053	20607
539.119	21023
539.185	21578
539.252	22260
539.318	22708
539.385	26398
539.451	23248
539.517	23852
539.583	23217
539.650	23223
539.716	24049
539.782	22673
539.849	21887
539.915	23248
539.981	22043
540.047	22022
540.114	22298
540.180	23311
540.246	24572
540.312	25401
540.378	24056
540.444	25067
540.510	24717
540.576	27023
540.643	24071
540.709	21287
540.775	23249
540.841	22936
540.907	22208
540.973	21956
541.039	21785
541.105	23349
541.171	25071
541.237	25500
541.303	25478
541.369	26349
541.435	25714
541.500	23615
541.566	21660
541.632	22062
541.698	23298
541.764	23999
541.830	23441
541.896	23427
541.961	23194
542.027	22599
542.093	25838
542.159	25890
542.224	22050
542.290	23891
542.356	23495
542.421	23699
542.487	22425
542.553	21321
542.618	22269
542.684	23267
542.750	24141
542.815	23946
542.881	24002
542.947	24987
543.012	26461
543.078	23020
543.143	21505
543.209	22751
543.274	22755
543.340	23419
543.405	23485
543.471	24222
543.536	24697
543.602	24624
543.667	23483
543.732	24359
543.798	24527
543.863	25759
543.928	23850
543.994	24616
544.059	26582
544.124	26668
544.190	26172
544.255	26887
544.320	28685
544.386	26426
544.451	27513
544.516	26724
544.581	26900
544.646	27820
544.712	30217
544.777	28746
544.842	28878
544.907	28201
544.972	28538
545.037	30317
545.102	33491
545.168	30756
545.233	31179
545.298	31656
545.363	30957
545.428	32791
545.493	34157
545.558	33414
545.623	32488
545.688	32753
545.753	35063
545.818	35716
545.883	37554
545.947	38851
546.012	40340
546.077	41043
546.142	44451
546.207	44084
546.272	47512
546.337	47376
546.401	50808
546.466	52583
546.531	54932
546.596	58314
546.661	61236
546.725	64757
546.790	67211
546.855	74206
546.919	82271
546.984	91127
547.049	96283
547.113	111708
547.178	123487
547.243	138184
547.307	159717
547.372	177596
547.436	179280
547.501	186295
547.565	203232
547.630	185988
547.695	179639
547.759	178589
547.823	181892
547.888	185553
547.952	191540
548.017	200628
548.081	221289
548.146	207455
548.210	205753
548.274	221598
548.339	217678
548.403	199592
548.468	186887
548.532	185155
548.596	192336
548.660	191503
548.725	205983
548.789	222117
548.853	218878
548.917	208762
548.982	203022
549.046	183644
549.110	165420
549.174	169823
549.238	197804
549.303	218618
549.367	223439
549.431	214164
549.495	199472
549.559	200115
549.623	227289
549.687	251211
549.751	243875
549.815	287675
549.879	296969
549.943	284345
550.007	296010
550.071	294182
550.135	267010
550.199	251221
550.263	250057
550.327	236491
550.391	246071
550.455	274394
550.519	282656
550.582	296487
550.646	332290
550.710	340100
550.774	338526
550.838	340952
550.901	351648
550.965	370744
551.029	389997
551.093	415479
551.156	452988
551.220	504342
551.284	543528
551.347	445950
551.411	374939
551.475	352153
551.538	361081
551.602	340835
551.666	321497
551.729	306477
551.793	292970
551.856	291805
551.920	285011
551.983	285158
552.047	281340
552.110	285878
552.174	290347
552.237	295218
552.301	273472
552.364	260202
552.428	253355
552.491	261493
552.554	268796
552.618	263179
552.681	268365
552.745	258896
552.808	263809
552.871	278907
552.934	273889
552.998	267548
553.061	260210
553.124	251566
553.187	249235
553.251	258444
553.314	258348
553.377	258520
553.440	276579
553.503	284257
553.567	282669
553.630	277590
553.693	276824
553.756	277821
553.819	273481
553.882	262391
553.945	263230
554.008	266394
554.071	269010
554.134	269944
554.197	256198
554.260	247298
554.323	252337
554.386	255515
554.449	264659
554.512	266197
554.575	255619
554.638	253054
554.701	250694
554.764	250615
554.827	241201
554.889	233897
554.952	221165
555.015	215121
555.078	218857
555.141	221366
555.203	218277
555.266	216851
555.329	217315
555.391	205563
555.454	204609
555.517	198834
555.580	191736
555.642	184690
555.705	182785
555.768	181163
555.830	175029
555.893	167346
555.955	163514
556.018	160343
556.080	160871
556.143	165890
556.206	163789
556.268	157209
556.330	155488
556.393	152552
556.455	148242
556.518	143755
556.580	141408
556.643	133642
556.705	132969
556.767	129334
556.830	130530
556.892	125557
556.955	124473
557.017	120559
557.079	121795
557.142	118245
557.204	116509
557.266	118807
557.328	111141
557.391	101370
557.453	102167
557.515	101882
557.577	101888
557.639	104122
557.701	103190
557.764	103603
557.826	105925
557.888	107721
557.950	113858
558.012	123362
558.074	152644
558.136	290680
558.198	674706
558.260	318048
558.322	127003
558.384	117899
558.446	123872
558.508	131254
558.570	143744
558.632	164368
558.694	208040
558.756	329403
558.818	777916
558.880	1486409
558.942	821406
559.003	746697
559.065	437092
559.127	171939
559.189	151335
559.251	164497
559.312	222283
559.374	450565
559.436	1148789
559.498	739132
559.559	217296
559.621	159438
559.683	169585
559.744	254031
559.806	650216
559.868	988545
559.929	315839
559.991	174498
560.052	248340
560.114	635657
560.176	488464
560.237	378677
560.299	626081
560.360	191357
560.422	76007
560.483	59425
560.545	54858
560.606	50845
560.667	47618
560.729	46012
560.790	43676
560.852	42711
560.913	41907
560.974	40207
561.036	40509
561.097	39589
561.158	40346
561.220	37956
561.281	37002
561.342	35262
561.403	36447
561.465	34730
561.526	36202
561.587	35813
561.648	33792
561.709	33103
561.771	33628
561.832	32222
561.893	32253
561.954	31960
562.015	31215
562.076	30398
562.137	30387
562.198	29531
562.259	30679
562.320	30629
562.381	30526
562.442	30414
562.503	29693
562.564	28733
562.625	27339
562.686	27554
562.747	28185
562.808	27672
562.869	27752
562.930	26564
562.991	26886
563.051	26677
563.112	26521
563.173	25964
563.234	25106
563.294	25026
563.355	25711
563.416	25147
563.477	25179
563.537	24866
563.598	25441
563.659	24122
563.720	24785
563.780	23281
563.841	24442
563.901	24723
563.962	24739
564.023	23745
564.083	24518
564.144	23391
564.204	24136
564.265	23293
564.325	24250
564.386	24295
564.446	23355
564.507	22788
564.567	22315
564.628	22113
564.688	22295
564.749	22391
564.809	22101
564.869	22579
564.930	22062
564.990	22295
565.050	22521
565.111	21686
565.171	21906
565.231	21688
565.292	22550
565.352	21047
565.412	22701
565.472	21436
565.532	21417
565.593	21609
565.653	20917
565.713	21827
565.773	22196
565.833	22872
565.893	23490
565.953	20160
566.013	20247
566.074	20634
566.134	20732
566.194	19860
566.254	21009
566.314	19740
566.374	19668
566.434	20702
566.494	20471
566.554	20535
566.614	21932
566.673	21621
566.733	23115
566.793	21794
566.853	23508
566.913	22740
566.973	21959
567.033	21810
567.092	21363
567.152	20439
567.212	22693
567.272	22154
567.331	22485
567.391	22436
567.451	24934
567.511	24637
567.570	23529
567.630	23296
567.690	22922
567.749	21465
567.809	21631
567.868	22043
567.928	21938
567.988	22384
568.047	23380
568.107	21998
568.166	22735
568.226	22259
568.285	24085
568.345	23614
568.404	23953
568.464	23340
568.523	22419
568.582	22557
568.642	23396
568.701	21401
568.761	22172
568.820	21324
568.879	22855
568.939	23578
568.998	22753
569.057	22686
569.116	22629
569.176	22039
569.235	22251
569.294	22869
569.353	21921
569.413	21682
569.472	21057
569.531	20077
569.590	21317
569.649	21209
569.708	20828
569.767	22333
569.827	22425
569.886	21364
569.945	22124
570.004	22190
570.063	22097
570.122	22790
570.181	22414
570.240	23180
570.299	24011
570.358	23785
570.417	23681
570.475	22430
570.534	23829
570.593	23430
570.652	23782
570.711	22709
570.770	23814
570.829	22280
570.887	22785
570.946	24202
571.005	23395
571.064	24046
571.122	23834
571.181	22978
571.240	23079
571.299	22475
571.357	21669
571.416	21890
571.475	22512
571.533	23281
571.592	25029
571.650	24775
571.709	26097
571.768	29367
571.826	30766
571.885	28419
571.943	26006
572.002	23152
572.060	23896
572.119	22514
572.177	23142
572.236	23718
572.294	23623
572.352	24421
572.411	25340
572.469	23663
572.528	23253
572.586	23089
572.644	22381
572.703	22715
572.761	21603
572.819	21932
572.877	20901
572.936	20651
572.994	20940
573.052	21178
573.110	22669
573.169	22966
573.227	22321
573.285	21852
573.343	23617
573.401	22036
573.459	22744
573.517	22868
573.576	24751
573.634	23447
573.692	23392
573.750	22972
573.808	21192
573.866	21557
573.924	21244
573.982	21732
574.040	21246
574.098	22129
574.155	21528
574.213	21344
574.271	23286
574.329	24455
574.387	23174
574.445	20012
574.503	20059
574.560	19979
574.618	20145
574.676	20625
574.734	19778
574.792	19597
574.849	19099
574.907	17515
574.965	17820
575.022	16939
575.080	16753
575.138	16471
575.195	17602
575.253	16308
575.311	16433
575.368	16449
575.426	16256
575.483	17214
575.541	17939
575.598	17473
575.656	16992
575.713	17558
575.771	19356
575.828	18573
575.886	17223
575.943	16970
576.001	16007
576.058	15750
576.115	16548
576.173	16643
576.230	16549
576.287	16870
576.345	17152
576.402	17295
576.459	18485
576.517	15363
576.574	16728
576.631	16107
576.688	15866
576.746	15873
576.803	14512
576.860	14557
576.917	15054
576.974	15769
577.031	16693
577.089	15389
577.146	15343
577.203	14160
577.260	15102
577.317	14403
577.374	14960
577.431	14746
577.488	14971
577.545	14444
577.602	15151
577.659	14954
577.716	15455
577.773	14671
577.830	14479
577.886	15384
577.943	14587
578.000	14019
578.057	14327
578.114	14639
578.171	14657
578.227	14455
578.284	14014
578.341	15137
578.398	14866
578.454	14609
578.511	15515
578.568	15174
578.625	14786
578.681	15250
578.738	15260
578.794	14904
578.851	15537
578.908	15115
578.964	15103
579.021	15250
579.077	15653
579.134	15081
579.190	14774
579.247	15732
579.303	14645
579.360	15170
579.416	15694
579.473	15866
579.529	14981
579.586	14914
579.642	15767
579.698	15905
579.755	16554
579.811	15376
579.867	15439
579.924	15943
579.980	16250
580.036	15510
580.093	16235
580.149	15513
580.205	16117
580.261	17217
580.317	17554
580.374	17014
580.430	18436
580.486	17773
580.542	17766
580.598	18730
580.619	18420
580.654	17889
580.692	17213
580.710	16886
580.765	18044
580.767	18082
580.823	17852
580.838	18502
580.879	20231
580.911	19499
580.935	18975
580.984	18729
580.991	18700
581.047	18316
581.057	18317
581.103	18268
581.130	18125
581.159	17995
581.203	17404
581.215	17251
581.270	17509
581.276	17535
581.326	17752
581.349	17869
581.382	18045
581.422	18239
581.438	18311
581.494	17773
581.494	17778
581.550	18052
581.567	17955
581.606	17780
581.640	17971
581.661	18063
581.713	18657
581.717	18702
581.773	17651
581.786	17866
581.829	18560
581.859	18897
581.885	19253
581.932	18118
581.940	17889
581.996	19005
582.004	18937
582.052	18400
582.077	18666
582.107	18987
582.150	19577
582.163	19717
582.219	17972
582.223	17976
582.274	18383
582.296	18578
582.330	18737
582.368	18788
582.386	18855
582.441	19711
582.441	19706
582.497	19210
582.514	18985
582.552	18597
582.587	19161
582.608	19512
582.659	19239
582.663	19207
582.719	19793
582.732	19822
582.774	20011
582.805	19992
582.830	19887
582.877	20660
582.885	20792
582.941	19979
582.950	20001
582.996	20055
583.023	20368
583.052	20757
583.095	20268
583.107	20157
583.162	20129
583.168	20214
583.218	20715
583.240	20170
583.273	19516
583.313	20720
583.328	21134
583.384	20477
583.385	20484
583.439	20734
583.458	20733
583.494	20881
583.531	21181
583.549	21322
583.603	21305
583.605	21313
583.660	23011
583.676	23038
583.715	22716
583.748	23317
583.770	23859
583.820	22778
583.825	22672
583.881	23616
583.893	23602
583.936	23695
583.965	23648
583.991	23450
584.038	23788
584.046	23925
584.101	23981
584.110	24062
584.156	24472
584.183	24661
584.211	24716
584.255	25313
584.266	25596
584.321	25792
584.328	25903
584.376	27004
584.400	27545
584.431	27879
584.472	27164
584.486	27106
584.541	29003
584.545	29031
584.596	29710
584.617	29754
584.651	30084
584.689	31731
584.706	32352
584.761	33233
584.762	33217
584.816	34647
584.834	35439
584.871	37146
584.906	38647
584.926	39504
584.978	41810
584.980	41996
585.035	46389
585.051	47900
585.090	52182
585.123	55701
585.145	58605
585.195	65144
585.200	66010
585.254	77802
585.267	80787
585.309	92781
585.340	101852
585.364	111020
585.412	131840
585.419	135972
585.473	170985
585.484	179793
585.528	239710
585.556	288436
585.583	386491
585.628	589898
585.637	659432
585.692	1171952
585.700	1256012
585.747	1524070
585.772	1455255
585.801	1127974
585.845	643507
585.856	558594
585.910	286508
585.917	258211
585.965	183657
585.989	150617
586.019	130222
586.061	106407
586.074	102562
586.128	87942
586.133	86725
586.183	79390
586.205	75981
586.237	73329
586.277	70490
586.292	69899
586.346	67255
586.349	67018
586.401	65592
586.421	64830
586.455	64095
586.493	63326
586.509	63853
586.564	64911
586.565	64865
586.618	70529
586.637	72472
586.672	81643
586.709	91920
586.727	97297
586.781	112448
586.781	112642
586.835	97780
586.853	92730
586.889	81737
586.925	72471
586.944	70820
586.996	67159
586.998	67249
587.052	65549
587.068	64973
587.106	65015
587.140	65358
587.161	65703
587.212	64562
587.215	64700
587.269	66237
587.284	66365
587.323	66795
587.356	67416
587.377	68617
587.427	70294
587.431	70497
587.485	71354
587.499	71444
587.539	73347
587.571	74763
587.593	76425
587.643	79943
587.648	80359
587.702	82382
587.715	82691
587.755	83101
587.786	83008
587.810	83493
587.858	83619
587.864	83788
587.917	84403
587.930	84080
587.971	84961
588.001	85792
588.025	85977
588.073	85482
588.079	85731
588.133	85872
588.145	85733
588.187	86704
588.217	87271
588.241	88872
588.288	91789
588.295	92419
588.348	95703
588.360	96127
588.402	97532
588.431	97973
588.456	99144
588.503	101006
588.510	102109
588.564	110138
588.575	111524
588.617	116957
588.646	120092
588.671	124071
588.718	131975
588.725	134922
588.778	157733
588.789	162827
588.832	231169
588.861	281713
588.886	392772
588.932	619003
588.939	641400
588.993	802606
589.004	811404
589.047	494869
589.075	296173
589.100	236967
589.147	147125
589.154	145239
589.207	130629
589.218	127608
589.261	127726
589.290	127836
589.314	131397
589.361	137876
589.368	142158
589.421	177458
589.433	185456
589.475	297756
589.504	380659
589.528	492083
589.576	721397
589.582	701193
589.635	432108
589.647	373496
589.689	228748
589.718	138037
589.742	129988
589.790	113945
589.795	113836
589.849	111225
589.861	110084
589.902	108582
589.932	107353
589.955	107452
590.004	106389
590.009	106619
590.062	105933
590.075	105422
590.115	106570
590.146	106843
590.168	106135
590.218	103848
590.222	104407
590.275	107197
590.289	107713
590.328	110573
590.360	112168
590.381	112977
590.431	113582
590.435	114040
590.488	115827
590.503	115947
590.541	117693
590.574	118679
590.594	120316
590.645	123094
590.647	123617
590.700	127108
590.716	127691
590.753	131722
590.787	135016
590.806	136962
590.859	140291
590.859	140772
590.912	142310
590.930	142401
590.965	144306
591.001	145359
591.018	145424
591.071	143701
591.072	143210
591.124	142346
591.143	141288
591.177	142574
591.214	143293
591.230	144783
591.283	148004
591.285	147631
591.336	147562
591.356	146851
591.389	146691
591.427	145413
591.442	145902
591.495	145940
591.498	145446
591.547	147147
591.569	147236
591.600	150231
591.640	153037
591.653	154108
591.706	156275
591.711	155971
591.759	160488
591.782	162032
591.811	166278
591.853	171036
591.864	171675
591.917	171743
591.924	171135
591.969	171011
591.995	170062
592.022	172611
592.066	175245
592.075	176576
592.127	180882
592.137	181055
592.180	183366
592.208	183790
592.233	187449
592.279	192426
592.285	193664
592.338	198300
592.350	198636
592.390	197747
592.421	195833
592.443	199119
592.491	204053
592.495	205096
592.548	209127
592.562	209482
592.600	209591
592.633	208246
592.653	209433
592.704	209378
592.705	210713
592.775	217088
592.846	220474
592.916	223504
592.987	226809
593.058	228823
593.128	230988
593.199	233965
593.270	237147
593.341	242999
593.411	251661
593.482	263750
593.553	268268
593.623	269215
593.694	277326
593.764	281855
593.835	276950
593.906	278412
593.976	285008
594.047	292168
594.117	301923
594.188	310660
594.258	308371
594.329	309604
594.399	317050
594.470	327769
594.540	336350
594.611	342158
594.681	340919
594.751	337615
594.822	352995
594.892	366016
594.963	374487
595.033	386006
595.103	396208
595.174	397841
595.244	405447
595.314	416976
595.384	429952
595.455	439771
595.525	454526
595.595	470685
595.665	471258
595.736	459681
595.806	467192
595.876	474592
595.946	476215
596.016	494335
596.087	511897
596.157	512027
596.227	514925
596.297	538480
596.367	572942
596.437	604318
596.507	599557
596.577	594372
596.647	614737
596.717	643689
596.787	656594
596.857	655603
596.927	658658
596.997	663483
597.067	671129
597.137	675658
597.207	680304
597.277	686686
597.347	658676
597.417	640895
597.487	636675
597.557	655436
597.626	667850
597.696	676263
597.766	670001
597.836	636348
597.906	607590
597.975	593930
598.045	601672
598.115	625527
598.185	668828
598.254	739481
598.324	800181
598.394	810017
598.464	788390
598.533	774678
598.603	729191
598.672	708497
598.742	722980
598.812	723020
598.881	744935
598.951	736178
599.020	751010
599.090	774807
599.159	786122
599.229	755795
599.299	741940
599.368	765657
599.437	753624
599.507	699704
599.576	672981
599.646	662250
599.715	654121
599.785	653232
599.854	631769
599.924	620446
599.993	616772
600.062	631234
600.132	645343
600.201	680322
600.270	779855
600.340	820364
600.409	806371
600.478	799383
600.547	818649
600.617	740537
600.686	603137
600.755	544556
600.824	515164
600.894	505478
600.963	510008
601.032	497851
601.101	479443
601.170	460853
601.239	442604
601.308	438068
601.378	439680
601.447	439518
601.516	441291
601.585	447324
601.654	454920
601.723	453087
601.792	466522
601.861	480112
601.930	492314
601.999	501179
602.068	495542
602.137	507017
602.206	514669
602.275	522498
602.343	525318
602.412	529362
602.481	535553
602.550	538084
602.619	556766
602.688	560474
602.756	563206
602.825	568436
602.894	585402
602.963	597359
603.032	605522
603.100	606387
603.169	606165
603.238	614231
603.307	616611
603.375	623673
603.444	633356
603.513	647600
603.581	659361
603.650	663974
603.719	658787
603.787	680469
603.856	695350
603.924	712734
603.993	739786
604.061	764911
604.130	791189
604.198	807058
604.267	821111
604.335	832303
604.404	847521
604.472	852756
604.541	862001
604.609	872072
604.678	871209
604.746	876864
604.815	897669
604.883	909273
604.951	909474
605.020	924472
605.088	945167
605.156	961859
605.225	973954
605.293	980583
605.361	977395
605.429	991644
605.498	1003152
605.566	1026362
605.634	1065656
605.702	1096661
605.771	1132007
605.839	1128335
605.907	1113232
605.975	1076552
606.043	1060777
606.111	1064258
606.180	1060586
606.248	1053838
606.316	1038908
606.384	1040269
606.452	1039981
606.520	1077670
606.588	1111207
606.656	1119254
606.724	1103189
606.792	1045085
606.860	966969
606.928	893323
606.996	859324
607.064	843574
607.132	867111
607.200	910064
607.267	937852
607.335	953732
607.403	971436
607.471	945086
607.539	916401
607.607	922903
607.674	831371
607.742	831092
607.810	822463
607.878	826210
607.946	840230
608.013	878347
608.081	890881
608.149	892836
608.216	925376
608.284	949069
608.352	949594
608.419	944325
608.487	918000
608.555	908416
608.622	936229
608.690	987015
608.757	1071533
608.825	1091116
608.893	1063745
608.960	1013003
609.028	974190
609.095	972038
609.163	974842
609.230	882756
609.298	814783
609.365	857546
609.432	914741
609.500	980273
609.567	1092870
609.635	1214051
609.702	1260982
609.769	1212749
609.837	990079
609.904	888220
609.971	921644
610.039	991001
610.106	1185579
610.173	1770556
610.241	2737604
610.308	2285942
610.375	1300991
610.442	1040125
610.509	955823
610.577	934280
610.644	938348
610.711	960605
610.778	974418
610.845	1009169
610.912	1061152
610.980	1096017
611.047	1092069
611.114	1072227
611.181	1043798
611.248	1047484
611.315	1087917
611.382	1113931
611.449	1148774
611.516	1162863
611.583	1155852
611.650	1163335
611.717	1178504
611.784	1201172
611.851	1248280
611.918	1304218
611.984	1466928
612.051	1792798
612.118	2457952
612.185	3227687
612.252	3000359
612.319	2091931
612.386	1655230
612.452	1446442
612.519	1345781
612.586	1296124
612.653	1300698
612.719	1322096
612.786	1279641
612.853	1199400
612.919	1181853
612.986	1191355
613.053	1137160
613.120	1083300
613.186	1048246
613.253	1048791
613.319	1049386
613.386	1057837
613.453	1073845
613.519	1077263
613.586	1052869
613.652	1065710
613.719	1051758
613.785	1070871
613.852	1077196
613.918	1074284
613.985	1081448
614.051	1118221
614.118	1105515
614.184	1075068
614.250	1068008
614.317	1095615
614.383	1076278
614.449	1098067
614.516	1089597
614.582	1091468
614.648	1078058
614.715	1070546
614.781	1053919
614.847	1048074
614.914	1047433
614.980	1025338
615.046	1024963
615.112	1057312
615.179	1058510
615.245	1068679
615.311	1059993
615.377	1073201
615.443	1088272
615.509	1103378
615.575	1139968
615.642	1145005
615.708	1165594
615.774	1209019
615.840	1275997
615.906	1353526
615.972	1550847
616.038	1984097
616.104	2757123
616.170	3373273
616.236	3275121
616.302	2587640
616.368	2190733
616.434	1737224
616.500	1514024
616.565	1588274
616.631	1913979
616.697	1728753
616.763	1647294
616.829	2100550
616.895	2923192
616.961	2937067
617.026	2060550
617.092	1462860
617.158	1263505
617.224	1177418
617.289	1085097
617.355	1027371
617.421	1000879
617.487	991807
617.552	945751
617.618	937722
617.684	935500
617.749	932850
617.815	905891
617.880	885797
617.946	881260
618.012	895089
618.077	907378
618.143	873018
618.208	873367
618.274	923476
618.339	930250
618.405	793823
618.470	783633
618.536	782639
618.601	770534
618.667	722887
618.732	688180
618.798	681971
618.863	684110
618.928	673167
618.994	679999
619.059	674422
619.124	679646
619.190	670670
619.255	667612
619.320	663390
619.386	668355
619.451	665935
619.516	641436
619.581	650771
619.647	676839
619.712	677169
619.777	643275
619.842	649675
619.907	662748
619.972	674726
620.038	667138
620.103	652761
620.168	653892
620.233	663312
620.298	667538
620.363	676992
620.428	695327
620.493	708623
620.558	716588
620.623	723690
620.688	716905
620.753	710983
620.818	726362
620.883	728964
620.948	722645
621.013	711491
621.078	700431
621.143	711284
621.207	713605
621.272	700079
621.337	676626
621.402	669908
621.467	663082
621.532	663584
621.596	668345
621.661	646893
621.726	644394
621.791	654269
621.855	649226
621.920	640592
621.985	657725
622.049	665682
622.114	669559
622.179	676540
622.243	692195
622.308	714000
622.373	734179
622.437	718802
622.502	682700
622.566	678018
622.631	677609
622.695	689229
622.760	682539
622.824	682860
622.889	688122
622.953	686491
623.018	720006
623.082	732590
623.147	728335
623.211	713591
623.276	712650
623.340	691395
623.404	670713
623.469	667001
623.533	681130
623.597	662046
623.662	658288
623.726	614886
623.790	579480
623.854	567216
623.919	573719
623.983	585970
624.047	600042
624.111	601162
624.176	613660
624.240	615950
624.304	637052
624.368	614677
624.432	610879
624.496	626845
624.560	660873
624.625	667118
624.689	661077
624.753	691771
624.817	658363
624.881	645206
624.945	587372
625.009	567940
625.073	579580
625.137	603359
625.201	623001
625.265	626753
625.329	599556
625.393	609715
625.456	613045
625.520	629140
625.584	638567
625.648	654709
625.712	666623
625.776	660670
625.839	627404
625.903	543592
625.967	510531
626.031	538150
626.095	629813
626.158	597439
626.222	482254
626.286	446452
626.349	433874
626.413	408110
626.477	402599
626.540	411796
626.604	408492
626.668	398262
626.731	396570
626.795	397757
626.858	399467
626.922	395371
626.986	390169
627.049	393995
627.113	408980
627.176	393712
627.240	385384
627.303	388704
627.366	383262
627.430	390669
627.493	384906
627.557	378755
627.620	383975
627.684	404278
627.747	407262
627.810	379029
627.874	340110
627.937	328909
628.000	339305
628.064	331108
628.127	300235
628.190	294618
628.253	285786
628.317	274754
628.380	262601
628.443	256443
628.506	255330
628.569	245492
628.632	235852
628.696	233813
628.759	233061
628.822	224168
628.885	220049
628.948	216154
629.011	213199
629.074	205861
629.137	200228
629.200	197569
629.263	193691
629.326	194026
629.389	195401
629.452	192749
629.515	191229
629.578	186990
629.641	190653
629.704	194042
629.767	189050
629.830	182254
629.892	180747
629.955	178822
630.018	183888
630.081	182210
630.144	180720
630.207	179835
630.269	180827
630.332	174304
630.395	174510
630.458	168871
630.520	165755
630.583	166107
630.646	170731
630.708	172419
630.771	176135
630.834	184183
630.896	181022
630.959	182350
631.021	177809
631.084	178148
631.146	179417
631.209	183378
631.272	182006
631.334	188931
631.397	191817
631.459	195328
631.522	205835
631.584	212332
631.646	224292
631.709	233693
631.771	232940
631.834	224071
631.896	213580
631.958	200980
632.021	192649
632.083	182951
632.145	180989
632.208	177319
632.270	174950
632.332	173058
632.395	171009
632.457	172837
632.519	166754
632.581	166740
632.643	164679
632.706	168037
632.768	163354
632.830	166087
632.892	170737
632.954	173398
633.016	172431
633.078	172097
633.141	171455
633.203	170204
633.265	170726
633.327	168205
633.389	172579
633.451	173290
633.513	172616
633.575	177429
633.637	178526
633.698	182798
633.760	194747
633.822	201638
633.884	205437
633.946	214964
634.008	221651
634.070	233466
634.132	247979
634.193	266853
634.255	289269
634.317	293643
634.379	289513
634.441	264211
634.502	239536
634.564	218660
634.626	202592
634.687	189007
634.749	180486
634.811	178629
634.873	174344
634.934	176211
634.996	173511
635.057	173441
635.119	179943
635.181	181969
635.242	183644
635.304	182756
635.365	184840
635.427	183050
635.488	184022
635.550	182123
635.611	185974
635.673	190621
635.734	203603
635.796	218997
635.857	236468
635.918	257668
635.980	281566
636.041	300528
636.102	317011
636.164	319314
636.225	307650
636.286	273642
636.348	244037
636.409	218176
636.470	202881
636.531	190597
636.593	180850
636.654	172058
636.715	164628
636.776	161079
636.838	154283
636.899	152936
636.960	149513
637.021	148436
637.082	142997
637.143	140766
637.204	135274
637.265	136800
637.326	136696
637.387	142063
637.448	139738
637.509	138767
637.570	137861
637.631	134368
637.692	128712
637.753	127477
637.814	127164
637.875	126091
637.936	126475
637.997	127404
638.058	128890
638.119	126806
638.179	124740
638.240	124071
638.301	124885
638.362	119806
638.423	117776
638.483	117226
638.544	115011
638.605	118800
638.666	119137
638.726	116136
638.787	115473
638.848	117588
638.908	113243
638.969	108907
639.030	107956
639.090	106365
639.151	107527
639.211	109984
639.272	112123
639.332	113621
639.393	119730
639.453	129268
639.514	132543
639.574	115758
639.635	104670
639.695	105155
639.756	101536
639.816	101204
639.877	100434
639.937	101989
639.997	103236
640.058	100434
640.118	102568
640.178	101878
640.239	103078
640.299	103901
640.359	107473
640.420	115869
640.480	130593
640.540	151485
640.600	158587
640.661	149703
640.721	150141
640.781	176764
640.841	190077
640.901	118099
640.961	111301
641.021	114543
641.082	127199
641.142	113305
641.202	104082
641.262	97088
641.322	98503
641.382	97085
641.442	95746
641.502	95931
641.562	97653
641.622	104034
641.682	113822
641.742	132058
641.802	124875
641.861	106217
641.921	96461
641.981	93221
642.041	89507
642.101	88350
642.161	86495
642.221	89763
642.280	89334
642.340	88931
642.400	92691
642.460	94229
642.519	94336
642.579	96052
642.639	95999
642.698	95634
642.758	102469
642.818	98671
642.877	97767
642.937	99401
642.997	99002
643.056	98762
643.116	96872
643.175	102018
643.235	103110
643.294	107669
643.354	112301
643.414	121938
643.473	136747
643.532	161811
643.592	207333
643.651	295485
643.711	456659
643.770	801068
643.830	1516810
643.889	2058264
643.948	1134187
644.008	429123
644.067	246646
644.126	178065
644.186	145920
644.245	128013
644.304	114004
644.363	112512
644.423	104670
644.482	104835
644.541	110505
644.600	116152
644.659	136682
644.719	167765
644.778	232287
644.837	365183
644.896	676106
644.955	1246383
645.014	570149
645.073	204066
645.132	147170
645.191	129740
645.250	121678
645.309	124742
645.368	138873
645.427	181879
645.486	309808
645.545	525970
645.604	180446
645.663	109895
645.722	107810
645.781	114688
645.840	124214
645.898	144499
645.957	187146
646.016	265115
646.075	424252
646.134	750522
646.192	1485984
646.251	1746573
646.310	719797
646.369	300783
646.427	225770
646.486	166834
646.545	123875
646.603	110685
646.662	100812
646.721	95848
646.779	94681
646.838	99454
646.896	114374
646.955	147910
647.014	223125
647.072	410309
647.131	942018
647.189	528550
647.248	134237
647.306	94854
647.365	83068
647.423	75355
647.481	75074
647.540	71362
647.598	73246
647.657	71540
647.715	69622
647.773	67824
647.832	67439
647.890	61436
647.948	62543
648.007	61704
648.065	59009
648.123	58403
648.181	59013
648.240	58562
648.298	58004
648.356	55744
648.414	57587
648.472	56192
648.531	54739
648.589	54625
648.647	55667
648.705	56163
648.763	57775
648.821	59767
648.879	60594
648.937	66919
648.995	77897
649.053	94349
649.111	130442
649.169	198011
649.227	340896
649.285	664964
649.343	1347958
649.401	835441
649.459	226726
649.516	122998
649.574	95182
649.632	89530
649.690	95308
649.748	114685
649.806	167182
649.863	297451
649.921	732086
649.979	527089
650.037	111059
650.094	67439
650.152	61138
650.210	57005
650.268	60205
650.325	71694
650.383	96314
650.440	53589
650.498	44876
650.556	44119
650.613	43782
650.671	43528
650.728	46529
650.786	50739
650.843	76046
650.901	60939
650.958	40801
651.016	38018
651.073	40205
651.131	37196
651.188	37056
651.246	36612
651.303	35487
651.360	35204
651.418	35334
651.475	36775
651.532	35051
651.590	36179
651.647	33454
651.704	34525
651.762	34243
651.819	33086
651.876	32696
651.933	31063
651.990	33169
652.048	30570
652.105	31811
652.162	31721
652.219	30249
652.276	31353
652.333	31835
652.390	30098
652.448	30995
652.505	31798
652.562	31236
652.619	29361
652.676	30869
652.733	32219
652.790	30192
652.847	28996
652.904	30076
652.961	27893
653.017	27969
653.074	29545
653.131	29348
653.188	28469
653.245	29330
653.302	29085
653.359	28557
653.415	29329
653.472	29092
653.529	28945
653.586	28251
653.642	28494
653.699	30311
653.756	28866
653.813	29249
653.869	30727
653.926	30626
653.983	29634
654.039	29602
654.096	29256
654.152	29254
654.209	26818
654.266	27580
654.322	25768
654.379	28124
654.435	28355
654.492	27254
654.548	27864
654.605	30845
654.661	34826
654.717	28726
654.774	28353
654.830	29203
654.887	30101
654.943	36073
655.000	49502
655.056	37064
655.112	29487
655.168	28257
655.225	28746
655.281	29822
655.337	28535
655.394	27863
655.450	26093
655.506	27199
655.562	25679
655.618	26633
655.675	25374
655.731	26177
655.787	25173
655.843	27423
655.899	25897
655.955	27013
656.011	27951
656.067	27578
656.123	26660
656.179	26685
656.235	29080
656.291	27178
656.347	29517
656.403	27006
656.459	25871
656.515	26874
656.571	26411
656.627	26502
656.683	25008
656.739	26003
656.795	25059
656.850	26465
656.906	25964
656.962	28177
657.018	29195
657.074	36522
657.129	46593
657.185	72285
657.241	164949
657.297	95062
657.352	32252
657.408	26553
657.464	26713
657.519	24627
657.575	23123
657.630	23927
657.686	24158
657.742	23670
657.797	24428
657.853	23812
657.908	25159
657.964	23737
658.019	23836
658.075	24054
658.130	24718
658.186	22679
658.241	23971
658.297	21697
658.352	22555
658.407	23339
658.463	22178
658.518	22682
658.573	22768
658.629	22155
658.684	21778
658.739	22138
658.795	21415
658.850	21837
658.905	21870
658.960	21928
659.016	20740
659.071	21365
659.126	21844
659.181	21530
659.236	21999
659.291	21920
659.346	21002
659.401	22012
659.457	22778
659.512	21616
659.567	22163
659.622	21525
659.677	21018
659.732	21070
659.787	21262
659.842	21210
659.897	21475
659.952	21879
660.007	21181
660.061	21804
660.116	20139
660.171	21564
660.226	20570
660.281	21952
660.336	20801
660.391	20879
660.445	19507
660.500	20163
660.555	20385
660.610	21242
660.664	21121
660.719	19197
660.774	19998
660.828	20816
660.883	19623
660.938	20194
660.992	19300
661.047	19983
661.101	18970
661.156	19422
661.211	18644
661.265	19214
661.320	20143
661.374	19634
661.429	20519
661.483	21274
661.538	20548
661.592	23878
661.647	29238
661.701	44745
661.755	27259
661.810	20506
661.864	19399
661.919	18305
661.973	20347
662.027	19524
662.081	18475
662.136	18659
662.190	19431
662.244	18995
662.299	19681
662.353	19473
662.407	19774
662.461	18803
662.515	19170
662.569	17373
662.624	19080
662.678	18918
662.732	19091
662.786	19236
662.840	19301
662.894	18994
662.948	19280
663.002	18443
663.056	18529
663.110	18903
663.164	18914
663.218	19628
663.272	18385
663.326	18809
663.380	19114
663.434	18933
663.488	17365
663.542	19309
663.595	19464
663.649	18727
663.703	19454
663.757	19174
663.811	17594
663.864	18119
663.918	19147
663.972	18711
664.026	18834
664.079	18854
664.133	19933
664.187	20603
664.240	21446
664.294	22984
664.348	24096
664.401	19854
664.455	19227
664.508	18742
664.562	18713
664.615	19113
664.669	18753
664.722	18746
664.776	18070
664.829	19469
664.883	18596
664.936	18855
664.990	19100
665.043	19358
665.097	18954
665.150	21222
665.203	19510
665.257	19590
665.310	21785
665.363	20396
665.417	20867
665.470	21246
665.523	21082
665.576	21581
665.630	21132
665.683	21227
665.736	20932
665.789	20561
665.842	19062
665.895	20530
665.949	20362
666.002	20705
666.055	20575
666.108	21450
666.161	21436
666.214	20831
666.267	21632
666.320	21613
666.373	22347
666.426	22145
666.479	22408
666.532	23039
666.585	24086
666.638	23436
666.691	22813
666.744	23071
666.796	21787
666.849	21954
666.902	21792
666.955	21734
667.008	21324
667.060	21013
667.113	21208
667.166	22644
667.219	23050
667.271	22815
667.324	21630
667.377	20721
667.430	21457
667.482	20680
667.535	21103
667.587	20976
667.640	21296
667.693	20659
667.745	21094
667.798	21129
667.850	20375
667.903	21750
667.955	22018
668.008	21766
668.060	20748
668.113	21658
668.165	20147
668.218	20660
668.270	20235
668.322	20159
668.375	19780
668.427	20400
668.479	19081
668.532	21592
668.584	19147
668.636	19369
668.689	19995
668.741	20064
668.793	19507
668.845	20429
668.898	20607
668.950	18974
669.002	20117
669.054	20055
669.106	18708
669.158	19796
669.211	19741
669.263	18955
669.315	19488
669.367	18823
669.419	18600
669.471	19659
669.523	18787
669.575	19166
669.627	18061
669.679	18223
669.731	18686
669.783	19123
669.835	18048
669.886	18126
669.938	17929
669.990	18807
670.042	18220
670.094	17750
670.146	17607
670.197	18729
670.249	18313
670.301	18484
670.353	18811
670.404	19100
670.456	18391
670.508	20843
670.560	24608
670.611	29436
670.663	39059
670.715	72515
670.766	100687
670.818	37595
670.869	23923
670.921	24131
670.972	24852
671.024	22631
671.075	20879
671.127	20636
671.178	24067
671.230	26466
671.281	28583
671.333	33252
671.384	38240
671.436	49082
671.487	68507
671.538	95558
671.590	146292
671.641	230511
671.692	382059
671.744	632232
671.795	545819
671.846	280624
671.897	151506
671.949	97623
672.000	69379
672.051	51809
672.102	41850
672.153	36575
672.204	32009
672.256	29413
672.307	26491
672.358	24372
672.409	22150
672.460	21984
672.511	20439
672.562	19816
672.613	17542
672.664	17581
672.715	18689
672.766	16683
672.817	16386
672.868	17077
672.919	15871
672.970	14716
673.021	15567
673.071	14911
673.122	14576
673.173	13864
673.224	14806
673.275	14887
673.326	13789
673.376	14244
673.427	13895
673.478	14686
673.528	15192
673.579	14778
673.630	15112
673.680	15827
673.731	14045
673.782	14411
673.832	14014
673.883	14162
673.934	13234
673.984	14833
674.035	14663
674.085	14767
674.136	15615
674.186	14889
674.237	15595
674.287	15788
674.338	16396
674.388	15916
674.438	16872
674.489	17765
674.539	18839
674.589	18728
674.640	17863
674.690	17702
674.740	16363
674.791	16948
674.841	15838
674.891	14064
674.942	13570
674.992	12662
675.042	12648
675.092	12308
675.142	12166
675.193	11652
675.243	12385
675.293	13127
675.343	13613
675.393	14986
675.443	13988
675.493	13840
675.543	13425
675.593	13942
675.643	13196
675.693	13559
675.743	12963
675.793	11358
675.843	10830
675.893	11412
675.943	11343
675.993	10828
676.043	10745
676.093	10597
676.142	11559
676.192	11451
676.242	10655
676.292	10117
676.341	10652
676.391	10472
676.441	10740
676.491	10554
676.540	9742
676.590	10704
676.640	10110
676.689	10237
676.739	9131
676.789	9677
676.838	8886
676.888	10627
676.937	9094
676.987	10420
677.037	10080
677.086	10297
677.136	8684
677.185	9849
677.235	9176
677.284	9725
677.333	10357
677.383	9931
677.432	9348
677.482	9588
677.531	8780
677.580	8811
677.630	8443
677.679	9215
677.728	8697
677.778	9354
677.827	7940
677.876	9222
677.925	10218
677.975	10537
678.024	11722
678.073	11475
678.122	10744
678.171	12470
678.220	14087
678.269	15882
678.319	17480
678.368	17376
678.417	14927
678.466	12584
678.515	11084
678.564	9544
678.613	9372
678.662	8992
678.711	8726
678.760	10472
678.809	10739
678.857	10860
678.906	11344
678.955	11116
679.004	11899
679.053	16090
679.102	15657
679.151	10930
679.199	9376
679.248	9729
679.297	9403
679.346	8123
679.394	7637
679.443	8264
679.492	8338
679.540	9081
679.589	8957
679.638	9974
679.686	10283
679.735	11439
679.784	12685
679.832	16841
679.881	12066
679.929	10391
679.978	9699
680.026	9992
680.075	9868
680.123	8283
680.172	8438
680.220	8468
680.268	8831
680.317	8463
680.365	7882
680.414	7506
680.462	8505
680.510	8464
680.559	7552
680.607	8733
680.655	8466
680.703	8309
680.752	8281
680.800	7793
680.848	7218
680.896	8243
680.945	7144
680.993	6845
681.041	7445
681.089	7851
681.137	7668
681.185	7105
681.233	7079
681.258	7118
681.281	7098
681.329	7349
681.377	7598
681.380	7670
681.425	7920
681.473	9168
681.502	8873
681.521	8569
681.569	10656
681.617	9327
681.624	9435
681.665	9644
681.713	8266
681.745	8748
681.761	8899
681.809	8824
681.857	10096
681.867	10117
681.904	9924
681.952	10288
681.989	9567
682.000	9277
682.048	9543
682.096	9587
682.111	9622
682.143	9536
682.191	9584
682.233	10527
682.239	10605
682.286	9700
682.334	10307
682.354	10102
682.382	9729
682.430	10790
682.476	10643
682.477	10585
682.525	10664
682.572	9746
682.598	10336
682.620	10789
682.667	10799
682.715	10430
682.720	10620
682.763	11886
682.810	11186
682.841	11402
682.857	11413
682.905	11433
682.952	11338
682.963	11507
683.000	11924
683.047	11071
683.085	12275
683.095	12552
683.142	11895
683.190	11687
683.206	11702
683.237	11557
683.284	11626
683.328	12045
683.332	12034
683.379	12568
683.426	11554
683.449	12438
683.473	13334
683.521	12617
683.568	13162
683.571	13148
683.615	12188
683.662	13544
683.693	13259
683.709	13036
683.757	12811
683.804	13592
683.814	13457
683.851	12900
683.898	12967
683.936	12870
683.945	12812
683.992	13726
684.039	13445
684.057	13494
684.086	13364
684.133	13607
684.179	13078
684.180	13028
684.227	13032
684.274	13165
684.300	13152
684.321	13148
684.368	13266
684.415	14518
684.422	14484
684.462	14115
684.509	14336
684.543	14898
684.556	15033
684.603	15320
684.649	14447
684.665	14675
684.696	15071
684.743	15565
684.786	15784
684.790	15754
684.837	14980
684.883	15008
684.908	15111
684.930	15373
684.977	16083
685.023	16220
685.029	16329
685.070	16724
685.117	16205
685.150	16302
685.164	16299
685.210	16008
685.257	16613
685.272	16747
685.303	16958
685.350	17110
685.393	16966
685.396	16910
685.443	15351
685.490	15890
685.514	15982
685.536	16244
685.583	15955
685.629	15195
685.636	15341
685.675	15927
685.722	16307
685.757	16363
685.768	16347
685.815	15920
685.861	16802
685.878	16555
685.908	16361
685.954	17504
686.000	17720
686.000	17706
686.047	17568
686.093	17427
686.121	17664
686.139	17835
686.185	18316
686.232	17932
686.242	18120
686.278	18507
686.324	18378
686.363	17813
686.370	17753
686.416	18335
686.463	18083
686.484	18308
686.509	18389
686.555	18296
686.601	18711
686.606	18711
686.647	18714
686.693	18063
686.727	18639
686.739	18801
686.785	18128
686.831	18227
686.848	18337
686.877	18798
686.923	18944
686.969	18998
686.969	18997
687.015	20278
687.061	20606
687.090	21082
687.107	21123
687.153	21656
687.199	20657
687.211	20466
687.245	19859
687.291	20256
687.332	19853
687.336	19888
687.382	21278
687.428	21690
687.453	21973
687.474	22189
687.520	23458
687.565	23887
687.574	24047
687.611	26388
687.657	30049
687.695	33728
687.702	34973
687.748	45102
687.794	57148
687.816	57131
687.839	50623
687.885	39603
687.931	32876
687.937	31806
687.976	28742
688.022	25433
688.058	23268
688.067	23294
688.113	22785
688.158	21890
688.179	21902
688.204	22159
688.249	22096
688.295	22645
688.300	22626
688.340	22496
688.386	22874
688.421	22687
688.431	22652
688.477	22346
688.522	22496
688.542	22932
688.567	24002
688.613	24452
688.658	25352
688.663	25437
688.703	25029
688.749	23881
688.784	23688
688.794	23790
688.839	24613
688.884	24588
688.905	24739
688.930	24808
688.975	24683
689.020	25004
689.026	24912
689.065	25153
689.110	25889
689.146	26719
689.155	27033
689.201	29544
689.246	29991
689.267	30086
689.291	28728
689.336	26488
689.381	24841
689.388	24636
689.426	25127
689.471	24996
689.509	24573
689.516	24557
689.561	25150
689.606	24605
689.630	24811
689.651	24870
689.696	24744
689.741	25106
689.750	24922
689.785	24928
689.830	25451
689.871	25717
689.875	25685
689.920	25322
689.965	24790
689.992	24368
690.010	24324
690.054	24267
690.099	24260
690.112	24245
690.144	24289
690.189	24575
690.233	23951
690.233	23978
690.278	24941
690.323	24789
690.354	25085
690.367	25168
690.412	25319
690.457	24877
690.474	25029
690.501	25165
690.546	24763
690.590	24586
690.595	24464
690.635	23760
690.680	23419
690.716	23360
690.724	23517
690.769	24082
690.813	24879
690.836	24978
690.857	25090
690.902	25559
690.946	25855
690.957	25957
690.991	26047
691.035	25853
691.077	25745
691.080	25797
691.124	26060
691.168	26370
691.198	26331
691.213	26262
691.257	26611
691.301	25996
691.318	26118
691.346	26401
691.390	25903
691.434	25936
691.439	25893
691.478	26012
691.522	26530
691.559	26379
691.567	26490
691.611	27231
691.655	27811
691.680	28029
691.699	27881
691.743	27405
691.787	27772
691.800	27527
691.831	27260
691.875	27216
691.919	27691
691.921	27640
691.964	27704
692.008	27955
692.041	27869
692.052	27824
692.096	27908
692.139	28031
692.162	27872
692.183	27740
692.227	27587
692.271	27090
692.282	27015
692.315	27069
692.359	27311
692.402	27099
692.403	27145
692.447	27033
692.490	27425
692.523	27426
692.534	27487
692.578	27570
692.622	27403
692.643	27396
692.666	27398
692.709	27536
692.753	27135
692.763	27099
692.797	27442
692.840	27562
692.884	27765
692.884	27815
692.928	27774
692.971	27445
693.004	27407
693.015	27544
693.059	27915
693.102	27955
693.124	27812
693.146	27739
693.189	28172
693.233	28122
693.245	28172
693.276	28505
693.320	28311
693.363	28269
693.365	28229
693.407	28716
693.450	28671
693.485	28844
693.493	28902
693.537	28891
693.580	28366
693.605	28407
693.624	28419
693.667	28047
693.710	27621
693.725	27469
693.753	27690
693.797	27741
693.840	28060
693.845	27990
693.883	28032
693.926	28472
693.966	28592
693.970	28631
694.013	28651
694.056	28574
694.086	28494
694.099	28696
694.142	28971
694.185	29196
694.206	29457
694.229	29824
694.272	29894
694.315	30411
694.326	30393
694.358	30208
694.401	29891
694.444	29787
694.446	29706
694.487	29896
694.530	30325
694.566	30546
694.573	30627
694.616	30727
694.659	30712
694.686	30802
694.702	31032
694.745	31223
694.787	31658
694.806	31728
694.830	31777
694.873	31628
694.916	31595
694.926	31502
694.959	32095
695.002	33081
695.044	33784
695.046	33753
695.087	34596
695.130	34961
695.166	35462
695.172	35547
695.215	35369
695.258	35506
695.286	35290
695.301	35527
695.343	36206
695.386	36983
695.406	37259
695.428	38845
695.471	41596
695.514	44641
695.526	45423
695.556	48194
695.599	52007
695.641	55274
695.646	55531
695.684	52582
695.726	49228
695.766	46131
695.769	46189
695.811	45251
695.854	44705
695.886	44064
695.896	44243
695.938	44579
695.981	44857
696.005	45098
696.023	46542
696.065	49540
696.108	52736
696.125	53871
696.150	54707
696.192	55928
696.235	57072
696.245	57267
696.277	57361
696.319	57416
696.361	57218
696.365	57069
696.404	56324
696.446	55633
696.485	54770
696.488	54900
696.530	54941
696.572	54862
696.604	54826
696.614	54882
696.656	54465
696.698	54195
696.724	53796
696.740	54221
696.783	55034
696.825	56135
696.844	56348
696.867	56496
696.909	56656
696.951	56827
696.964	56767
696.992	57216
697.034	57571
697.076	57928
697.083	57887
697.118	59745
697.160	61672
697.202	63559
697.203	63462
697.244	63091
697.286	62766
697.323	62122
697.327	62218
697.369	61865
697.411	61447
697.442	61065
697.453	61243
697.494	61240
697.536	61313
697.562	61260
697.578	61458
697.620	61518
697.661	61552
697.682	61512
697.703	62855
697.744	65043
697.786	67373
697.801	68029
697.828	67734
697.869	66932
697.911	66174
697.921	65846
697.952	65594
697.994	65042
698.035	64516
698.040	64282
698.077	65009
698.118	65790
698.160	66590
698.160	66435
698.201	68303
698.243	70100
698.279	71446
698.284	71756
698.325	73077
698.367	74379
698.399	75236
698.408	75637
698.449	76645
698.491	77646
698.518	78110
698.532	78321
698.573	78398
698.614	78524
698.638	78375
698.656	78551
698.697	78525
698.738	78494
698.757	78296
698.779	78240
698.820	77758
698.862	77280
698.877	76910
698.903	77208
698.944	77389
698.985	77561
698.996	77420
699.026	77583
699.067	77542
699.116	77302
699.235	76902
699.354	75383
699.474	72215
699.593	71154
699.713	72230
699.832	72715
699.951	76789
700.070	73694
700.190	67898
700.309	66709
700.428	66531
700.547	63197
700.667	64289
700.786	64938
700.905	60958
701.024	63800
701.143	62043
701.262	66405
701.381	67233
701.500	67921
701.619	65214
701.738	67817
701.857	65476
701.976	60785
702.095	64500
702.214	66183
702.333	62682
702.452	65799
702.571	66960
702.690	64787
702.809	65070
702.928	60193
703.047	57956
703.165	60830
703.284	60075
703.403	58600
703.522	58724
703.640	55836
703.759	55502
703.878	53662
703.997	56952
704.115	57657
704.234	56000
704.353	58259
704.471	52468
704.590	51968
704.708	52402
704.827	50946
704.946	51384
705.064	52532
705.183	50060
705.301	52042
705.420	49320
705.538	48640
705.656	46568
705.775	44387
705.893	50211
706.012	47897
706.130	46845
706.249	50342
706.367	45961
706.485	47103
706.604	45751
706.722	48272
706.840	67541
706.958	124018
707.077	79702
707.195	45933
707.313	44752
707.431	40863
707.549	41489
707.668	38865
707.786	44871
707.904	41529
708.022	44531
708.140	42017
708.258	39341
708.376	43980
708.494	39862
708.612	44104
708.730	43411
708.848	40542
708.966	42057
709.084	42167
709.202	42642
709.320	37066
709.438	38251
709.556	38318
709.674	35207
709.791	35689
709.909	36317
710.027	35948
710.145	35003
710.263	35646
710.380	36325
710.498	34057
710.616	34219
710.733	32967
710.851	34179
710.969	34084
711.086	33930
711.204	34654
711.322	33792
711.439	34091
711.557	31584
711.674	31999
711.792	33023
711.909	31078
712.027	31461
712.144	30587
712.262	31412
712.379	33805
712.497	30604
712.614	30904
712.732	32783
712.849	29414
712.966	32284
713.084	33267
713.201	29674
713.318	32117
713.436	35383
713.553	31934
713.670	36974
713.787	35644
713.905	32887
714.022	35994
714.139	39545
714.256	47776
714.373	68523
714.490	125699
714.608	316233
714.725	1002885
714.842	848841
714.959	162091
715.076	68206
715.193	52297
715.310	42717
715.427	33609
715.544	34379
715.661	32843
715.778	30159
715.895	29472
716.011	30667
716.128	28065
716.245	28666
716.362	26904
716.479	25036
716.596	27443
716.713	29204
716.829	27010
716.946	23778
717.063	24131
717.180	23286
717.296	24193
717.413	23549
717.530	23299
717.646	21636
717.763	22785
717.880	22925
717.996	21694
718.113	20837
718.229	21809
718.346	20899
718.462	20904
718.579	22497
718.695	21317
718.812	21221
718.928	20844
719.045	21446
719.161	21592
719.277	22889
719.394	24221
719.510	24900
719.626	27454
719.743	33853
719.859	54054
719.975	116203
720.092	417090
720.208	716122
720.324	127747
720.440	42111
720.557	28925
720.673	26717
720.789	23495
720.905	21406
721.021	21486
721.137	20575
721.253	18667
721.369	20908
721.486	19436
721.602	19318
721.718	19108
721.834	19752
721.950	18502
722.066	17843
722.181	18418
722.297	18069
722.413	18217
722.529	18424
722.645	18486
722.761	17829
722.877	18675
722.993	22224
723.108	30722
723.224	24491
723.340	20393
723.456	18872
723.571	16218
723.687	16855
723.803	18146
723.918	18601
724.034	16158
724.150	17676
724.265	17095
724.381	16475
724.497	15325
724.612	16710
724.728	17291
724.843	15288
724.959	15271
725.074	16917
725.190	16450
725.305	16741
725.421	16734
725.536	17935
725.651	18080
725.767	15871
725.882	15462
725.997	16037
726.113	16444
726.228	15437
726.343	14991
726.459	14774
726.574	15872
726.689	16325
726.804	15365
726.920	15092
727.035	16374
727.150	15786
727.265	15307
727.380	15800
727.495	15646
727.610	14557
727.725	13865
727.841	15961
727.956	16230
728.071	15132
728.186	14534
728.301	14444
728.416	15760
728.531	15198
728.645	14768
728.760	14390
728.875	14605
728.990	14327
729.105	14902
729.220	14911
729.335	15350
729.449	15133
729.564	14788
729.679	14816
729.794	16234
729.908	15717
730.023	14911
730.138	16091
730.253	16604
730.367	14898
730.482	15460
730.596	17622
730.711	21722
730.826	37029
730.940	45053
731.055	24717
731.169	23355
731.284	23459
731.398	23474
731.513	25090
731.627	28969
731.742	39443
731.856	48544
731.970	51658
732.085	66436
732.199	96489
732.313	171936
732.428	398780
732.542	860544
732.656	493710
732.771	147200
732.885	81540
732.999	67312
733.113	66229
733.227	62205
733.342	58040
733.456	56462
733.570	53528
733.684	49605
733.798	47593
733.912	48714
734.026	48894
734.140	47415
734.254	45536
734.368	45365
734.482	45592
734.596	45168
734.710	42832
734.824	42699
734.938	43395
735.052	42960
735.166	42625
735.280	40809
735.393	40035
735.507	41869
735.621	39490
735.735	39624
735.849	41977
735.962	37672
736.076	42494
736.190	38400
736.303	38822
736.417	38459
736.531	37282
736.644	38285
736.758	37831
736.872	37210
736.985	37162
737.099	34755
737.212	36192
737.326	33854
737.439	37842
737.553	34125
737.666	35481
737.780	33835
737.893	36610
738.007	33943
738.120	36224
738.233	31920
738.347	35013
738.460	30795
738.573	35941
738.687	31972
738.800	32553
738.913	34800
739.026	31777
739.140	31294
739.253	31415
739.366	30251
739.479	30932
739.592	30927
739.705	28409
739.818	33863
739.932	29074
740.045	31746
740.158	28992
740.271	32340
740.384	30122
740.497	26207
740.610	30826
740.723	26781
740.836	28371
740.949	29068
741.062	31624
741.174	26868
741.287	29235
741.400	29546
741.513	25672
741.626	29404
741.739	27164
741.851	25949
741.964	28075
742.077	25881
742.189	24489
742.302	27590
742.415	26756
742.527	26168
742.640	26326
742.753	21995
742.865	27155
742.978	25176
743.090	23713
743.203	25868
743.316	23931
743.428	24517
743.541	25300
743.653	21030
743.766	24550
743.878	25033
743.990	21899
744.103	25018
744.215	23361
744.327	21938
744.440	27774
744.552	22028
744.664	21757
744.777	25352
744.889	21942
745.001	21174
745.113	24903
745.226	22000
745.338	20300
745.450	25357
745.562	21991
745.674	18782
745.786	25250
745.898	21729
746.010	20321
746.122	22162
746.234	23400
746.347	22346
746.459	20846
746.570	17431
746.682	23537
746.794	25108
746.906	19099
747.018	20410
747.130	22262
747.242	17963
747.354	20043
747.466	20930
747.577	19096
747.689	19767
747.801	20397
747.913	17369
748.024	19076
748.136	18731
748.248	18104
748.359	18787
748.471	20448
748.583	17033
748.694	16350
748.806	19070
748.918	17287
749.029	18196
749.141	18908
749.252	19051
749.364	16821
749.475	17046
749.587	16145
749.698	16191
749.809	18242
749.921	16353
750.032	16236
750.144	16057
750.255	14954
750.366	16560
750.478	16060
750.589	17355
750.700	15438
750.811	17004
750.923	14588
751.034	14796
751.145	18156
751.256	15815
751.367	13867
751.479	15771
751.590	14949
751.701	15337
751.812	13078
751.923	14365
752.034	18359
752.145	16485
752.256	16731
752.367	15569
752.478	14850
752.589	15686
752.700	16662
752.811	13795
752.922	15256
753.032	16784
753.143	15641
753.254	14321
753.365	17942
753.476	17129
753.586	15471
753.697	14214
753.808	15142
753.919	13912
754.029	15325
754.140	13835
754.251	14174
754.361	14963
754.472	15915
754.582	13256
754.693	14077
754.804	15941
754.914	13958
755.025	12078
755.135	14342
755.246	15776
755.356	13267
755.466	12577
755.577	12895
755.687	12852
755.798	13075
755.908	12701
756.018	13237
756.129	13445
756.239	13838
756.349	13900
756.460	15478
756.570	15506
756.680	13515
756.790	14767
756.900	13927
757.011	12341
757.121	11245
757.231	13099
757.341	13445
757.451	11050
757.561	12582
757.671	13895
757.781	13250
757.891	11708
758.001	11356
758.111	12948
758.221	15339
758.331	15155
758.441	14130
758.551	14097
758.661	16398
758.771	15732
758.880	14988
758.990	12681
759.100	14676
759.210	13550
759.320	14624
759.429	15023
759.539	15999
759.649	16279
759.758	20979
759.868	20104
759.978	20264
760.087	21695
760.197	21797
760.307	20637
760.416	18844
760.526	17991
760.635	20320
760.745	20724
760.854	22433
760.964	26011
761.073	25562
761.182	24155
761.292	20354
761.401	18442
761.511	15969
761.620	13477
761.729	13364
761.839	13102
761.948	13058
762.057	12106
762.166	15379
762.276	12326
762.385	13564
762.494	11015
762.603	11450
762.712	11614
762.822	12134
762.931	10107
763.040	9162
763.149	11333
763.258	10969
763.367	10172
763.476	10059
763.585	8969
763.694	8758
763.803	10651
763.912	10159
764.021	9238
764.130	10007
764.238	10892
764.347	10652
764.456	11609
764.565	11044
764.674	9565
764.783	8463
764.891	9917
765.000	11253
765.109	9175
765.217	9226
765.326	8790
765.435	8451
765.543	8846
765.652	9299
765.761	8583
765.869	8919
765.978	9009
766.086	12427
766.195	15697
766.303	31291
766.412	106435
766.520	79253
766.629	13620
766.737	10755
766.846	10123
766.954	8759
767.062	9722
767.171	9789
767.279	11894
767.387	9427
767.496	9139
767.604	8078
767.712	8916
767.820	8401
767.928	8799
768.037	7424
768.145	8561
768.253	8074
768.361	8231
768.469	8503
768.577	7573
768.685	9475
768.793	9745
768.901	9093
769.009	9928
769.117	9423
769.225	7813
769.333	10054
769.441	10694
769.549	12671
769.657	16460
769.765	38662
769.873	87067
769.981	24261
770.088	11234
770.196	10729
770.304	12250
770.412	12705
770.519	11257
770.627	13008
770.735	12416
770.842	12055
770.950	12782
771.058	14161
771.165	17973
771.273	20075
771.380	19338
771.488	28899
771.595	33605
771.703	28879
771.810	26582
771.918	27537
772.025	34369
772.133	40611
772.240	35619
772.348	43100
772.455	40091
772.562	36339
772.670	34634
772.777	35308
772.884	35377
772.991	33035
773.099	36534
773.206	33841
773.313	33809
773.420	35004
773.528	33629
773.635	32084
773.742	35346
773.849	31153
773.956	32955
774.063	30860
774.170	33612
774.277	32439
774.384	29767
774.491	30498
774.598	31671
774.705	30308
774.812	31673
774.919	29581
775.026	29847
775.133	30906
775.239	29577
775.346	28424
775.453	28983
775.560	27593
775.667	30705
775.773	27171
775.880	28601
775.987	27862
776.093	27895
776.200	31023
776.307	22892
776.413	25845
776.520	33132
776.627	25941
776.733	24272
776.840	24453
776.946	33807
777.053	27144
777.159	27676
777.266	24725
777.372	26892
777.478	29246
777.585	26959
777.691	22430
777.798	27420
777.904	23383
778.010	23294
778.117	25375
778.223	23027
778.329	25568
778.435	21611
778.542	26361
778.648	23041
778.754	21961
778.860	24370
778.966	24684
779.072	21402
779.178	22938
779.284	18835
779.391	23169
779.497	23336
779.603	23795
779.708	20697
779.815	18697
779.920	22889
780.026	19427
780.132	21873
780.238	21363
780.344	18575
780.450	26322
780.556	16115
780.661	18921
780.767	23109
780.873	15801
780.979	18580
781.085	23559
781.190	18904
781.296	17742
781.402	21802
781.507	20165
781.613	14916
781.719	19014
781.824	21857
781.930	18171
782.035	19285
782.141	21564
782.246	14573
782.352	16653
782.457	18609
782.563	18361
782.668	19381
782.773	15926
782.879	16709
782.984	18119
783.090	17956
783.195	18357
783.300	19852
783.405	15037
783.511	14762
783.616	16933
783.721	17300
783.826	16020
783.932	14119
784.037	17147
784.142	16865
784.247	15322
784.352	16520
784.457	12610
784.562	16813
784.667	17067
784.772	11898
784.877	12181
784.982	17143
785.087	18114
785.192	13289
785.297	14663
785.402	16753
785.507	15713
785.611	14790
785.716	12198
785.821	14854
785.926	15700
786.031	13474
786.135	14827
786.240	14469
786.345	12558
786.450	12560
786.554	14844
786.659	13310
786.763	14114
786.868	15254
786.973	16318
787.077	12515
787.182	10745
787.286	15095
787.391	16305
787.495	10785
787.600	9869
787.704	13126
787.809	14505
787.913	12426
788.017	13294
788.122	14768
788.226	11651
788.330	9439
788.435	12732
788.539	14642
788.643	12005
788.747	9168
788.852	13136
788.956	11895
789.060	14051
789.164	11767
789.268	12247
789.372	12944
789.476	11536
789.580	9620
789.684	11273
789.788	14017
789.892	12871
789.996	8838
790.100	8599
790.204	12074
790.308	14281
790.412	8800
790.516	9192
790.620	10578
790.724	15081
790.828	10516
790.931	6923
791.035	9747
791.139	10019
791.242	11799
791.346	10692
791.450	12022
791.554	9745
791.657	7556
791.761	11438
791.864	11554
791.968	11702
792.072	11402
792.175	8994
792.279	8624
792.382	9593
792.486	8496
792.589	10152
792.693	10706
792.796	8657
792.899	10586
793.003	11334
793.106	8147
793.209	9856
793.313	9297
793.416	6102
793.519	8929
793.623	12938
793.726	10460
793.829	8019
793.932	6987
794.035	6895
794.138	12282
794.242	12737
794.345	7539
794.448	7631
794.551	7361
794.654	10832
794.757	10227
794.860	7959
794.963	9674
795.066	7600
795.169	9361
795.272	8621
795.375	10013
795.477	7787
795.580	6642
795.683	7042
795.786	11428
795.889	8120
795.991	8173
796.094	8791
796.197	7230
796.300	10446
796.402	9844
796.505	6829
796.608	5705
796.710	8444
796.813	10685
796.915	9962
797.018	9809
797.120	10591
797.223	7725
797.326	10040
797.428	6791
797.530	6626
797.633	7694
797.735	10535
797.838	9084
797.940	10886
798.042	8488
798.145	7651
798.247	7376
798.349	5908
798.452	8597
798.554	8968
798.656	10012
798.758	11490
798.860	8296
798.962	7513
799.065	6987
799.167	7662
799.269	8564
799.371	9891
799.473	12114
799.575	10826
799.677	8543
799.779	8638
799.881	6423
799.983	9869
800.085	6931
800.187	7859
800.289	5756
800.390	7026
800.492	10179
800.594	8817
800.696	5751
800.798	6469
800.899	8101
801.001	7974
801.103	8049
801.205	7794
801.306	7662
801.408	7477
801.509	8288
801.611	7175
801.713	7397
801.814	6049
801.916	5317
802.017	5445
802.119	5198
802.220	6561
802.322	6502
802.423	8107
802.525	4742
802.626	6252
802.727	7603
802.829	7736
802.930	3264
803.031	7037
803.133	6379
803.234	6786
803.335	7333
803.436	6568
803.538	7261
803.639	5419
803.740	7397
803.841	6894
803.942	7267
804.043	6148
804.144	5013
804.245	6145
804.346	6254
804.447	5911
804.548	5248
804.649	7518
804.750	5032
804.851	6333
804.952	6305
805.053	5701
805.154	5061
805.255	7249
805.355	6042
805.456	5495
805.557	4981
805.658	4924
805.758	6114
805.859	6629
805.960	6566
806.061	5578
806.161	5523
806.262	5866
806.362	4598
806.463	5347
806.564	6783
806.664	6191
806.765	4566
806.865	4475
806.966	4152
807.066	4124
807.166	6134
807.267	6554
807.367	4717
807.468	6023
807.568	3298
807.668	6209
807.769	6765
807.869	5337
807.969	5100
808.069	5219
808.170	4419
808.270	4795
808.370	5247
808.470	5947
808.570	5121
808.670	5347
808.770	5034
808.870	5604
808.970	4910
809.070	4723
809.170	4920
809.271	6375
809.370	5352
809.470	5281
809.570	4206
809.670	4078
809.770	4529
809.870	5929
809.970	6167
810.070	6116
810.169	5540
810.269	4353
810.369	6205
810.469	4870
810.568	5647
810.668	4785
810.768	4047
810.867	4655
810.967	3860
811.066	4204
811.166	4720
811.265	6638
811.365	4669
811.464	4924
811.564	5022
811.663	5062
811.763	4528
811.862	6089
811.962	6153
812.061	5276
812.160	5610
812.260	4892
812.359	4252
812.458	4515
812.557	5004
812.657	4987
812.756	5381
812.855	4893
812.954	4864
813.053	5767
813.153	4752
813.252	4100
813.351	6268
813.450	5889
813.549	4666
813.648	5751
813.747	4899
813.846	5672
813.945	5479
814.044	6236
814.143	5340
814.242	6103
814.341	6082
814.439	7306
814.538	6669
814.637	7422
814.736	8133
814.835	8048
814.933	8253
815.032	9600
815.131	13402
815.229	24239
815.328	33196
815.427	24821
815.525	21906
815.624	20698
815.722	20525
815.821	22836
815.919	22321
816.018	21135
816.116	22107
816.215	22470
816.313	24307
816.412	29211
816.510	27501
816.609	29771
816.707	31353
816.805	28253
816.904	28120
817.002	29208
817.100	29480
817.198	30496
817.296	27145
817.395	27973
817.493	26439
817.591	26032
817.689	25922
817.787	28321
817.885	25191
817.983	24007
818.081	26512
818.179	28419
818.277	38078
818.375	32124
818.473	24887
818.571	21243
818.669	25916
818.767	26975
818.865	22857
818.963	19817
819.061	25098
819.158	22992
819.256	29940
819.354	28743
819.452	42982
819.549	35418
819.647	27994
819.745	20986
819.842	21126
819.940	23385
820.038	20806
820.135	18606
820.233	21570
820.330	22037
820.428	20344
820.525	23311
820.623	19703
820.720	19648
820.818	21391
820.915	21625
821.012	19375
821.110	18376
821.207	20200
821.304	18364
821.402	21424
821.499	21948
821.596	16553
821.693	18765
821.791	20326
821.888	18611
821.985	20751
822.082	16954
822.179	19365
822.276	20545
822.373	16530
822.470	17576
822.567	18417
822.664	16756
822.761	17563
822.858	20059
822.955	17065
823.052	15575
823.149	18066
823.246	18376
823.343	13908
823.440	14156
823.536	18691
823.633	17465
823.730	14380
823.827	17686
823.923	17143
824.020	14169
824.117	19519
824.213	17925
824.310	14529
824.407	13893
824.503	18059
824.600	14790
824.696	13621
824.793	18415
824.889	17846
824.986	13635
825.082	11638
825.179	13889
825.275	17644
825.371	20800
825.468	11282
825.564	9711
825.660	17086
825.757	20142
825.853	14013
825.949	12022
826.045	12967
826.142	14874
826.238	15698
826.334	14785
826.430	14979
826.526	9685
826.622	9059
826.718	17216
826.814	19407
826.910	15303
827.006	7921
827.102	10389
827.198	14346
827.294	16380
827.390	15184
827.486	11545
827.582	9034
827.678	10960
827.774	16987
827.869	11095
827.965	11201
828.061	10703
828.157	16030
828.252	15774
828.348	11665
828.444	10221
828.539	11094
828.635	12458
828.731	12297
828.826	11508
828.922	12811
829.017	15097
829.113	14950
829.208	10497
829.304	11396
829.399	16238
829.495	13872
829.590	11330
829.685	12885
829.781	13821
829.876	13839
829.971	8190
830.066	8062
830.162	11201
830.257	17982
830.352	12108
830.447	8775
830.543	9638
830.638	12151
830.733	15388
830.828	10899
830.923	12101
831.018	12456
831.113	14419
831.208	8643
831.303	7689
831.398	8390
831.493	11831
831.588	16440
831.683	10089
831.778	8262
831.873	8824
831.967	12984
832.062	12500
832.157	10534
832.252	9643
832.346	9327
832.441	12929
832.536	10579
832.631	10671
832.725	8012
832.820	9936
832.914	10366
833.009	7977
833.104	6933
833.198	7149
833.293	9073
833.387	12800
833.482	9418
833.576	10017
833.670	9264
833.765	11140
833.859	11898
833.954	10771
834.048	10224
834.142	8261
834.237	7215
834.331	10714
834.425	10998
834.519	9406
834.613	7135
834.708	7747
834.802	7024
834.896	9804
834.990	9682
835.084	6860
835.178	7382
835.272	8256
835.366	11463
835.460	12010
835.554	8412
835.648	7061
835.742	5005
835.836	6993
835.930	7786
836.024	10262
836.117	9297
836.211	7272
836.305	6753
836.399	6433
836.493	7422
836.586	9604
836.680	8438
836.774	6616
836.867	6863
836.961	5616
837.055	5238
837.148	6183
837.242	6981
837.335	8323
837.429	6458
837.522	6297
837.616	5513
837.709	6271
837.803	6104
837.896	8248
837.989	8714
838.083	6020
838.176	3723
838.269	5003
838.363	7282
838.456	6609
838.549	8425
838.642	6244
838.735	5916
838.829	8137
838.922	6462
839.015	6977
839.108	5677
839.201	6479
839.294	8156
839.387	6752
839.480	3876
839.573	5499
839.666	5015
839.759	5836
839.852	5438
839.945	7488
840.038	6102
840.131	4611
840.223	5452
840.316	6636
840.409	8281
840.502	7929
840.594	8755
840.687	3741
840.780	3992
840.873	3891
840.965	4817
841.058	5816
841.150	7889
841.243	4122
841.336	5394
841.428	5102
841.521	4382
841.613	6188
841.706	5558
841.798	5693
841.890	6230
841.983	4280
842.075	5061
842.167	5152
842.260	6723
842.352	7547
842.444	5555
842.537	4756
842.629	3114
842.721	3767
842.813	4972
842.905	5471
842.997	5337
843.090	5483
843.182	5243
843.274	3650
843.366	4069
843.458	6066
843.550	6903
843.642	5395
843.734	5149
843.826	3346
843.918	3639
844.009	5125
844.101	4363
844.193	5711
844.285	5940
844.377	6265
844.469	4820
844.560	3144
844.652	3818
844.744	3939
844.835	5353
844.927	5780
845.019	5625
845.110	4884
845.202	6543
845.293	4056
845.385	3141
845.476	4188
845.568	5092
845.659	4625
845.751	4826
845.842	3242
845.934	4845
846.025	4623
846.116	4818
846.208	5193
846.299	3068
846.390	2717
846.482	4122
846.573	5647
846.664	4868
846.755	4958
846.846	4840
846.937	3091
847.029	3313
847.120	4110
847.211	4136
847.302	6874
847.393	4878
847.484	4874
847.575	2321
847.666	2535
847.757	2805
847.847	5523
847.938	5667
848.029	5874
848.120	4335
848.211	3669
848.302	3420
848.392	2762
848.483	4584
848.574	4208
848.664	5684
848.755	5139
848.846	3392
848.936	4052
849.027	5058
849.118	4961
849.208	5488
849.299	7332
849.389	11369
849.480	18195
849.570	30910
849.661	57700
849.751	84594
849.841	36975
849.932	10829
850.022	6904
850.112	5885
850.203	5925
850.293	4221
850.383	3962
850.474	4094
850.564	2789
850.654	3005
850.744	2988
850.834	3299
850.924	4705
851.014	6262
851.104	4672
851.194	2991
851.284	4037
851.374	3965
851.464	3666
851.554	3397
851.644	4186
851.734	3878
851.824	5204
851.914	4688
852.004	5027
852.094	2903
852.183	3801
852.273	3868
852.363	4108
852.452	4326
852.542	4079
852.632	3038
852.721	4139
852.811	4017
852.901	5979
852.990	6553
853.080	5192
853.169	4813
853.259	7094
853.348	6818
853.438	8578
853.527	9941
853.617	13940
853.706	22087
853.795	36954
853.885	64515
853.974	106448
854.063	171738
854.152	205514
854.242	108184
854.331	44244
854.420	21816
854.509	16140
854.598	12395
854.687	10278
854.777	8699
854.866	6988
854.955	6543
855.044	6022
855.133	5151
855.222	5866
855.311	4265
855.400	4162
855.488	3438
855.577	3885
855.666	3738
855.755	4862
855.844	4570
855.933	4748
856.021	5003
856.110	4380
856.199	2839
856.288	2591
856.376	3867
856.465	3555
856.554	3780
856.642	4465
856.731	5416
856.819	4648
856.908	4064
856.996	4152
857.085	3488
857.173	2662
857.262	3088
857.350	3246
857.438	4043
857.527	4343
857.615	3257
857.703	4943
857.792	3234
857.880	3127
857.968	2890
858.056	3343
858.145	3512
858.233	4211
858.321	2890
858.409	3699
858.497	3886
858.585	2837
858.673	2960
858.761	2337
858.849	2510
858.937	2823
859.025	3287
859.113	3003
859.201	3737
859.289	5419
859.377	4188
859.465	4326
859.552	3216
859.640	3127
859.728	4406
859.816	3621
859.903	3848
859.991	2438
860.079	3936
860.166	3694
860.254	2936
860.342	3826
860.429	3766
860.517	3736
860.604	3710
860.692	3454
860.779	2824
860.867	3220
860.954	3157
861.042	4674
861.129	5705
861.216	4423
861.304	4266
861.391	4504
861.478	3548
861.565	3538
861.653	3511
861.740	3144
861.827	2928
861.914	3597
862.001	3302
862.089	4697
862.176	4305
862.263	3327
862.350	3803
862.437	4103
862.524	2825
862.611	3967
862.698	4185
862.785	4691
862.871	6006
862.958	5999
863.045	5536
863.132	4785
863.219	4159
863.306	2670
863.392	4446
863.479	4383
863.566	4540
863.652	5299
863.739	5065
863.826	5185
863.912	4953
863.999	5416
864.086	5407
864.172	5506
864.259	7227
864.345	6551
864.432	7087
864.518	6975
864.604	6659
864.691	7053
864.777	6898
864.863	9597
864.950	13460
865.036	18312
865.122	29571
865.209	31501
865.295	27720
865.381	25995
865.467	25573
865.553	27346
865.639	30079
865.726	37394
865.812	51187
865.898	75256
865.984	102143
866.070	152050
866.156	148526
866.242	72187
866.328	38618
866.414	29381
866.499	26733
866.585	24457
866.671	23186
866.757	23709
866.843	22868
866.928	22157
867.014	20639
867.100	21450
867.186	20773
867.271	19607
867.357	20729
867.442	20361
867.528	20447
867.614	20216
867.699	19994
867.785	19690
867.870	18938
867.956	19672
868.041	20055
868.127	18809
868.212	18415
868.297	19530
868.383	19349
868.468	17580
868.553	20958
868.639	18039
868.724	18102
868.809	18686
868.894	18595
868.979	17715
869.065	17377
869.150	15127
869.235	17736
869.320	17829
869.405	15285
869.490	18848
869.575	18358
869.660	13972
869.745	17717
869.830	19897
869.915	15888
870.000	16026
870.085	15248
870.169	20210
870.254	19989
870.339	12364
870.424	13589
870.509	16425
870.593	19573
870.678	18259
870.763	14969
870.847	13542
870.932	17936
871.016	18221
871.101	12800
871.186	16375
871.270	19213
871.355	12791
871.439	13988
871.523	17922
871.608	13374
871.692	13108
871.777	17059
871.861	16732
871.945	14872
872.030	15197
872.114	14992
872.198	12945
872.282	13094
872.367	13981
872.451	14024
872.535	13491
872.619	14815
872.703	14038
872.787	15576
872.871	14361
872.955	12175
873.039	10492
873.123	14219
873.207	14858
873.291	9934
873.375	12406
873.459	15112
873.543	13475
873.627	11964
873.711	10749
873.794	14455
873.878	13425
873.962	10637
874.045	11464
874.129	12558
874.137	12616
874.213	13203
874.245	13106
874.296	12964
874.352	11500
874.380	10789
874.460	11427
874.464	11456
874.547	10940
874.568	11367
874.631	12681
874.676	12543
874.714	12418
874.784	13278
874.798	13452
874.881	10646
874.892	10377
874.965	8599
874.999	10002
875.048	11918
875.107	11847
875.131	11825
875.215	8342
875.215	8340
875.298	7948
875.323	9026
875.381	11652
875.430	13171
875.465	14241
875.538	11767
875.548	11420
875.631	8200
875.646	8257
875.714	8569
875.753	8734
875.798	8974
875.861	11588
875.881	12344
875.964	8953
875.968	8911
876.047	8423
876.076	9065
876.130	10193
876.183	10720
876.213	11040
876.291	11073
876.296	11067
876.379	9577
876.398	9222
876.462	8060
876.506	7841
876.545	7685
876.613	7581
876.628	7543
876.711	8828
876.721	9017
876.794	10547
876.828	10453
876.877	10105
876.935	7667
876.960	6783
877.043	8139
877.043	8143
877.125	8464
877.150	9108
877.208	10472
877.258	8928
877.291	7930
877.365	7172
877.374	7081
877.456	7269
877.472	7340
877.539	7592
877.579	8264
877.622	9020
877.687	9479
877.704	9575
877.787	8121
877.794	8134
877.869	8443
877.901	8315
877.952	7728
878.008	6286
878.034	5751
878.115	6381
878.117	6389
878.199	7284
878.222	7359
878.282	7627
878.329	8113
878.364	8422
878.437	8212
878.447	8147
878.529	6177
878.544	6093
878.611	5712
878.651	5972
878.694	6573
878.758	7883
878.776	8124
878.858	7765
878.865	7649
878.941	6267
878.972	5795
879.023	4916
879.078	5768
879.105	6331
879.185	7996
879.187	8014
879.269	7070
879.292	7158
879.351	7566
879.399	6492
879.433	5527
879.506	5657
879.516	5708
879.598	6179
879.613	6001
879.680	5190
879.720	5837
879.762	6634
879.827	6188
879.844	5928
879.926	5615
879.933	5633
880.007	6094
880.040	5568
880.089	4849
880.147	5631
880.171	5994
880.253	6975
880.254	6976
880.335	5185
880.360	5587
880.417	7056
880.467	7104
880.499	6854
880.574	6329
880.580	6307
880.662	6948
880.680	6638
880.744	4988
880.787	4670
880.825	4673
880.893	5291
880.907	5368
880.989	4861
881.000	4945
881.070	5634
881.106	5599
881.152	5296
881.213	4227
881.233	3895
881.315	4685
881.319	4677
881.396	4968
881.426	5035
881.478	4921
881.532	6145
881.559	6636
881.639	5524
881.641	5492
881.722	4368
881.745	4590
881.803	4964
881.852	4850
881.885	4888
881.958	4168
881.966	4041
882.047	4351
882.064	4218
882.129	3938
882.171	3512
882.210	3020
882.277	3460
882.291	3658
882.372	5162
882.383	5329
882.454	5745
882.489	5208
882.535	4841
882.596	5527
882.616	5541
882.697	4311
882.702	4256
882.778	3578
882.808	3501
882.859	3132
882.914	3209
882.940	3452
883.020	3980
883.021	3976
883.102	4882
883.127	5128
883.183	5613
883.233	5274
883.264	4683
883.339	3085
883.345	2977
883.426	2461
883.445	2572
883.507	3174
883.551	3599
883.587	4093
883.657	4580
883.668	4609
883.749	5034
883.763	4865
883.830	3400
883.869	3025
883.910	2821
883.975	3361
883.991	3558
884.072	3715
884.081	3839
884.152	4805
884.187	5029
884.233	5236
884.292	4466
884.314	3835
884.394	1791
884.398	1750
884.475	2231
884.504	2490
884.555	2576
884.610	2403
884.636	2540
884.716	3549
884.716	3544
884.797	4679
884.821	4500
884.877	3973
884.927	4009
884.958	3739
885.033	2582
885.038	2514
885.118	2340
885.139	2327
885.199	2767
885.244	2979
885.279	3302
885.350	4378
885.359	4415
885.439	4788
885.456	4579
885.520	3399
885.561	2876
885.600	2449
885.667	2764
885.680	2893
885.760	2889
885.773	2847
885.840	1861
885.878	1653
885.920	1870
885.984	2211
886.000	2282
886.080	2496
886.089	2570
886.160	3644
886.195	3742
886.240	3046
886.300	2786
886.320	2911
886.400	3198
886.406	3215
886.480	2340
886.511	2054
886.560	2232
886.616	2492
886.640	2471
886.720	2172
886.722	2182
886.800	2728
886.827	2867
886.879	2808
886.932	2926
886.959	3303
887.038	4004
887.039	3980
887.119	2762
887.143	2442
887.198	2430
887.248	2439
887.278	2270
887.354	1875
887.358	1879
887.437	2236
887.459	2372
887.517	2479
887.564	2325
887.596	2379
887.669	2554
887.676	2439
887.755	1378
887.774	1132
887.835	1339
887.880	1564
887.914	1917
887.985	2480
887.994	2502
888.073	3053
888.090	3112
888.153	3615
888.195	3893
888.232	3246
888.300	2213
888.311	2182
888.391	2184
888.405	2153
888.470	1629
888.510	1405
888.549	1503
888.615	1728
888.628	1922
888.708	3132
888.720	3304
888.787	2042
888.825	1344
888.866	1346
888.930	1480
888.945	1544
889.024	1988
889.035	2043
889.103	2950
889.140	3442
889.182	2716
889.245	1741
889.261	1744
889.340	1785
889.349	1800
889.419	1733
889.454	1734
889.498	1913
889.559	2197
889.577	2007
889.656	1220
889.664	1159
889.735	2074
889.768	2520
889.814	2035
889.873	1397
889.978	1910
890.083	1317
890.187	2209
890.292	1825
890.397	1902
890.501	646
890.606	1625
890.710	2026
890.815	1292
890.919	1548
891.024	2094
891.128	1536
891.233	1989
891.337	2014
891.442	2732
891.546	1833
891.650	1397
891.755	1587
891.859	2882
891.963	1983
892.068	2199
892.172	1031
892.276	123
892.380	744
892.484	2449
892.589	2163
892.693	2000
892.797	723
892.901	1379
893.005	694
893.109	3073
893.213	2617
893.317	2649
893.421	802
893.525	1104
893.629	1086
893.733	2755
893.837	1426
893.941	1638
894.045	777
894.148	1154
894.252	1006
894.356	2229
894.460	2185
894.564	1883
894.667	1459
894.771	1695
894.875	220
894.978	1891
895.082	1352
895.186	2195
895.289	2356
895.393	1863
895.496	2260
895.600	1320
895.703	1049
895.807	1352
895.910	1121
896.014	1708
896.117	900
896.221	1261
896.324	1882
896.427	1269
896.531	1024
896.634	1991
896.737	1407
896.840	1430
896.944	1798
897.047	2709
897.150	1079
897.253	815
897.356	733
897.460	780
897.563	647
897.666	1968
897.769	2099
897.872	1653
897.975	1264
898.078	735
898.181	309
898.284	1796
898.387	1620
898.490	1181
898.593	1432
898.695	1916
898.798	1241
898.901	974
899.004	2080
899.107	1729
899.209	1169
899.312	2831
899.415	1221
899.518	696
899.620	1014
899.723	1124
899.826	1266
899.928	982
900.031	471
900.133	1791
900.236	842
900.338	973
900.441	510
900.543	1397
900.646	1625
900.748	2309
900.851	1512
900.953	365
901.055	762
901.158	899
901.260	698
901.362	1439
901.465	251
901.567	1714
901.669	1812
901.771	216
901.873	1227
901.976	1656
902.078	1410
902.180	1251
902.282	927
902.384	578
902.486	1680
902.588	1659
902.690	639
902.792	436
902.894	1486
902.996	2122
903.098	329
903.200	939
903.302	453
903.404	1028
903.505	749
903.607	1356
903.709	2674
903.811	2215
903.913	1369
904.014	670
904.116	485
904.218	469
904.319	1684
904.421	1949
904.523	1587
904.624	1093
904.726	1363
904.827	223
904.929	999
905.030	839
905.132	1771
905.233	1708
905.335	415
905.436	1000
905.537	709
905.639	806
905.740	558
905.841	1448
905.943	1136
906.044	687
906.145	735
906.247	537
906.348	778
906.449	1731
906.550	1132
906.651	701
906.752	666
906.854	676
906.955	604
907.056	849
907.157	1914
907.258	1245
907.359	242
907.460	570
907.561	450
907.662	986
907.762	-13
907.863	858
907.964	1214
908.065	1332
908.166	890
908.267	616
908.367	139
908.468	1374
908.569	903
908.670	1729
908.770	967
908.871	1000
908.971	1707
909.072	1001
909.173	521
909.273	1336
909.374	1132
909.474	1144
909.575	609
909.675	929
909.776	1179
909.876	1239
909.977	415
910.077	1597
910.177	1286
910.278	1512
910.378	440
910.478	811
910.579	783
910.679	1783
910.779	729
910.879	915
910.980	1027
911.080	948
911.180	438
911.280	-107
911.380	531
911.480	1332
911.580	697
911.680	386
911.780	1069
911.880	798
911.980	779
912.080	847
912.180	1184
912.280	-131
912.380	825
912.480	228
912.580	1217
912.679	510
912.779	975
912.879	1260
912.979	810
913.078	1207
913.178	38
913.278	884
913.377	411
913.477	963
913.577	379
913.676	1951
913.776	706
913.875	662
913.975	1423
914.074	540
914.174	997
914.273	-147
914.373	1204
914.472	1147
914.572	330
914.671	307
914.770	390
914.870	916
914.969	1403
915.068	1020
915.167	842
915.267	917
915.366	146
915.465	717
915.564	834
915.663	764
915.763	935
915.862	1707
915.961	1347
916.060	212
916.159	462
916.258	749
916.357	331
916.456	1597
916.555	544
916.654	1077
916.752	1399
916.851	1534
916.950	1503
917.049	399
917.148	488
917.247	1289
917.345	1408
917.444	593
917.543	550
917.642	-12
917.740	691
917.839	1935
917.937	2584
918.036	1402
918.135	449
918.233	1294
918.332	273
918.430	1423
918.529	1039
918.627	540
918.726	1385
918.824	1393
918.923	338
919.021	869
919.119	450
919.218	-533
919.316	516
919.414	995
919.512	1299
919.611	1676
919.709	847
919.807	879
919.905	1968
920.003	1730
920.102	1304
920.200	1944
920.298	1788
920.396	1919
920.494	1077
920.592	1229
920.690	959
920.788	1378
920.886	1460
920.984	1947
921.082	1266
921.180	3343
921.277	2077
921.375	2618
921.473	3077
921.571	2846
921.669	3580
921.766	2745
921.864	2700
921.962	3409
922.060	2360
922.157	3390
922.255	2883
922.352	4017
922.450	3724
922.548	3702
922.645	4435
922.743	4716
922.840	8316
922.938	10386
923.035	8681
923.133	8815
923.230	8862
923.327	12740
923.425	11414
923.522	10989
923.619	10198
923.717	9276
923.814	9102
923.911	7937
924.008	9354
924.106	8576
924.203	8143
924.300	8399
924.397	8114
924.494	8808
924.591	8172
924.688	7144
924.786	8794
924.883	9215
924.979	7950
925.077	8952
925.173	8843
925.270	8068
925.367	8156
925.464	8340
925.561	8443
925.658	9482
925.755	7808
925.852	9213
925.948	8869
926.045	7984
926.142	8110
926.239	8893
926.335	6192
926.432	7556
926.529	9074
926.625	9760
926.722	7701
926.818	6413
926.915	8280
927.011	7416
927.108	6740
927.204	7999
927.301	6232
927.397	8989
927.494	8942
927.590	6202
927.687	6685
927.783	8637
927.879	7840
927.976	7229
928.072	5519
928.168	7569
928.264	7771
928.361	6809
928.457	7990
928.553	6413
928.649	6483
928.745	8597
928.841	6709
928.937	6964
929.033	6680
929.129	6700
929.225	7499
929.321	5978
929.417	6020
929.513	6662
929.609	5779
929.705	5849
929.801	6492
929.897	6198
929.993	6380
930.089	6617
930.184	5290
930.280	7130
930.376	7820
930.471	5393
930.567	5507
930.663	6119
930.758	5112
930.854	6142
930.950	6038
931.045	5080
931.141	5611
931.236	7346
931.332	6635
931.427	4553
931.523	7150
931.618	6028
931.714	4261
931.809	5830
931.905	6414
932.000	3634
932.095	4159
932.191	6982
932.286	6994
932.381	5851
932.476	4053
932.572	5890
932.667	4393
932.762	5258
932.857	5637
932.952	7088
933.047	5409
933.142	3989
933.237	5023
933.332	6241
933.427	5953
933.522	5027
933.617	3684
933.712	5260
933.807	5890
933.902	6693
933.997	6124
934.092	4206
934.187	4657
934.282	5771
934.376	5374
934.471	6137
934.566	4511
934.661	4717
934.755	5158
934.850	6448
934.945	4847
935.039	4750
935.134	3537
935.228	4681
935.323	6479
935.417	4439
935.512	3246
935.606	3701
935.701	5161
935.795	6054
935.890	4435
935.984	4950
936.079	2880
936.173	5495
936.267	4374
936.362	3280
936.456	4678
936.550	6597
936.644	5178
936.738	3904
936.833	3255
936.927	2878
937.021	4080
937.115	4675
937.209	5313
937.303	4415
937.397	2923
937.491	4071
937.585	4817
937.679	4489
937.773	2892
937.867	3485
937.961	2838
938.055	5174
938.149	4698
938.243	2839
938.337	2736
938.430	3475
938.524	4881
938.618	3258
938.712	2650
938.805	4137
938.899	4626
938.993	4861
939.086	2820
939.180	3329
939.274	3171
939.367	4630
939.461	4288
939.554	3025
939.648	3428
939.741	3457
939.835	3643
939.928	4987
940.022	4995
940.115	3469
940.208	4425
940.302	4916
940.395	5202
940.488	3612
940.582	2996
940.675	2153
940.768	1895
940.861	4645
940.954	4990
941.048	2642
941.141	2347
941.234	2606
941.327	2546
941.420	4123
941.513	3697
941.606	2775
941.699	3184
941.792	4486
941.885	3456
941.978	3748
942.071	4134
942.164	2217
942.257	2568
942.349	2820
942.442	3095
942.535	1846
942.628	2380
942.721	3252
942.813	1971
942.906	3746
942.999	2935
943.091	1676
943.184	2536
943.277	2509
943.369	2210
943.462	1903
943.554	3301
943.647	2970
943.739	3275
943.832	4230
943.924	1359
944.017	2067
944.109	1154
944.201	2778
944.294	2468
944.386	3511
944.478	2268
944.571	2215
944.663	2254
944.755	3760
944.847	3429
944.940	3007
945.032	1331
945.124	1168
945.216	2928
945.308	2353
945.400	2968
945.492	2910
945.584	2818
945.676	3743
945.768	1592
945.860	2490
945.952	2721
946.044	3099
946.136	2328
946.228	2438
946.320	2503
946.412	2760
946.503	1888
946.595	3886
946.687	1349
946.779	1387
946.870	2206
946.962	1892
947.054	1973
947.145	2984
947.237	2267
947.329	2303
947.420	2436
947.512	1887
947.603	719
947.695	3016
947.786	1358
947.878	1823
947.969	3468
948.061	3002
948.152	2060
948.243	1046
948.335	1522
948.426	1451
948.517	1508
948.609	2856
948.700	2299
948.791	2426
948.882	1536
948.973	1464
949.065	2026
949.156	2463
949.247	1761
949.338	1725
949.429	102
949.520	1415
949.611	964
949.702	2863
949.793	2343
949.884	2527
949.975	1550
950.066	751
950.157	1107
950.247	2483
950.338	1046
950.429	1862
950.520	1394
950.611	2241
950.701	2592
950.792	3927
950.883	2424
950.973	1676
951.064	2382
951.155	2002
951.245	2069
951.336	2934
951.427	1909
951.517	2617
951.608	2415
951.698	1896
951.788	1950
951.879	1378
951.969	1113
952.060	1061
952.150	1708
952.240	3144
952.331	1285
952.421	3220
952.511	601
952.602	930
952.692	430
952.782	1590
952.872	375
952.962	2447
953.052	1337
953.143	781
953.233	755
953.323	1969
953.413	1239
953.503	1909
953.593	2271
953.683	1814
953.773	1003
953.863	1268
953.953	423
954.042	1484
954.132	2006
954.222	2548
954.312	1600
954.402	1933
954.492	1063
954.581	1640
954.671	1152
954.761	1270
954.850	2041
954.940	1338
955.030	-63
955.119	989
955.209	1360
955.298	1385
955.388	1734
955.477	2407
955.567	-252
955.656	1260
955.746	1666
955.835	1228
955.925	207
956.014	2290
956.103	1360
956.193	2802
956.282	1860
956.371	1454
956.461	543
956.550	1013
956.639	1727
956.728	1188
956.817	941
956.906	1381
956.995	1511
957.085	999
957.174	1598
957.263	1393
957.352	1389
957.441	1966
957.530	967
957.619	923
957.708	627
957.796	1663
957.885	783
957.974	1235
958.063	1016
958.152	482
958.241	866
958.329	599
958.418	883
958.507	2
958.596	2125
958.684	742
958.773	1572
958.861	735
958.950	477
959.039	441
959.127	1325
959.216	1213
959.304	616
959.393	553
959.481	752
959.570	925
959.658	429
959.746	471
959.835	1014
959.923	1397
960.011	435
960.100	1512
960.188	2249
960.276	1072
960.365	381
960.453	827
960.541	-562
960.629	698
960.717	-38
960.805	-83
960.893	779
960.981	318
961.069	2190
961.158	1583
961.245	2029
961.333	2385
961.421	1477
961.509	1430
961.597	1234
961.685	1002
961.773	491
961.861	1129
961.949	2016
962.036	235
962.124	468
962.212	1308
962.299	535
962.387	429
962.475	780
962.562	1278
962.650	2229
962.738	158
962.825	685
962.913	1399
963.000	723
963.088	1279
963.175	789
963.263	1332
963.350	828
963.438	584
963.525	401
963.612	1176
963.700	609
963.787	1722
963.874	850
963.962	241
964.049	769
964.136	115
964.223	22
964.310	354
964.398	440
964.485	846
964.572	786
964.659	699
964.746	631
964.833	1101
964.920	483
965.007	437
965.094	840
965.181	776
965.268	1497
965.355	796
965.441	585
965.528	559
965.615	649
965.702	940
965.789	628
965.875	679
965.962	747
966.049	16
966.136	1809
966.222	1620
966.309	1495
966.395	1555
966.482	2288
966.569	1170
966.655	981
966.742	880
966.828	428
966.915	-365
967.001	603
967.087	1050
967.174	-248
967.260	651
967.347	943
967.433	799
967.519	1169
967.605	1210
967.692	541
967.778	343
967.864	645
967.950	747
968.036	-14
968.123	1774
968.209	895
968.295	-1215
968.381	1660
968.467	744
968.553	-772
968.639	1399
968.725	420
968.811	1431
968.897	1135
968.983	951
969.069	-325
969.154	1161
969.240	297
969.326	-66
969.412	-402
969.497	462
969.583	222
969.669	1471
969.755	485
969.840	793
969.926	1023
970.012	2562
970.097	3892
970.183	2272
970.268	752
970.354	784
970.439	397
970.525	1182
970.610	-328
970.696	1208
970.781	350
970.866	-594
970.952	1000
971.037	133
971.122	960
971.208	206
971.293	893
971.378	-142
971.463	40
971.549	516
971.634	297
971.719	840
971.804	-58
971.889	210
971.974	29
972.059	-62
972.144	920
972.229	449
972.314	175
972.399	955
972.484	296
972.569	574
972.654	-624
972.739	1215
972.824	140
972.908	-202
972.993	1094
973.078	223
973.163	572
973.247	1247
973.332	-988
973.417	1400
973.501	-301
973.586	307
973.671	956
973.755	70
973.840	717
973.924	621
974.009	1560
974.093	831
974.178	1525
974.262	800
974.346	363
974.431	1430
974.515	187
974.600	628
974.684	196
974.768	329
974.852	641
974.937	-94
975.021	1018
975.105	696
975.189	535
975.273	1381
975.358	616
975.442	80
975.526	680
975.610	-316
975.694	-1472
975.778	1716
975.862	-506
975.946	-1633
976.030	1308
976.114	147
976.198	108
976.281	666
976.365	1231
976.449	566
976.533	-680
976.617	61
976.700	-85
976.784	915
976.868	-951
976.951	432
977.035	-105
977.119	664
977.202	146
977.286	1408
977.369	1115
977.453	2361
977.536	1414
977.620	797
977.703	1958
977.787	504
977.870	1388
977.953	2080
978.037	-775
978.120	1163
978.203	94
978.287	941
978.370	930
978.453	449
978.536	719
978.620	2070
978.703	568
978.786	1086
978.869	330
978.952	46
979.035	1648
979.118	1168
979.201	-31
979.284	1152
979.367	-236
979.450	1213
979.533	-65
979.616	791
979.699	-13
979.782	1093
979.865	23
979.948	70
980.030	-406
980.113	789
980.196	-241
980.279	1618
980.361	-122
980.444	1
980.526	1179
980.609	1478
980.692	1938
980.774	2007
980.857	254
980.939	2133
981.022	-11
981.104	901
981.187	240
981.269	947
981.352	71
981.434	126
981.516	984
981.599	1933
981.681	644
981.763	1178
981.846	143
981.928	1245
982.010	649
982.092	473
982.174	969
982.256	595
982.339	173
982.421	245
982.503	365
982.585	-87
982.667	236
982.749	258
982.831	-448
982.913	-174
982.995	1067
983.077	1063
983.158	1698
983.240	-533
983.322	1781
983.404	3005
983.486	932
983.568	2321
983.649	1258
983.731	2082
983.813	955
983.894	1011
983.976	-220
984.058	229
984.139	1600
984.221	319
984.302	1414
984.384	787
984.465	161
984.547	1222
984.628	883
984.710	1879
984.791	1539
984.872	1402
984.954	854
985.035	721
985.116	1116
985.198	334
985.279	2403
985.360	763
985.441	251
985.522	1451
985.604	1174
985.685	-982
985.766	1928
985.847	1949
985.928	279
986.009	712
986.090	955
986.171	2480
986.252	598
986.333	1105
986.414	250
986.495	977
986.576	775
986.656	2066
986.737	1533
986.818	963
986.899	1158
986.980	1383
987.060	1320
987.141	1020
987.222	1675
987.302	1453
987.383	1787
987.464	2216
987.544	1151
987.625	3248
987.705	2155
987.786	2121
987.866	2276
987.947	2176
988.027	1438
988.108	897
988.188	1900
988.268	2306
988.349	1452
988.429	1653
988.509	1412
988.589	1513
988.670	-14
988.750	3015
988.830	1305
988.910	1649
988.990	1260
989.070	1264
989.151	1623
989.231	1304
989.311	1598
989.391	640
989.471	599
989.551	2145
989.631	476
989.711	1540
989.791	397
989.870	1148
989.950	2054
990.030	989
990.110	1577
990.190	306
990.269	634
990.349	666
990.429	1473
990.509	1230
990.588	-124
990.668	618
990.747	727
990.827	376
990.907	1008
990.986	819
991.066	1302
991.145	338
991.225	1101
991.304	1320
991.383	756
991.463	1300
991.542	398
991.622	451
991.701	-122
991.780	855
991.859	161
991.939	773
992.018	575
992.097	874
992.176	57
992.256	875
992.335	-38
992.414	952
992.493	-287
992.572	395
992.651	1362
992.730	577
992.809	736
992.888	99
992.967	100
993.046	749
993.125	-420
993.203	698
993.282	1100
993.361	592
993.440	664
993.519	-42
993.597	540
993.676	342
993.755	874
993.834	578
993.912	-1300
993.991	789
994.069	-734
994.148	-228
994.226	518
994.305	248
994.384	-416
994.462	1989
994.540	33
994.619	-198
994.697	153
994.776	-780
994.854	-109
994.932	-263
995.011	-187
995.089	621
995.167	-814
995.245	639
995.324	-996
995.402	159
995.480	-814
995.558	49
995.636	-962
995.714	-442
995.792	298
995.870	-369
995.948	-625
996.026	587
996.104	-1540
996.182	432
996.260	-1621
996.338	-425
996.416	-1118
996.494	-174
996.572	-219
996.649	-611
996.727	-1037
996.805	239
996.883	-79
996.960	-125
997.038	-521
997.116	684
997.193	-411
997.271	-216
997.348	-2069
997.426	-625
997.504	-717
997.581	868
997.658	-291
997.736	-1016
997.813	-1521
997.891	466
997.968	-1000
998.046	-444
998.123	-698
998.200	-128
998.277	-1376
998.355	-296
998.432	-2159
998.509	-429
998.586	-288
998.663	-869
998.741	-500
998.818	-58
998.895	-1360
998.972	-326
999.049	-109
999.126	-1149
999.203	-325
999.280	-614
999.357	-986
999.434	-864
999.511	-533
999.587	-248
999.664	-1568
999.741	-330
999.818	-1034
999.895	-695
999.971	-878
1000.048	-1021
1000.125	-1025
1000.202	-898
1000.278	-668
1000.355	-11
1000.431	-415
1000.508	-1141
1000.584	-837
1000.661	-819
1000.738	-1551
1000.814	-318
1000.890	-795
1000.967	-990
1001.043	-995
1001.120	-2700
1001.196	-1267
1001.272	-1337
1001.349	-1702
1001.425	-334
1001.501	-1000
1001.577	-1210
1001.654	-390
1001.730	-1084
1001.806	-1298
1001.882	-1903
1001.958	-607
1002.034	-123
1002.110	-1315
1002.186	-1088
1002.262	-1232
1002.338	-1351
1002.414	-964
1002.490	-712
1002.566	-1470
1002.642	-1904
1002.718	-531
1002.794	-1348
1002.870	-943
1002.945	-1037
1003.021	-750
1003.097	-666
1003.173	-629
1003.248	-1177
1003.324	-916
1003.400	-383
1003.475	-1210
1003.551	-760
1003.626	-1209
1003.702	-966
1003.777	-1188
1003.853	-828
1003.928	-1747
1004.004	-639
1004.079	-520
1004.155	-663
1004.230	-1825
1004.305	477
1004.381	-1785
1004.456	-643
1004.531	-1671
1004.607	-683
1004.682	-1310
1004.757	-678
1004.832	-1800
1004.907	-1476
1004.982	-1064
1005.057	-1123
1005.133	-1259
1005.208	-1037
1005.283	-1836
1005.358	-515
1005.433	-2466
1005.508	-546
1005.583	-1175
1005.657	-970
1005.732	-440
1005.807	-1577
1005.882	-1126
1005.957	-770
1006.032	-1248
1006.106	-911
1006.181	-1310
1006.256	-461
1006.331	-1507
1006.405	-1888
1006.480	-1155
1006.554	-1951
1006.629	-1312
1006.704	-1180
1006.778	-1167
1006.853	-1192
1006.927	-1557
1007.002	-1137
1007.076	-1231
1007.150	-1945
1007.225	-1160
1007.299	-683
1007.373	-1400
1007.448	-991
1007.522	-884
1007.596	-1721
1007.671	-1571
1007.745	-1000
1007.819	-1968
1007.893	-1164
1007.967	-1456
1008.041	-1559
1008.115	-1098
1008.190	-1327
1008.264	-660
1008.338	-2438
1008.412	-1676
1008.486	-1181
1008.560	-1515
1008.633	-2187
1008.707	-1815
1008.781	-655
1008.855	-1055
1008.929	-863
1009.003	-1907
1009.076	-2320
1009.150	-1559
1009.224	-812
1009.298	-1490
1009.371	-1873
1009.445	-1051
1009.519	-1384
1009.592	-1914
1009.666	-1078
1009.739	-1142
1009.813	-1290
1009.886	-751
1009.960	-2007
1010.033	-899
1010.107	-1600
1010.180	-1653
1010.253	-1796
1010.327	-2336
1010.400	-1395
1010.473	-1450
1010.547	-397
1010.620	-2050
1010.693	-1692
1010.766	-2092
1010.840	-1096
1010.913	-2262
1010.986	-1317
1011.059	-1167
1011.132	-1951
1011.205	-813
1011.278	-2486
1011.351	-1730
1011.424	-1151
1011.497	-2839
1011.570	-776
1011.643	-1753
1011.716	-1668
1011.789	-1556
1011.862	-1482
1011.934	-700
1012.007	-2919
1012.080	-964
1012.153	-1782
1012.225	-487
1012.298	-1609
1012.371	-1771
1012.443	-977
1012.516	-1728
1012.588	-1298
1012.661	-1765
1012.733	-1606
1012.806	-1006
1012.879	-1470
1012.951	-1987
1013.023	-1417
1013.096	-2199
1013.168	-1521
1013.241	-1270
1013.313	-1540
1013.385	-2384
1013.458	-1596
1013.530	-1116
1013.602	-2264
1013.674	-1520
1013.746	-1285
1013.819	-1970
1013.891	-1552
1013.963	-2173
1014.035	-1153
1014.107	-1051
1014.179	-716
1014.251	-2352
1014.323	-1271
1014.395	-1868
1014.467	-642
1014.539	-1529
1014.611	-2470
1014.683	-1847
1014.754	-1543
1014.826	-2341
1014.898	-1332
1014.970	-3137
1015.042	-955
1015.113	-1714
1015.185	-1883
1015.257	-1776
1015.328	-1436
1015.400	-1846
1015.471	-2315
1015.543	-2006
1015.615	-1168
1015.686	-2033
1015.757	-1962
1015.829	-1719
1015.901	-2059
1015.972	-1522
1016.043	-1801
1016.115	-1006
1016.186	-1795
1016.257	-2595
1016.328	-913
1016.400	-1457
1016.471	-1284
1016.542	-2232
1016.613	-1115
1016.685	-1700
1016.756	-1285
1016.827	-1561
1016.898	-2103
1016.969	-1823
1017.040	-1890
1017.111	-1776
1017.182	-1567
1017.253	-1788
1017.324	-1463
1017.395	-2629
1017.466	-1447
1017.537	-1646
1017.608	-1645
1017.678	-1795
1017.749	-1290
1017.820	-1374
1017.891	-1918
1017.961	-2622
1018.032	-2144
1018.103	-1791
1018.173	-2025
1018.244	-1922
1018.315	-1612
1018.385	-552
1018.456	-1466
1018.526	-2402
1018.597	-2120
1018.667	-1651
1018.738	-1751
1018.808	-2044
1018.878	-2012
1018.949	-1802
1019.019	-1698
1019.089	-1827
1019.160	-837
1019.230	-1746
1019.300	-1489
1019.371	-1787
1019.441	-1516
1019.511	-2132
1019.581	-1749
1019.651	-2077
1019.721	-1514
1019.791	-1924
1019.861	-2016
1019.931	-2269
1020.001	-1387
1020.071	-1700
1020.141	-1781
1020.211	-1773
1020.281	-1930
1020.351	-2158
1020.421	-790
1020.491	-1131
1020.560	-2661
1020.630	-2073
1020.700	-1582
1020.770	-3118
1020.839	-1949
1020.909	-1568
1020.979	-1829
1021.048	-1633
1021.118	-1623
1021.187	-2003
1021.257	-1515
1021.326	-1621
1021.396	-1570
1021.465	-1867
1021.535	-1708
1021.604	-2510
1021.674	-1719
1021.743	-2202
1021.812	-1319
1021.882	-1775
1021.951	-1566
1022.020	-1917
1022.089	-1604
1022.159	-1837
1022.228	-1092
1022.297	-1339
1022.366	-1485
1022.435	-2094
1022.504	-2008
1022.573	-2248
1022.642	-1480
1022.711	-2626
1022.781	-697
1022.849	-1820
1022.918	-2274
1022.987	-1576
1023.056	-1122
1023.125	-1880
1023.194	-2005
1023.263	-868
1023.331	-2274
1023.400	-1990
1023.469	-1733
1023.538	-1428
1023.606	-2200
1023.675	-2197
1023.744	-1784
1023.812	-2127
1023.881	-1581
1023.949	-1560
1024.018	-1464
1024.086	-2043
1024.155	-1529
1024.223	-1570
1024.292	-1196
1024.360	-2150
1024.429	-1047
1024.497	-1909
1024.565	-1125
1024.634	-1716
1024.702	-1392
1024.770	-1904
1024.838	-1823
1024.907	-2287
1024.975	-2320
1025.043	-1558
1025.111	-1555
1025.179	-1586
1025.247	-1977
1025.315	-1609
1025.383	-1813
1025.451	-1876
1025.519	-1680
1025.587	-1990
1025.655	-1470
1025.723	-2512
1025.791	-2086
1025.859	-1953
1025.927	-1618
1025.995	-2729
1026.062	-1864
1026.130	-2539
1026.198	-1230
1026.266	-1769
1026.333	-1188
1026.401	-1783
1026.469	-1515
1026.536	-1465
1026.604	-2373
1026.671	-1876
1026.739	-1708
1026.806	-2114
1026.874	-2420
1026.941	-1965
1027.009	-1604
1027.076	-2373
1027.144	-2285
1027.211	-1738
1027.278	-2249
1027.345	-1201
1027.413	-2263
1027.480	-2063
1027.547	-1938
1027.614	-1639
1027.682	-1244
1027.749	-1909
1027.816	-1962
1027.883	-1879
1027.950	-1327
1028.017	-2375
1028.084	-433
1028.151	-2471
1028.218	-1134
1028.285	-1483
1028.352	-2263
1028.419	-2629
1028.486	-2347
1028.553	-1833
1028.619	-1873
1028.686	-1652
1028.753	-1873
1028.820	-2660
1028.886	-2460
1028.953	-2294
1029.020	-2338
1029.086	-2346
1029.153	-1894
1029.220	-2503
1029.286	-1462
1029.353	-1933
1029.419	-1783
1029.486	-2233
1029.552	-2073
1029.619	-1566
1029.685	-1712
1029.751	-2248
1029.818	-1837
1029.884	-2963
1029.951	-931
1030.017	-2064
1030.083	-1551
1030.149	-2369
1030.216	-1873
1030.282	-1813
1030.348	-1915
1030.414	-2507
1030.480	-1793
1030.546	-2168
1030.612	-1447
1030.678	-2489
1030.744	-1121
1030.810	-2281
1030.876	-1589
1030.942	-2031
1031.008	-1415
1031.074	-2313
1031.140	-2390
1031.206	-1369
1031.272	-1904
1031.337	-2473
1031.403	-1372
1031.469	-1921
1031.534	-1861
1031.600	-1680
1031.666	-1790
1031.731	-2034
1031.797	-1181
1031.863	-1432
1031.928	-1859
1031.994	-2077
1032.059	-2335
1032.125	-2012
1032.190	-1754
1032.256	-1706
1032.321	-1947
1032.386	-2114
1032.452	-1197
1032.517	-1894
1032.582	-904
1032.647	-2394
1032.713	-1856
1032.778	-1635
1032.843	-2184
1032.908	-2563
1032.974	-1849
1033.039	-1950
1033.104	-1298
1033.169	-2615
1033.234	-1856
1033.299	-1422
1033.364	-1570
1033.429	-1668
1033.494	-1258
1033.559	-2335
1033.624	-1964
1033.688	-2341
1033.753	-1288
1033.818	-2472
1033.883	-1634
1033.948	-1569
1034.013	-1875
1034.077	-845
1034.142	-7
1034.207	-1023
1034.271	1295
1034.336	1361
1034.400	1213
1034.465	-1354
1034.530	-616
1034.594	-1562
1034.658	-787
1034.723	-2278
1034.787	-1866
1034.852	-1284
1034.916	-2037
1034.981	-2101
1035.045	-1127
1035.109	-1905
1035.173	-1478
1035.238	-2122
1035.302	-1926
1035.366	-2001
1035.430	-2036
1035.495	-1685
1035.559	-1247
1035.623	-2094
1035.687	-2619
1035.751	-2004
1035.815	-1347
1035.879	-2225
1035.943	-1018
1036.007	-1785
1036.071	-1996
1036.135	-2478
1036.198	-567
1036.262	-2105
1036.326	-906
1036.390	-2293
1036.454	-1584
1036.517	-1094
1036.581	-2482
1036.645	-1473
1036.709	-1716
1036.772	-2895
1036.836	-2441
1036.900	-1517
1036.963	-2093
1037.026	-2204
1037.090	-1335
1037.154	-1881
1037.217	-1710
1037.280	-2402
1037.344	-1199
1037.407	-2702
1037.471	-1586
1037.534	-1822
1037.597	-1339
1037.661	-2351
1037.724	-1633
1037.787	-2042
1037.850	-1182
1037.913	-1946
1037.977	-1336
1038.040	-2767
1038.103	-1225
1038.166	-2571
1038.229	-1463
1038.292	-1653
1038.355	-1785
1038.418	-2669
1038.481	-2115
1038.544	-2620
1038.607	-1455
1038.670	-1053
1038.732	-1809
1038.795	-1522
1038.858	-1225
1038.921	-1407
1038.984	-1092
1039.046	-2323
1039.109	-1676
1039.172	-1789
1039.234	-2054
1039.297	-1655
1039.360	-1449
1039.422	-2335
1039.485	-2096
1039.547	-3307
1039.610	-939
1039.672	-2474
1039.734	-2433
1039.797	-1576
1039.859	-1885
1039.922	-2177
1039.984	-2179
1040.046	-1216
1040.109	-1258
1040.171	-1871
1040.233	-2027
1040.295	-2282
1040.358	-2269
1040.420	-2136
1040.482	-1844
1040.544	-2237
1040.606	-1708
1040.668	-2033
1040.730	-2141
1040.792	-2193
1040.854	-2160
1040.916	-2244
1040.978	-1691
1041.040	-1588
1041.102	-1961
1041.164	-2037
1041.225	-2934
1041.287	-1506
1041.349	-2596
1041.411	-1997
1041.472	-2278
1041.534	-2062
1041.596	-1572
1041.657	-2358
1041.719	-1651
1041.781	-2461
1041.842	-1871
1041.904	-2848
1041.965	-2169
1042.027	-2455
1042.088	-1163
1042.150	-1991
1042.211	-1656
1042.272	-2497
1042.334	-1699
1042.395	-2148
1042.456	-2730
1042.518	-1626
1042.579	-1559
1042.640	-2369
1042.701	-1692
1042.763	-1891
1042.824	-1721
1042.885	-1970
1042.946	-982
1043.007	-2300
1043.068	-2872
1043.129	-2545
1043.190	-1790
1043.251	-941
1043.312	-2007
1043.373	-2036
1043.434	-1828
1043.495	-2058
1043.556	-2514
1043.616	-2916
1043.677	-1391
1043.738	-2078
1043.799	-2672
1043.859	-1839
1043.920	-2352
1043.981	-1705
1044.041	-1883
1044.102	-2508
1044.162	-1559
1044.223	-2050
1044.284	-1922
1044.344	-1713
1044.405	-1259
1044.465	-3307
1044.525	-1361
1044.586	-2313
1044.646	-2517
1044.707	-1352
1044.767	-1650
1044.827	-2711
1044.887	-1173
1044.948	-1516
1045.008	-1316
1045.068	-2598
1045.128	-1625
1045.188	-2290
1045.249	-597
1045.309	-1815
1045.369	-2607
1045.429	-2774
1045.489	-1391
1045.549	-2097
1045.609	-1949
1045.669	-2356
1045.729	-2314
1045.789	-3127
1045.848	-2315
1045.908	-1858
1045.968	-1397
1046.028	-2355
1046.088	-1144
1046.147	-1246
1046.207	-366
1046.267	-2254
1046.326	-1930
1046.386	-1711
1046.446	-1112
1046.505	-812
1046.565	58
1046.624	-602
1046.684	-818
1046.743	-1401
1046.803	31
1046.862	316
1046.922	0
