'Start Wavelength	183.907
'End Wavelength	1046.922
'Gate Delay	5.000
'Gate Width (ms)	1.050
'Laser Output Level	0.000
'X Position	0.000
'Y Position	0.000
'Z Position	0.000
'Grid Point Number	1.000
'Shot Number	100.000
183.907	300.000
183.977	-130.000
184.047	143
184.116	248
184.186	109
184.256	702
184.325	12
184.395	-1011
184.465	1086
184.534	-232
184.604	-761
184.674	719
184.743	-132
184.813	68
184.883	42
184.952	55
185.022	152
185.092	559
185.161	-504
185.231	-376
185.301	-19
185.370	520
185.440	-150
185.509	-119
185.579	22
185.649	63
185.718	-267
185.788	436
185.857	-738
185.927	-505
185.996	-482
186.066	417
186.136	-304
186.205	-38
186.275	324
186.344	-602
186.414	-373
186.483	-378
186.553	518
186.622	-72
186.692	11
186.761	-291
186.831	422
186.900	279
186.970	586
187.039	399
187.109	-36
187.178	304
187.248	268
187.317	315
187.387	-991
187.456	-331
187.526	312
187.595	742
187.664	47
187.734	-229
187.803	229
187.873	375
187.942	111
188.012	699
188.081	634
188.150	574
188.220	215
188.289	724
188.358	350
188.428	-107
188.497	-273
188.567	296
188.636	-735
188.705	-637
188.775	-375
188.844	-72
188.913	953
188.983	-58
189.052	31
189.121	350
189.191	252
189.260	656
189.329	711
189.399	-535
189.468	-216
189.537	-155
189.606	827
189.676	730
189.745	-212
189.814	989
189.883	-132
189.953	-285
190.022	-145
190.091	-207
190.161	-474
190.230	-165
190.299	-159
190.368	-276
190.437	-10
190.507	38
190.576	431
190.645	-452
190.714	-118
190.783	-404
190.853	245
190.922	744
190.991	-748
191.060	-147
191.129	-434
191.198	145
191.268	35
191.337	105
191.406	426
191.475	-212
191.544	-180
191.613	304
191.682	-123
191.752	473
191.821	20
191.890	-533
191.959	-313
192.028	160
192.097	-427
192.166	-499
192.235	-920
192.304	694
192.373	573
192.442	587
192.511	-118
192.580	823
192.650	14
192.719	370
192.788	-50
192.857	50
192.926	207
192.995	-352
193.064	-605
193.133	-261
193.202	-21
193.271	-246
193.340	-10
193.409	299
193.478	-240
193.547	-281
193.615	-458
193.684	133
193.753	-738
193.822	952
193.891	-382
193.960	148
194.029	-414
194.098	541
194.167	-349
194.236	777
194.305	69
194.374	27
194.443	-123
194.512	577
194.580	327
194.649	415
194.718	327
194.787	-16
194.856	-49
194.925	225
194.994	-54
195.062	456
195.131	239
195.200	-222
195.269	-705
195.338	-41
195.407	-231
195.475	-253
195.544	-284
195.613	-686
195.682	221
195.751	-194
195.819	-856
195.888	593
195.957	652
196.026	73
196.094	806
196.163	-637
196.232	20
196.301	-368
196.369	-822
196.438	-287
196.507	-48
196.576	118
196.644	92
196.713	-351
196.782	-595
196.850	-3
196.919	455
196.988	-427
197.056	-555
197.125	244
197.194	234
197.262	205
197.331	-146
197.400	-241
197.468	-406
197.537	-724
197.606	-919
197.674	-108
197.743	-821
197.812	-513
197.880	-717
197.949	-636
198.017	98
198.086	-127
198.155	-79
198.223	22
198.292	-379
198.360	-58
198.429	-930
198.497	37
198.566	820
198.635	498
198.703	-193
198.772	-295
198.840	268
198.909	-560
198.977	-143
199.046	-483
199.114	-242
199.183	23
199.251	473
199.320	-91
199.388	543
199.457	-82
199.525	73
199.594	183
199.662	-253
199.731	-281
199.799	590
199.867	252
199.936	-1192
200.004	245
200.073	312
200.141	-333
200.210	48
200.278	460
200.346	206
200.415	302
200.483	-468
200.552	-104
200.620	-260
200.688	-3
200.757	308
200.825	30
200.893	-566
200.962	488
201.030	28
201.098	-749
201.167	-483
201.235	-643
201.303	111
201.372	602
201.440	-299
201.508	146
201.577	-338
201.645	-440
201.713	-119
201.781	3
201.850	-91
201.918	211
201.986	-566
202.055	875
202.123	-526
202.191	-424
202.259	118
202.327	933
202.396	627
202.464	-523
202.532	-738
202.600	82
202.669	193
202.737	262
202.805	-586
202.873	140
202.941	4
203.009	4
203.078	-672
203.146	70
203.214	-277
203.282	-618
203.350	-133
203.418	-629
203.487	-319
203.555	369
203.623	233
203.691	-851
203.759	-325
203.827	166
203.895	-109
203.963	-716
204.031	-139
204.099	-788
204.168	-588
204.236	383
204.304	-244
204.372	-82
204.440	-594
204.508	-493
204.576	-992
204.644	-227
204.712	-741
204.780	-505
204.848	-639
204.916	-15
204.984	-565
205.052	-207
205.120	-610
205.188	-469
205.256	-44
205.324	212
205.392	-896
205.460	-124
205.528	-883
205.596	524
205.664	-296
205.732	-703
205.799	-1252
205.867	-149
205.935	-773
206.003	344
206.071	-340
206.139	-740
206.207	-392
206.275	-140
206.343	-952
206.411	495
206.478	410
206.546	-625
206.614	-371
206.682	399
206.750	-401
206.818	-115
206.885	393
206.953	-999
207.021	403
207.089	-21
207.157	-544
207.225	-573
207.292	-790
207.360	-272
207.428	-708
207.496	-573
207.563	-669
207.631	-438
207.699	-236
207.767	-361
207.834	-328
207.902	-338
207.970	-510
208.038	-536
208.105	-546
208.173	-328
208.241	-866
208.309	-113
208.376	-304
208.444	-209
208.512	-834
208.579	-1783
208.647	-171
208.715	841
208.782	-1115
208.850	-383
208.918	-1257
208.985	70
209.053	-567
209.120	-465
209.188	-653
209.256	1063
209.323	-1590
209.391	-1031
209.459	-349
209.526	-157
209.594	-204
209.661	-489
209.729	-482
209.796	-272
209.864	-604
209.932	-1588
209.999	1051
210.067	170
210.134	-268
210.202	238
210.269	158
210.337	405
210.404	-880
210.472	-274
210.539	-394
210.607	-889
210.674	-977
210.742	209
210.809	-35
210.877	-217
210.944	92
211.012	-1354
211.079	1371
211.146	221
211.214	-321
211.281	-971
211.349	-549
211.416	133
211.484	-53
211.551	-685
211.618	-882
211.686	-242
211.753	-1132
211.821	-114
211.888	-560
211.955	-883
212.023	117
212.090	-388
212.157	-771
212.225	-790
212.292	-234
212.359	-271
212.427	-75
212.494	-274
212.561	-144
212.629	-200
212.696	-607
212.763	-397
212.831	-926
212.898	-297
212.965	-1280
213.032	-63
213.100	-87
213.167	-698
213.234	91
213.301	-201
213.369	222
213.436	-384
213.503	-833
213.570	401
213.638	-300
213.705	-188
213.772	-1162
213.839	-765
213.906	-9
213.973	-401
214.041	-781
214.108	-406
214.175	-817
214.242	-278
214.309	-594
214.376	-771
214.444	-797
214.511	-740
214.578	-598
214.645	163
214.712	-756
214.779	-803
214.846	-1006
214.913	122
214.980	-96
215.048	374
215.115	208
215.182	-940
215.249	-571
215.316	-1138
215.383	267
215.450	60
215.517	-624
215.584	-446
215.651	-630
215.718	174
215.785	-116
215.852	-991
215.919	-431
215.986	-293
216.053	-543
216.120	-25
216.187	-596
216.254	-324
216.321	-599
216.388	-349
216.455	-499
216.522	35
216.589	-226
216.656	5
216.722	-1141
216.789	433
216.856	-687
216.923	442
216.990	-22
217.057	-340
217.124	374
217.191	-889
217.258	-260
217.324	-1152
217.391	-147
217.458	-478
217.525	580
217.592	-765
217.659	-1595
217.725	490
217.792	-1606
217.859	-346
217.926	-1763
217.993	-951
218.059	-663
218.126	215
218.193	-576
218.260	-286
218.327	-726
218.393	-606
218.460	-93
218.527	-594
218.594	-274
218.660	-782
218.727	160
218.794	-1387
218.860	742
218.927	-913
218.994	-326
219.061	-557
219.127	-471
219.194	-521
219.261	-593
219.327	-406
219.394	605
219.461	-1286
219.527	123
219.594	-221
219.661	-393
219.727	-1054
219.794	167
219.860	-1221
219.927	345
219.994	-269
220.060	-182
220.127	148
220.193	570
220.260	-882
220.326	-474
220.393	-964
220.460	-527
220.526	-1006
220.593	-1188
220.659	1186
220.726	-312
220.792	-368
220.859	-856
220.925	14
220.992	-159
221.058	525
221.125	-925
221.191	-250
221.258	-1488
221.324	543
221.391	-1385
221.457	-1027
221.524	-179
221.590	-784
221.657	-561
221.723	-865
221.789	-968
221.856	-421
221.922	-1757
221.989	-49
222.055	-236
222.121	-1304
222.188	724
222.254	33
222.321	-668
222.387	-695
222.453	-763
222.520	-410
222.586	-1103
222.652	-792
222.719	-1047
222.785	267
222.851	325
222.918	-388
222.984	-1154
223.050	-988
223.116	-1678
223.183	353
223.249	-1600
223.315	-1171
223.382	124
223.448	-226
223.514	-1329
223.580	-76
223.647	-865
223.713	-904
223.779	150
223.845	-412
223.911	-30
223.978	-733
224.044	86
224.110	-846
224.176	141
224.242	-235
224.309	-1385
224.375	-594
224.441	-817
224.507	-680
224.573	-1444
224.639	464
224.705	-834
224.772	-26
224.838	-751
224.904	281
224.970	-302
225.036	-33
225.102	-1793
225.168	-186
225.234	-574
225.300	-676
225.366	-818
225.432	-1198
225.499	-846
225.565	295
225.631	-1058
225.697	-76
225.763	-665
225.829	-780
225.895	-602
225.961	-498
226.027	-678
226.093	-668
226.159	-486
226.225	-245
226.291	-409
226.357	-362
226.423	-548
226.489	-589
226.554	-802
226.620	179
226.686	-707
226.752	-548
226.818	-456
226.884	-349
226.950	166
227.016	-748
227.082	-634
227.148	-763
227.214	-244
227.279	-477
227.345	-376
227.411	-390
227.477	408
227.543	755
227.609	772
227.674	284
227.740	-991
227.806	63
227.872	-677
227.938	-365
228.003	-864
228.069	-740
228.135	-638
228.201	11
228.267	-1141
228.332	-917
228.398	-1262
228.464	-855
228.530	-1301
228.595	-516
228.661	-1194
228.727	-1668
228.792	-175
228.858	-925
228.924	-1855
228.990	712
229.055	-1328
229.121	-293
229.187	286
229.252	-1030
229.318	-1587
229.384	-407
229.449	-479
229.515	-1344
229.581	-1929
229.646	1504
229.712	-1015
229.777	-866
229.843	-751
229.909	-599
229.974	-530
230.040	-657
230.105	-939
230.171	-1400
230.236	-129
230.302	-718
230.368	-683
230.433	-1254
230.499	-829
230.564	219
230.630	-1390
230.695	221
230.761	1088
230.826	-1810
230.892	273
230.957	-1242
231.023	-1050
231.088	-238
231.154	-585
231.219	30
231.284	-1389
231.350	11
231.415	-1002
231.481	89
231.546	-484
231.612	-287
231.677	-866
231.742	-1100
231.808	1573
231.873	-1258
231.939	-2267
232.004	-65
232.069	452
232.135	-1287
232.200	-801
232.265	-375
232.331	-1352
232.396	-437
232.461	-1440
232.527	-852
232.592	-443
232.657	-1005
232.723	-1011
232.788	-1329
232.853	-264
232.918	-351
232.984	-1217
233.049	-260
233.114	-1399
233.179	-269
233.245	-38
233.310	-23
233.375	-1249
233.440	-165
233.506	-352
233.571	-1481
233.636	-788
233.701	-782
233.766	-517
233.832	-367
233.897	-441
233.962	-1433
234.027	-38
234.092	-280
234.157	-1175
234.222	-945
234.288	-909
234.353	-807
234.418	-26
234.483	483
234.548	-586
234.613	-791
234.678	-1140
234.743	-1565
234.808	44
234.873	-2240
234.938	7
235.004	-659
235.069	-1285
235.134	-707
235.199	-1046
235.264	-240
235.329	-2177
235.394	87
235.459	63
235.524	-1550
235.589	462
235.654	-1446
235.719	-1985
235.784	-103
235.849	-395
235.913	-1297
235.978	-1031
236.043	-760
236.108	-931
236.173	-1232
236.238	-605
236.303	-1187
236.368	-1458
236.433	354
236.498	-2029
236.563	1
236.627	-469
236.692	664
236.757	-108
236.822	-56
236.887	-1451
236.952	-104
237.017	-2281
237.081	350
237.146	-1803
237.211	-116
237.276	-445
237.341	1051
237.405	-1392
237.470	-608
237.535	-728
237.600	-288
237.664	-691
237.729	-1237
237.794	-2358
237.859	46
237.923	-466
237.988	-880
238.053	-577
238.118	-428
238.182	-1261
238.247	-238
238.312	-1663
238.376	43
238.441	-2401
238.506	724
238.570	-1741
238.635	564
238.700	-949
238.764	-1279
238.829	-692
238.893	-1832
238.958	-773
239.023	-1127
239.087	-1153
239.152	-710
239.216	-1612
239.281	-354
239.346	33
239.410	-593
239.475	-945
239.539	627
239.604	-1043
239.668	496
239.733	-1047
239.797	271
239.862	1155
239.926	1122
239.991	-316
240.055	290
240.120	-779
240.184	-57
240.249	-366
240.313	-128
240.378	-720
240.442	-298
240.507	-429
240.571	-1030
240.635	-955
240.700	-1116
240.764	-721
240.829	-966
240.893	-1405
240.957	-265
241.022	-430
241.086	-508
241.151	-2210
241.215	-691
241.279	-251
241.344	-1158
241.408	-213
241.472	-1700
241.537	-327
241.601	-712
241.665	-1506
241.730	-274
241.794	487
241.858	-1237
241.922	-613
241.987	55
242.051	-555
242.115	-1980
242.179	-761
242.244	-1254
242.308	-191
242.372	-217
242.436	-1930
242.501	-378
242.565	-1441
242.629	-1252
242.693	-65
242.757	-1377
242.822	-952
242.886	-422
242.950	-75
243.014	-758
243.078	-362
243.142	-474
243.206	-1327
243.271	-264
243.335	-911
243.399	-237
243.463	-998
243.527	258
243.591	-1210
243.655	-130
243.719	-1699
243.783	13
243.847	-206
243.911	-250
243.975	-2392
244.040	-2065
244.104	521
244.168	-211
244.232	-672
244.296	-792
244.360	-470
244.424	-1979
244.488	-1214
244.552	8
244.615	-1375
244.679	233
244.743	-1853
244.807	-1889
244.871	-122
244.935	-494
244.999	-1595
245.063	-669
245.127	-417
245.191	-682
245.255	-664
245.319	-172
245.383	-1869
245.446	262
245.510	-1777
245.574	-582
245.638	-239
245.702	-2518
245.766	-579
245.829	246
245.893	-1448
245.957	-1221
246.021	114
246.085	-290
246.149	-1035
246.212	35
246.276	-1823
246.340	-1418
246.404	-742
246.467	-144
246.531	-2869
246.595	252
246.659	787
246.722	-1894
246.786	-481
246.850	-1461
246.913	-1075
246.977	-2206
247.041	-1363
247.104	-912
247.168	-331
247.232	-658
247.295	276
247.359	-599
247.423	-1336
247.486	-1227
247.550	-528
247.614	-1028
247.677	-687
247.741	-354
247.804	-907
247.868	540
247.932	-1311
247.995	131
248.059	-1191
248.122	-1880
248.186	49
248.249	-799
248.313	-183
248.376	316
248.440	-780
248.503	-1364
248.567	763
248.630	-1394
248.694	-778
248.757	-407
248.821	-542
248.884	1258
248.948	-2237
249.011	25
249.075	-912
249.138	291
249.202	-923
249.265	-784
249.328	19
249.392	-1771
249.455	-553
249.519	-1456
249.582	-1248
249.645	-539
249.709	-1239
249.772	-1158
249.835	-627
249.899	-388
249.962	-693
250.025	-847
250.089	-1040
250.152	-133
250.215	-1182
250.279	-1289
250.342	-276
250.405	-26
250.468	-1170
250.532	-421
250.595	-450
250.658	-1775
250.721	1436
250.785	-1461
250.848	-379
250.911	-1324
250.974	-287
251.038	-965
251.101	-99
251.164	-823
251.227	-252
251.290	-646
251.354	-413
251.417	-663
251.480	770
251.543	-63
251.606	871
251.669	1410
251.732	-535
251.795	263
251.859	-171
251.922	34
251.985	-302
252.048	764
252.111	-597
252.174	-1872
252.237	-632
252.300	55
252.363	-1264
252.426	1961
252.489	-1065
252.552	-281
252.615	-1855
252.678	102
252.741	432
252.804	-1036
252.867	1292
252.930	253
252.993	-1588
253.056	-105
253.119	-984
253.182	-1413
253.245	-1173
253.308	494
253.371	-1441
253.434	-320
253.497	-733
253.559	-175
253.622	-692
253.685	-1031
253.748	-1492
253.811	-920
253.874	-752
253.937	-1520
254.000	-662
254.062	-1538
254.125	-827
254.188	206
254.251	-1054
254.314	-910
254.376	-1474
254.439	-454
254.502	-1339
254.565	-1060
254.628	-92
254.690	-1351
254.753	-1442
254.816	-1014
254.878	-1159
254.941	-153
255.004	-658
255.067	-525
255.129	-1597
255.192	-459
255.255	-1903
255.317	-583
255.380	-836
255.443	-555
255.505	-881
255.568	-1205
255.631	-1244
255.693	-556
255.756	-1508
255.819	-1169
255.881	-1041
255.944	-1049
256.006	-1078
256.069	-1509
256.132	-1510
256.194	-149
256.257	-1190
256.319	-626
256.382	-1106
256.444	25
256.507	-416
256.569	-866
256.632	-1548
256.694	-1637
256.757	-511
256.819	451
256.882	-1916
256.944	-240
257.007	-485
257.069	-1164
257.132	-1019
257.194	-20
257.257	-1185
257.319	-858
257.381	-1853
257.444	129
257.506	441
257.569	854
257.631	-829
257.693	-741
257.756	-1099
257.818	-1742
257.880	-500
257.943	-581
258.005	-1645
258.067	-500
258.130	-847
258.192	-1318
258.254	-889
258.317	-476
258.379	-1136
258.441	-973
258.503	-1053
258.566	-884
258.628	-507
258.690	-932
258.753	-521
258.815	-1219
258.877	-2283
258.939	-1336
259.001	-836
259.064	-1763
259.126	-685
259.188	-982
259.250	141
259.312	-579
259.375	-991
259.437	-1123
259.499	-1200
259.561	-606
259.623	-1301
259.685	-1082
259.747	-1194
259.809	-47
259.872	-843
259.934	-257
259.996	-1102
260.058	-44
260.120	-1303
260.182	-675
260.244	-799
260.306	-744
260.368	-621
260.430	-825
260.492	-1017
260.554	-15
260.616	-1732
260.678	-1007
260.740	-1719
260.802	-1179
260.864	-1097
260.926	-1020
260.988	-106
261.050	-1171
261.112	-1888
261.174	655
261.236	-569
261.298	-956
261.359	-1015
261.421	308
261.483	-1418
261.545	-138
261.607	-2165
261.669	-140
261.731	-772
261.793	-455
261.854	-2331
261.916	-907
261.978	-1327
262.040	-987
262.102	-236
262.164	-1362
262.225	-1042
262.287	-724
262.349	-1753
262.411	-161
262.472	-1142
262.534	-1562
262.596	-1980
262.658	-583
262.719	-1802
262.781	-324
262.843	-2000
262.904	-774
262.966	-1275
263.028	-303
263.090	-968
263.151	-825
263.213	-477
263.275	-740
263.336	-768
263.398	161
263.459	-2059
263.521	-1064
263.583	-811
263.644	-725
263.706	-1003
263.767	-1050
263.829	-690
263.891	-1230
263.952	-1377
264.014	-1028
264.075	-1348
264.137	-797
264.198	-1111
264.260	-1583
264.321	-1033
264.383	-782
264.444	-852
264.506	-865
264.567	-830
264.629	13
264.690	-2365
264.752	-581
264.813	-1493
264.875	-741
264.936	-164
264.998	-741
265.059	-823
265.120	-542
265.182	-663
265.243	-830
265.305	-801
265.366	-1081
265.427	-826
265.489	-271
265.550	-1615
265.611	-578
265.673	-1416
265.734	-582
265.795	-891
265.857	-1237
265.918	-1760
265.979	82
266.040	-758
266.102	-1038
266.163	-364
266.224	-1791
266.286	-1067
266.347	-991
266.408	-562
266.469	-1023
266.530	-878
266.592	-1022
266.653	-1619
266.714	-1267
266.775	-1054
266.836	-591
266.898	-1472
266.959	-1085
267.020	-1639
267.081	-20
267.142	-935
267.203	-774
267.264	-1750
267.326	92
267.387	-1665
267.448	-1617
267.509	-798
267.570	-1116
267.631	-1741
267.692	-2030
267.753	-609
267.814	-1101
267.875	-1049
267.936	-693
267.997	-1504
268.058	-1278
268.119	-2148
268.180	-607
268.241	-1307
268.302	-814
268.363	-1676
268.424	-361
268.485	-1398
268.546	-1300
268.607	-896
268.668	-848
268.729	-1089
268.790	-974
268.851	-902
268.912	-984
268.972	-712
269.033	-1137
269.094	-1145
269.155	-361
269.216	-1269
269.277	-631
269.338	-1189
269.398	-944
269.459	-1271
269.520	-800
269.581	-1653
269.642	-301
269.702	-833
269.763	-603
269.824	-1404
269.885	-877
269.945	-1105
270.006	-1249
270.067	-1839
270.128	-969
270.188	-642
270.249	-1156
270.310	-942
270.370	-430
270.431	-1851
270.492	-1298
270.553	-438
270.613	-1145
270.674	-1122
270.734	-972
270.795	-298
270.856	-420
270.916	-1035
270.977	-1647
271.038	-669
271.098	-2015
271.159	-1243
271.219	-967
271.280	-1014
271.340	-290
271.401	-1058
271.462	-1637
271.522	-1687
271.583	-1300
271.643	-941
271.704	-649
271.764	-915
271.825	-1175
271.885	-348
271.946	-577
272.006	-420
272.066	-421
272.127	-665
272.187	857
272.248	-521
272.308	-1088
272.369	-245
272.429	-681
272.489	-1114
272.550	-483
272.610	-521
272.671	-576
272.731	-855
272.791	-1056
272.852	-1233
272.912	-613
272.972	-1146
273.033	-1263
273.093	-939
273.153	-745
273.214	-685
273.274	-443
273.334	-891
273.394	-44
273.455	-886
273.515	-282
273.575	-714
273.635	-354
273.696	-254
273.756	-91
273.816	-328
273.876	649
273.936	-1224
273.997	69
274.057	-1680
274.117	-962
274.177	-929
274.237	-279
274.297	50
274.358	-575
274.418	-578
274.478	-808
274.538	-1092
274.598	-937
274.658	-774
274.718	-410
274.778	-917
274.838	-950
274.898	-510
274.958	-291
275.018	-790
275.078	-260
275.138	-196
275.198	-980
275.258	-1415
275.318	-716
275.378	-327
275.438	-843
275.498	-992
275.558	-1328
275.618	-1440
275.678	-1543
275.738	-975
275.798	-681
275.858	-1095
275.918	-1496
275.978	-566
276.038	-701
276.098	-990
276.157	-1139
276.217	-522
276.277	-909
276.337	-618
276.397	-799
276.457	-437
276.517	-1189
276.576	-545
276.636	-1135
276.696	-1245
276.756	-545
276.815	-854
276.875	-922
276.935	-1077
276.995	-178
277.055	-591
277.114	-640
277.174	-1114
277.234	-344
277.293	-895
277.353	-189
277.413	-948
277.472	-578
277.532	-349
277.592	112
277.651	1155
277.711	4694
277.771	428
277.830	3790
277.890	4004
277.950	1819
278.009	9150
278.069	4175
278.128	3803
278.188	5134
278.248	1662
278.307	5177
278.367	3469
278.426	612
278.486	94
278.545	424
278.605	331
278.664	136
278.724	-590
278.783	-38
278.843	100
278.902	1023
278.962	-101
279.021	776
279.081	1618
279.140	1366
279.199	42
279.259	1140
279.318	1716
279.378	2716
279.437	3008
279.496	8811
279.556	46177
279.615	37395
279.675	9241
279.734	4115
279.793	3607
279.853	4562
279.912	2269
279.971	2465
280.031	1308
280.090	1952
280.149	3638
280.208	5646
280.268	30425
280.327	32267
280.386	6025
280.445	3436
280.505	1818
280.564	2565
280.623	540
280.682	827
280.742	740
280.801	668
280.860	-161
280.919	-608
280.978	-66
281.037	303
281.097	-698
281.156	1310
281.215	206
281.274	-277
281.333	444
281.392	62
281.451	-317
281.510	-525
281.569	217
281.628	-604
281.688	-133
281.747	144
281.806	-843
281.865	499
281.924	-1014
281.983	218
282.042	-447
282.101	-223
282.160	-654
282.219	-171
282.278	-726
282.337	-195
282.396	-150
282.454	-1177
282.513	-23
282.572	204
282.631	-630
282.690	109
282.749	-1110
282.808	54
282.867	71
282.926	124
282.985	462
283.043	-426
283.102	-765
283.161	89
283.220	278
283.279	1004
283.338	98
283.396	88
283.455	-118
283.514	537
283.573	25
283.631	48
283.690	467
283.749	-422
283.808	798
283.866	1165
283.925	421
283.984	817
284.043	188
284.101	1137
284.160	-566
284.219	1949
284.277	1692
284.336	1146
284.395	1427
284.453	1160
284.512	1646
284.570	2300
284.629	2727
284.688	3781
284.746	3350
284.805	4886
284.863	6661
284.922	8775
284.981	11054
285.039	15166
285.098	19040
285.156	25765
285.215	28857
285.273	23748
285.332	23841
285.390	22901
285.449	17411
285.507	12994
285.566	10041
285.624	8003
285.683	6548
285.741	4969
285.799	3362
285.858	3730
285.916	2965
285.975	1960
286.033	1650
286.091	1768
286.150	562
286.208	1784
286.267	956
286.325	794
286.383	775
286.442	844
286.500	-215
286.558	323
286.616	208
286.675	285
286.733	1063
286.791	208
286.850	-186
286.908	-185
286.966	-530
287.024	447
287.083	117
287.141	607
287.199	-824
287.257	455
287.315	-590
287.374	-338
287.432	104
287.490	281
287.548	-866
287.606	533
287.664	351
287.723	25
287.781	353
287.839	7
287.897	-242
287.955	-105
288.013	-352
288.071	477
288.129	785
288.187	7641
288.245	3190
288.303	662
288.361	376
288.419	-546
288.477	-681
288.535	439
288.593	-577
288.651	-619
288.709	-279
288.767	-462
288.825	-804
288.883	-196
288.941	-568
288.999	-284
289.057	-726
289.115	-307
289.173	-959
289.231	-149
289.289	-1227
289.346	-284
289.404	-374
289.462	-746
289.520	-421
289.578	-468
289.636	-503
289.694	9
289.751	-991
289.809	-422
289.867	-1159
289.925	673
289.983	74
290.040	560
290.098	-1183
290.156	-304
290.214	-862
290.271	-503
290.329	-126
290.387	22
290.444	-785
290.502	-732
290.560	252
290.617	-386
290.675	-681
290.733	-584
290.790	51
290.848	-39
290.906	-1267
290.963	-223
291.021	-661
291.078	-284
291.136	-412
291.194	-743
291.251	-24
291.309	-112
291.366	-604
291.424	-763
291.481	-90
291.539	-491
291.596	-332
291.654	-221
291.711	-150
291.769	-763
291.826	-718
291.884	602
291.941	-983
291.999	-319
292.056	-739
292.114	-425
292.171	-523
292.228	179
292.286	-882
292.343	-704
292.401	-403
292.458	-225
292.515	-946
292.573	531
292.630	-201
292.687	86
292.745	-142
292.802	-550
292.859	633
292.917	430
292.974	-915
293.031	476
293.089	-867
293.146	457
293.203	-512
293.260	-560
293.318	-1021
293.375	-199
293.432	-972
293.489	-135
293.546	-389
293.604	-512
293.661	18
293.718	1550
293.775	434
293.832	361
293.889	452
293.947	761
294.004	-293
294.061	296
294.118	-93
294.175	1219
294.232	1297
294.289	356
294.346	253
294.403	-811
294.460	-678
294.517	-592
294.574	-436
294.631	-456
294.688	-272
294.745	-775
294.802	264
294.859	-83
294.916	23
294.973	-616
295.030	-832
295.087	-494
295.144	-698
295.201	-170
295.258	-644
295.315	-763
295.372	-94
295.429	479
295.486	99
295.542	-638
295.599	-314
295.656	-517
295.713	-466
295.770	378
295.827	-1545
295.883	-529
295.940	-800
295.997	-218
296.054	-1260
296.111	-710
296.167	-696
296.224	-751
296.281	-841
296.338	-682
296.394	-656
296.451	-807
296.508	-470
296.564	-864
296.621	-118
296.678	430
296.734	770
296.791	11
296.848	-105
296.904	-917
296.961	-76
297.018	-187
297.074	-642
297.131	-4
297.187	-776
297.244	-694
297.301	-401
297.357	749
297.414	-916
297.470	-340
297.527	-1335
297.583	-911
297.640	-601
297.696	-721
297.753	-634
297.809	-1297
297.866	-963
297.922	-965
297.979	-1336
298.035	-1006
298.092	-1243
298.148	-62
298.204	-655
298.261	-641
298.317	-305
298.374	683
298.430	49
298.486	-611
298.543	-551
298.599	-1154
298.656	-1222
298.712	-512
298.768	-1154
298.824	-452
298.881	-809
298.937	-341
298.993	-1181
299.050	-337
299.106	-1552
299.162	-1376
299.218	-1141
299.275	-950
299.331	-576
299.387	-431
299.443	423
299.500	3495
299.556	3235
299.612	1173
299.668	518
299.724	2533
299.780	5164
299.837	1544
299.893	-111
299.949	2270
300.005	4564
300.061	3119
300.117	6205
300.173	2376
300.229	285
300.285	-373
300.341	-413
300.397	-330
300.453	-790
300.510	-221
300.566	-408
300.622	721
300.678	4771
300.734	8304
300.790	4014
300.845	2093
300.901	2285
300.957	5269
301.013	1827
301.069	369
301.125	372
301.181	-863
301.237	-1100
301.293	13
301.349	-711
301.405	-29
301.461	-1300
301.516	-657
301.572	-1077
301.628	-792
301.684	-1109
301.740	-983
301.796	-646
301.851	-1214
301.907	-518
301.963	-591
302.019	-671
302.074	2663
302.130	3377
302.186	1686
302.242	-734
302.297	-405
302.353	-523
302.409	-471
302.464	-619
302.520	-1186
302.576	-838
302.631	668
302.687	-485
302.743	-931
302.798	-1448
302.854	-1401
302.910	-966
302.965	-99
303.021	-402
303.076	34
303.132	-1047
303.187	-540
303.243	-863
303.299	-1054
303.354	-970
303.410	-632
303.465	-681
303.521	-831
303.576	-821
303.632	-1246
303.687	-318
303.743	272
303.798	389
303.853	-54
303.909	-909
303.964	-1440
304.020	-1036
304.075	-585
304.130	-1411
304.186	-1100
304.241	549
304.297	-301
304.352	-1282
304.358	-1254
304.407	-1032
304.449	-927
304.463	-893
304.518	-615
304.539	-654
304.573	-722
304.629	-291
304.630	-304
304.684	-926
304.720	-370
304.739	-94
304.794	783
304.811	519
304.850	-158
304.902	-232
304.905	-234
304.960	-703
304.992	-907
305.015	-1061
305.071	-394
305.083	-417
305.126	-510
305.173	-125
305.181	-56
305.236	-724
305.264	-457
305.292	-203
305.347	-469
305.354	-415
305.402	-23
305.445	35
305.457	33
305.512	-142
305.535	-127
305.567	-63
305.622	-225
305.626	-248
305.678	-585
305.716	-140
305.733	32
305.788	574
305.807	368
305.843	144
305.897	1339
305.898	1352
305.953	1099
305.988	710
306.008	545
306.063	92
306.078	-103
306.118	-601
306.168	-226
306.173	-179
306.228	-471
306.259	-137
306.283	98
306.338	-335
306.349	-276
306.393	-84
306.440	281
306.448	392
306.503	244
306.530	209
306.558	60
306.613	248
306.620	254
306.668	523
306.711	680
306.723	643
306.778	704
306.801	570
306.833	461
306.888	408
306.892	438
306.943	914
306.982	648
306.997	529
307.052	-41
307.072	107
307.107	541
307.162	623
307.163	616
307.217	14
307.253	187
307.272	328
307.327	-102
307.343	142
307.381	835
307.434	1083
307.436	1098
307.491	1412
307.524	1111
307.546	803
307.600	856
307.614	764
307.655	416
307.704	101
307.710	131
307.765	758
307.795	989
307.819	1092
307.874	1207
307.885	1191
307.929	1185
307.975	1685
307.984	1796
308.038	2210
308.065	2194
308.093	4719
308.148	11090
308.156	12321
308.202	19251
308.246	25341
308.257	24033
308.312	11847
308.336	6553
308.366	5055
308.421	2960
308.426	2881
308.475	2868
308.517	2502
308.530	2360
308.585	2253
308.607	2071
308.639	2192
308.694	2703
308.697	2720
308.748	2808
308.787	2751
308.803	2851
308.857	3514
308.877	3725
308.912	4708
308.967	5997
308.967	5998
309.021	9965
309.058	13186
309.076	15230
309.130	22471
309.148	24296
309.185	36546
309.238	55786
309.239	56140
309.293	66851
309.328	70690
309.348	62784
309.402	35690
309.418	28032
309.457	22426
309.508	15853
309.511	16040
309.566	20332
309.598	23544
309.620	32216
309.674	55131
309.688	61254
309.729	56527
309.778	46982
309.783	45810
309.837	28308
309.868	18810
309.892	16340
309.946	11486
309.959	10490
310.001	8750
310.049	6519
310.055	6331
310.109	5054
310.139	4270
310.163	3770
310.218	2866
310.229	2658
310.272	2949
310.319	3358
310.326	3265
310.381	2480
310.409	2125
310.435	2299
310.489	2250
310.499	2358
310.543	2545
310.589	2235
310.598	2220
310.652	2408
310.679	2383
310.706	2415
310.760	2442
310.769	2441
310.814	2378
310.859	2391
310.868	2402
310.923	2198
310.948	2216
310.977	2236
311.031	2055
311.038	2026
311.085	2204
311.128	2280
311.139	2310
311.193	2514
311.218	2568
311.247	2660
311.301	2785
311.308	2792
311.356	2397
311.398	1994
311.410	1892
311.464	1342
311.488	1085
311.518	1235
311.572	1481
311.578	1508
311.626	1986
311.668	2305
311.680	2302
311.734	2261
311.758	2246
311.788	2189
311.842	2064
311.847	2041
311.896	2726
311.937	3296
311.950	3155
312.004	2482
312.027	2192
312.058	2263
312.112	2358
312.117	2362
312.165	2195
312.207	2042
312.297	1492
312.386	1637
312.476	2805
312.566	2278
312.656	2048
312.745	2573
312.835	2023
312.925	2154
313.015	2535
313.104	2584
313.194	2448
313.284	2281
313.374	3076
313.463	2989
313.553	3909
313.643	3241
313.732	3395
313.822	3732
313.912	4892
314.001	4762
314.091	5059
314.180	5048
314.270	4718
314.360	4109
314.449	4252
314.539	3400
314.628	3648
314.718	4158
314.808	4606
314.897	4658
314.987	5785
315.076	6211
315.166	5889
315.255	5252
315.345	4881
315.434	4841
315.524	4947
315.613	4335
315.703	5803
315.792	14041
315.881	46990
315.971	14123
316.060	5204
316.150	4502
316.239	4187
316.328	3762
316.418	4303
316.507	4682
316.597	5702
316.686	5748
316.775	5565
316.865	4598
316.954	4500
317.043	3781
317.133	3308
317.222	3039
317.311	4097
317.400	1926
317.490	3600
317.579	4232
317.668	4353
317.757	7624
317.847	21118
317.936	72998
318.025	21268
318.114	18702
318.203	8281
318.293	4846
318.382	6958
318.471	7549
318.560	6449
318.649	7279
318.738	3768
318.828	3604
318.917	2527
319.006	2654
319.095	3101
319.184	5505
319.273	3569
319.362	3268
319.451	2702
319.540	2657
319.629	2578
319.718	3030
319.807	3741
319.896	3015
319.985	6247
320.074	3750
320.163	3474
320.252	3054
320.341	3709
320.430	3186
320.519	3050
320.608	4327
320.697	5198
320.786	5453
320.875	7273
320.964	7810
321.053	7666
321.142	6868
321.230	8994
321.319	10451
321.408	12012
321.497	12600
321.586	9351
321.675	8096
321.764	7375
321.852	6983
321.941	6960
322.030	7101
322.119	8308
322.207	9437
322.296	11556
322.385	13220
322.474	16447
322.562	18630
322.651	13013
322.740	8959
322.829	8485
322.917	6482
323.006	6532
323.095	5975
323.183	4851
323.272	4373
323.361	5225
323.449	5898
323.538	3677
323.626	4534
323.715	4556
323.804	3596
323.892	3831
323.981	3324
324.069	4908
324.158	3881
324.246	3924
324.335	3686
324.424	3589
324.512	3586
324.601	3298
324.689	3804
324.778	3958
324.866	3361
324.954	2988
325.043	3132
325.131	2160
325.220	4421
325.308	3097
325.397	3861
325.485	3431
325.574	3131
325.662	3039
325.750	3055
325.839	4028
325.927	2988
326.015	2913
326.104	2766
326.192	2633
326.280	3524
326.369	3011
326.457	2950
326.545	3669
326.634	2675
326.722	2903
326.810	2865
326.898	4593
326.987	4338
327.075	2632
327.163	4261
327.251	3382
327.340	3683
327.428	5633
327.516	7036
327.604	4813
327.692	3806
327.781	3470
327.869	2699
327.957	2637
328.045	3316
328.133	3366
328.221	2911
328.309	2408
328.397	2593
328.485	4378
328.574	5876
328.662	9762
328.750	5006
328.838	3719
328.926	3471
329.014	3004
329.102	2706
329.190	3433
329.278	2931
329.366	2717
329.454	2592
329.542	2593
329.630	2429
329.718	3197
329.806	3264
329.893	3260
329.981	2498
330.069	2662
330.157	3614
330.245	5349
330.333	4167
330.421	2804
330.509	3048
330.597	3682
330.684	2524
330.772	3354
330.860	3169
330.948	3259
331.036	2499
331.123	2731
331.211	3033
331.299	2736
331.387	3281
331.475	3741
331.562	3114
331.650	2600
331.738	2839
331.825	3234
331.913	3209
332.001	3941
332.089	3318
332.176	2412
332.264	3001
332.352	4019
332.439	2959
332.527	3164
332.614	3230
332.702	3165
332.790	3233
332.877	4408
332.965	9831
333.052	9577
333.140	9808
333.228	25972
333.315	7836
333.403	5453
333.490	5396
333.578	9988
333.665	38924
333.753	15837
333.840	5183
333.928	5109
334.015	5960
334.103	6924
334.190	10468
334.278	11566
334.365	18105
334.452	19256
334.540	11727
334.627	10615
334.715	13103
334.802	18953
334.889	32058
334.977	48147
335.064	31760
335.151	14114
335.239	9331
335.326	7658
335.413	8994
335.501	9493
335.588	6677
335.675	8366
335.762	11165
335.850	14402
335.937	20509
336.024	37380
336.111	64669
336.199	63709
336.286	26763
336.373	13559
336.460	9029
336.547	7627
336.635	6007
336.722	5985
336.809	5005
336.896	5275
336.983	5469
337.070	7135
337.157	7644
337.245	5877
337.332	6162
337.419	4641
337.506	4337
337.593	4223
337.680	4506
337.767	5610
337.854	4037
337.941	3972
338.028	2927
338.115	3449
338.202	4663
338.289	4175
338.376	3720
338.463	4553
338.550	3568
338.637	5149
338.724	5026
338.811	3929
338.898	3940
338.984	4223
339.071	2651
339.158	4193
339.245	4263
339.332	3796
339.419	4216
339.506	3424
339.593	2011
339.679	3686
339.766	3086
339.853	3707
339.940	3993
340.027	3939
340.113	3327
340.200	3403
340.287	3051
340.374	3009
340.460	3145
340.547	2466
340.634	3113
340.720	3880
340.807	3423
340.894	3886
340.980	3170
341.067	3196
341.154	3732
341.240	2796
341.327	4181
341.414	4186
341.500	2917
341.587	4281
341.674	3528
341.760	3483
341.847	3333
341.933	3406
342.020	2710
342.106	2955
342.193	3758
342.279	3263
342.366	2904
342.452	3268
342.539	3352
342.625	3056
342.712	3491
342.798	3706
342.885	3442
342.971	3154
343.058	3094
343.144	2577
343.230	3183
343.317	3505
343.403	2267
343.490	2943
343.576	3102
343.662	2791
343.749	3426
343.835	4277
343.921	3655
344.008	9735
344.094	17292
344.180	5436
344.267	3083
344.353	4797
344.439	4183
344.525	3233
344.612	4087
344.698	3647
344.784	2288
344.870	2760
344.957	3428
345.043	3942
345.129	3053
345.215	3416
345.301	2492
345.387	3217
345.474	3167
345.560	2909
345.646	2513
345.732	3338
345.818	2912
345.904	2672
345.990	2993
346.076	2532
346.162	2570
346.249	3242
346.335	2551
346.421	3281
346.507	3814
346.593	5821
346.679	2657
346.765	4518
346.851	7907
346.937	3999
347.023	4947
347.108	3101
347.194	2700
347.280	3693
347.366	4163
347.452	13184
347.538	15496
347.624	8734
347.710	5325
347.796	3040
347.882	3685
347.967	3677
348.053	4404
348.139	2984
348.225	3703
348.311	3138
348.397	3594
348.482	3519
348.568	4238
348.654	5719
348.740	19464
348.825	17339
348.911	7085
348.997	5605
349.083	8759
349.168	3971
349.254	2982
349.340	3907
349.425	3667
349.511	4028
349.597	3757
349.682	3613
349.768	5421
349.854	3549
349.939	3882
350.025	3080
350.110	4132
350.196	3619
350.282	3090
350.367	4211
350.453	3634
350.538	2800
350.624	3375
350.709	3426
350.795	3368
350.880	3164
350.966	4900
351.051	3659
351.137	3233
351.222	3531
351.308	3488
351.393	4233
351.479	2924
351.564	3083
351.649	3663
351.735	3273
351.820	2857
351.906	4048
351.991	3441
352.076	3684
352.162	4432
352.247	2712
352.332	3271
352.418	2157
352.503	3300
352.588	5563
352.673	3466
352.759	2734
352.844	2344
352.929	3144
353.014	2251
353.100	3248
353.185	3277
353.270	3143
353.355	4113
353.441	4148
353.526	2742
353.611	2896
353.696	2712
353.781	4406
353.866	1792
353.952	3754
354.037	2488
354.122	3636
354.207	2783
354.292	3740
354.377	3624
354.462	3221
354.547	2867
354.632	3333
354.717	4459
354.802	3335
354.887	3777
354.972	3997
355.057	2987
355.142	2559
355.227	4311
355.312	3216
355.397	2777
355.482	3514
355.567	2950
355.652	4533
355.737	4196
355.822	4739
355.907	4282
355.991	4539
356.076	3133
356.161	3643
356.246	3122
356.331	3731
356.416	2793
356.501	9396
356.585	7668
356.670	3667
356.755	6278
356.840	5025
356.924	6736
357.009	16395
357.094	7830
357.179	3752
357.263	4324
357.348	4384
357.433	4386
357.517	4663
357.602	3894
357.687	3416
357.771	4407
357.856	4158
357.941	4586
358.025	7136
358.110	23259
358.195	11811
358.279	4446
358.364	4589
358.448	5809
358.533	7629
358.617	5192
358.702	5746
358.787	3859
358.871	3950
358.956	4165
359.040	4103
359.125	2809
359.209	3801
359.294	4710
359.378	6686
359.462	6012
359.547	4599
359.631	4050
359.716	2625
359.800	3284
359.885	4516
359.969	3239
360.053	4884
360.138	4966
360.222	3679
360.306	4796
360.391	3862
360.475	3803
360.559	4432
360.644	4448
360.728	3433
360.812	7739
360.896	11737
360.981	4845
361.065	4009
361.149	4357
361.233	3830
361.318	3569
361.402	4296
361.486	5480
361.570	4052
361.654	3907
361.739	4795
361.823	8622
361.907	14471
361.991	5946
362.075	6789
362.159	8754
362.243	16351
362.327	42796
362.411	74769
362.495	28132
362.580	12585
362.664	10531
362.748	10588
362.832	17170
362.916	35383
363.000	110370
363.084	172822
363.168	66580
363.252	19444
363.336	11446
363.420	9564
363.503	9447
363.587	9344
363.671	7404
363.755	6355
363.839	8929
363.923	7422
364.007	10409
364.091	12858
364.175	20079
364.258	46962
364.342	120615
364.426	242594
364.510	131768
364.594	37009
364.677	17583
364.761	15039
364.845	12586
364.929	7533
365.013	6021
365.096	5475
365.180	4886
365.264	5397
365.347	9809
365.431	5085
365.515	3236
365.598	3649
365.682	5449
365.766	4417
365.849	5284
365.933	4182
366.017	6265
366.100	3978
366.184	3827
366.267	4986
366.351	5168
366.435	4379
366.518	4377
366.602	4712
366.685	4745
366.769	4593
366.852	4692
366.936	5134
367.019	6091
367.103	4077
367.186	5712
367.270	5030
367.353	4307
367.436	6599
367.520	6004
367.603	5772
367.687	4919
367.770	5514
367.853	6038
367.937	7519
368.020	7647
368.104	4332
368.187	5344
368.270	5221
368.353	4247
368.437	3867
368.520	5352
368.603	3893
368.687	4494
368.770	5334
368.853	4120
368.936	5092
369.020	4794
369.103	4326
369.186	3856
369.269	4682
369.352	5202
369.436	4200
369.519	4044
369.602	2541
369.685	5790
369.768	3121
369.851	5007
369.934	4019
370.018	3875
370.101	3573
370.184	6447
370.267	4900
370.350	5727
370.433	6565
370.516	11339
370.599	28925
370.682	12781
370.765	7943
370.848	6910
370.931	7505
371.014	6808
371.097	4563
371.180	6724
371.263	6669
371.346	5174
371.429	6544
371.511	5744
371.594	6392
371.677	7858
371.760	9288
371.843	8298
371.926	16077
372.009	29796
372.091	19474
372.174	11392
372.257	15257
372.340	11781
372.423	11527
372.505	12388
372.588	8209
372.671	8775
372.754	8599
372.836	8617
372.919	8656
373.002	10179
373.085	8188
373.167	9197
373.250	8887
373.332	10461
373.415	15503
373.498	25412
373.580	15433
373.663	42478
373.746	43826
373.828	9994
373.911	7615
373.993	6529
374.076	6764
374.159	5601
374.241	6532
374.324	7927
374.406	8447
374.489	9480
374.571	19492
374.654	9900
374.736	7882
374.819	12734
374.901	19642
374.983	18979
375.066	9273
375.148	7223
375.231	8053
375.313	10469
375.395	7811
375.478	8075
375.560	8533
375.643	7161
375.725	8276
375.807	13919
375.890	12681
375.972	4674
376.054	6250
376.136	5289
376.219	5103
376.301	7460
376.383	10474
376.465	7317
376.548	4699
376.630	5982
376.712	9209
376.794	6003
376.877	4870
376.959	3235
377.041	4431
377.123	4284
377.205	5033
377.287	3672
377.369	5053
377.452	5480
377.534	5568
377.616	5178
377.698	4495
377.780	3858
377.862	4998
377.944	6054
378.026	4214
378.108	4914
378.190	4090
378.272	5136
378.354	5112
378.436	4318
378.518	4073
378.600	4358
378.682	4979
378.764	5126
378.846	6059
378.928	4080
379.010	3003
379.091	5199
379.173	5390
379.255	3777
379.337	4807
379.419	4823
379.501	7414
379.583	5430
379.664	4829
379.746	4277
379.828	7315
379.910	6070
379.991	6605
380.073	4998
380.155	4907
380.237	5024
380.318	4272
380.400	3682
380.482	5838
380.564	6165
380.645	5170
380.727	5613
380.809	6698
380.890	4792
380.972	4547
381.053	5846
381.135	6553
381.217	5647
381.298	7304
381.380	6537
381.461	6899
381.543	10265
381.624	11826
381.706	7495
381.787	7885
381.869	8509
381.951	9264
382.032	19733
382.113	16697
382.195	8501
382.276	10937
382.358	10523
382.439	14929
382.521	18797
382.602	24512
382.684	22120
382.765	35169
382.846	100528
382.928	234306
383.009	137378
383.090	99171
383.172	266452
383.253	349565
383.334	124287
383.416	52020
383.497	39340
383.578	46385
383.659	84211
383.741	232616
383.822	430708
383.903	246473
383.984	73919
384.066	40705
384.147	26200
384.228	19373
384.309	16612
384.390	15346
384.471	13731
384.553	12411
384.634	12672
384.715	12333
384.796	11213
384.877	10982
384.958	13962
385.039	10002
385.120	9616
385.201	9517
385.282	9271
385.363	12301
385.444	12893
385.525	13583
385.606	14341
385.687	13345
385.768	10229
385.849	9458
385.930	16831
386.011	21903
386.092	11339
386.173	9337
386.254	8236
386.335	9774
386.416	8298
386.496	8089
386.577	9726
386.658	8417
386.739	7837
386.820	8890
386.901	7270
386.981	10390
387.062	11349
387.143	11988
387.224	13670
387.304	15419
387.385	14816
387.466	11849
387.547	14472
387.627	15084
387.708	15848
387.789	16555
387.869	15589
387.950	12279
388.031	9731
388.111	7488
388.192	9691
388.273	10844
388.353	9592
388.434	7450
388.514	6344
388.595	12109
388.676	11505
388.756	7944
388.837	7597
388.917	6495
388.998	4696
389.078	6929
389.159	7034
389.239	4914
389.320	7465
389.400	4197
389.480	6389
389.561	7346
389.641	7481
389.722	5414
389.802	4824
389.883	5820
389.963	9054
390.043	6880
390.124	4936
390.204	6568
390.284	7340
390.365	5416
390.445	6589
390.525	7569
390.605	8014
390.686	4931
390.766	7236
390.846	7423
390.927	5793
391.007	5105
391.087	7014
391.167	6052
391.247	5695
391.328	6396
391.408	6204
391.488	8158
391.568	5686
391.648	6376
391.728	8034
391.808	8075
391.888	8166
391.969	9433
392.049	9450
392.129	10265
392.209	10183
392.289	14258
392.369	12528
392.449	13169
392.529	12441
392.609	15654
392.689	17008
392.769	21468
392.849	25177
392.929	31220
393.009	42772
393.089	62537
393.169	113808
393.248	261296
393.328	522626
393.408	528367
393.488	269492
393.568	114778
393.648	61076
393.728	38852
393.807	26679
393.887	23196
393.967	18648
394.047	15099
394.127	12821
394.206	13079
394.286	19113
394.366	69571
394.446	74933
394.525	18226
394.605	10401
394.685	9035
394.764	10544
394.844	18873
394.924	24696
395.003	11607
395.083	7939
395.163	7504
395.242	6596
395.322	6935
395.402	6753
395.481	8899
395.561	9329
395.640	29325
395.720	59530
395.799	29023
395.879	12717
395.958	11074
396.038	21682
396.117	90979
396.197	98274
396.276	27544
396.356	17190
396.435	19927
396.515	27496
396.594	41729
396.673	85551
396.753	235530
396.832	474006
396.912	366189
396.991	130235
397.070	55295
397.150	31051
397.229	27282
397.308	48340
397.388	89429
397.467	40845
397.546	16131
397.625	9702
397.705	12257
397.784	9309
397.863	8201
397.942	7938
398.022	6977
398.101	6653
398.180	7298
398.259	6512
398.338	6906
398.417	5170
398.497	5203
398.576	6625
398.655	4787
398.734	5571
398.813	4894
398.892	5010
398.971	6480
399.050	4515
399.129	3991
399.208	4717
399.287	5370
399.366	3821
399.445	3891
399.524	4714
399.603	2696
399.682	4395
399.761	5159
399.840	6624
399.919	6769
399.998	3169
400.077	3278
400.156	2544
400.235	5920
400.313	3029
400.392	2522
400.471	4938
400.550	4286
400.629	2521
400.708	3366
400.786	2281
400.865	4618
400.944	2973
401.023	4576
401.102	2782
401.180	3205
401.259	3252
401.338	1986
401.416	3042
401.495	1708
401.574	4892
401.652	2463
401.731	3612
401.810	1791
401.888	2349
401.967	2434
402.046	3137
402.124	2781
402.203	1788
402.281	2570
402.360	1775
402.438	3487
402.517	2251
402.596	3558
402.674	2621
402.753	3378
402.831	3120
402.910	3707
402.988	2878
403.066	7411
403.145	6375
403.223	5031
403.302	5934
403.380	5676
403.459	6632
403.537	3742
403.615	3714
403.694	2383
403.772	3952
403.850	2645
403.929	3016
404.007	3128
404.085	4548
404.164	3106
404.242	3317
404.320	5712
404.398	9830
404.477	6896
404.555	9432
404.633	9333
404.711	6256
404.789	5434
404.868	2000
404.946	2120
405.024	2857
405.102	2256
405.180	1929
405.258	1159
405.336	3234
405.415	1662
405.493	3380
405.571	3478
405.649	2081
405.727	2889
405.805	4299
405.883	3583
405.961	3919
406.039	2101
406.117	1464
406.195	2874
406.273	1554
406.351	6396
406.429	5768
406.507	2087
406.585	869
406.663	2775
406.740	2931
406.818	771
406.896	1089
406.974	3041
407.052	748
407.130	4864
407.208	5063
407.285	3175
407.363	1931
407.441	2356
407.519	1769
407.596	2371
407.674	3808
407.752	10073
407.830	8271
407.907	2804
407.985	1479
408.063	1713
408.141	2378
408.218	3026
408.296	1117
408.373	2314
408.451	2950
408.529	2967
408.606	3434
408.684	2831
408.762	3449
408.839	3634
408.917	3822
408.994	4526
409.072	4741
409.149	5554
409.227	11396
409.304	17447
409.382	17910
409.459	20179
409.537	26968
409.614	22329
409.692	15974
409.769	16669
409.846	27260
409.924	34046
410.001	21620
410.079	14517
410.156	10660
410.233	8309
410.311	6468
410.388	5440
410.465	6366
410.543	5579
410.620	6595
410.697	5134
410.775	4713
410.852	5555
410.929	6914
411.006	7221
411.083	5426
411.161	4802
411.238	5689
411.315	4968
411.392	4177
411.469	5044
411.547	3993
411.624	1991
411.701	3203
411.778	3918
411.855	3250
411.932	3028
412.009	2393
412.086	3113
412.163	3013
412.240	2166
412.317	3247
412.394	2047
412.471	2864
412.548	2519
412.625	2850
412.702	2295
412.779	2613
412.856	2941
412.933	1914
413.010	3141
413.087	2421
413.164	2312
413.241	3465
413.318	2017
413.395	2557
413.471	2354
413.548	2411
413.625	3896
413.702	1077
413.779	2646
413.855	2387
413.932	2032
414.009	1810
414.086	1949
414.162	2606
414.239	2437
414.316	2909
414.393	3874
414.469	1394
414.546	1884
414.623	1719
414.699	1973
414.776	1622
414.853	1455
414.929	2408
415.006	1703
415.082	1969
415.159	1448
415.236	2310
415.312	2910
415.389	2225
415.465	830
415.542	2165
415.618	1186
415.695	2666
415.771	1545
415.848	2252
415.924	2032
416.000	1380
416.077	2831
416.153	1517
416.230	1118
416.306	1965
416.383	842
416.459	2588
416.535	1113
416.612	2271
416.688	2656
416.764	2056
416.841	1769
416.917	1825
416.993	2140
417.069	2047
417.146	1785
417.222	2213
417.298	1914
417.374	1570
417.451	2167
417.527	1434
417.603	1351
417.679	1671
417.755	1366
417.831	1367
417.908	1977
417.984	1936
418.060	450
418.136	2004
418.212	1021
418.288	1801
418.364	1995
418.440	1267
418.516	1925
418.592	2055
418.668	1899
418.744	1882
418.820	2597
418.896	1373
418.972	1226
419.048	1869
419.124	3027
419.200	1010
419.276	1832
419.352	1996
419.428	2769
419.504	2146
419.579	2101
419.655	1624
419.731	2340
419.807	2763
419.883	3008
419.959	3451
420.034	3170
420.110	3758
420.186	3869
420.262	3788
420.337	2753
420.413	4005
420.489	3911
420.565	5046
420.640	4681
420.716	5422
420.792	3683
420.867	5838
420.943	4916
421.019	5235
421.094	5658
421.170	6470
421.245	6420
421.321	7527
421.397	7725
421.472	10354
421.548	12359
421.623	13461
421.699	12390
421.774	14184
421.850	14185
421.925	18230
422.001	21688
422.076	25540
422.152	32260
422.227	43205
422.302	60217
422.378	88953
422.453	146582
422.529	240197
422.604	282101
422.679	211812
422.755	274689
422.830	251778
422.905	158192
422.981	99409
423.056	70426
423.131	51078
423.207	39401
423.282	30812
423.357	26095
423.432	20075
423.508	18161
423.583	14870
423.658	14023
423.733	12435
423.808	11877
423.883	11685
423.959	12018
424.034	15191
424.109	15686
424.184	10046
424.259	7921
424.334	7206
424.409	6239
424.484	5947
424.559	5423
424.634	4830
424.709	4705
424.784	5066
424.859	4145
424.934	3960
425.009	4734
425.084	4132
425.159	3616
425.234	4765
425.309	3165
425.384	3600
425.459	2910
425.534	4142
425.609	2540
425.683	3114
425.758	3164
425.833	2590
425.908	2891
425.983	1846
426.058	4366
426.132	2664
426.207	2744
426.282	3835
426.357	1907
426.431	2703
426.506	2884
426.581	2725
426.655	2657
426.730	2185
426.805	2031
426.879	2653
426.954	2250
427.029	2584
427.103	3182
427.178	4765
427.253	3447
427.327	2406
427.402	1895
427.476	1956
427.551	2796
427.625	3028
427.700	2809
427.774	1761
427.849	2619
427.923	2151
427.998	2078
428.072	3295
428.147	6784
428.221	32058
428.296	103011
428.370	56149
428.444	9023
428.519	3104
428.593	2896
428.667	3273
428.742	4592
428.816	11497
428.890	59120
428.965	95768
429.039	23287
429.113	5333
429.188	3129
429.262	3003
429.336	2520
429.410	3261
429.485	2670
429.559	3494
429.633	2744
429.707	3710
429.781	10630
429.855	56334
429.930	85955
430.004	22981
430.078	12418
430.152	37865
430.226	133312
430.300	132490
430.374	27991
430.448	9129
430.522	5616
430.596	6984
430.670	18267
430.744	77269
430.818	83130
430.892	14888
430.966	3356
431.040	2810
431.114	2248
431.188	1064
431.262	1250
431.336	1154
431.410	2755
431.484	2018
431.557	2434
431.631	3141
431.705	5339
431.779	25032
431.853	97732
431.927	65458
432.000	10261
432.074	2667
432.148	1161
432.222	1137
432.295	1291
432.369	927
432.443	265
432.516	1781
432.590	3878
432.664	1360
432.737	569
432.811	-168
432.885	385
432.958	1392
433.032	-64
433.106	760
433.179	1117
433.253	420
433.326	986
433.400	980
433.473	964
433.547	381
433.620	630
433.694	799
433.767	1002
433.841	114
433.914	263
433.988	1154
434.061	479
434.134	570
434.208	1260
434.281	373
434.355	1239
434.428	1058
434.501	1444
434.575	751
434.648	447
434.721	307
434.795	1074
434.868	1174
434.941	397
435.014	1397
435.088	891
435.161	2325
435.234	4613
435.307	4879
435.381	6076
435.454	8058
435.527	14019
435.600	15740
435.673	11226
435.746	8295
435.819	5529
435.892	3104
435.966	2424
436.039	2000
436.112	2734
436.185	1504
436.258	1072
436.331	309
436.404	722
436.477	1449
436.550	781
436.623	1525
436.696	864
436.769	1380
436.842	583
436.915	772
436.987	1232
437.060	1193
437.133	739
437.206	208
437.279	1001
437.352	242
437.425	258
437.498	808
437.570	440
437.643	511
437.716	-149
437.789	386
437.861	1133
437.934	457
438.007	659
438.080	1053
438.152	305
438.225	977
438.298	2648
438.370	6763
438.443	3233
438.516	500
438.588	331
438.661	378
438.734	496
438.806	-354
438.879	1495
438.951	1069
439.024	667
439.096	-141
439.169	479
439.241	1189
439.314	198
439.386	282
439.459	897
439.531	562
439.604	1264
439.676	1538
439.749	473
439.821	560
439.893	590
439.966	926
440.038	395
440.110	814
440.183	665
440.255	579
440.327	1319
440.400	1441
440.472	2916
440.544	1539
440.617	444
440.689	1996
440.761	1029
440.833	1344
440.905	1516
440.978	95
441.050	999
441.122	1984
441.194	681
441.266	1139
441.338	1266
441.411	482
441.483	2017
441.555	2207
441.627	986
441.699	1990
441.771	1518
441.843	1126
441.915	1230
441.987	1682
442.059	1932
442.131	2310
442.203	3078
442.275	3922
442.347	7639
442.419	16508
442.491	76477
442.563	161912
442.635	63972
442.706	12228
442.778	5649
442.850	4084
442.922	3505
442.994	4315
443.066	3503
443.137	4883
443.209	7035
443.281	11115
443.353	24042
443.425	84936
443.496	240925
443.568	251590
443.640	104649
443.711	23848
443.783	9655
443.855	6102
443.926	3476
443.998	3094
444.070	3218
444.141	2841
444.213	2965
444.285	2599
444.356	1944
444.428	3202
444.499	2086
444.571	2544
444.642	2296
444.714	2786
444.785	3041
444.857	3536
444.928	3320
445.000	4759
445.071	5415
445.143	7210
445.214	11300
445.285	18485
445.357	48600
445.428	160549
445.500	283057
445.571	229533
445.642	154997
445.714	51795
445.785	16860
445.856	7255
445.928	4900
445.999	3339
446.070	2788
446.141	2686
446.213	2175
446.284	1432
446.355	1910
446.426	1754
446.497	459
446.569	1296
446.640	1146
446.711	1092
446.782	540
446.853	1016
446.924	635
446.995	791
447.066	601
447.138	1431
447.209	613
447.280	310
447.351	270
447.422	472
447.493	230
447.564	-189
447.635	52
447.706	-102
447.777	-245
447.847	398
447.918	-247
447.989	507
448.060	992
448.131	150
448.202	-15
448.273	409
448.344	365
448.414	-248
448.485	168
448.556	-41
448.627	538
448.698	1296
448.768	-129
448.839	-117
448.910	-234
448.981	527
449.051	407
449.122	-33
449.193	-359
449.263	388
449.334	-735
449.405	-28
449.475	-82
449.546	758
449.616	961
449.687	219
449.758	167
449.828	-247
449.899	-476
449.969	-91
450.040	562
450.110	-428
450.181	-149
450.251	-40
450.322	393
450.392	649
450.463	115
450.533	-704
450.604	391
450.674	641
450.744	1159
450.815	1069
450.885	555
450.955	1167
451.026	965
451.096	865
451.166	912
451.237	519
451.307	2380
451.377	1812
451.447	314
451.518	854
451.588	142
451.658	1158
451.728	-13
451.799	-368
451.869	876
451.939	-522
452.009	-134
452.079	481
452.149	1523
452.219	774
452.289	720
452.360	318
452.430	737
452.500	654
452.570	3467
452.640	10092
452.710	27844
452.780	28456
452.850	12762
452.920	5226
452.990	2756
453.060	2512
453.129	143
453.199	308
453.269	1724
453.339	1815
453.409	1913
453.479	2359
453.549	2337
453.619	2635
453.688	482
453.758	460
453.828	224
453.898	347
453.968	-716
454.037	156
454.087	288
454.107	334
454.168	-320
454.177	-431
454.247	-420
454.249	-419
454.316	-795
454.330	-676
454.386	-259
454.411	1
454.456	425
454.492	568
454.525	653
454.574	1013
454.595	1168
454.655	-229
454.665	-474
454.734	279
454.736	291
454.804	193
454.817	259
454.873	442
454.898	593
454.943	856
454.979	588
455.013	277
455.060	822
455.082	1094
455.141	766
455.152	689
455.221	633
455.222	638
455.291	-8
455.303	119
455.360	527
455.384	1291
455.430	2620
455.465	1951
455.499	1270
455.546	873
455.569	720
455.627	1201
455.638	1264
455.707	-133
455.708	-119
455.777	148
455.789	195
455.846	375
455.869	424
455.916	452
455.950	919
455.985	1323
456.031	571
456.054	241
456.112	618
456.124	686
456.193	559
456.193	541
456.262	1226
456.274	1290
456.332	1264
456.355	1082
456.401	838
456.436	1029
456.470	1239
456.516	1436
456.540	1411
456.597	1274
456.609	1269
456.678	1798
456.678	1787
456.747	680
456.759	676
456.817	1123
456.840	1470
456.886	1721
456.920	1569
456.955	1537
457.001	1635
457.024	1606
457.082	2042
457.093	2145
457.162	2617
457.163	2630
457.232	1877
457.243	1851
457.301	1453
457.324	1431
457.370	1709
457.405	2307
457.439	2819
457.485	3035
457.508	3126
457.566	3359
457.577	3588
457.646	5622
457.647	5664
457.715	12870
457.727	14911
457.784	27746
457.808	37922
457.853	49531
457.889	56626
457.922	56887
457.969	35540
457.991	34025
458.050	41853
458.060	43273
458.129	80183
458.130	81208
458.198	84184
458.211	74185
458.267	37665
458.292	25798
458.336	15486
458.372	14888
458.405	20843
458.453	33062
458.474	41947
458.533	76389
458.543	78579
458.611	128651
458.614	128843
458.680	77864
458.694	60836
458.749	24857
458.775	17662
458.818	9700
458.855	7431
458.887	5837
458.936	4579
458.955	4149
459.016	3631
459.024	3623
459.093	4009
459.097	3989
459.162	2906
459.177	2827
459.230	2970
459.257	3046
459.299	3065
459.338	2986
459.368	2833
459.418	2874
459.437	2979
459.499	2877
459.505	2824
459.574	2881
459.579	2830
459.643	1980
459.659	1941
459.711	2314
459.740	2841
459.780	3055
459.820	2701
459.849	2803
459.900	3041
459.917	3003
459.981	2896
459.986	2869
460.054	2404
460.061	2441
460.123	2896
460.141	2954
460.191	3155
460.222	2986
460.260	2889
460.302	2957
460.328	2963
460.382	3375
460.397	3345
460.462	2769
460.465	2822
460.534	4953
460.543	5165
460.602	9639
460.623	11444
460.671	16566
460.703	21787
460.739	20140
460.783	15216
460.808	13124
460.864	4823
460.876	4032
460.944	3183
460.945	3168
461.013	2802
461.024	2797
461.081	3020
461.104	3069
461.150	3052
461.184	3003
461.218	3040
461.264	3303
461.286	3231
461.345	2732
461.355	2765
461.423	3082
461.425	3094
461.491	2982
461.505	2991
461.559	3558
461.585	3804
461.628	3760
461.665	3557
461.696	3436
461.745	3609
461.764	3741
461.825	3263
461.832	3192
461.901	3256
461.905	3284
461.969	3175
461.985	3065
462.037	4145
462.065	4719
462.105	3704
462.145	2577
462.173	2729
462.225	3359
462.241	3455
462.305	3574
462.310	3566
462.378	3279
462.385	3287
462.446	3086
462.465	2969
462.514	3393
462.545	3565
462.582	3402
462.625	3264
462.650	3073
462.705	2960
462.718	3050
462.785	3224
462.786	3222
462.854	3057
462.865	2990
462.922	3167
462.945	3421
462.990	3758
463.025	3773
463.058	3662
463.104	3584
463.126	3517
463.184	3470
463.194	3594
463.262	3728
463.264	3753
463.330	3639
463.344	3652
463.398	4030
463.424	3906
463.466	3239
463.504	3128
463.533	3736
463.583	4245
463.601	3987
463.663	3201
463.669	3230
463.737	3783
463.743	3807
463.805	3853
463.823	3837
463.873	3963
463.903	4213
463.940	3896
463.982	3355
464.008	3600
464.062	4121
464.076	4083
464.142	3829
464.144	3834
464.211	3907
464.221	3905
464.279	4091
464.301	4201
464.347	4037
464.381	3848
464.414	3659
464.461	3398
464.482	3599
464.540	4074
464.550	4067
464.617	4016
464.620	4008
464.685	4267
464.699	4330
464.753	4162
464.779	3976
464.820	3812
464.859	3908
464.888	4017
464.938	3871
464.956	4122
465.018	5021
465.023	4973
465.091	4329
465.098	4264
465.158	4808
465.177	4964
465.226	4695
465.257	4441
465.293	4523
465.336	4703
465.361	4677
465.416	4612
465.428	4575
465.495	4166
465.496	4174
465.563	4194
465.575	4205
465.631	4523
465.654	4664
465.698	4585
465.734	4487
465.765	4301
465.813	3900
465.833	4091
465.893	4839
465.900	4830
465.968	4508
465.972	4481
466.035	4033
466.052	3905
466.102	4222
466.131	4377
466.170	4252
466.210	4120
466.237	4376
466.290	4851
466.304	4781
466.369	4370
466.372	4374
466.439	4277
466.449	4256
466.506	4617
466.528	4728
466.573	4852
466.607	4929
466.641	5113
466.687	5424
466.708	5465
466.766	5395
466.775	5382
466.842	5316
466.845	5302
466.909	4916
466.925	4808
466.977	5289
467.004	5551
467.044	5346
467.083	5100
467.111	5440
467.163	6075
467.178	6136
467.242	6321
467.245	6294
467.312	5526
467.321	5415
467.379	5832
467.400	5969
467.446	5789
467.480	5640
467.559	6221
467.638	6145
467.717	4284
467.796	6089
467.875	6048
467.955	6360
468.034	7099
468.113	7441
468.192	9532
468.271	10821
468.350	15890
468.429	23618
468.508	25746
468.588	15321
468.667	9675
468.746	8568
468.825	7298
468.904	6368
468.983	5466
469.062	7342
469.141	5707
469.220	5181
469.299	5840
469.378	4536
469.456	6327
469.535	6512
469.614	5608
469.693	5710
469.772	5845
469.851	6893
469.930	6533
470.009	6690
470.088	7202
470.166	10986
470.245	17718
470.324	21507
470.403	12528
470.482	8390
470.560	6288
470.639	6649
470.718	6037
470.797	6556
470.875	6054
470.954	6775
471.033	5765
471.111	5147
471.190	5617
471.269	4982
471.347	5161
471.426	5791
471.505	5562
471.583	6315
471.662	5676
471.740	6299
471.819	5768
471.898	5189
471.976	6385
472.055	5553
472.133	5449
472.212	6678
472.290	4828
472.369	5407
472.447	5794
472.526	5638
472.604	5454
472.683	6408
472.761	5754
472.839	5425
472.918	4903
472.996	5577
473.075	6363
473.153	5836
473.231	5407
473.310	5980
473.388	5636
473.466	6781
473.545	5768
473.623	6093
473.701	6011
473.780	6013
473.858	4827
473.936	9135
474.014	5764
474.093	6402
474.171	6271
474.249	6906
474.327	5054
474.405	5630
474.484	5849
474.562	6047
474.640	4926
474.718	5625
474.796	5353
474.874	6369
474.952	5651
475.030	5809
475.108	6275
475.187	5378
475.265	6027
475.343	6347
475.421	6127
475.499	5505
475.577	5765
475.655	6260
475.733	6078
475.811	6049
475.889	5415
475.966	7072
476.044	4851
476.122	5487
476.200	5952
476.278	5467
476.356	5259
476.434	5806
476.512	6637
476.590	5981
476.667	6127
476.745	5546
476.823	5479
476.901	5609
476.979	4857
477.056	6334
477.134	5106
477.212	6386
477.290	6143
477.367	5569
477.445	6068
477.523	5082
477.601	4882
477.678	6286
477.756	6007
477.834	5858
477.911	6245
477.989	5324
478.066	4975
478.144	5742
478.222	5941
478.299	5522
478.377	5436
478.454	5431
478.532	5461
478.609	4924
478.687	5984
478.764	5649
478.842	5664
478.919	5615
478.997	5718
479.074	6175
479.152	5717
479.229	4763
479.307	4526
479.384	5952
479.461	5748
479.539	5174
479.616	5964
479.694	4805
479.771	5552
479.848	4383
479.926	4260
480.003	7879
480.080	5527
480.157	5886
480.235	5508
480.312	5970
480.389	5644
480.467	4578
480.544	5385
480.621	7321
480.698	6424
480.775	6089
480.853	5701
480.930	5363
481.007	6394
481.084	5955
481.161	6698
481.238	6450
481.315	5789
481.392	5783
481.470	5545
481.547	6127
481.624	6248
481.701	5369
481.778	5289
481.855	5664
481.932	6388
482.009	6949
482.086	6869
482.163	7530
482.240	9386
482.317	9329
482.393	7421
482.470	7582
482.547	7775
482.624	6853
482.701	5994
482.778	6494
482.855	5570
482.932	7286
483.009	6325
483.085	7467
483.162	8074
483.239	8578
483.316	7846
483.393	9422
483.469	7497
483.546	7194
483.623	6500
483.699	5718
483.776	5148
483.853	5362
483.930	5768
484.006	6266
484.083	7778
484.160	7384
484.236	8891
484.313	8124
484.389	6719
484.466	9343
484.543	9274
484.619	12872
484.696	16218
484.772	9557
484.849	8215
484.925	8165
485.002	7610
485.078	7384
485.155	6570
485.231	5778
485.308	6119
485.384	6523
485.461	6385
485.537	6036
485.614	7217
485.690	6370
485.766	6687
485.843	6836
485.919	6850
485.995	6580
486.072	5730
486.148	5650
486.224	6333
486.301	5787
486.377	5872
486.453	6219
486.530	7466
486.606	7425
486.682	7150
486.758	7747
486.835	6932
486.911	5882
486.987	8968
487.063	8787
487.139	9176
487.215	9739
487.292	11999
487.368	12741
487.444	15440
487.520	20825
487.596	28923
487.672	75395
487.748	248119
487.824	351338
487.900	91746
487.976	24995
488.052	13945
488.128	11872
488.204	8434
488.280	8691
488.356	9200
488.432	8147
488.508	8338
488.584	6642
488.660	6380
488.736	7855
488.812	5047
488.888	5845
488.964	6317
489.039	6831
489.115	6892
489.191	7694
489.267	6695
489.343	6315
489.418	6101
489.494	5597
489.570	4568
489.646	7312
489.722	6470
489.797	6610
489.873	5846
489.949	6654
490.024	7021
490.100	6405
490.176	6372
490.251	6712
490.327	6922
490.403	6141
490.478	6844
490.554	6409
490.629	5837
490.705	6620
490.781	6096
490.856	5759
490.932	6371
491.007	5991
491.083	5224
491.158	6250
491.234	6382
491.309	7843
491.385	5536
491.460	5976
491.536	7251
491.611	5752
491.686	5886
491.762	5329
491.837	5995
491.913	5947
491.988	6788
492.063	5959
492.139	6455
492.214	5837
492.289	7231
492.365	6792
492.440	6230
492.515	5704
492.590	5892
492.666	5763
492.741	6088
492.816	6205
492.891	5876
492.967	6715
493.042	6683
493.117	5750
493.192	5959
493.267	7766
493.342	8701
493.418	10964
493.493	7260
493.568	6755
493.643	5942
493.718	6284
493.793	6225
493.868	6645
493.943	6249
494.018	6433
494.093	6498
494.168	7121
494.243	5815
494.318	6595
494.393	6597
494.468	6785
494.543	6504
494.618	7387
494.693	6949
494.768	6364
494.842	7223
494.917	7449
494.992	6888
495.067	6697
495.142	7469
495.217	5876
495.292	7401
495.366	7108
495.441	6645
495.516	7869
495.591	5972
495.665	7502
495.740	10022
495.815	7730
495.890	6553
495.964	5577
496.039	9405
496.114	8470
496.188	8850
496.263	8428
496.338	7363
496.412	7004
496.487	7663
496.561	7418
496.636	6675
496.710	6972
496.785	6535
496.860	7680
496.934	7217
497.009	8053
497.083	6510
497.158	7732
497.232	8935
497.307	9317
497.381	10018
497.455	10212
497.530	7860
497.604	7921
497.679	7384
497.753	7003
497.827	6904
497.902	6439
497.976	8182
498.050	9712
498.125	15010
498.199	14169
498.273	8742
498.348	8789
498.422	9628
498.496	10597
498.570	12432
498.645	7562
498.719	4131
498.793	6059
498.867	6487
498.941	6719
499.016	8825
499.090	13155
499.164	9152
499.238	8073
499.312	8657
499.386	9263
499.460	9518
499.534	12163
499.609	13388
499.683	10128
499.757	6808
499.831	6303
499.905	10369
499.979	8453
500.053	6750
500.127	7183
500.201	6700
500.275	8052
500.349	7005
500.422	8729
500.496	9976
500.570	11650
500.644	17845
500.718	17150
500.792	5914
500.866	5756
500.940	4649
501.013	4937
501.087	4776
501.161	4614
501.235	3254
501.309	6678
501.382	6974
501.456	7281
501.530	4936
501.603	4767
501.677	4558
501.751	3770
501.825	6006
501.898	5884
501.972	4923
502.046	5119
502.119	3721
502.193	5229
502.266	4719
502.340	4930
502.413	4727
502.487	6135
502.561	3948
502.634	5049
502.708	4523
502.781	3391
502.855	5954
502.928	3122
503.002	4635
503.075	4073
503.149	4831
503.222	4481
503.295	4398
503.369	5380
503.442	4806
503.516	6932
503.589	8914
503.662	8313
503.736	9000
503.809	11968
503.882	12923
503.956	20973
504.029	43729
504.102	140038
504.175	198099
504.249	60212
504.322	20359
504.395	12277
504.468	8464
504.542	6535
504.615	5051
504.688	6641
504.761	3352
504.834	6218
504.907	4500
504.980	3721
505.053	3684
505.127	2334
505.200	6453
505.273	4179
505.346	3835
505.419	3198
505.492	5623
505.565	3361
505.638	4686
505.711	2553
505.784	2413
505.857	3125
505.930	5414
506.003	1928
506.076	5391
506.149	3354
506.221	1841
506.294	4853
506.367	3036
506.440	4217
506.513	4596
506.586	3613
506.659	2829
506.731	4044
506.804	3617
506.877	1801
506.950	3486
507.022	3521
507.095	1489
507.168	4020
507.241	4567
507.313	3320
507.386	1563
507.459	4423
507.531	2270
507.604	3259
507.677	4513
507.749	1688
507.822	4612
507.894	3546
507.967	5141
508.040	3640
508.112	3796
508.185	3579
508.257	2131
508.330	5208
508.402	2839
508.475	3828
508.547	3491
508.620	3718
508.692	3657
508.765	3494
508.837	3361
508.909	4247
508.982	3288
509.054	4352
509.127	2785
509.199	3582
509.271	2287
509.344	2968
509.416	3634
509.488	3511
509.560	3594
509.633	3684
509.705	3259
509.777	3440
509.849	4028
509.922	2570
509.994	3405
510.066	4529
510.138	1864
510.210	5409
510.283	4782
510.355	3973
510.427	3792
510.499	4678
510.571	4001
510.643	3085
510.715	4717
510.787	1496
510.859	4328
510.931	4097
511.003	4121
511.076	5490
511.148	3075
511.219	3842
511.291	3745
511.363	3900
511.435	3699
511.507	2423
511.579	4538
511.651	4663
511.723	2589
511.795	3522
511.867	2328
511.939	3855
512.010	2960
512.082	4098
512.154	1751
512.226	3721
512.298	4914
512.369	4291
512.441	4176
512.513	4020
512.585	2604
512.656	4802
512.728	4025
512.800	2945
512.871	3970
512.943	4713
513.015	2358
513.086	4056
513.158	4725
513.230	2122
513.301	3005
513.373	4058
513.444	3644
513.516	3954
513.588	2949
513.659	3740
513.731	3589
513.802	3503
513.874	5211
513.945	3498
514.016	3062
514.088	3972
514.159	2532
514.231	4416
514.302	3738
514.374	5199
514.445	3343
514.516	6150
514.588	2490
514.659	3868
514.730	3407
514.802	5382
514.873	2250
514.944	6633
515.016	4191
515.087	3159
515.158	3584
515.229	5342
515.301	3842
515.372	5290
515.443	3126
515.514	3335
515.585	3448
515.656	4819
515.728	5413
515.799	3264
515.870	4707
515.941	5255
516.012	4094
516.083	7052
516.154	5614
516.225	7939
516.296	9810
516.367	9698
516.438	11169
516.509	14092
516.580	24442
516.651	93245
516.722	288954
516.793	91831
516.864	19086
516.935	18994
517.006	24013
517.077	29203
517.148	75615
517.219	350805
517.289	443537
517.360	59424
517.431	18347
517.502	11880
517.573	10803
517.643	9439
517.714	10070
517.785	12129
517.856	12583
517.926	17426
517.997	19073
518.068	24508
518.138	34899
518.209	59034
518.280	227973
518.350	685205
518.421	234742
518.492	41452
518.562	26335
518.633	28093
518.703	37648
518.774	89142
518.845	250497
518.915	215731
518.986	50857
519.056	21747
519.127	14412
519.197	10626
519.268	9357
519.338	9126
519.408	6617
519.479	6610
519.549	4935
519.620	6831
519.690	5508
519.760	5575
519.831	4642
519.901	4698
519.971	5219
520.042	4589
520.112	3369
520.182	5763
520.253	4577
520.323	3529
520.393	2809
520.463	6417
520.534	2072
520.604	6978
520.674	4804
520.744	3607
520.814	3463
520.885	4970
520.955	4502
521.025	5237
521.095	3740
521.165	5858
521.235	2917
521.305	2412
521.375	4108
521.445	4544
521.515	2567
521.585	4201
521.655	2278
521.725	5444
521.795	4877
521.865	1666
521.935	5091
522.005	3086
522.075	3080
522.145	5405
522.215	2908
522.285	4877
522.355	4014
522.424	4534
522.494	3516
522.564	4046
522.634	3441
522.704	5604
522.774	3379
522.843	5604
522.913	3223
522.983	3771
523.053	3944
523.122	4481
523.192	3735
523.262	4291
523.331	3685
523.401	4970
523.471	4278
523.540	4071
523.610	2739
523.680	4052
523.749	4161
523.819	5969
523.888	4294
523.958	4770
524.027	4570
524.097	4730
524.166	5234
524.236	3102
524.305	6492
524.375	3137
524.444	2444
524.514	6150
524.583	2765
524.653	3758
524.722	5087
524.791	2739
524.861	6207
524.930	4193
524.999	4210
525.069	5522
525.138	4788
525.207	4960
525.277	5969
525.346	5876
525.415	6945
525.484	7557
525.554	7786
525.623	10894
525.692	11811
525.761	14810
525.830	18739
525.900	23897
525.969	38493
526.038	73516
526.107	159835
526.176	440390
526.245	309000
526.314	88864
526.383	223072
526.452	275922
526.522	409040
526.591	326513
526.660	50972
526.729	31630
526.797	35214
526.867	51484
526.935	159878
527.004	589462
527.073	321785
527.142	42003
527.211	18765
527.280	14202
527.349	10136
527.418	7642
527.487	8650
527.555	5433
527.624	5977
527.693	4593
527.762	8155
527.831	3763
527.899	6961
527.968	5810
528.037	4003
528.106	5573
528.174	4861
528.243	5952
528.312	4484
528.380	5078
528.449	4713
528.518	5874
528.586	4350
528.655	5987
528.723	4684
528.792	3907
528.861	4090
528.929	3887
528.998	5329
529.066	5173
529.135	5786
529.203	6065
529.272	5147
529.340	7404
529.409	7823
529.477	6237
529.545	4903
529.614	8374
529.682	4882
529.751	7475
529.819	9856
529.887	7841
529.956	7276
530.024	8428
530.092	6941
530.161	8106
530.229	6823
530.297	6873
530.365	8356
530.434	8883
530.502	7455
530.570	7495
530.638	6182
530.707	7120
530.775	8005
530.843	6830
530.911	7333
530.979	8144
531.047	7410
531.115	8191
531.183	8026
531.252	8006
531.320	7233
531.388	6137
531.456	8800
531.524	7194
531.592	9317
531.660	11172
531.728	7482
531.796	8484
531.864	9261
531.932	8200
532.000	7413
532.067	8123
532.135	9264
532.203	11191
532.271	9169
532.339	11612
532.407	11178
532.475	11069
532.542	10603
532.610	10354
532.678	9375
532.746	13720
532.814	14101
532.881	11189
532.949	11657
533.017	10221
533.084	9063
533.152	10210
533.220	8931
533.287	9463
533.355	10668
533.423	10634
533.490	10222
533.558	10826
533.625	10603
533.693	10578
533.761	9919
533.828	9798
533.896	9120
533.963	11806
534.031	12586
534.098	14114
534.166	15537
534.233	14755
534.300	17462
534.368	16520
534.435	15636
534.503	16944
534.570	17731
534.637	19387
534.705	21099
534.772	24964
534.840	47199
534.907	198665
534.974	213284
535.041	29996
535.109	17700
535.176	15170
535.243	14214
535.310	14701
535.378	14639
535.445	14377
535.512	15291
535.579	14890
535.646	13412
535.714	15273
535.781	14933
535.848	16007
535.915	16014
535.982	14588
536.049	14558
536.116	15849
536.183	14112
536.250	12863
536.317	13549
536.384	14438
536.451	15463
536.518	15551
536.585	13618
536.652	16678
536.719	15671
536.786	13489
536.853	13946
536.920	16983
536.987	15171
537.053	13371
537.120	16858
537.187	16878
537.254	15244
537.321	16103
537.388	16974
537.454	15721
537.521	14682
537.588	15927
537.654	16189
537.721	17025
537.788	17285
537.855	15654
537.921	16579
537.988	15744
538.055	15331
538.121	14369
538.188	14131
538.254	13489
538.321	14429
538.388	15624
538.454	17571
538.521	18175
538.587	17598
538.654	17509
538.720	15076
538.787	16613
538.853	16941
538.920	16629
538.986	13734
539.053	15065
539.119	15053
539.185	14449
539.252	16453
539.318	17121
539.385	18523
539.451	15685
539.517	16624
539.583	17298
539.650	15926
539.716	17036
539.782	15567
539.849	14731
539.915	15887
539.981	15056
540.047	16101
540.114	15780
540.180	16716
540.246	16355
540.312	18157
540.378	17163
540.444	18336
540.510	17656
540.576	17547
540.643	15999
540.709	15585
540.775	16062
540.841	14885
540.907	15740
540.973	16030
541.039	15081
541.105	16890
541.171	17574
541.237	17064
541.303	17211
541.369	18552
541.435	17429
541.500	17297
541.566	14275
541.632	15731
541.698	15916
541.764	17462
541.830	15691
541.896	15604
541.961	17277
542.027	15871
542.093	17327
542.159	18276
542.224	15183
542.290	16873
542.356	16023
542.421	15273
542.487	15500
542.553	14749
542.618	15484
542.684	15390
542.750	15697
542.815	17651
542.881	15301
542.947	17389
543.012	17799
543.078	15681
543.143	14773
543.209	16698
543.274	15016
543.340	15595
543.405	16905
543.471	16643
543.536	19005
543.602	16790
543.667	15118
543.732	18099
543.798	16417
543.863	17979
543.928	16657
543.994	17039
544.059	17615
544.124	18461
544.190	17870
544.255	18212
544.320	20095
544.386	16655
544.451	20450
544.516	18917
544.581	17486
544.646	19040
544.712	20421
544.777	20285
544.842	18669
544.907	18582
544.972	19756
545.037	19770
545.102	20729
545.168	20989
545.233	22457
545.298	21876
545.363	21370
545.428	22957
545.493	24194
545.558	22223
545.623	23115
545.688	22902
545.753	23426
545.818	25068
545.883	27530
545.947	26863
546.012	28657
546.077	28097
546.142	31078
546.207	31360
546.272	32913
546.337	34352
546.401	36797
546.466	36536
546.531	38271
546.596	40710
546.661	43517
546.725	47550
546.790	48747
546.855	53677
546.919	58406
546.984	65252
547.049	69090
547.113	80153
547.178	88549
547.243	98734
547.307	115116
547.372	128770
547.436	129605
547.501	136904
547.565	147199
547.630	134318
547.695	130328
547.759	129709
547.823	131529
547.888	134174
547.952	139227
548.017	143330
548.081	145137
548.146	144630
548.210	150311
548.274	162973
548.339	159484
548.403	143550
548.468	135801
548.532	133724
548.596	137975
548.660	138651
548.725	149983
548.789	163680
548.853	160149
548.917	154249
548.982	149253
549.046	132492
549.110	120390
549.174	125067
549.238	144009
549.303	159985
549.367	163908
549.431	157128
549.495	146091
549.559	146100
549.623	169243
549.687	187817
549.751	181662
549.815	217862
549.879	221664
549.943	212937
550.007	220681
550.071	219247
550.135	197339
550.199	188276
550.263	184938
550.327	173847
550.391	177523
550.455	199910
550.519	207991
550.582	220529
550.646	248713
550.710	250286
550.774	247303
550.838	249444
550.901	255480
550.965	267715
551.029	276191
551.093	291237
551.156	305802
551.220	323250
551.284	341381
551.347	288452
551.411	260523
551.475	255014
551.538	269650
551.602	253664
551.666	240159
551.729	227599
551.793	224075
551.856	219941
551.920	216494
551.983	216693
552.047	212125
552.110	215812
552.174	217878
552.237	224474
552.301	208652
552.364	199549
552.428	193771
552.491	199992
552.554	204013
552.618	203264
552.681	209138
552.745	201997
552.808	216061
552.871	232180
552.934	214858
552.998	205168
553.061	201045
553.124	192916
553.187	192645
553.251	196455
553.314	197279
553.377	199371
553.440	211262
553.503	217345
553.567	217361
553.630	215868
553.693	216244
553.756	218820
553.819	216383
553.882	206975
553.945	208018
554.008	209444
554.071	210852
554.134	213077
554.197	201371
554.260	197617
554.323	200539
554.386	201458
554.449	209455
554.512	208285
554.575	201057
554.638	197059
554.701	197145
554.764	195449
554.827	188751
554.889	184693
554.952	171482
555.015	168149
555.078	172407
555.141	173524
555.203	168609
555.266	169960
555.329	168992
555.391	162098
555.454	158947
555.517	152826
555.580	145785
555.642	141110
555.705	141250
555.768	139652
555.830	135014
555.893	129249
555.955	125979
556.018	121793
556.080	122174
556.143	124263
556.206	124118
556.268	120045
556.330	116813
556.393	113783
556.455	110446
556.518	108141
556.580	105688
556.643	100984
556.705	99868
556.767	97200
556.830	95713
556.892	94513
556.955	92341
557.017	88140
557.079	88144
557.142	85812
557.204	84482
557.266	83362
557.328	78445
557.391	73588
557.453	71879
557.515	72115
557.577	71547
557.639	73028
557.701	71246
557.764	69766
557.826	71601
557.888	70417
557.950	71917
558.012	76667
558.074	91013
558.136	165507
558.198	317659
558.260	122496
558.322	69061
558.384	70350
558.446	71579
558.508	75424
558.570	79988
558.632	86491
558.694	104353
558.756	163045
558.818	404763
558.880	738569
558.942	311573
559.003	330380
559.065	157727
559.127	78440
559.189	76165
559.251	82056
559.312	109663
559.374	233441
559.436	579316
559.498	272729
559.559	83516
559.621	72274
559.683	83402
559.744	125290
559.806	342745
559.868	427632
559.929	107162
559.991	79389
560.052	123321
560.114	305122
560.176	182142
560.237	189603
560.299	260892
560.360	65274
560.422	37718
560.483	34010
560.545	32057
560.606	30120
560.667	29615
560.729	28045
560.790	28720
560.852	27597
560.913	27549
560.974	27139
561.036	25505
561.097	27121
561.158	26765
561.220	25139
561.281	23844
561.342	23493
561.403	25259
561.465	24075
561.526	25831
561.587	24247
561.648	22186
561.709	22705
561.771	22707
561.832	21239
561.893	21771
561.954	21691
562.015	21457
562.076	20909
562.137	19418
562.198	19683
562.259	20298
562.320	19856
562.381	20004
562.442	20129
562.503	20186
562.564	19941
562.625	19647
562.686	18189
562.747	18774
562.808	18452
562.869	17862
562.930	18205
562.991	17143
563.051	17027
563.112	17670
563.173	18192
563.234	16816
563.294	16885
563.355	16968
563.416	17141
563.477	17555
563.537	17041
563.598	16789
563.659	16883
563.720	17085
563.780	16348
563.841	16564
563.901	16926
563.962	16080
564.023	16184
564.083	16637
564.144	17276
564.204	15225
564.265	15626
564.325	15479
564.386	16290
564.446	15871
564.507	15168
564.567	15261
564.628	14652
564.688	14736
564.749	14910
564.809	15530
564.869	14260
564.930	15006
564.990	16721
565.050	15082
565.111	16018
565.171	15435
565.231	15010
565.292	16374
565.352	13637
565.412	15095
565.472	15325
565.532	15329
565.593	15312
565.653	14391
565.713	15030
565.773	14231
565.833	15066
565.893	16293
565.953	14414
566.013	15566
566.074	15208
566.134	14376
566.194	13749
566.254	13680
566.314	13930
566.374	13592
566.434	13541
566.494	13780
566.554	13863
566.614	14874
566.673	14667
566.733	15887
566.793	14318
566.853	14530
566.913	14668
566.973	13870
567.033	15086
567.092	14007
567.152	14990
567.212	14783
567.272	14716
567.331	15842
567.391	15594
567.451	16092
567.511	15762
567.570	15088
567.630	15321
567.690	14749
567.749	14906
567.809	15066
567.868	15284
567.928	14779
567.988	14180
568.047	14936
568.107	15547
568.166	15077
568.226	15480
568.285	15844
568.345	14401
568.404	15071
568.464	15107
568.523	14415
568.582	14914
568.642	15338
568.701	14580
568.761	14582
568.820	14647
568.879	14330
568.939	14826
568.998	14425
569.057	13485
569.116	14451
569.176	13950
569.235	14695
569.294	14977
569.353	13732
569.413	14353
569.472	13257
569.531	13367
569.590	13601
569.649	13785
569.708	13645
569.767	14908
569.827	13768
569.886	12790
569.945	13367
570.004	14342
570.063	14322
570.122	14808
570.181	14628
570.240	14845
570.299	14986
570.358	14282
570.417	14691
570.475	15744
570.534	15072
570.593	14907
570.652	15790
570.711	15267
570.770	15346
570.829	14472
570.887	14752
570.946	15879
571.005	16026
571.064	15408
571.122	16367
571.181	14858
571.240	13605
571.299	13487
571.357	14120
571.416	12968
571.475	14412
571.533	13778
571.592	15272
571.650	13975
571.709	15586
571.768	16951
571.826	17988
571.885	16459
571.943	14672
572.002	14576
572.060	13505
572.119	14819
572.177	14503
572.236	14600
572.294	14864
572.352	15285
572.411	15090
572.469	14157
572.528	14437
572.586	14035
572.644	13832
572.703	13834
572.761	14357
572.819	13579
572.877	13402
572.936	12566
572.994	12968
573.052	12458
573.110	12575
573.169	13670
573.227	13235
573.285	13633
573.343	14210
573.401	13792
573.459	13209
573.517	12316
573.576	14501
573.634	13457
573.692	12754
573.750	13552
573.808	13270
573.866	11410
573.924	13545
573.982	12056
574.040	12880
574.098	12000
574.155	11642
574.213	12516
574.271	12555
574.329	13235
574.387	11997
574.445	10981
574.503	11011
574.560	11365
574.618	11682
574.676	11280
574.734	12040
574.792	12071
574.849	10997
574.907	10341
574.965	9532
575.022	9388
575.080	10079
575.138	9361
575.195	9367
575.253	9219
575.311	9592
575.368	9646
575.426	9498
575.483	10361
575.541	10485
575.598	9304
575.656	10023
575.713	9977
575.771	10704
575.828	10059
575.886	9643
575.943	8044
576.001	8377
576.058	8186
576.115	8539
576.173	8514
576.230	9653
576.287	9990
576.345	10292
576.402	9100
576.459	9483
576.517	8127
576.574	8967
576.631	8868
576.688	8581
576.746	8926
576.803	8071
576.860	8067
576.917	8872
576.974	8927
577.031	9012
577.089	8427
577.146	9072
577.203	7703
577.260	8736
577.317	7790
577.374	8467
577.431	8064
577.488	8755
577.545	8104
577.602	9520
577.659	7694
577.716	9099
577.773	8068
577.830	8593
577.886	9144
577.943	8096
578.000	7496
578.057	8539
578.114	8113
578.171	8580
578.227	8761
578.284	8349
578.341	8642
578.398	9339
578.454	8168
578.511	9051
578.568	9399
578.625	7888
578.681	7731
578.738	8101
578.794	8414
578.851	8962
578.908	8838
578.964	8547
579.021	8597
579.077	8023
579.134	7984
579.190	8356
579.247	9370
579.303	8347
579.360	8146
579.416	8986
579.473	8375
579.529	7834
579.586	9589
579.642	8616
579.698	9568
579.755	10407
579.811	8877
579.867	8508
579.924	8447
579.980	8628
580.036	9645
580.093	9089
580.149	10682
580.205	10339
580.261	9256
580.317	10279
580.374	9644
580.430	9869
580.486	9778
580.542	8979
580.598	10029
580.619	9859
580.654	9571
580.692	9110
580.710	8896
580.765	10028
580.767	10072
580.823	9734
580.838	9959
580.879	10584
580.911	10469
580.935	10398
580.984	9480
580.991	9366
581.047	9998
581.057	10015
581.103	10130
581.130	10093
581.159	10029
581.203	10295
581.215	10392
581.270	9000
581.276	9064
581.326	9673
581.349	9476
581.382	9200
581.422	9779
581.438	10029
581.494	9523
581.494	9515
581.550	8988
581.567	9076
581.606	9380
581.640	9306
581.661	9205
581.713	10259
581.717	10359
581.773	9280
581.786	9343
581.829	9445
581.859	9830
581.885	10263
581.932	10308
581.940	10294
581.996	10943
582.004	10823
582.052	10145
582.077	10014
582.107	9865
582.150	10033
582.163	10118
582.219	8889
582.223	8932
582.274	9423
582.296	9508
582.330	9649
582.368	9622
582.386	9651
582.441	9403
582.441	9403
582.497	9194
582.514	9199
582.552	9401
582.587	9524
582.608	9497
582.659	9704
582.663	9743
582.719	10432
582.732	10326
582.774	9986
582.805	9718
582.830	9405
582.877	9877
582.885	9983
582.941	9937
582.950	10048
582.996	10447
583.023	10805
583.052	11326
583.095	11820
583.107	11911
583.162	11047
583.168	11013
583.218	10577
583.240	10405
583.273	10223
583.313	10256
583.328	10341
583.384	10660
583.385	10626
583.439	9287
583.458	9418
583.494	9910
583.531	10308
583.549	10390
583.603	9663
583.605	9649
583.660	10421
583.676	10314
583.715	9926
583.748	10346
583.770	10749
583.820	10947
583.825	10923
583.881	10516
583.893	10327
583.936	9949
583.965	10296
583.991	10440
584.038	10093
584.046	10112
584.101	10734
584.110	10719
584.156	10460
584.183	10717
584.211	10915
584.255	10329
584.266	10264
584.321	11695
584.328	11670
584.376	11153
584.400	11246
584.431	11528
584.472	12006
584.486	12049
584.541	11897
584.545	11892
584.596	12268
584.617	12310
584.651	12427
584.689	13302
584.706	13621
584.761	13775
584.762	13772
584.816	13851
584.834	14045
584.871	14531
584.906	14930
584.926	15115
584.978	16113
584.980	16168
585.035	17099
585.051	17702
585.090	19573
585.123	21132
585.145	22252
585.195	24116
585.200	24379
585.254	27257
585.267	28363
585.309	32294
585.340	35369
585.364	38298
585.412	44469
585.419	45646
585.473	57159
585.484	60259
585.528	81282
585.556	100330
585.583	144575
585.628	239291
585.637	276353
585.692	559952
585.700	603140
585.747	712562
585.772	639250
585.801	412257
585.845	145393
585.856	119665
585.910	58859
585.917	52443
585.965	40288
585.989	34285
586.019	30370
586.061	27512
586.074	27066
586.128	25026
586.133	24817
586.183	23326
586.205	23057
586.237	23120
586.277	22704
586.292	22612
586.346	22568
586.349	22561
586.401	22583
586.421	22351
586.455	22013
586.493	21750
586.509	21918
586.564	22231
586.565	22242
586.618	24636
586.637	25580
586.672	29142
586.709	33364
586.727	35020
586.781	38307
586.781	38334
586.835	29999
586.853	27853
586.889	25515
586.925	23728
586.944	23542
586.996	22613
586.998	22626
587.052	22837
587.068	22713
587.106	22551
587.140	22800
587.161	22784
587.212	23085
587.215	23179
587.269	23522
587.284	23861
587.323	24408
587.356	24580
587.377	24567
587.427	24970
587.431	25058
587.485	25455
587.499	25485
587.539	25981
587.571	26904
587.593	27792
587.643	29378
587.648	29484
587.702	30119
587.715	30111
587.755	29986
587.786	30327
587.810	30775
587.858	30884
587.864	30887
587.917	31010
587.930	30934
587.971	30965
588.001	31064
588.025	31121
588.073	30953
588.079	31001
588.133	31229
588.145	31311
588.187	31805
588.217	31891
588.241	32457
588.288	34022
588.295	34274
588.348	35763
588.360	36048
588.402	36522
588.431	36720
588.456	37559
588.503	38917
588.510	39245
588.564	42486
588.575	43090
588.617	45257
588.646	46795
588.671	48807
588.718	53143
588.725	54503
588.778	66488
588.789	69557
588.832	105957
588.861	134212
588.886	196143
588.932	330043
588.939	341302
588.993	412591
589.004	410689
589.047	222923
589.075	112847
589.100	87305
589.147	54433
589.154	53779
589.207	49415
589.218	48803
589.261	49688
589.290	50308
589.314	51683
589.361	55443
589.368	57757
589.421	78179
589.433	83313
589.475	146070
589.504	194843
589.528	256989
589.576	384488
589.582	371269
589.635	187807
589.647	151016
589.689	86271
589.718	48556
589.742	45818
589.790	40676
589.795	40528
589.849	39075
589.861	38727
589.902	37660
589.932	36862
589.955	37009
590.004	37082
590.009	37086
590.062	36543
590.075	36313
590.115	36213
590.146	36237
590.168	36196
590.218	35450
590.222	35548
590.275	36432
590.289	36639
590.328	37684
590.360	38346
590.381	38989
590.431	39955
590.435	39960
590.488	39186
590.503	38836
590.541	39875
590.574	40724
590.594	41107
590.645	41964
590.647	42092
590.700	43357
590.716	43724
590.753	44348
590.787	44797
590.806	45274
590.859	46118
590.859	46209
590.912	46884
590.930	47034
590.965	47856
591.001	48642
591.018	48567
591.071	47659
591.072	47561
591.124	47008
591.143	46692
591.177	47446
591.214	48171
591.230	48684
591.283	49839
591.285	49791
591.336	49177
591.356	48801
591.389	48691
591.427	48304
591.442	48502
591.495	48841
591.498	48770
591.547	48735
591.569	48729
591.600	49519
591.640	50018
591.653	50281
591.706	51106
591.711	51108
591.759	52665
591.782	53248
591.811	54607
591.853	56384
591.864	56398
591.917	55768
591.924	55562
591.969	55899
591.995	55974
592.022	56434
592.066	56841
592.075	57176
592.127	58599
592.137	58734
592.180	60434
592.208	61362
592.233	61719
592.279	62045
592.285	62408
592.338	64386
592.350	64696
592.390	65063
592.421	65109
592.443	65259
592.491	65167
592.495	65449
592.548	67522
592.562	67954
592.600	67293
592.633	66474
592.653	66873
592.704	67194
592.705	67622
592.775	69794
592.846	71967
592.916	72225
592.987	72569
593.058	74835
593.128	76451
593.199	76281
593.270	75712
593.341	77739
593.411	80340
593.482	85084
593.553	87469
593.623	86607
593.694	88798
593.764	90927
593.835	90509
593.906	90300
593.976	93859
594.047	94565
594.117	99487
594.188	100647
594.258	101857
594.329	100651
594.399	104829
594.470	108268
594.540	110481
594.611	113533
594.681	111392
594.751	111999
594.822	117227
594.892	120341
594.963	123963
595.033	129025
595.103	130892
595.174	131980
595.244	136410
595.314	138959
595.384	144546
595.455	148191
595.525	152860
595.595	160449
595.665	156855
595.736	154895
595.806	158230
595.876	161909
595.946	160470
596.016	169510
596.087	174626
596.157	174403
596.227	174642
596.297	185037
596.367	198272
596.437	208140
596.507	205600
596.577	206729
596.647	213649
596.717	224834
596.787	227285
596.857	225736
596.927	229686
596.997	230588
597.067	235045
597.137	236522
597.207	239308
597.277	238906
597.347	229381
597.417	221741
597.487	222725
597.557	228591
597.626	236629
597.696	236762
597.766	234894
597.836	223116
597.906	211949
597.975	205619
598.045	212815
598.115	218758
598.185	237087
598.254	266115
598.324	289506
598.394	292608
598.464	281896
598.533	275176
598.603	258529
598.672	251183
598.742	257514
598.812	256038
598.881	266135
598.951	262518
599.020	268169
599.090	277241
599.159	281370
599.229	269654
599.299	264871
599.368	272646
599.437	268039
599.507	245640
599.576	238183
599.646	232106
599.715	232416
599.785	228549
599.854	225230
599.924	217454
599.993	218883
600.062	224973
600.132	230645
600.201	245166
600.270	287036
600.340	300520
600.409	292544
600.478	289337
600.547	300163
600.617	266485
600.686	210706
600.755	191872
600.824	183804
600.894	178119
600.963	182255
601.032	176930
601.101	170907
601.170	162660
601.239	157370
601.308	156921
601.378	159090
601.447	158849
601.516	160022
601.585	161700
601.654	165161
601.723	165374
601.792	170161
601.861	174148
601.930	182272
601.999	183484
602.068	183409
602.137	183580
602.206	187923
602.275	192464
602.343	192495
602.412	194598
602.481	195185
602.550	199191
602.619	204078
602.688	205882
602.756	206816
602.825	209113
602.894	214796
602.963	219198
603.032	223679
603.100	221597
603.169	223988
603.238	225297
603.307	228089
603.375	230040
603.444	235184
603.513	238596
603.581	238679
603.650	243115
603.719	238467
603.787	245036
603.856	250625
603.924	258648
603.993	268767
604.061	278763
604.130	290848
604.198	295780
604.267	302231
604.335	308016
604.404	312354
604.472	313469
604.541	316664
604.609	321278
604.678	321588
604.746	324539
604.815	334908
604.883	338159
604.951	337429
605.020	345182
605.088	351175
605.156	358116
605.225	364429
605.293	363272
605.361	365642
605.429	366928
605.498	377857
605.566	384091
605.634	404802
605.702	418292
605.771	432660
605.839	431987
605.907	420218
605.975	407487
606.043	399008
606.111	400423
606.180	399853
606.248	396928
606.316	393262
606.384	391110
606.452	393254
606.520	402281
606.588	415042
606.656	419754
606.724	412271
606.792	385340
606.860	347982
606.928	319152
606.996	306015
607.064	302042
607.132	312292
607.200	330036
607.267	339863
607.335	348840
607.403	354254
607.471	339522
607.539	334005
607.607	331706
607.674	292792
607.742	294917
607.810	289751
607.878	290630
607.946	299766
608.013	313084
608.081	317950
608.149	321459
608.216	333794
608.284	341845
608.352	344430
608.419	339584
608.487	330895
608.555	324365
608.622	339984
608.690	361604
608.757	398689
608.825	403725
608.893	392132
608.960	368402
609.028	352873
609.095	354389
609.163	352734
609.230	312791
609.298	291239
609.365	308331
609.432	333007
609.500	359242
609.567	413644
609.635	471404
609.702	491306
609.769	462986
609.837	356295
609.904	312595
609.971	323328
610.039	352528
610.106	445602
610.173	770928
610.241	1512516
610.308	880014
610.375	402958
610.442	346302
610.509	327414
610.577	328208
610.644	334024
610.711	345379
610.778	353404
610.845	367536
610.912	390478
610.980	405936
611.047	404841
611.114	397054
611.181	385160
611.248	384259
611.315	406141
611.382	417672
611.449	431996
611.516	436282
611.583	429101
611.650	433857
611.717	440162
611.784	446351
611.851	460800
611.918	482625
611.984	545486
612.051	708509
612.118	1184384
612.185	2162691
612.252	1516500
612.319	682767
612.386	573625
612.452	521059
612.519	495379
612.586	482815
612.653	493366
612.719	510709
612.786	490073
612.853	454197
612.919	448961
612.986	452192
613.053	427605
613.120	401466
613.186	389992
613.253	392833
613.319	391869
613.386	395206
613.453	401917
613.519	401428
613.586	394541
613.652	401739
613.719	394095
613.785	404026
613.852	407401
613.918	406228
613.985	410808
614.051	425019
614.118	419851
614.184	403219
614.250	405176
614.317	412326
614.383	407004
614.449	417064
614.516	412264
614.582	414318
614.648	407378
614.715	406311
614.781	395659
614.847	396169
614.914	393818
614.980	382804
615.046	385593
615.112	398881
615.179	398265
615.245	402014
615.311	399294
615.377	404656
615.443	406034
615.509	413561
615.575	426259
615.642	421622
615.708	431709
615.774	450706
615.840	471583
615.906	490957
615.972	572580
616.038	790965
616.104	1401022
616.170	2360685
616.236	1996155
616.302	926580
616.368	751111
616.434	559838
616.500	514188
616.565	572414
616.631	710527
616.697	584566
616.763	596805
616.829	878516
616.895	1471364
616.961	1336134
617.026	640123
617.092	464299
617.158	434894
617.224	421358
617.289	391129
617.355	371885
617.421	370826
617.487	368365
617.552	350955
617.618	347347
617.684	348300
617.749	349865
617.815	333995
617.880	331160
617.946	328812
618.012	336684
618.077	343503
618.143	327441
618.208	331169
618.274	354454
618.339	352634
618.405	295096
618.470	297409
618.536	294498
618.601	289540
618.667	267936
618.732	259828
618.798	256620
618.863	256358
618.928	255207
618.994	257806
619.059	255080
619.124	256303
619.190	253663
619.255	251420
619.320	252427
619.386	255631
619.451	252558
619.516	243315
619.581	250648
619.647	258159
619.712	255280
619.777	244359
619.842	246074
619.907	253357
619.972	255087
620.038	252298
620.103	246268
620.168	249592
620.233	252599
620.298	255128
620.363	258970
620.428	265200
620.493	270411
620.558	272574
620.623	274862
620.688	275166
620.753	271511
620.818	278242
620.883	280135
620.948	278614
621.013	273798
621.078	268653
621.143	271790
621.207	274909
621.272	269664
621.337	261757
621.402	259505
621.467	257446
621.532	255266
621.596	256853
621.661	251036
621.726	250294
621.791	252857
621.855	250817
621.920	248588
621.985	255026
622.049	259627
622.114	258871
622.179	261156
622.243	266966
622.308	275206
622.373	285461
622.437	276731
622.502	263674
622.566	261957
622.631	259645
622.695	266488
622.760	264957
622.824	263569
622.889	264676
622.953	266826
623.018	277970
623.082	283093
623.147	280522
623.211	272373
623.276	274343
623.340	261761
623.404	256949
623.469	255285
623.533	259443
623.597	254359
623.662	253043
623.726	233144
623.790	219373
623.854	215812
623.919	220564
623.983	223243
624.047	226480
624.111	227621
624.176	232486
624.240	233413
624.304	242904
624.368	231960
624.432	233255
624.496	238022
624.560	250592
624.625	251424
624.689	250700
624.753	261690
624.817	247162
624.881	241329
624.945	219526
625.009	213653
625.073	218074
625.137	224994
625.201	232866
625.265	233422
625.329	223610
625.393	227121
625.456	229056
625.520	237626
625.584	237847
625.648	242724
625.712	251373
625.776	246477
625.839	231714
625.903	197975
625.967	185282
626.031	200410
626.095	234732
626.158	213321
626.222	171272
626.286	161212
626.349	155380
626.413	144752
626.477	143473
626.540	148337
626.604	144489
626.668	140945
626.731	140232
626.795	141142
626.858	141336
626.922	139101
626.986	135738
627.049	136395
627.113	142941
627.176	137137
627.240	133430
627.303	133737
627.366	130439
627.430	133415
627.493	131987
627.557	130016
627.620	132984
627.684	139313
627.747	137725
627.810	124547
627.874	112089
627.937	109730
628.000	114731
628.064	108997
628.127	99621
628.190	98784
628.253	95835
628.317	91306
628.380	86922
628.443	86064
628.506	83228
628.569	81398
628.632	77001
628.696	78151
628.759	75978
628.822	73602
628.885	71590
628.948	71050
629.011	70295
629.074	66597
629.137	65157
629.200	63398
629.263	63226
629.326	61924
629.389	62454
629.452	62485
629.515	61115
629.578	60378
629.641	60188
629.704	60586
629.767	59506
629.830	58700
629.892	57088
629.955	56735
630.018	59609
630.081	56586
630.144	57338
630.207	55902
630.269	57837
630.332	54691
630.395	53999
630.458	52416
630.520	50135
630.583	52456
630.646	53521
630.708	53236
630.771	54312
630.834	56524
630.896	55781
630.959	55705
631.021	54621
631.084	55158
631.146	55092
631.209	56455
631.272	54668
631.334	56356
631.397	56965
631.459	56657
631.522	61791
631.584	63280
631.646	68749
631.709	70796
631.771	70759
631.834	67646
631.896	63774
631.958	58680
632.021	58403
632.083	53570
632.145	54262
632.208	51966
632.270	52481
632.332	51328
632.395	50257
632.457	51698
632.519	51237
632.581	51707
632.643	48376
632.706	50407
632.768	48402
632.830	51762
632.892	52067
632.954	51674
633.016	53340
633.078	51334
633.141	51237
633.203	50680
633.265	51738
633.327	50942
633.389	51441
633.451	52739
633.513	50666
633.575	54580
633.637	52361
633.698	54243
633.760	57441
633.822	58394
633.884	60469
633.946	62467
634.008	64814
634.070	67933
634.132	72057
634.193	79173
634.255	88422
634.317	88259
634.379	85732
634.441	76616
634.502	67457
634.564	61775
634.626	56874
634.687	54510
634.749	51781
634.811	51394
634.873	50344
634.934	51318
634.996	51564
635.057	51106
635.119	52163
635.181	53376
635.242	54288
635.304	52237
635.365	56120
635.427	52945
635.488	53574
635.550	52210
635.611	55157
635.673	52985
635.734	59525
635.796	61193
635.857	68584
635.918	74770
635.980	84262
636.041	89622
636.102	95134
636.164	96957
636.225	91224
636.286	77986
636.348	69970
636.409	61795
636.470	57727
636.531	54651
636.593	51270
636.654	50573
636.715	47586
636.776	47852
636.838	45935
636.899	45885
636.960	43848
637.021	42678
637.082	41929
637.143	42823
637.204	41507
637.265	41256
637.326	42547
637.387	44439
637.448	41748
637.509	43230
637.570	42228
637.631	41537
637.692	40797
637.753	37842
637.814	39997
637.875	39268
637.936	40287
637.997	38907
638.058	38427
638.119	39171
638.179	39660
638.240	39388
638.301	39198
638.362	36936
638.423	35348
638.483	37150
638.544	34087
638.605	37482
638.666	35672
638.726	36321
638.787	37440
638.848	36234
638.908	35927
638.969	35598
639.030	34181
639.090	32613
639.151	34034
639.211	35994
639.272	36175
639.332	35981
639.393	38221
639.453	39557
639.514	41467
639.574	36178
639.635	32487
639.695	32957
639.756	32156
639.816	32333
639.877	32227
639.937	33755
639.997	33794
640.058	32223
640.118	31544
640.178	33425
640.239	31510
640.299	33089
640.359	33125
640.420	37113
640.480	41140
640.540	49402
640.600	47258
640.661	42036
640.721	39515
640.781	37827
640.841	33028
640.901	33604
640.961	34376
641.021	36349
641.082	37770
641.142	34071
641.202	32440
641.262	28640
641.322	31257
641.382	30401
641.442	32045
641.502	30388
641.562	31667
641.622	32292
641.682	36566
641.742	42184
641.802	37559
641.861	32922
641.921	30329
641.981	30643
642.041	28703
642.101	29136
642.161	27722
642.221	28676
642.280	28993
642.340	28610
642.400	28230
642.460	30370
642.519	30237
642.579	30581
642.639	31020
642.698	29032
642.758	34083
642.818	29962
642.877	29560
642.937	30994
642.997	30894
643.056	31674
643.116	29505
643.175	32187
643.235	31899
643.294	33365
643.354	34403
643.414	37326
643.473	40993
643.532	49772
643.592	66765
643.651	97889
643.711	167526
643.770	321874
643.830	751651
643.889	1219162
643.948	363024
644.008	97812
644.067	61086
644.126	46671
644.186	40758
644.245	37506
644.304	32020
644.363	34915
644.423	30057
644.482	32058
644.541	33919
644.600	33519
644.659	43916
644.719	55306
644.778	82388
644.837	142776
644.896	296855
644.955	612077
645.014	180758
645.073	52662
645.132	39858
645.191	36893
645.250	34632
645.309	38942
645.368	41546
645.427	57954
645.486	106614
645.545	170403
645.604	48543
645.663	32106
645.722	32485
645.781	35347
645.840	38592
645.898	45817
645.957	61758
646.016	90846
646.075	160227
646.134	312311
646.192	785911
646.251	933158
646.310	191370
646.369	71630
646.427	59629
646.486	43844
646.545	35492
646.603	31765
646.662	30439
646.721	29441
646.779	28798
646.838	30012
646.896	38053
646.955	52673
647.014	86022
647.072	172495
647.131	446458
647.189	178967
647.248	35979
647.306	28053
647.365	25494
647.423	22088
647.481	25283
647.540	21210
647.598	22427
647.657	21698
647.715	22037
647.773	20733
647.832	21944
647.890	19461
647.948	19239
648.007	19482
648.065	17755
648.123	18334
648.181	18136
648.240	19392
648.298	17920
648.356	17123
648.414	18279
648.472	16618
648.531	17580
648.589	16560
648.647	16985
648.705	16580
648.763	17368
648.821	18109
648.879	18921
648.937	20958
648.995	24731
649.053	31063
649.111	46210
649.169	76129
649.227	138694
649.285	298925
649.343	750504
649.401	311998
649.459	54464
649.516	32238
649.574	24950
649.632	27332
649.690	30653
649.748	39669
649.806	59663
649.863	117984
649.921	333435
649.979	181547
650.037	28254
650.094	17807
650.152	16813
650.210	14397
650.268	15060
650.325	13555
650.383	12904
650.440	11989
650.498	13133
650.556	12700
650.613	11795
650.671	12699
650.728	12485
650.786	14313
650.843	22180
650.901	14105
650.958	12109
651.016	11380
651.073	10897
651.131	10610
651.188	9548
651.246	9469
651.303	8982
651.360	10575
651.418	9768
651.475	10406
651.532	8901
651.590	10501
651.647	8379
651.704	9742
651.762	9292
651.819	9191
651.876	8842
651.933	8735
651.990	9401
652.048	8071
652.105	8663
652.162	9007
652.219	8168
652.276	8079
652.333	8816
652.390	7328
652.448	8908
652.505	8829
652.562	7766
652.619	7770
652.676	7701
652.733	8623
652.790	7446
652.847	7766
652.904	7543
652.961	6826
653.017	6443
653.074	8775
653.131	7788
653.188	6598
653.245	7988
653.302	7102
653.359	7102
653.415	7543
653.472	6943
653.529	7885
653.586	6101
653.642	7013
653.699	7965
653.756	6946
653.813	7390
653.869	8521
653.926	6758
653.983	7450
654.039	8276
654.096	6988
654.152	8486
654.209	5659
654.266	7529
654.322	6257
654.379	6942
654.435	7306
654.492	7355
654.548	7433
654.605	6782
654.661	6980
654.717	6807
654.774	7050
654.830	6743
654.887	6489
654.943	6594
655.000	7086
655.056	7111
655.112	7317
655.168	6838
655.225	7255
655.281	7967
655.337	6757
655.394	6756
655.450	6624
655.506	6903
655.562	5920
655.618	7419
655.675	5338
655.731	7164
655.787	7016
655.843	7502
655.899	6012
655.955	6958
656.011	7265
656.067	6262
656.123	6751
656.179	6784
656.235	8395
656.291	5918
656.347	8082
656.403	6870
656.459	6815
656.515	6516
656.571	6946
656.627	5897
656.683	6752
656.739	7262
656.795	6421
656.850	6379
656.906	7184
656.962	7722
657.018	6892
657.074	8646
657.129	13781
657.185	22046
657.241	51816
657.297	23924
657.352	7476
657.408	6337
657.464	6966
657.519	6139
657.575	4615
657.630	6171
657.686	6102
657.742	5526
657.797	5849
657.853	6264
657.908	6441
657.964	4652
658.019	5485
658.075	6133
658.130	6407
658.186	4691
658.241	6106
658.297	4544
658.352	5484
658.407	5638
658.463	4851
658.518	5281
658.573	5737
658.629	5275
658.684	5435
658.739	5531
658.795	4995
658.850	5101
658.905	4384
658.960	4929
659.016	3981
659.071	5996
659.126	5260
659.181	4377
659.236	5388
659.291	5778
659.346	4374
659.401	4986
659.457	5452
659.512	5157
659.567	5054
659.622	5186
659.677	4474
659.732	4283
659.787	4414
659.842	5194
659.897	4429
659.952	4738
660.007	4703
660.061	4468
660.116	3922
660.171	4316
660.226	4655
660.281	5530
660.336	3998
660.391	5364
660.445	3249
660.500	4628
660.555	4470
660.610	3716
660.664	4745
660.719	4649
660.774	3729
660.828	5042
660.883	4796
660.938	4911
660.992	2837
661.047	4232
661.101	4301
661.156	4678
661.211	4202
661.265	4101
661.320	4559
661.374	4647
661.429	3804
661.483	4752
661.538	3829
661.592	3971
661.647	5012
661.701	5076
661.755	4569
661.810	5079
661.864	3952
661.919	4107
661.973	3900
662.027	4337
662.081	3826
662.136	3976
662.190	4444
662.244	4560
662.299	4285
662.353	4517
662.407	4767
662.461	4172
662.515	3990
662.569	4045
662.624	5100
662.678	3945
662.732	3963
662.786	4183
662.840	4333
662.894	4667
662.948	3901
663.002	4193
663.056	4149
663.110	3312
663.164	4074
663.218	4375
663.272	4244
663.326	4422
663.380	4172
663.434	4768
663.488	3516
663.542	4045
663.595	4492
663.649	3669
663.703	4734
663.757	4092
663.811	4393
663.864	4325
663.918	4121
663.972	4619
664.026	4653
664.079	4472
664.133	4767
664.187	5352
664.240	3983
664.294	4227
664.348	4202
664.401	4524
664.455	4163
664.508	4382
664.562	3942
664.615	4464
664.669	3751
664.722	4007
664.776	3837
664.829	4619
664.883	3846
664.936	4728
664.990	4131
665.043	4197
665.097	3166
665.150	4654
665.203	4083
665.257	4389
665.310	4617
665.363	4089
665.417	4764
665.470	4814
665.523	4227
665.576	5095
665.630	4543
665.683	3782
665.736	4199
665.789	5093
665.842	3846
665.895	4147
665.949	4072
666.002	4138
666.055	4464
666.108	5691
666.161	4387
666.214	5533
666.267	4883
666.320	5255
666.373	5525
666.426	5937
666.479	4550
666.532	5082
666.585	5070
666.638	5561
666.691	4809
666.744	5455
666.796	4538
666.849	5445
666.902	5239
666.955	4268
667.008	4857
667.060	4138
667.113	5144
667.166	4840
667.219	4794
667.271	5517
667.324	5504
667.377	5513
667.430	5481
667.482	5036
667.535	4649
667.587	5050
667.640	4556
667.693	4553
667.745	5490
667.798	4589
667.850	4244
667.903	5607
667.955	5040
668.008	4888
668.060	4539
668.113	4750
668.165	4801
668.218	5091
668.270	5659
668.322	5633
668.375	3833
668.427	4525
668.479	4265
668.532	5719
668.584	4253
668.636	3958
668.689	4419
668.741	3719
668.793	4175
668.845	4420
668.898	5141
668.950	4761
669.002	4888
669.054	3895
669.106	4504
669.158	4408
669.211	4417
669.263	4422
669.315	4814
669.367	5014
669.419	4282
669.471	5066
669.523	4347
669.575	4210
669.627	4445
669.679	3810
669.731	4201
669.783	4225
669.835	4783
669.886	3862
669.938	4654
669.990	3615
670.042	3913
670.094	4414
670.146	4185
670.197	4006
670.249	4044
670.301	4110
670.353	5187
670.404	6318
670.456	5261
670.508	7509
670.560	11317
670.611	15802
670.663	25080
670.715	60834
670.766	81642
670.818	19595
670.869	7202
670.921	7202
670.972	6408
671.024	4423
671.075	4648
671.127	4692
671.178	5306
671.230	5510
671.281	5805
671.333	6863
671.384	8335
671.436	12331
671.487	17430
671.538	26570
671.590	44466
671.641	74596
671.692	139538
671.744	248869
671.795	150048
671.846	50647
671.897	24607
671.949	16535
672.000	11335
672.051	8550
672.102	7528
672.153	5937
672.204	5957
672.256	5970
672.307	4628
672.358	4792
672.409	4552
672.460	4885
672.511	3504
672.562	3212
672.613	4094
672.664	3689
672.715	3728
672.766	3102
672.817	3313
672.868	2559
672.919	2501
672.970	2945
673.021	3161
673.071	2895
673.122	2587
673.173	3765
673.224	3248
673.275	2496
673.326	2296
673.376	2290
673.427	2654
673.478	3137
673.528	3233
673.579	2567
673.630	2775
673.680	3510
673.731	2758
673.782	3181
673.832	3589
673.883	3224
673.934	2125
673.984	2629
674.035	3380
674.085	2768
674.136	4065
674.186	3298
674.237	2477
674.287	3096
674.338	2696
674.388	2529
674.438	3906
674.489	3990
674.539	3425
674.589	4733
674.640	3738
674.690	3927
674.740	3331
674.791	3885
674.841	3152
674.891	3092
674.942	2214
674.992	2326
675.042	2877
675.092	2634
675.142	2601
675.193	1767
675.243	2523
675.293	3516
675.343	2830
675.393	2889
675.443	2413
675.493	2128
675.543	2251
675.593	2146
675.643	3207
675.693	2283
675.743	2839
675.793	2234
675.843	2247
675.893	2209
675.943	2040
675.993	1459
676.043	1984
676.093	2130
676.142	2770
676.192	2670
676.242	1164
676.292	2656
676.341	1378
676.391	1697
676.441	1336
676.491	1490
676.540	1768
676.590	2218
676.640	1243
676.689	1391
676.739	752
676.789	1930
676.838	1558
676.888	1549
676.937	1779
676.987	1360
677.037	2545
677.086	1212
677.136	2002
677.185	1578
677.235	2146
677.284	1908
677.333	1515
677.383	1178
677.432	481
677.482	1697
677.531	1457
677.580	1836
677.630	1716
677.679	1826
677.728	1236
677.778	1923
677.827	935
677.876	1983
677.925	1402
677.975	1741
678.024	1904
678.073	2250
678.122	1609
678.171	1967
678.220	2527
678.269	3709
678.319	4187
678.368	3502
678.417	3308
678.466	2210
678.515	1878
678.564	1176
678.613	1200
678.662	1165
678.711	1514
678.760	1255
678.809	1759
678.857	1661
678.906	2208
678.955	1417
679.004	1750
679.053	1150
679.102	1524
679.151	1270
679.199	1001
679.248	1821
679.297	1500
679.346	1162
679.394	1069
679.443	1419
679.492	1480
679.540	1773
679.589	1495
679.638	1380
679.686	1533
679.735	2245
679.784	2733
679.832	3653
679.881	1975
679.929	761
679.978	480
680.026	1878
680.075	1276
680.123	1292
680.172	498
680.220	-64
680.268	1868
680.317	913
680.365	93
680.414	1037
680.462	787
680.510	1551
680.559	1603
680.607	1396
680.655	235
680.703	1218
680.752	1939
680.800	1270
680.848	1092
680.896	1688
680.945	747
680.993	712
681.041	1028
681.089	1291
681.137	420
681.185	1000
681.233	547
681.258	929
681.281	1274
681.329	284
681.377	1523
681.380	1554
681.425	1803
681.473	2130
681.502	1879
681.521	1665
681.569	1912
681.617	840
681.624	894
681.665	1103
681.713	1012
681.745	1568
681.761	1800
681.809	1143
681.857	2430
681.867	2154
681.904	1125
681.952	2085
681.989	1457
682.000	1247
682.048	2000
682.096	1616
682.111	1719
682.143	1889
682.191	1911
682.233	2883
682.239	3009
682.286	1228
682.334	1497
682.354	1567
682.382	1629
682.430	2350
682.476	1813
682.477	1785
682.525	2273
682.572	1698
682.598	1914
682.620	2066
682.667	2561
682.715	2640
682.720	2608
682.763	2117
682.810	1860
682.841	2366
682.857	2617
682.905	1826
682.952	2073
682.963	2162
683.000	2389
683.047	2111
683.085	2687
683.095	2834
683.142	2670
683.190	3282
683.206	2956
683.237	2321
683.284	3236
683.328	2572
683.332	2498
683.379	2893
683.426	2708
683.449	2696
683.473	2694
683.521	3284
683.568	3272
683.571	3277
683.615	3036
683.662	3077
683.693	2968
683.709	2903
683.757	2679
683.804	2330
683.814	2512
683.851	3091
683.898	3010
683.936	3055
683.945	3066
683.992	3075
684.039	3571
684.057	3233
684.086	2636
684.133	3096
684.179	3134
684.180	3122
684.227	2612
684.274	2100
684.300	2580
684.321	2961
684.368	2419
684.415	2980
684.422	2939
684.462	2725
684.509	2904
684.543	3235
684.556	3328
684.603	3813
684.649	3429
684.665	3315
684.696	3045
684.743	3904
684.786	3780
684.790	3751
684.837	3442
684.883	2721
684.908	3196
684.930	3719
684.977	3749
685.023	3358
685.029	3434
685.070	3750
685.117	3462
685.150	3453
685.164	3466
685.210	3503
685.257	3624
685.272	3806
685.303	4168
685.350	3512
685.393	3891
685.396	3902
685.443	3552
685.490	3700
685.514	3817
685.536	3983
685.583	3542
685.629	3277
685.636	3351
685.675	3808
685.722	4260
685.757	4099
685.768	4007
685.815	3671
685.861	4125
685.878	4113
685.908	4247
685.954	4075
686.000	4456
686.000	4453
686.047	4250
686.093	4842
686.121	4782
686.139	4760
686.185	4241
686.232	4763
686.242	4801
686.278	4819
686.324	4496
686.363	4573
686.370	4604
686.416	4536
686.463	4180
686.484	4329
686.509	4529
686.555	4294
686.601	4606
686.606	4667
686.647	4973
686.693	4933
686.727	4642
686.739	4579
686.785	5104
686.831	4910
686.848	4860
686.877	4724
686.923	4810
686.969	4814
686.969	4815
687.015	4936
687.061	5402
687.090	5529
687.107	5446
687.153	5773
687.199	4811
687.211	4689
687.245	4522
687.291	5308
687.332	5478
687.336	5488
687.382	5654
687.428	5243
687.453	5310
687.474	5380
687.520	5098
687.565	5653
687.574	5548
687.611	5322
687.657	6058
687.695	6090
687.702	6057
687.748	5898
687.794	5877
687.816	5923
687.839	5929
687.885	5927
687.931	5163
687.937	5188
687.976	5516
688.022	5901
688.058	5966
688.067	5951
688.113	5900
688.158	5381
688.179	5343
688.204	5370
688.249	5884
688.295	5662
688.300	5712
688.340	6119
688.386	5827
688.421	5774
688.431	5805
688.477	5782
688.522	6863
688.542	6836
688.567	6690
688.613	7071
688.658	6939
688.663	6877
688.703	6308
688.749	6203
688.784	6132
688.794	6179
688.839	6182
688.884	6992
688.905	7038
688.930	6989
688.975	6840
689.020	6299
689.026	6289
689.065	6303
689.110	6237
689.146	6411
689.155	6478
689.201	7105
689.246	6885
689.267	7146
689.291	7395
689.336	6883
689.381	6489
689.388	6515
689.426	6815
689.471	7116
689.509	6733
689.516	6634
689.561	6626
689.606	6902
689.630	6821
689.651	6846
689.696	6617
689.741	6961
689.750	6895
689.785	6679
689.830	6659
689.871	6589
689.875	6599
689.920	7134
689.965	7234
689.992	7039
690.010	6913
690.054	6594
690.099	7102
690.112	7272
690.144	7532
690.189	6812
690.233	6135
690.233	6143
690.278	6757
690.323	6880
690.354	7145
690.367	7282
690.412	8096
690.457	7556
690.474	7543
690.501	7191
690.546	6730
690.590	6411
690.595	6340
690.635	6451
690.680	6687
690.716	7152
690.724	7237
690.769	7447
690.813	7553
690.836	7465
690.857	7576
690.902	8136
690.946	8193
690.957	8367
690.991	9393
691.035	10536
691.077	11568
691.080	11554
691.124	10773
691.168	9996
691.198	8982
691.213	8575
691.257	8490
691.301	7740
691.318	7644
691.346	7755
691.390	7157
691.434	6930
691.439	6948
691.478	7453
691.522	7472
691.559	7691
691.567	7785
691.611	8271
691.655	8074
691.680	8462
691.699	8555
691.743	8252
691.787	7963
691.800	7869
691.831	7866
691.875	8095
691.919	8187
691.921	8171
691.964	8211
692.008	8409
692.041	8579
692.052	8575
692.096	8127
692.139	7815
692.162	7766
692.183	7859
692.227	7737
692.271	7752
692.282	7770
692.315	7921
692.359	7957
692.402	8005
692.403	8020
692.447	7810
692.490	7476
692.523	7570
692.534	7721
692.578	8175
692.622	8070
692.643	8277
692.666	8293
692.709	7914
692.753	7830
692.763	7749
692.797	7762
692.840	7554
692.884	7581
692.884	7598
692.928	7638
692.971	7841
693.004	7833
693.015	7844
693.059	8175
693.102	8042
693.124	8039
693.146	8149
693.189	8301
693.233	8307
693.245	8474
693.276	8845
693.320	8887
693.363	8464
693.365	8445
693.407	8300
693.450	8395
693.485	8218
693.493	8344
693.537	8804
693.580	9081
693.605	9634
693.624	10054
693.667	10311
693.710	11140
693.725	11280
693.753	12569
693.797	14994
693.840	16987
693.845	17176
693.883	15603
693.926	13739
693.966	12355
693.970	12303
694.013	11197
694.056	10265
694.086	9478
694.099	9338
694.142	9032
694.185	8729
694.206	8550
694.229	8620
694.272	8300
694.315	8913
694.326	8819
694.358	8650
694.401	9114
694.444	8916
694.446	8891
694.487	8696
694.530	8829
694.566	8728
694.573	8794
694.616	8969
694.659	9260
694.686	9379
694.702	9401
694.745	9801
694.787	9491
694.806	9537
694.830	9441
694.873	9080
694.916	8866
694.926	8781
694.959	9170
695.002	9686
695.044	9971
695.046	9964
695.087	10026
695.130	9991
695.166	10187
695.172	10295
695.215	10400
695.258	10919
695.286	11027
695.301	11032
695.343	11193
695.386	11243
695.406	11182
695.428	11731
695.471	13082
695.514	14130
695.526	14463
695.556	15188
695.599	16134
695.641	16811
695.646	16875
695.684	15979
695.726	14832
695.766	13664
695.769	13672
695.811	13319
695.854	13076
695.886	12760
695.896	12908
695.938	13624
695.981	13994
696.005	14315
696.023	14794
696.065	15896
696.108	16892
696.125	17241
696.150	17337
696.192	17668
696.235	17653
696.245	17690
696.277	17877
696.319	17800
696.361	17883
696.365	17839
696.404	17621
696.446	17367
696.485	17129
696.488	17165
696.530	16950
696.572	16804
696.604	16733
696.614	16815
696.656	16834
696.698	16985
696.724	17011
696.740	17076
696.783	17127
696.825	17128
696.844	17129
696.867	17169
696.909	17058
696.951	17020
696.964	17000
696.992	17661
697.034	18310
697.076	19085
697.083	19189
697.118	19517
697.160	19703
697.202	19835
697.203	19790
697.244	19695
697.286	19649
697.323	19407
697.327	19448
697.369	19488
697.411	19525
697.442	19438
697.453	19427
697.494	19211
697.536	19004
697.562	18843
697.578	18976
697.620	19115
697.661	19278
697.682	19362
697.703	19834
697.744	20617
697.786	21411
697.801	21619
697.828	21357
697.869	20923
697.911	20446
697.921	20289
697.952	20373
697.994	20346
698.035	20365
698.040	20320
698.077	20853
698.118	21348
698.160	21810
698.160	21755
698.201	22433
698.243	23066
698.279	23526
698.284	23621
698.325	23965
698.367	24335
698.399	24502
698.408	24648
698.449	25101
698.491	25505
698.518	25721
698.532	25759
698.573	25673
698.614	25599
698.638	25488
698.656	25460
698.697	25255
698.738	25014
698.757	24850
698.779	24940
698.820	24991
698.862	25023
698.877	24975
698.903	25316
698.944	25763
698.985	26209
698.996	26266
699.026	26035
699.067	25629
699.116	25081
699.235	24610
699.354	24546
699.474	22673
699.593	22942
699.713	23111
699.832	23922
699.951	24195
700.070	23956
700.190	22081
700.309	21787
700.428	20739
700.547	21010
700.667	20488
700.786	22123
700.905	19039
701.024	20767
701.143	19785
701.262	21692
701.381	21431
701.500	21607
701.619	21613
701.738	21874
701.857	21225
701.976	19474
702.095	20522
702.214	21595
702.333	19989
702.452	21314
702.571	22133
702.690	20822
702.809	21057
702.928	20461
703.047	19313
703.165	19176
703.284	18971
703.403	19995
703.522	18401
703.640	18668
703.759	18434
703.878	16776
703.997	18764
704.115	19707
704.234	18061
704.353	18154
704.471	17272
704.590	16892
704.708	16682
704.827	16655
704.946	16481
705.064	16359
705.183	15678
705.301	16226
705.420	15341
705.538	16535
705.656	14567
705.775	14370
705.893	15104
706.012	15217
706.130	14871
706.249	16138
706.367	14069
706.485	15292
706.604	13130
706.722	13428
706.840	15409
706.958	15245
707.077	13597
707.195	14380
707.313	14152
707.431	13234
707.549	12881
707.668	12890
707.786	14159
707.904	13290
708.022	14608
708.140	12482
708.258	12099
708.376	14136
708.494	12897
708.612	14431
708.730	13881
708.848	13193
708.966	13574
709.084	14522
709.202	13710
709.320	11178
709.438	12565
709.556	12778
709.674	11215
709.791	11706
709.909	11895
710.027	11302
710.145	11571
710.263	12221
710.380	11051
710.498	11394
710.616	11934
710.733	10546
710.851	11225
710.969	11033
711.086	10751
711.204	11321
711.322	10637
711.439	11159
711.557	10433
711.674	9920
711.792	10593
711.909	10289
712.027	9369
712.144	10157
712.262	10417
712.379	10778
712.497	10371
712.614	9972
712.732	10411
712.849	9371
712.966	10303
713.084	10066
713.201	9161
713.318	10978
713.436	11579
713.553	10598
713.670	11847
713.787	11381
713.905	9972
714.022	11207
714.139	12044
714.256	15966
714.373	25200
714.490	50845
714.608	153061
714.725	614385
714.842	465648
714.959	42518
715.076	18866
715.193	14854
715.310	13347
715.427	9459
715.544	10581
715.661	10604
715.778	9852
715.895	9876
716.011	9285
716.128	9892
716.245	8829
716.362	8605
716.479	7144
716.596	9005
716.713	8445
716.829	7705
716.946	8541
717.063	7054
717.180	7267
717.296	8504
717.413	7897
717.530	6882
717.646	6847
717.763	8213
717.880	6939
717.996	7198
718.113	7443
718.229	6792
718.346	6885
718.462	7230
718.579	7385
718.695	7195
718.812	6341
718.928	7173
719.045	6324
719.161	6623
719.277	7308
719.394	8364
719.510	8058
719.626	9506
719.743	12540
719.859	22242
719.975	52887
720.092	230060
720.208	414293
720.324	39105
720.440	11823
720.557	9110
720.673	9816
720.789	7334
720.905	6989
721.021	7654
721.137	5983
721.253	6991
721.369	5707
721.486	7123
721.602	6483
721.718	5897
721.834	6061
721.950	6575
722.066	5405
722.181	5725
722.297	5804
722.413	5357
722.529	6533
722.645	5551
722.761	5765
722.877	6175
722.993	7553
723.108	9362
723.224	6739
723.340	5870
723.456	5901
723.571	5783
723.687	4985
723.803	5349
723.918	5321
724.034	5033
724.150	4878
724.265	5483
724.381	5110
724.497	5415
724.612	5530
724.728	5363
724.843	4561
724.959	4941
725.074	5548
725.190	5802
725.305	5300
725.421	5313
725.536	4850
725.651	5410
725.767	4710
725.882	5764
725.997	5043
726.113	5429
726.228	4855
726.343	4633
726.459	5196
726.574	4647
726.689	4691
726.804	4863
726.920	5105
727.035	5240
727.150	5103
727.265	5026
727.380	5288
727.495	5236
727.610	3921
727.725	5086
727.841	4551
727.956	4644
728.071	5170
728.186	4305
728.301	3723
728.416	5221
728.531	4977
728.645	4386
728.760	4847
728.875	5299
728.990	4501
729.105	4357
729.220	4362
729.335	5102
729.449	4230
729.564	4714
729.679	4206
729.794	4822
729.908	4662
730.023	4552
730.138	5209
730.253	4833
730.367	4987
730.482	4812
730.596	5896
730.711	6173
730.826	8961
730.940	7606
731.055	7106
731.169	6974
731.284	6726
731.398	6657
731.513	7007
731.627	8789
731.742	11859
731.856	14158
731.970	14431
732.085	17293
732.199	26014
732.313	49583
732.428	139820
732.542	406605
732.656	184825
732.771	35082
732.885	21243
732.999	20044
733.113	21261
733.227	20799
733.342	19011
733.456	19061
733.570	17033
733.684	15786
733.798	15348
733.912	15952
734.026	16767
734.140	16746
734.254	15764
734.368	15530
734.482	16186
734.596	15157
734.710	14508
734.824	14381
734.938	15109
735.052	15424
735.166	14572
735.280	14905
735.393	13836
735.507	14646
735.621	13635
735.735	13481
735.849	13929
735.962	13145
736.076	14518
736.190	12700
736.303	13611
736.417	13416
736.531	13713
736.644	13447
736.758	12868
736.872	11916
736.985	12360
737.099	11812
737.212	12192
737.326	12658
737.439	13630
737.553	11281
737.666	12007
737.780	11633
737.893	12552
738.007	10987
738.120	12098
738.233	11600
738.347	11227
738.460	11031
738.573	12767
738.687	11136
738.800	11544
738.913	12245
739.026	11053
739.140	11181
739.253	10700
739.366	11392
739.479	10235
739.592	10065
739.705	9310
739.818	11867
739.932	9272
740.045	10498
740.158	9789
740.271	11826
740.384	10155
740.497	9073
740.610	10003
740.723	9909
740.836	10200
740.949	10082
741.062	9987
741.174	9164
741.287	9329
741.400	9965
741.513	8275
741.626	10112
741.739	8959
741.851	9556
741.964	9758
742.077	8730
742.189	7274
742.302	9835
742.415	8373
742.527	8517
742.640	8896
742.753	6987
742.865	8967
742.978	8209
743.090	7541
743.203	8837
743.316	7827
743.428	8228
743.541	8370
743.653	7393
743.766	8265
743.878	8839
743.990	7267
744.103	8520
744.215	8032
744.327	7698
744.440	9450
744.552	7486
744.664	7572
744.777	8504
744.889	7393
745.001	7414
745.113	8903
745.226	6823
745.338	7378
745.450	9000
745.562	7378
745.674	6907
745.786	8022
745.898	7336
746.010	6799
746.122	7273
746.234	7333
746.347	7664
746.459	7256
746.570	6176
746.682	7741
746.794	8056
746.906	5686
747.018	6407
747.130	7712
747.242	5893
747.354	6601
747.466	7423
747.577	5791
747.689	6965
747.801	7218
747.913	6366
748.024	5345
748.136	6974
748.248	5242
748.359	5795
748.471	6812
748.583	5502
748.694	5299
748.806	6804
748.918	5093
749.029	6328
749.141	7135
749.252	6213
749.364	4926
749.475	6129
749.587	5056
749.698	5216
749.809	6330
749.921	6010
750.032	4734
750.144	4929
750.255	5217
750.366	5590
750.478	5970
750.589	5015
750.700	4274
750.811	5827
750.923	5128
751.034	4237
751.145	6754
751.256	4683
751.367	4257
751.479	5294
751.590	4507
751.701	3969
751.812	5102
751.923	4419
752.034	6129
752.145	5289
752.256	5145
752.367	5335
752.478	5208
752.589	5744
752.700	4473
752.811	4841
752.922	4465
753.032	4769
753.143	5226
753.254	4706
753.365	5589
753.476	5770
753.586	4265
753.697	4526
753.808	4164
753.919	4533
754.029	4886
754.140	4529
754.251	4564
754.361	4517
754.472	4644
754.582	4464
754.693	4496
754.804	6095
754.914	3473
755.025	4116
755.135	4658
755.246	5642
755.356	4529
755.466	4529
755.577	4655
755.687	4154
755.798	3900
755.908	3611
756.018	3657
756.129	3492
756.239	4014
756.349	4597
756.460	5042
756.570	5266
756.680	4025
756.790	4282
756.900	4267
757.011	4247
757.121	3891
757.231	4452
757.341	3985
757.451	3411
757.561	3457
757.671	4734
757.781	3825
757.891	3786
758.001	3625
758.111	4836
758.221	4753
758.331	4591
758.441	4081
758.551	5121
758.661	5197
758.771	4975
758.880	5166
758.990	3675
759.100	4290
759.210	4723
759.320	4893
759.429	4803
759.539	4641
759.649	4846
759.758	6836
759.868	6673
759.978	7305
760.087	8042
760.197	7322
760.307	7838
760.416	6233
760.526	4828
760.635	6897
760.745	7611
760.854	6773
760.964	8761
761.073	9132
761.182	7409
761.292	6791
761.401	6011
761.511	4917
761.620	4608
761.729	3846
761.839	3424
761.948	4522
762.057	3870
762.166	3979
762.276	3507
762.385	4581
762.494	4039
762.603	3983
762.712	4130
762.822	4645
762.931	3157
763.040	3225
763.149	3067
763.258	4625
763.367	4613
763.476	3975
763.585	3631
763.694	3724
763.803	3966
763.912	4902
764.021	4304
764.130	3415
764.238	4440
764.347	4036
764.456	4655
764.565	4293
764.674	5052
764.783	4623
764.891	4809
765.000	5860
765.109	6230
765.217	5284
765.326	7185
765.435	8255
765.543	10585
765.652	10340
765.761	13621
765.869	19574
765.978	30509
766.086	53125
766.195	106204
766.303	257203
766.412	445433
766.520	330681
766.629	136167
766.737	59084
766.846	34785
766.954	23281
767.062	18281
767.171	13126
767.279	10517
767.387	9326
767.496	8184
767.604	8041
767.712	7880
767.820	6667
767.928	6068
768.037	6187
768.145	5423
768.253	5713
768.361	5268
768.469	5282
768.577	5771
768.685	6542
768.793	5633
768.901	5957
769.009	7227
769.117	7333
769.225	10181
769.333	14150
769.441	22502
769.549	42111
769.657	98283
769.765	271233
769.873	345611
769.981	142198
770.088	44193
770.196	24035
770.304	16768
770.412	13641
770.519	11537
770.627	9255
770.735	7280
770.842	8517
770.950	7607
771.058	7640
771.165	9076
771.273	9012
771.380	7934
771.488	12738
771.595	11731
771.703	11411
771.810	11142
771.918	11266
772.025	13786
772.133	15221
772.240	13699
772.348	16747
772.455	15655
772.562	13332
772.670	13801
772.777	14222
772.884	13113
772.991	12201
773.099	13312
773.206	12904
773.313	13273
773.420	13118
773.528	12738
773.635	12279
773.742	13141
773.849	11546
773.956	12384
774.063	12047
774.170	11637
774.277	12991
774.384	11150
774.491	11229
774.598	12088
774.705	10921
774.812	11569
774.919	11765
775.026	10807
775.133	11907
775.239	11248
775.346	10176
775.453	10841
775.560	9931
775.667	11653
775.773	9160
775.880	11327
775.987	9948
776.093	10668
776.200	10712
776.307	7780
776.413	9660
776.520	11372
776.627	9195
776.733	9122
776.840	8074
776.946	12876
777.053	10769
777.159	11751
777.266	8719
777.372	10781
777.478	11194
777.585	8968
777.691	7903
777.798	10427
777.904	8081
778.010	8740
778.117	8643
778.223	8983
778.329	8559
778.435	7967
778.542	8917
778.648	8681
778.754	7634
778.860	8561
778.966	7719
779.072	7495
779.178	8200
779.284	6014
779.391	8481
779.497	8052
779.603	8785
779.708	7219
779.815	8503
779.920	13054
780.026	13648
780.132	8150
780.238	5549
780.344	7156
780.450	10092
780.556	5895
780.661	6669
780.767	7891
780.873	4928
780.979	6725
781.085	8017
781.190	6807
781.296	6482
781.402	7262
781.507	6713
781.613	4294
781.719	5832
781.824	6887
781.930	6157
782.035	7309
782.141	7489
782.246	4612
782.352	5693
782.457	6494
782.563	6589
782.668	6889
782.773	5024
782.879	4905
782.984	6427
783.090	6320
783.195	5749
783.300	7533
783.405	4642
783.511	4906
783.616	5317
783.721	6192
783.826	4822
783.932	5775
784.037	5622
784.142	5611
784.247	4733
784.352	5996
784.457	4440
784.562	6394
784.667	6224
784.772	4126
784.877	3117
784.982	6107
785.087	6082
785.192	4679
785.297	4924
785.402	5071
785.507	4496
785.611	4635
785.716	3950
785.821	5222
785.926	4922
786.031	5325
786.135	5134
786.240	5589
786.345	2452
786.450	5278
786.554	4446
786.659	4595
786.763	4343
786.868	5176
786.973	5588
787.077	3883
787.182	3631
787.286	5270
787.391	5910
787.495	3527
787.600	3043
787.704	3636
787.809	4915
787.913	3826
788.017	4491
788.122	5167
788.226	4155
788.330	2848
788.435	4758
788.539	4776
788.643	3939
788.747	2077
788.852	4049
788.956	2760
789.060	5433
789.164	4191
789.268	2797
789.372	4403
789.476	3539
789.580	2617
789.684	2805
789.788	5639
789.892	3929
789.996	3047
790.100	2240
790.204	4380
790.308	4007
790.412	2299
790.516	2529
790.620	3454
790.724	4193
790.828	2962
790.931	1857
791.035	4810
791.139	3231
791.242	3046
791.346	3634
791.450	3981
791.554	2885
791.657	1353
791.761	3500
791.864	4109
791.968	3582
792.072	4095
792.175	3052
792.279	2857
792.382	3537
792.486	3898
792.589	3116
792.693	4054
792.796	2133
792.899	3416
793.003	3708
793.106	1470
793.209	1707
793.313	2806
793.416	1001
793.519	3140
793.623	3968
793.726	2981
793.829	2129
793.932	2426
794.035	1745
794.138	4503
794.242	4365
794.345	1530
794.448	1959
794.551	1856
794.654	6038
794.757	6165
794.860	3165
794.963	3250
795.066	1983
795.169	3317
795.272	2018
795.375	3994
795.477	1007
795.580	2047
795.683	1561
795.786	3736
795.889	1116
795.991	3247
796.094	3507
796.197	1157
796.300	4100
796.402	3453
796.505	1585
796.608	1238
796.710	2390
796.813	2658
796.915	2824
797.018	3053
797.120	3271
797.223	1893
797.326	3336
797.428	1467
797.530	1772
797.633	1714
797.735	3644
797.838	1924
797.940	3495
798.042	2080
798.145	1161
798.247	2557
798.349	303
798.452	2874
798.554	2471
798.656	1929
798.758	4014
798.860	2739
798.962	1303
799.065	1514
799.167	1292
799.269	2668
799.371	2661
799.473	3674
799.575	2569
799.677	1261
799.779	3611
799.881	1249
799.983	3341
800.085	2345
800.187	1599
800.289	743
800.390	1879
800.492	2963
800.594	2935
800.696	1674
800.798	1314
800.899	2159
801.001	1906
801.103	1977
801.205	2390
801.306	2995
801.408	859
801.509	2094
801.611	2275
801.713	1435
801.814	973
801.916	1211
802.017	1727
802.119	1235
802.220	1792
802.322	119
802.423	3394
802.525	699
802.626	1964
802.727	2057
802.829	1582
802.930	-948
803.031	3319
803.133	957
803.234	1530
803.335	1946
803.436	1131
803.538	1308
803.639	302
803.740	2249
803.841	1678
803.942	2059
804.043	2107
804.144	981
804.245	710
804.346	995
804.447	649
804.548	1295
804.649	1927
804.750	808
804.851	1519
804.952	1834
805.053	1267
805.154	93
805.255	2698
805.355	1596
805.456	1424
805.557	582
805.658	250
805.758	2869
805.859	1350
805.960	1493
806.061	154
806.161	1196
806.262	1128
806.362	750
806.463	1557
806.564	2627
806.664	2130
806.765	566
806.865	712
806.966	742
807.066	628
807.166	1330
807.267	1793
807.367	1191
807.468	2308
807.568	-292
807.668	2427
807.769	2177
807.869	1010
807.969	1610
808.069	1588
808.170	1076
808.270	769
808.370	1291
808.470	1635
808.570	767
808.670	691
808.770	946
808.870	454
808.970	1558
809.070	667
809.170	965
809.271	1622
809.370	907
809.470	1459
809.570	612
809.670	230
809.770	700
809.870	1154
809.970	750
810.070	1358
810.169	1736
810.269	-113
810.369	1631
810.469	969
810.568	210
810.668	915
810.768	1205
810.867	1388
810.967	602
811.066	69
811.166	1222
811.265	1991
811.365	970
811.464	818
811.564	1343
811.663	1434
811.763	-777
811.862	2077
811.962	1412
812.061	46
812.160	991
812.260	1056
812.359	1241
812.458	435
812.557	1978
812.657	-165
812.756	1852
812.855	884
812.954	359
813.053	1836
813.153	1366
813.252	606
813.351	1481
813.450	1543
813.549	860
813.648	1624
813.747	667
813.846	1786
813.945	1140
814.044	1452
814.143	1991
814.242	2127
814.341	967
814.439	2446
814.538	1634
814.637	1888
814.736	1425
814.835	1666
814.933	2258
815.032	2780
815.131	4473
815.229	9394
815.328	12793
815.427	8217
815.525	7938
815.624	7213
815.722	6963
815.821	7183
815.919	7027
816.018	6180
816.116	7793
816.215	7429
816.313	8338
816.412	10789
816.510	9506
816.609	11735
816.707	11664
816.805	9093
816.904	10284
817.002	9606
817.100	10969
817.198	11427
817.296	9176
817.395	9802
817.493	10108
817.591	8326
817.689	9279
817.787	8982
817.885	8565
817.983	8433
818.081	9447
818.179	10235
818.277	14257
818.375	10696
818.473	8901
818.571	8606
818.669	9494
818.767	9941
818.865	7622
818.963	7369
819.061	8908
819.158	8202
819.256	11839
819.354	10205
819.452	18027
819.549	10845
819.647	9540
819.745	6860
819.842	8318
819.940	8370
820.038	7652
820.135	6174
820.233	8782
820.330	6356
820.428	6115
820.525	8793
820.623	6953
820.720	5701
820.818	7777
820.915	7276
821.012	6567
821.110	5637
821.207	7224
821.304	6412
821.402	6417
821.499	7873
821.596	5422
821.693	7058
821.791	7428
821.888	7037
821.985	7546
822.082	4510
822.179	7139
822.276	7068
822.373	5799
822.470	6248
822.567	6620
822.664	5279
822.761	7402
822.858	5660
822.955	6141
823.052	5109
823.149	5971
823.246	6484
823.343	4789
823.440	4907
823.536	7061
823.633	5573
823.730	4925
823.827	5507
823.923	5096
824.020	6267
824.117	5601
824.213	5356
824.310	4495
824.407	3750
824.503	5266
824.600	4177
824.696	4593
824.793	6932
824.889	6153
824.986	4284
825.082	3669
825.179	4861
825.275	5780
825.371	6283
825.468	4199
825.564	2134
825.660	6610
825.757	6474
825.853	4147
825.949	2810
826.045	3930
826.142	4860
826.238	4829
826.334	5196
826.430	3511
826.526	2485
826.622	3725
826.718	5886
826.814	5584
826.910	4252
827.006	2829
827.102	3179
827.198	5708
827.294	4852
827.390	5645
827.486	3168
827.582	2275
827.678	3264
827.774	6136
827.869	2807
827.965	3950
828.061	3074
828.157	5187
828.252	5067
828.348	2806
828.444	3810
828.539	2986
828.635	3412
828.731	4924
828.826	2953
828.922	4788
829.017	5405
829.113	4344
829.208	2279
829.304	3285
829.399	5667
829.495	4135
829.590	3344
829.685	4000
829.781	4509
829.876	4551
829.971	864
830.066	2037
830.162	4334
830.257	4873
830.352	2893
830.447	3333
830.543	2699
830.638	3244
830.733	4784
830.828	2849
830.923	3803
831.018	4461
831.113	4925
831.208	1674
831.303	1399
831.398	2519
831.493	3237
831.588	5383
831.683	2133
831.778	1818
831.873	2584
831.967	3748
832.062	4024
832.157	2407
832.252	3631
832.346	2170
832.441	4318
832.536	3058
832.631	3216
832.725	2558
832.820	3415
832.914	2713
833.009	1303
833.104	1912
833.198	2290
833.293	3068
833.387	3296
833.482	3761
833.576	2711
833.670	3439
833.765	2450
833.859	3250
833.954	3461
834.048	3166
834.142	1690
834.237	1716
834.331	2863
834.425	3067
834.519	1695
834.613	2778
834.708	2266
834.802	3027
834.896	2211
834.990	2586
835.084	1933
835.178	1700
835.272	1807
835.366	3082
835.460	3592
835.554	2278
835.648	1993
835.742	630
835.836	2173
835.930	1764
836.024	2606
836.117	2101
836.211	1090
836.305	1644
836.399	2255
836.493	1068
836.586	3469
836.680	2576
836.774	1407
836.867	3171
836.961	499
837.055	1261
837.148	1718
837.242	1754
837.335	2091
837.429	1978
837.522	1864
837.616	1202
837.709	1541
837.803	1231
837.896	3405
837.989	2228
838.083	1086
838.176	1303
838.269	260
838.363	2401
838.456	1740
838.549	2753
838.642	1573
838.735	1002
838.829	2679
838.922	1143
839.015	995
839.108	2039
839.201	1631
839.294	2116
839.387	888
839.480	677
839.573	642
839.666	1362
839.759	1561
839.852	646
839.945	1979
840.038	1454
840.131	641
840.223	1159
840.316	1418
840.409	2222
840.502	1679
840.594	2452
840.687	500
840.780	659
840.873	294
840.965	351
841.058	1877
841.150	1813
841.243	212
841.336	1838
841.428	1053
841.521	171
841.613	1060
841.706	2389
841.798	578
841.890	1291
841.983	581
842.075	1234
842.167	475
842.260	1483
842.352	1950
842.444	1438
842.537	-14
842.629	849
842.721	1420
842.813	1723
842.905	526
842.997	1534
843.090	1072
843.182	900
843.274	187
843.366	1858
843.458	1480
843.550	2340
843.642	1160
843.734	2247
843.826	811
843.918	1156
844.009	1002
844.101	593
844.193	306
844.285	605
844.377	1356
844.469	1402
844.560	285
844.652	866
844.744	982
844.835	1096
844.927	1661
845.019	1429
845.110	841
845.202	1363
845.293	587
845.385	-419
845.476	1638
845.568	2510
845.659	554
845.751	284
845.842	585
845.934	865
846.025	195
846.116	1047
846.208	1210
846.299	738
846.390	1159
846.482	1175
846.573	1188
846.664	591
846.755	538
846.846	1050
846.937	-317
847.029	24
847.120	1329
847.211	479
847.302	2286
847.393	161
847.484	1085
847.575	-14
847.666	623
847.757	275
847.847	1219
847.938	1830
848.029	1453
848.120	481
848.211	497
848.302	242
848.392	548
848.483	1354
848.574	670
848.664	575
848.755	1205
848.846	1381
848.936	-88
849.027	1693
849.118	1317
849.208	851
849.299	3064
849.389	5367
849.480	10198
849.570	22133
849.661	41710
849.751	66863
849.841	21071
849.932	2368
850.022	1908
850.112	1177
850.203	975
850.293	792
850.383	575
850.474	324
850.564	604
850.654	296
850.744	65
850.834	1234
850.924	189
851.014	2009
851.104	842
851.194	1116
851.284	261
851.374	605
851.464	923
851.554	1652
851.644	-369
851.734	1590
851.824	284
851.914	1483
852.004	1291
852.094	501
852.183	333
852.273	869
852.363	1334
852.452	622
852.542	918
852.632	348
852.721	481
852.811	59
852.901	1279
852.990	1289
853.080	954
853.169	1516
853.259	1334
853.348	1050
853.438	2715
853.527	4272
853.617	5516
853.706	11264
853.795	20880
853.885	45783
853.974	80067
854.063	144544
854.152	189852
854.242	75339
854.331	18527
854.420	9544
854.509	5879
854.598	4219
854.687	3991
854.777	2756
854.866	1685
854.955	2617
855.044	1379
855.133	1456
855.222	1841
855.311	725
855.400	35
855.488	489
855.577	1078
855.666	32
855.755	1088
855.844	866
855.933	33
856.021	899
856.110	723
856.199	719
856.288	-129
856.376	515
856.465	268
856.554	821
856.642	1115
856.731	896
856.819	1014
856.908	389
856.996	159
857.085	370
857.173	96
857.262	35
857.350	493
857.438	67
857.527	365
857.615	182
857.703	1577
857.792	23
857.880	215
857.968	-178
858.056	-143
858.145	81
858.233	292
858.321	-17
858.409	1077
858.497	465
858.585	110
858.673	425
858.761	-223
858.849	815
858.937	569
859.025	687
859.113	1187
859.201	249
859.289	1613
859.377	408
859.465	518
859.552	0
859.640	116
859.728	169
859.816	267
859.903	900
859.991	14
860.079	449
860.166	766
860.254	219
860.342	618
860.429	564
860.517	167
860.604	943
860.692	-534
860.779	512
860.867	302
860.954	229
861.042	1152
861.129	1363
861.216	1170
861.304	386
861.391	425
861.478	680
861.565	386
861.653	1576
861.740	-185
861.827	565
861.914	459
862.001	1119
862.089	-198
862.176	284
862.263	195
862.350	643
862.437	872
862.524	-196
862.611	46
862.698	1518
862.785	497
862.871	1750
862.958	1738
863.045	652
863.132	941
863.219	13
863.306	348
863.392	1213
863.479	1180
863.566	1384
863.652	705
863.739	878
863.826	1177
863.912	1517
863.999	545
864.086	1560
864.172	1042
864.259	1732
864.345	1700
864.432	1278
864.518	1237
864.604	1729
864.691	1611
864.777	2755
864.863	3434
864.950	4526
865.036	6953
865.122	12036
865.209	12008
865.295	9721
865.381	9729
865.467	9947
865.553	10336
865.639	12353
865.726	18787
865.812	30065
865.898	49585
865.984	71460
866.070	124963
866.156	118300
866.242	38550
866.328	15501
866.414	11033
866.499	10062
866.585	8949
866.671	8987
866.757	9197
866.843	8912
866.928	8124
867.014	7463
867.100	7604
867.186	8069
867.271	7463
867.357	7356
867.442	6373
867.528	7043
867.614	7070
867.699	8244
867.785	7740
867.870	6966
867.956	7166
868.041	7868
868.127	7254
868.212	6177
868.297	7103
868.383	7111
868.468	6618
868.553	7399
868.639	5795
868.724	7210
868.809	6107
868.894	7189
868.979	7126
869.065	6126
869.150	5694
869.235	5647
869.320	5822
869.405	5237
869.490	6538
869.575	5464
869.660	4881
869.745	7409
869.830	6648
869.915	5479
870.000	5168
870.085	5690
870.169	7177
870.254	7186
870.339	3631
870.424	4187
870.509	5656
870.593	6829
870.678	6180
870.763	5111
870.847	4472
870.932	5542
871.016	6093
871.101	3670
871.186	6332
871.270	6294
871.355	3365
871.439	4745
871.523	6592
871.608	4060
871.692	4246
871.777	6237
871.861	5799
871.945	4511
872.030	4722
872.114	5017
872.198	5193
872.282	4589
872.367	4136
872.451	3871
872.535	5129
872.619	5630
872.703	4821
872.787	5891
872.871	4928
872.955	3895
873.039	2874
873.123	5352
873.207	5669
873.291	3162
873.375	4310
873.459	5732
873.543	3787
873.627	3112
873.711	4161
873.794	4048
873.878	3665
873.962	2751
874.045	2972
874.129	3534
874.137	3633
874.213	4615
874.245	4358
874.296	3949
874.352	4034
874.380	4078
874.460	4373
874.464	4385
874.547	3970
874.568	4126
874.631	4561
874.676	3908
874.714	3386
874.784	5005
874.798	5318
874.881	4229
874.892	4073
874.965	3071
874.999	3275
875.048	3492
875.107	4316
875.131	4674
875.215	2623
875.215	2623
875.298	3398
875.323	3386
875.381	3470
875.430	4563
875.465	5238
875.538	4569
875.548	4490
875.631	3258
875.646	3017
875.714	1953
875.753	2800
875.798	3737
875.861	3574
875.881	3486
875.964	2902
875.968	2867
876.047	2522
876.076	2829
876.130	3218
876.183	3640
876.213	4000
876.291	4087
876.296	4065
876.379	3359
876.398	3196
876.462	2759
876.506	2524
876.545	2366
876.613	2300
876.628	2326
876.711	3403
876.721	3479
876.794	3732
876.828	3689
876.877	3625
876.935	3151
876.960	2993
877.043	2618
877.043	2621
877.125	3413
877.150	3834
877.208	4531
877.258	3762
877.291	3352
877.365	2315
877.374	2155
877.456	2639
877.472	2581
877.539	2830
877.579	3539
877.622	4121
877.687	3692
877.704	3611
877.787	4147
877.794	4127
877.869	3675
877.901	3363
877.952	2808
878.008	2612
878.034	2572
878.115	2421
878.117	2420
878.199	1953
878.222	2297
878.282	3418
878.329	3850
878.364	3995
878.437	3558
878.447	3445
878.529	2022
878.544	1989
878.611	2380
878.651	2466
878.694	2653
878.758	3506
878.776	3652
878.858	3060
878.865	3043
878.941	2591
878.972	2419
879.023	2508
879.078	2453
879.105	2462
879.185	3193
879.187	3205
879.269	3632
879.292	3563
879.351	3316
879.399	2727
879.433	2323
879.506	3318
879.516	3470
879.598	2979
879.613	3008
879.680	3186
879.720	3510
879.762	3671
879.827	2804
879.844	2582
879.926	2877
879.933	2879
880.007	2963
880.040	3019
880.089	3468
880.147	4554
880.171	4951
880.253	6455
880.254	6463
880.335	7388
880.360	8012
880.417	9793
880.467	12871
880.499	14866
880.574	15850
880.580	15787
880.662	7074
880.680	6288
880.744	3592
880.787	3044
880.825	3134
880.893	3155
880.907	3079
880.989	2693
881.000	2805
881.070	3739
881.106	3464
881.152	2898
881.213	2489
881.233	2486
881.315	2572
881.319	2612
881.396	3435
881.426	3390
881.478	3387
881.532	4053
881.559	4207
881.639	3449
881.641	3423
881.722	2411
881.745	2341
881.803	3366
881.852	4095
881.885	3834
881.958	2766
881.966	2750
882.047	2926
882.064	2810
882.129	2147
882.171	2065
882.210	2053
882.277	2009
882.291	2012
882.372	2622
882.383	2618
882.454	3727
882.489	4200
882.535	3757
882.596	3473
882.616	3634
882.697	3408
882.702	3433
882.778	2849
882.808	2470
882.859	2319
882.914	2484
882.940	2618
883.020	2933
883.021	2944
883.102	3834
883.127	4091
883.183	4483
883.233	4389
883.264	3679
883.339	2281
883.345	2253
883.426	1883
883.445	1978
883.507	3108
883.551	3315
883.587	3055
883.657	3509
883.668	3703
883.749	4140
883.763	4150
883.830	2659
883.869	2035
883.910	2136
883.975	2428
883.991	2501
884.072	3233
884.081	3230
884.152	3370
884.187	3541
884.233	3995
884.292	4209
884.314	3711
884.394	2094
884.398	2010
884.475	1891
884.504	1885
884.555	1807
884.610	1647
884.636	1862
884.716	2773
884.716	2787
884.797	3987
884.821	4354
884.877	3923
884.927	3215
884.958	2881
885.033	2349
885.038	2332
885.118	2186
885.139	2065
885.199	1976
885.244	2111
885.279	2777
885.350	3902
885.359	3976
885.439	4834
885.456	4823
885.520	3479
885.561	2902
885.600	2620
885.667	2345
885.680	2490
885.760	3310
885.773	3336
885.840	2150
885.878	1707
885.920	1852
885.984	2138
886.000	2398
886.080	3403
886.089	3518
886.160	3517
886.195	3391
886.240	3169
886.300	3042
886.320	3112
886.400	3402
886.406	3403
886.480	2537
886.511	2239
886.560	2516
886.616	2785
886.640	2808
886.720	2639
886.722	2637
886.800	2266
886.827	2081
886.879	3074
886.932	4077
886.959	4141
887.038	4179
887.039	4184
887.119	3802
887.143	3767
887.198	3465
887.248	3015
887.278	3103
887.354	3406
887.358	3394
887.437	2883
887.459	2791
887.517	3718
887.564	4352
887.596	3599
887.669	1997
887.676	2011
887.755	1938
887.774	1982
887.835	1891
887.880	1750
887.914	2455
887.985	3907
887.994	3970
888.073	4493
888.090	4545
888.153	4887
888.195	5163
888.232	4137
888.300	2312
888.311	2387
888.391	2658
888.405	2737
888.470	2307
888.510	2016
888.549	2448
888.615	3197
888.628	3272
888.708	3605
888.720	3665
888.787	3261
888.825	2937
888.866	2345
888.930	1558
888.945	1759
889.024	2770
889.035	2895
889.103	3297
889.140	3514
889.182	3146
889.245	2659
889.261	2795
889.340	3348
889.349	3412
889.419	3596
889.454	3652
889.498	3404
889.559	3097
889.577	3227
889.656	3754
889.664	3803
889.735	3230
889.768	2949
889.814	3015
889.873	3091
889.978	2806
890.083	3601
890.187	3539
890.292	4130
890.397	3013
890.501	3283
890.606	2428
890.710	3343
890.815	4253
890.919	3828
891.024	2930
891.128	2016
891.233	1938
891.337	4670
891.442	2952
891.546	3228
891.650	1948
891.755	2312
891.859	3786
891.963	4798
892.068	2915
892.172	2052
892.276	1253
892.380	2800
892.484	3552
892.589	3751
892.693	1614
892.797	1907
892.901	1316
893.005	2387
893.109	3264
893.213	3717
893.317	2893
893.421	2366
893.525	1524
893.629	2457
893.733	2932
893.837	2973
893.941	2394
894.045	2337
894.148	1202
894.252	2423
894.356	3625
894.460	4559
894.564	3057
894.667	2298
894.771	1452
894.875	1235
894.978	2960
895.082	2776
895.186	3593
895.289	2938
895.393	1827
895.496	3628
895.600	2026
895.703	1981
895.807	2171
895.910	2769
896.014	1940
896.117	1986
896.221	3613
896.324	2294
896.427	1397
896.531	2252
896.634	2370
896.737	2522
896.840	2822
896.944	3210
897.047	2795
897.150	2519
897.253	1408
897.356	1557
897.460	1480
897.563	2277
897.666	2987
897.769	2970
897.872	448
897.975	2503
898.078	1369
898.181	1908
898.284	2005
898.387	3674
898.490	1982
898.593	2193
898.695	1801
898.798	1080
898.901	1606
899.004	2398
899.107	1526
899.209	2333
899.312	3425
899.415	2298
899.518	462
899.620	1483
899.723	1237
899.826	2832
899.928	1708
900.031	1913
900.133	2919
900.236	1901
900.338	213
900.441	1791
900.543	1894
900.646	1692
900.748	1594
900.851	2969
900.953	1691
901.055	1391
901.158	1353
901.260	980
901.362	918
901.465	1912
901.567	1965
901.669	2437
901.771	1713
901.873	2209
901.976	1245
902.078	2341
902.180	1079
902.282	1189
902.384	1575
902.486	3480
902.588	1522
902.690	1485
902.792	2169
902.894	2520
902.996	2791
903.098	2216
903.200	589
903.302	2184
903.404	1684
903.505	1322
903.607	1591
903.709	2678
903.811	2037
903.913	2150
904.014	1379
904.116	1015
904.218	1320
904.319	1725
904.421	3036
904.523	2929
904.624	1522
904.726	1128
904.827	291
904.929	869
905.030	1629
905.132	4065
905.233	1240
905.335	1456
905.436	1131
905.537	1374
905.639	800
905.740	1856
905.841	2173
905.943	2219
906.044	1155
906.145	1820
906.247	787
906.348	1789
906.449	2190
906.550	1671
906.651	853
906.752	1482
906.854	1051
906.955	857
907.056	1174
907.157	3196
907.258	2095
907.359	1559
907.460	923
907.561	986
907.662	130
907.762	1033
907.863	1112
907.964	1996
908.065	829
908.166	1936
908.267	1751
908.367	1070
908.468	900
908.569	2097
908.670	1546
908.770	1647
908.871	1128
908.971	1941
909.072	926
909.173	879
909.273	1464
909.374	2196
909.474	990
909.575	1498
909.675	983
909.776	1620
909.876	537
909.977	1157
910.077	1216
910.177	2049
910.278	1296
910.378	1047
910.478	1827
910.579	2428
910.679	1532
910.779	2069
910.879	1994
910.980	2154
911.080	1819
911.180	974
911.280	-419
911.380	656
911.480	1357
911.580	1827
911.680	1213
911.780	2001
911.880	1629
911.980	2037
912.080	1293
912.180	1689
912.280	770
912.380	1141
912.480	1045
912.580	1694
912.679	1592
912.779	3281
912.879	1317
912.979	1925
913.078	-258
913.178	787
913.278	760
913.377	1029
913.477	651
913.577	1702
913.676	2375
913.776	2117
913.875	1449
913.975	1537
914.074	1206
914.174	1867
914.273	470
914.373	1917
914.472	393
914.572	1157
914.671	1142
914.770	1603
914.870	1131
914.969	625
915.068	1313
915.167	1874
915.267	619
915.366	1799
915.465	1643
915.564	1544
915.663	938
915.763	1849
915.862	1294
915.961	1631
916.060	915
916.159	863
916.258	609
916.357	1499
916.456	1523
916.555	1972
916.654	1504
916.752	1808
916.851	1345
916.950	1791
917.049	176
917.148	1558
917.247	866
917.345	1280
917.444	1234
917.543	1215
917.642	1607
917.740	2162
917.839	1903
917.937	2951
918.036	2342
918.135	1420
918.233	934
918.332	1598
918.430	1488
918.529	1523
918.627	1656
918.726	2304
918.824	2103
918.923	1352
919.021	457
919.119	1838
919.218	884
919.316	2360
919.414	1865
919.512	2609
919.611	1516
919.709	2032
919.807	2389
919.905	2541
920.003	2098
920.102	2281
920.200	2630
920.298	2604
920.396	2247
920.494	2525
920.592	2028
920.690	1642
920.788	1640
920.886	3061
920.984	2282
921.082	2767
921.180	3371
921.277	3306
921.375	2792
921.473	5906
921.571	5407
921.669	5048
921.766	3928
921.864	5626
921.962	4166
922.060	4624
922.157	4830
922.255	5307
922.352	4781
922.450	6343
922.548	5750
922.645	6610
922.743	8870
922.840	15462
922.938	16029
923.035	13790
923.133	14240
923.230	16758
923.327	19362
923.425	18087
923.522	16969
923.619	14976
923.717	13097
923.814	13953
923.911	13774
924.008	14410
924.106	13608
924.203	14479
924.300	13812
924.397	13802
924.494	13843
924.591	12872
924.688	12637
924.786	14036
924.883	14117
924.979	13337
925.077	12443
925.173	13571
925.270	12064
925.367	12906
925.464	13498
925.561	14696
925.658	13973
925.755	12231
925.852	13648
925.948	13473
926.045	12848
926.142	13880
926.239	12123
926.335	10030
926.432	12330
926.529	12903
926.625	13458
926.722	11175
926.818	11169
926.915	13248
927.011	11779
927.108	12079
927.204	11881
927.301	10227
927.397	12615
927.494	14790
927.590	9603
927.687	10143
927.783	13313
927.879	13078
927.976	10628
928.072	9685
928.168	11955
928.264	11367
928.361	11968
928.457	12901
928.553	9946
928.649	11351
928.745	11506
928.841	10104
928.937	12246
929.033	11511
929.129	10816
929.225	12295
929.321	9521
929.417	10083
929.513	11328
929.609	10098
929.705	9546
929.801	12207
929.897	8503
929.993	10382
930.089	9811
930.184	9267
930.280	10081
930.376	12852
930.471	8367
930.567	8763
930.663	9639
930.758	8744
930.854	9649
930.950	8953
931.045	7665
931.141	9428
931.236	11102
931.332	8818
931.427	7650
931.523	12006
931.618	9677
931.714	6898
931.809	8385
931.905	10876
932.000	6389
932.095	6635
932.191	10470
932.286	12079
932.381	7711
932.476	7990
932.572	7906
932.667	7463
932.762	7413
932.857	10106
932.952	10762
933.047	7449
933.142	6859
933.237	8878
933.332	8291
933.427	9716
933.522	7734
933.617	7063
933.712	7015
933.807	10331
933.902	10593
933.997	9464
934.092	5991
934.187	8051
934.282	7948
934.376	9097
934.471	8722
934.566	6825
934.661	6961
934.755	9337
934.850	8655
934.945	7433
935.039	5875
935.134	4783
935.228	8401
935.323	10807
935.417	5632
935.512	4818
935.606	5940
935.701	8085
935.795	8407
935.890	6930
935.984	5446
936.079	5574
936.173	6604
936.267	6635
936.362	5286
936.456	8009
936.550	8579
936.644	7258
936.738	5118
936.833	5086
936.927	4044
937.021	6471
937.115	6650
937.209	7435
937.303	5948
937.397	4381
937.491	6199
937.585	8244
937.679	6449
937.773	5998
937.867	4163
937.961	5237
938.055	8117
938.149	6588
938.243	4134
938.337	3420
938.430	5502
938.524	7862
938.618	4960
938.712	4397
938.805	5493
938.899	7454
938.993	7690
939.086	4498
939.180	2604
939.274	5118
939.367	6675
939.461	7856
939.554	5120
939.648	4165
939.741	5038
939.835	6324
939.928	7621
940.022	6799
940.115	5553
940.208	6536
940.302	7539
940.395	7620
940.488	3672
940.582	5679
940.675	3940
940.768	5144
940.861	6863
940.954	7215
941.048	2973
941.141	3730
941.234	3584
941.327	5461
941.420	5173
941.513	6149
941.606	3560
941.699	4745
941.792	5610
941.885	5337
941.978	4866
942.071	5246
942.164	2817
942.257	2650
942.349	4158
942.442	5370
942.535	3534
942.628	3915
942.721	4004
942.813	3743
942.906	5370
942.999	4328
943.091	3277
943.184	5276
943.277	3891
943.369	3177
943.462	2409
943.554	4450
943.647	4033
943.739	5767
943.832	5233
943.924	1974
944.017	2427
944.109	3219
944.201	3624
944.294	4533
944.386	3800
944.478	4652
944.571	2592
944.663	3616
944.755	3832
944.847	5142
944.940	3401
945.032	2019
945.124	2162
945.216	5127
945.308	4079
945.400	4489
945.492	4195
945.584	4350
945.676	3846
945.768	3957
945.860	3795
945.952	4720
946.044	3322
946.136	3181
946.228	2868
946.320	3575
946.412	3525
946.503	5505
946.595	4729
946.687	2389
946.779	1082
946.870	3307
946.962	2105
947.054	3524
947.145	3832
947.237	3227
947.329	3870
947.420	4458
947.512	2966
947.603	1922
947.695	2045
947.786	2517
947.878	2969
947.969	4787
948.061	3155
948.152	2613
948.243	2372
948.335	1246
948.426	2796
948.517	3380
948.609	3546
948.700	3815
948.791	2411
948.882	2603
948.973	2448
949.065	3265
949.156	2189
949.247	2171
949.338	2172
949.429	2115
949.520	1559
949.611	2753
949.702	3427
949.793	2840
949.884	2815
949.975	2015
950.066	1816
950.157	1733
950.247	2481
950.338	2630
950.429	1685
950.520	2521
950.611	1244
950.701	2530
950.792	3815
950.883	3766
950.973	2715
951.064	3013
951.155	2328
951.245	3328
951.336	2759
951.427	3405
951.517	4226
951.608	3664
951.698	1740
951.788	998
951.879	1028
951.969	1375
952.060	1504
952.150	3279
952.240	4054
952.331	1369
952.421	2802
952.511	1105
952.602	574
952.692	1458
952.782	1286
952.872	2799
952.962	1909
953.052	1275
953.143	1032
953.233	2052
953.323	1682
953.413	2698
953.503	2680
953.593	2728
953.683	1729
953.773	1285
953.863	590
953.953	1158
954.042	1794
954.132	1984
954.222	1681
954.312	1398
954.402	1087
954.492	1270
954.581	2397
954.671	2501
954.761	1529
954.850	2738
954.940	525
955.030	958
955.119	313
955.209	1198
955.298	1923
955.388	3059
955.477	3120
955.567	927
955.656	1569
955.746	1744
955.835	1118
955.925	1088
956.014	2103
956.103	2483
956.193	3663
956.282	1805
956.371	1437
956.461	1996
956.550	535
956.639	2295
956.728	1253
956.817	1846
956.906	1964
956.995	2464
957.085	1343
957.174	1782
957.263	791
957.352	2087
957.441	1364
957.530	2135
957.619	1208
957.708	1031
957.796	1281
957.885	1480
957.974	1139
958.063	1646
958.152	-835
958.241	1083
958.329	614
958.418	1044
958.507	306
958.596	3245
958.684	569
958.773	2522
958.861	-633
958.950	1350
959.039	1207
959.127	1041
959.216	1915
959.304	941
959.393	644
959.481	1635
959.570	663
959.658	354
959.746	336
959.835	1621
959.923	748
960.011	344
960.100	1201
960.188	2177
960.276	1256
960.365	1176
960.453	-961
960.541	678
960.629	1077
960.717	779
960.805	-1082
960.893	818
960.981	335
961.069	2621
961.158	2355
961.245	3345
961.333	1847
961.421	1149
961.509	1006
961.597	1661
961.685	415
961.773	1265
961.861	510
961.949	1957
962.036	398
962.124	1170
962.212	694
962.299	784
962.387	44
962.475	727
962.562	99
962.650	1721
962.738	1038
962.825	-96
962.913	824
963.000	862
963.088	809
963.175	765
963.263	252
963.350	901
963.438	197
963.525	677
963.612	38
963.700	836
963.787	1525
963.874	349
963.962	289
964.049	-55
964.136	-307
964.223	-437
964.310	712
964.398	-138
964.485	-533
964.572	754
964.659	755
964.746	184
964.833	83
964.920	995
965.007	431
965.094	898
965.181	54
965.268	1443
965.355	226
965.441	1376
965.528	-355
965.615	1232
965.702	992
965.789	-10
965.875	987
965.962	1835
966.049	1022
966.136	1601
966.222	15
966.309	1088
966.395	774
966.482	1325
966.569	751
966.655	1008
966.742	333
966.828	707
966.915	-509
967.001	922
967.087	-1135
967.174	439
967.260	-140
967.347	979
967.433	-388
967.519	-21
967.605	-228
967.692	738
967.778	-443
967.864	122
967.950	-888
968.036	369
968.123	374
968.209	417
968.295	-973
968.381	1355
968.467	221
968.553	-411
968.639	1322
968.725	-359
968.811	399
968.897	866
968.983	206
969.069	-75
969.154	-274
969.240	477
969.326	-829
969.412	694
969.497	-479
969.583	331
969.669	1050
969.755	499
969.840	-112
969.926	2197
970.012	1500
970.097	2994
970.183	1084
970.268	1616
970.354	470
970.439	-231
970.525	1009
970.610	125
970.696	1214
970.781	-25
970.866	-853
970.952	1075
971.037	-84
971.122	522
971.208	134
971.293	731
971.378	-1324
971.463	969
971.549	-148
971.634	131
971.719	-125
971.804	212
971.889	255
971.974	403
972.059	7
972.144	297
972.229	-180
972.314	466
972.399	199
972.484	-76
972.569	79
972.654	-647
972.739	-190
972.824	-104
972.908	-897
972.993	-298
973.078	-201
973.163	422
973.247	106
973.332	-688
973.417	1571
973.501	-346
973.586	276
973.671	665
973.755	-190
973.840	1175
973.924	1057
974.009	1493
974.093	581
974.178	1640
974.262	336
974.346	953
974.431	621
974.515	555
974.600	486
974.684	418
974.768	216
974.852	1145
974.937	-1307
975.021	1616
975.105	-150
975.189	696
975.273	-187
975.358	-285
975.442	-326
975.526	1143
975.610	-538
975.694	-678
975.778	868
975.862	26
975.946	-1690
976.030	2528
976.114	-861
976.198	599
976.281	331
976.365	848
976.449	-483
976.533	462
976.617	-1355
976.700	-308
976.784	-523
976.868	847
976.951	-687
977.035	154
977.119	757
977.202	-204
977.286	1316
977.369	1593
977.453	2623
977.536	1789
977.620	527
977.703	1023
977.787	-234
977.870	1343
977.953	1015
978.037	-374
978.120	549
978.203	622
978.287	780
978.370	-44
978.453	-181
978.536	678
978.620	1007
978.703	1069
978.786	229
978.869	84
978.952	-248
979.035	1704
979.118	880
979.201	-65
979.284	595
979.367	236
979.450	372
979.533	-271
979.616	-183
979.699	99
979.782	398
979.865	719
979.948	-94
980.030	-644
980.113	34
980.196	30
980.279	919
980.361	447
980.444	107
980.526	2039
980.609	2737
980.692	3220
980.774	2531
980.857	384
980.939	1944
981.022	1034
981.104	403
981.187	1249
981.269	1245
981.352	1339
981.434	223
981.516	180
981.599	1913
981.681	979
981.763	551
981.846	1489
981.928	27
982.010	1303
982.092	-149
982.174	970
982.256	613
982.339	1045
982.421	966
982.503	444
982.585	-348
982.667	1238
982.749	74
982.831	834
982.913	-711
982.995	1462
983.077	-405
983.158	2257
983.240	-66
983.322	2606
983.404	3570
983.486	1919
983.568	2731
983.649	2217
983.731	1752
983.813	2109
983.894	1582
983.976	1614
984.058	1178
984.139	2589
984.221	334
984.302	1960
984.384	587
984.465	1611
984.547	1068
984.628	1695
984.710	2163
984.791	2293
984.872	941
984.954	899
985.035	1562
985.116	1418
985.198	811
985.279	2088
985.360	435
985.441	1646
985.522	1645
985.604	1975
985.685	-111
985.766	1889
985.847	2223
985.928	1196
986.009	1248
986.090	1849
986.171	1758
986.252	1150
986.333	1048
986.414	2259
986.495	784
986.576	2024
986.656	1150
986.737	2571
986.818	1807
986.899	1258
986.980	1928
987.060	2325
987.141	1475
987.222	3202
987.302	3025
987.383	3485
987.464	2763
987.544	3161
987.625	2726
987.705	3240
987.786	3455
987.866	3295
987.947	2264
988.027	3681
988.108	2309
988.188	2122
988.268	2246
988.349	3101
988.429	2537
988.509	2474
988.589	1601
988.670	1493
988.750	2801
988.830	1745
988.910	2169
988.990	3255
989.070	2112
989.151	2117
989.231	965
989.311	2019
989.391	1051
989.471	1594
989.551	1820
989.631	1726
989.711	2606
989.791	1967
989.870	1078
989.950	2845
990.030	1591
990.110	1629
990.190	985
990.269	1579
990.349	1612
990.429	2559
990.509	1979
990.588	1611
990.668	1850
990.747	1847
990.827	1829
990.907	2255
990.986	844
991.066	1632
991.145	270
991.225	2352
991.304	1507
991.383	1782
991.463	718
991.542	2146
991.622	740
991.701	846
991.780	176
991.859	928
991.939	-468
992.018	1711
992.097	1349
992.176	1001
992.256	160
992.335	748
992.414	1601
992.493	-111
992.572	320
992.651	2458
992.730	1059
992.809	950
992.888	143
992.967	1103
993.046	1225
993.125	159
993.203	198
993.282	1716
993.361	1138
993.440	1367
993.519	-790
993.597	763
993.676	650
993.755	1568
993.834	263
993.912	-210
993.991	911
994.069	804
994.148	876
994.226	890
994.305	324
994.384	674
994.462	1736
994.540	-231
994.619	-235
994.697	1463
994.776	25
994.854	1387
994.932	-709
995.011	520
995.089	-479
995.167	490
995.245	46
995.324	592
995.402	413
995.480	489
995.558	132
995.636	-1145
995.714	349
995.792	1840
995.870	-370
995.948	470
996.026	666
996.104	-513
996.182	270
996.260	-290
996.338	-295
996.416	-670
996.494	-550
996.572	545
996.649	-852
996.727	-686
996.805	304
996.883	-638
996.960	30
997.038	676
997.116	259
997.193	-192
997.271	-512
997.348	-731
997.426	-350
997.504	147
997.581	373
997.658	38
997.736	-2300
997.813	-156
997.891	200
997.968	-705
998.046	-1688
998.123	217
998.200	138
998.277	-435
998.355	118
998.432	-1877
998.509	-1253
998.586	171
998.663	-998
998.741	-631
998.818	-123
998.895	-411
998.972	464
999.049	303
999.126	-1608
999.203	234
999.280	-802
999.357	73
999.434	-607
999.511	-196
999.587	-670
999.664	-1800
999.741	-886
999.818	-198
999.895	-1029
999.971	-812
1000.048	-1043
1000.125	-144
1000.202	-1178
1000.278	-350
1000.355	-17
1000.431	-1313
1000.508	-2720
1000.584	-1274
1000.661	-1191
1000.738	-893
1000.814	-1033
1000.890	-367
1000.967	-155
1001.043	-698
1001.120	-1593
1001.196	-633
1001.272	-1883
1001.349	-856
1001.425	198
1001.501	-715
1001.577	-1475
1001.654	-761
1001.730	-1477
1001.806	-916
1001.882	-1674
1001.958	-56
1002.034	-563
1002.110	-950
1002.186	-2382
1002.262	-1018
1002.338	-1622
1002.414	-282
1002.490	-723
1002.566	-1757
1002.642	-1844
1002.718	-496
1002.794	-1560
1002.870	-1031
1002.945	-1965
1003.021	-1470
1003.097	-2273
1003.173	-1043
1003.248	-1613
1003.324	-798
1003.400	-1330
1003.475	-976
1003.551	-1345
1003.626	-968
1003.702	-1805
1003.777	-859
1003.853	-1866
1003.928	-1366
1004.004	-1492
1004.079	-815
1004.155	-623
1004.230	-1592
1004.305	-1052
1004.381	-1342
1004.456	-1927
1004.531	-1928
1004.607	-2201
1004.682	-1905
1004.757	-1406
1004.832	-1599
1004.907	-2957
1004.982	-1122
1005.057	-2259
1005.133	-1460
1005.208	-1617
1005.283	-1763
1005.358	-1905
1005.433	-1319
1005.508	-1882
1005.583	-1988
1005.657	-1185
1005.732	-904
1005.807	-1705
1005.882	-2151
1005.957	-1523
1006.032	-1132
1006.106	-1981
1006.181	-2175
1006.256	-1365
1006.331	-1205
1006.405	-1922
1006.480	-1889
1006.554	-1656
1006.629	-1235
1006.704	-1852
1006.778	-1280
1006.853	-961
1006.927	-1641
1007.002	-2197
1007.076	-2087
1007.150	-2095
1007.225	-942
1007.299	-1972
1007.373	-1527
1007.448	-1759
1007.522	-1277
1007.596	-1759
1007.671	-1360
1007.745	-1924
1007.819	-2349
1007.893	-2013
1007.967	-1299
1008.041	-2139
1008.115	-1265
1008.190	-2913
1008.264	-1040
1008.338	-2787
1008.412	-1805
1008.486	-2298
1008.560	-2042
1008.633	-1935
1008.707	-2535
1008.781	-1646
1008.855	-1716
1008.929	-1717
1009.003	-1425
1009.076	-1985
1009.150	-1524
1009.224	-2262
1009.298	-1020
1009.371	-2657
1009.445	-1417
1009.519	-2411
1009.592	-2198
1009.666	-2188
1009.739	-1963
1009.813	-3234
1009.886	-1018
1009.960	-2608
1010.033	-685
1010.107	-2100
1010.180	-2068
1010.253	-2418
1010.327	-2594
1010.400	-3082
1010.473	-2060
1010.547	-610
1010.620	-2634
1010.693	-2127
1010.766	-2310
1010.840	-2177
1010.913	-1706
1010.986	-2513
1011.059	-1390
1011.132	-1987
1011.205	-1582
1011.278	-2361
1011.351	-1705
1011.424	-2510
1011.497	-1325
1011.570	-1709
1011.643	-1950
1011.716	-2738
1011.789	-2455
1011.862	-2423
1011.934	-1437
1012.007	-3412
1012.080	-1723
1012.153	-1680
1012.225	-1157
1012.298	-2977
1012.371	-2367
1012.443	-1911
1012.516	-1928
1012.588	-2073
1012.661	-1432
1012.733	-2719
1012.806	-1822
1012.879	-3075
1012.951	-1897
1013.023	-2592
1013.096	-1115
1013.168	-2630
1013.241	-869
1013.313	-1525
1013.385	-2511
1013.458	-1727
1013.530	-1440
1013.602	-3201
1013.674	-2039
1013.746	-3003
1013.819	-2802
1013.891	-1522
1013.963	-2372
1014.035	-2832
1014.107	-2072
1014.179	-2820
1014.251	-2434
1014.323	-1651
1014.395	-1506
1014.467	-2067
1014.539	-2365
1014.611	-2884
1014.683	-1935
1014.754	-2371
1014.826	-2132
1014.898	-2374
1014.970	-2992
1015.042	-2264
1015.113	-1696
1015.185	-1644
1015.257	-1799
1015.328	-2765
1015.400	-2388
1015.471	-2681
1015.543	-2496
1015.615	-1992
1015.686	-2307
1015.757	-2624
1015.829	-2153
1015.901	-3109
1015.972	-2259
1016.043	-3001
1016.115	-2179
1016.186	-2344
1016.257	-2719
1016.328	-2038
1016.400	-1767
1016.471	-3531
1016.542	-2266
1016.613	-2004
1016.685	-1271
1016.756	-1830
1016.827	-1840
1016.898	-2787
1016.969	-1317
1017.040	-3218
1017.111	-1890
1017.182	-2878
1017.253	-1115
1017.324	-3330
1017.395	-2816
1017.466	-2694
1017.537	-1872
1017.608	-2794
1017.678	-1759
1017.749	-3185
1017.820	-2117
1017.891	-2979
1017.961	-2144
1018.032	-2294
1018.103	-1315
1018.173	-1871
1018.244	-2243
1018.315	-2364
1018.385	-1217
1018.456	-2634
1018.526	-3016
1018.597	-3024
1018.667	-1446
1018.738	-2569
1018.808	-2042
1018.878	-2574
1018.949	-2255
1019.019	-2489
1019.089	-1369
1019.160	-2900
1019.230	-2154
1019.300	-2409
1019.371	-2528
1019.441	-2788
1019.511	-1788
1019.581	-2787
1019.651	-1261
1019.721	-2021
1019.791	-2428
1019.861	-2325
1019.931	-1893
1020.001	-3353
1020.071	-2193
1020.141	-1821
1020.211	-2287
1020.281	-3011
1020.351	-2397
1020.421	-2268
1020.491	-1943
1020.560	-2227
1020.630	-2458
1020.700	-3463
1020.770	-2356
1020.839	-2682
1020.909	-1715
1020.979	-2332
1021.048	-2886
1021.118	-2773
1021.187	-2040
1021.257	-2857
1021.326	-1888
1021.396	-2682
1021.465	-1229
1021.535	-2473
1021.604	-2359
1021.674	-2626
1021.743	-2709
1021.812	-2948
1021.882	-2133
1021.951	-2435
1022.020	-1649
1022.089	-1718
1022.159	-2003
1022.228	-1696
1022.297	-1582
1022.366	-2540
1022.435	-2401
1022.504	-2024
1022.573	-2519
1022.642	-2584
1022.711	-2435
1022.781	-2185
1022.849	-1832
1022.918	-2708
1022.987	-2257
1023.056	-2353
1023.125	-2086
1023.194	-2767
1023.263	-1859
1023.331	-2721
1023.400	-2892
1023.469	-2048
1023.538	-1922
1023.606	-2699
1023.675	-2271
1023.744	-2141
1023.812	-1401
1023.881	-2151
1023.949	-2350
1024.018	-1998
1024.086	-1776
1024.155	-3317
1024.223	-1786
1024.292	-2492
1024.360	-1451
1024.429	-3045
1024.497	-3145
1024.565	-2441
1024.634	-1607
1024.702	-2768
1024.770	-2267
1024.838	-2783
1024.907	-2600
1024.975	-2005
1025.043	-2016
1025.111	-2859
1025.179	-1986
1025.247	-2487
1025.315	-2639
1025.383	-2710
1025.451	-1612
1025.519	-2489
1025.587	-2280
1025.655	-2857
1025.723	-2305
1025.791	-2160
1025.859	-2213
1025.927	-1871
1025.995	-1900
1026.062	-2100
1026.130	-1405
1026.198	-2783
1026.266	-2591
1026.333	-2268
1026.401	-2065
1026.469	-2418
1026.536	-2240
1026.604	-2613
1026.671	-2758
1026.739	-2853
1026.806	-1753
1026.874	-3064
1026.941	-1964
1027.009	-2360
1027.076	-2231
1027.144	-1945
1027.211	-1965
1027.278	-3168
1027.345	-1409
1027.413	-2478
1027.480	-1897
1027.547	-2121
1027.614	-1889
1027.682	-2631
1027.749	-1960
1027.816	-2571
1027.883	-1949
1027.950	-3073
1028.017	-2289
1028.084	-1810
1028.151	-2907
1028.218	-2449
1028.285	-1589
1028.352	-2384
1028.419	-2050
1028.486	-2175
1028.553	-1852
1028.619	-2359
1028.686	-1728
1028.753	-2057
1028.820	-2379
1028.886	-2015
1028.953	-1574
1029.020	-2226
1029.086	-2258
1029.153	-3152
1029.220	-2552
1029.286	-3072
1029.353	-1615
1029.419	-2863
1029.486	-2009
1029.552	-2533
1029.619	-3027
1029.685	-2400
1029.751	-2568
1029.818	-2043
1029.884	-1972
1029.951	-1760
1030.017	-2115
1030.083	-2739
1030.149	-2604
1030.216	-3005
1030.282	-2139
1030.348	-3059
1030.414	-2104
1030.480	-2827
1030.546	-2318
1030.612	-1926
1030.678	-2823
1030.744	-3340
1030.810	-2696
1030.876	-2835
1030.942	-2098
1031.008	-3378
1031.074	-2553
1031.140	-2135
1031.206	-1422
1031.272	-2874
1031.337	-1639
1031.403	-2548
1031.469	-2439
1031.534	-2097
1031.600	-1849
1031.666	-3200
1031.731	-2011
1031.797	-2671
1031.863	-2050
1031.928	-2588
1031.994	-2116
1032.059	-2214
1032.125	-1781
1032.190	-3772
1032.256	-2235
1032.321	-2872
1032.386	-2505
1032.452	-2510
1032.517	-3323
1032.582	-2283
1032.647	-3055
1032.713	-2815
1032.778	-1107
1032.843	-2158
1032.908	-2628
1032.974	-3020
1033.039	-2324
1033.104	-1847
1033.169	-2487
1033.234	-2222
1033.299	-2143
1033.364	-2239
1033.429	-1856
1033.494	-3082
1033.559	-2364
1033.624	-2788
1033.688	-2042
1033.753	-2973
1033.818	-2084
1033.883	-2315
1033.948	-1830
1034.013	-2298
1034.077	-1574
1034.142	-1752
1034.207	-1087
1034.271	-957
1034.336	-352
1034.400	-1681
1034.465	-1965
1034.530	-2967
1034.594	-1908
1034.658	-2590
1034.723	-2745
1034.787	-2252
1034.852	-2463
1034.916	-2459
1034.981	-3198
1035.045	-1932
1035.109	-1329
1035.173	-2985
1035.238	-2045
1035.302	-2277
1035.366	-1908
1035.430	-3092
1035.495	-2432
1035.559	-2442
1035.623	-1516
1035.687	-3453
1035.751	-2249
1035.815	-2842
1035.879	-2271
1035.943	-3165
1036.007	-2394
1036.071	-3033
1036.135	-2697
1036.198	-2700
1036.262	-2238
1036.326	-2882
1036.390	-1911
1036.454	-2483
1036.517	-1709
1036.581	-3303
1036.645	-2360
1036.709	-1792
1036.772	-2582
1036.836	-3059
1036.900	-2148
1036.963	-2846
1037.026	-2743
1037.090	-2821
1037.154	-1720
1037.217	-2460
1037.280	-2887
1037.344	-3154
1037.407	-2709
1037.471	-3300
1037.534	-2485
1037.597	-2634
1037.661	-2176
1037.724	-3061
1037.787	-1920
1037.850	-2959
1037.913	-3148
1037.977	-2192
1038.040	-1904
1038.103	-2957
1038.166	-2398
1038.229	-2761
1038.292	-3189
1038.355	-2544
1038.418	-2523
1038.481	-2773
1038.544	-2405
1038.607	-2579
1038.670	-2543
1038.732	-2826
1038.795	-2078
1038.858	-3503
1038.921	-2394
1038.984	-2039
1039.046	-2989
1039.109	-3430
1039.172	-2461
1039.234	-3235
1039.297	-2594
1039.360	-2750
1039.422	-1816
1039.485	-2217
1039.547	-2851
1039.610	-2577
1039.672	-3383
1039.734	-2752
1039.797	-2629
1039.859	-1618
1039.922	-2620
1039.984	-3404
1040.046	-2431
1040.109	-2955
1040.171	-2834
1040.233	-2274
1040.295	-2581
1040.358	-2749
1040.420	-2377
1040.482	-3472
1040.544	-2961
1040.606	-2396
1040.668	-2105
1040.730	-2835
1040.792	-3082
1040.854	-2629
1040.916	-2704
1040.978	-3517
1041.040	-2947
1041.102	-3117
1041.164	-2711
1041.225	-2853
1041.287	-1765
1041.349	-2125
1041.411	-2304
1041.472	-2993
1041.534	-2437
1041.596	-2935
1041.657	-2129
1041.719	-2919
1041.781	-2916
1041.842	-2925
1041.904	-2255
1041.965	-3041
1042.027	-2338
1042.088	-3472
1042.150	-2785
1042.211	-2452
1042.272	-1388
1042.334	-2913
1042.395	-2151
1042.456	-3623
1042.518	-2345
1042.579	-2940
1042.640	-2971
1042.701	-3274
1042.763	-2840
1042.824	-2974
1042.885	-2489
1042.946	-2821
1043.007	-2443
1043.068	-2870
1043.129	-1720
1043.190	-2818
1043.251	-2105
1043.312	-2789
1043.373	-2280
1043.434	-2581
1043.495	-1843
1043.556	-2990
1043.616	-2885
1043.677	-3288
1043.738	-1942
1043.799	-3107
1043.859	-1581
1043.920	-2345
1043.981	-3207
1044.041	-2415
1044.102	-2535
1044.162	-2693
1044.223	-2056
1044.284	-2885
1044.344	-1956
1044.405	-3471
1044.465	-2574
1044.525	-3213
1044.586	-2342
1044.646	-2705
1044.707	-1579
1044.767	-3952
1044.827	-2135
1044.887	-2448
1044.948	-2053
1045.008	-2633
1045.068	-1639
1045.128	-2380
1045.188	-1790
1045.249	-2359
1045.309	-1963
1045.369	-2594
1045.429	-2463
1045.489	-2790
1045.549	-2018
1045.609	-2564
1045.669	-2840
1045.729	-2731
1045.789	-2074
1045.848	-2337
1045.908	-2100
1045.968	-2353
1046.028	-2445
1046.088	-1800
1046.147	-1743
1046.207	-2827
1046.267	-1962
1046.326	-2340
1046.386	-1686
1046.446	-1061
1046.505	-902
1046.565	-1586
1046.624	-1538
1046.684	-1134
1046.743	-1105
1046.803	-1407
1046.862	-867
1046.922	0
