'Start Wavelength	183.907
'End Wavelength	1046.922
'Gate Delay	5.000
'Gate Width (ms)	1.050
'Laser Output Level	0.000
'X Position	0.000
'Y Position	0.000
'Z Position	0.000
'Grid Point Number	1.000
'Shot Number	100.000
183.907	-141.000
183.977	-645.000
184.047	217
184.116	893
184.186	-201
184.256	-290
184.325	9
184.395	-664
184.465	469
184.534	-75
184.604	6
184.674	285
184.743	-271
184.813	320
184.883	163
184.952	209
185.022	106
185.092	-184
185.161	-510
185.231	-473
185.301	-341
185.370	101
185.440	-382
185.509	131
185.579	378
185.649	-25
185.718	588
185.788	-686
185.857	582
185.927	-308
185.996	-99
186.066	291
186.136	-1150
186.205	541
186.275	256
186.344	-485
186.414	-228
186.483	-391
186.553	1130
186.622	374
186.692	11
186.761	96
186.831	-387
186.900	-194
186.970	291
187.039	-403
187.109	355
187.178	-2
187.248	1
187.317	-267
187.387	301
187.456	307
187.526	523
187.595	60
187.664	114
187.734	-321
187.803	-77
187.873	-352
187.942	427
188.012	-230
188.081	149
188.150	-255
188.220	-194
188.289	253
188.358	-169
188.428	784
188.497	-393
188.567	231
188.636	145
188.705	-166
188.775	594
188.844	-639
188.913	111
188.983	-85
189.052	-758
189.121	-658
189.191	23
189.260	371
189.329	-229
189.399	-609
189.468	272
189.537	170
189.606	307
189.676	717
189.745	294
189.814	-451
189.883	-130
189.953	-143
190.022	582
190.091	687
190.161	1349
190.230	938
190.299	31
190.368	-631
190.437	-339
190.507	206
190.576	7
190.645	324
190.714	-814
190.783	-1026
190.853	191
190.922	737
190.991	-77
191.060	132
191.129	316
191.198	-26
191.268	466
191.337	-477
191.406	1023
191.475	-206
191.544	-471
191.613	656
191.682	-274
191.752	455
191.821	-8
191.890	-453
191.959	-179
192.028	-386
192.097	106
192.166	-34
192.235	38
192.304	270
192.373	105
192.442	28
192.511	181
192.580	100
192.650	1079
192.719	-228
192.788	26
192.857	-82
192.926	41
192.995	-131
193.064	-534
193.133	-290
193.202	-134
193.271	379
193.340	44
193.409	1434
193.478	712
193.547	205
193.615	1311
193.684	772
193.753	626
193.822	1099
193.891	493
193.960	253
194.029	213
194.098	416
194.167	-685
194.236	330
194.305	182
194.374	-102
194.443	-111
194.512	-96
194.580	764
194.649	-486
194.718	327
194.787	-158
194.856	-20
194.925	647
194.994	545
195.062	240
195.131	-7
195.200	561
195.269	257
195.338	391
195.407	19
195.475	282
195.544	842
195.613	-154
195.682	-136
195.751	272
195.819	-78
195.888	374
195.957	1137
196.026	237
196.094	1036
196.163	220
196.232	509
196.301	473
196.369	716
196.438	411
196.507	257
196.576	471
196.644	870
196.713	65
196.782	227
196.850	503
196.919	458
196.988	70
197.056	89
197.125	248
197.194	770
197.262	577
197.331	-334
197.400	9
197.468	227
197.537	-548
197.606	300
197.674	884
197.743	732
197.812	-296
197.880	854
197.949	11
198.017	874
198.086	458
198.155	223
198.223	259
198.292	1210
198.360	648
198.429	509
198.497	170
198.566	1154
198.635	1321
198.703	2
198.772	483
198.840	632
198.909	648
198.977	408
199.046	-149
199.114	-485
199.183	-220
199.251	528
199.320	227
199.388	-10
199.457	-264
199.525	600
199.594	809
199.662	332
199.731	260
199.799	552
199.867	428
199.936	334
200.004	433
200.073	-38
200.141	-49
200.210	-378
200.278	656
200.346	375
200.415	-337
200.483	955
200.552	848
200.620	61
200.688	201
200.757	381
200.825	-35
200.893	586
200.962	131
201.030	-569
201.098	-232
201.167	422
201.235	-109
201.303	671
201.372	1441
201.440	-46
201.508	254
201.577	768
201.645	286
201.713	295
201.781	123
201.850	1148
201.918	844
201.986	-49
202.055	276
202.123	-30
202.191	239
202.259	353
202.327	-49
202.396	51
202.464	203
202.532	138
202.600	1411
202.669	1325
202.737	899
202.805	-815
202.873	936
202.941	483
203.009	-304
203.078	435
203.146	455
203.214	-123
203.282	-176
203.350	956
203.418	264
203.487	584
203.555	85
203.623	-250
203.691	865
203.759	55
203.827	-162
203.895	-112
203.963	71
204.031	357
204.099	279
204.168	260
204.236	614
204.304	774
204.372	72
204.440	402
204.508	704
204.576	359
204.644	283
204.712	-7
204.780	672
204.848	311
204.916	-340
204.984	240
205.052	-128
205.120	-192
205.188	92
205.256	112
205.324	-901
205.392	311
205.460	1331
205.528	421
205.596	434
205.664	343
205.732	378
205.799	891
205.867	2565
205.935	-100
206.003	957
206.071	-9
206.139	96
206.207	905
206.275	302
206.343	166
206.411	16
206.478	354
206.546	184
206.614	104
206.682	-909
206.750	600
206.818	638
206.885	1357
206.953	-42
207.021	1472
207.089	-102
207.157	242
207.225	616
207.292	123
207.360	399
207.428	266
207.496	51
207.563	696
207.631	609
207.699	-58
207.767	318
207.834	-148
207.902	94
207.970	-114
208.038	547
208.105	584
208.173	38
208.241	544
208.309	1089
208.376	42
208.444	1311
208.512	728
208.579	-334
208.647	524
208.715	1277
208.782	-91
208.850	940
208.918	720
208.985	579
209.053	369
209.120	282
209.188	141
209.256	311
209.323	-167
209.391	347
209.459	1702
209.526	738
209.594	364
209.661	741
209.729	825
209.796	296
209.864	634
209.932	-652
209.999	1711
210.067	423
210.134	1093
210.202	578
210.269	1539
210.337	1709
210.404	757
210.472	333
210.539	909
210.607	667
210.674	178
210.742	399
210.809	893
210.877	153
210.944	823
211.012	-618
211.079	1783
211.146	704
211.214	661
211.281	281
211.349	1467
211.416	654
211.484	59
211.551	60
211.618	597
211.686	148
211.753	308
211.821	477
211.888	1167
211.955	627
212.023	750
212.090	641
212.157	1069
212.225	819
212.292	1504
212.359	2080
212.427	6292
212.494	3476
212.561	1676
212.629	34
212.696	1133
212.763	901
212.831	587
212.898	922
212.965	412
213.032	578
213.100	1011
213.167	200
213.234	982
213.301	859
213.369	965
213.436	150
213.503	-39
213.570	629
213.638	1718
213.705	294
213.772	-171
213.839	660
213.906	1615
213.973	147
214.041	-184
214.108	1083
214.175	413
214.242	804
214.309	729
214.376	848
214.444	359
214.511	16
214.578	1075
214.645	1259
214.712	984
214.779	413
214.846	601
214.913	2089
214.980	1136
215.048	1477
215.115	1876
215.182	1728
215.249	1908
215.316	125
215.383	1127
215.450	1169
215.517	848
215.584	163
215.651	654
215.718	929
215.785	758
215.852	184
215.919	1793
215.986	522
216.053	853
216.120	493
216.187	978
216.254	629
216.321	1270
216.388	832
216.455	861
216.522	1225
216.589	1555
216.656	2283
216.722	2489
216.789	1718
216.856	1143
216.923	1474
216.990	1701
217.057	1155
217.124	1865
217.191	814
217.258	2303
217.324	2545
217.391	2924
217.458	1617
217.525	1237
217.592	1127
217.659	568
217.725	2113
217.792	917
217.859	2221
217.926	168
217.993	146
218.059	361
218.126	1063
218.193	-60
218.260	754
218.327	-240
218.393	-320
218.460	351
218.527	197
218.594	525
218.660	1200
218.727	2166
218.794	415
218.860	1656
218.927	231
218.994	734
219.061	218
219.127	1495
219.194	2037
219.261	-24
219.327	-590
219.394	1153
219.461	-130
219.527	482
219.594	1062
219.661	656
219.727	-68
219.794	373
219.860	-445
219.927	263
219.994	672
220.060	2827
220.127	2560
220.193	1421
220.260	883
220.326	1618
220.393	2670
220.460	3235
220.526	2009
220.593	892
220.659	2722
220.726	436
220.792	3954
220.859	3038
220.925	4647
220.992	7310
221.058	5850
221.125	5370
221.191	4001
221.258	907
221.324	1238
221.391	723
221.457	354
221.524	786
221.590	1446
221.657	2957
221.723	2437
221.789	2792
221.856	2524
221.922	650
221.989	1096
222.055	656
222.121	-980
222.188	2111
222.254	597
222.321	1428
222.387	94
222.453	760
222.520	-347
222.586	19
222.652	740
222.719	163
222.785	207
222.851	162
222.918	180
222.984	1192
223.050	-252
223.116	-551
223.183	576
223.249	-642
223.315	-182
223.382	793
223.448	-45
223.514	-310
223.580	-93
223.647	-89
223.713	92
223.779	-160
223.845	148
223.911	815
223.978	-708
224.044	7
224.110	-433
224.176	436
224.242	-483
224.309	-282
224.375	-156
224.441	701
224.507	239
224.573	-525
224.639	1
224.705	-320
224.772	-236
224.838	-227
224.904	1026
224.970	84
225.036	559
225.102	-350
225.168	899
225.234	725
225.300	208
225.366	675
225.432	-379
225.499	69
225.565	-89
225.631	-106
225.697	661
225.763	1045
225.829	753
225.895	1526
225.961	1102
226.027	1299
226.093	1097
226.159	2617
226.225	2004
226.291	6042
226.357	10585
226.423	6094
226.489	2489
226.554	2770
226.620	2122
226.686	2188
226.752	3517
226.818	5128
226.884	12921
226.950	12303
227.016	4193
227.082	2265
227.148	1507
227.214	2046
227.279	2548
227.345	891
227.411	1488
227.477	2146
227.543	4450
227.609	4525
227.674	2258
227.740	1427
227.806	1203
227.872	1122
227.938	750
228.003	1845
228.069	767
228.135	147
228.201	802
228.267	98
228.332	636
228.398	114
228.464	704
228.530	-148
228.595	935
228.661	-411
228.727	598
228.792	2154
228.858	15
228.924	-780
228.990	1742
229.055	25
229.121	1725
229.187	423
229.252	-91
229.318	-74
229.384	420
229.449	970
229.515	-1560
229.581	-1503
229.646	1838
229.712	11
229.777	1270
229.843	2190
229.909	2077
229.974	1756
230.040	1872
230.105	951
230.171	-59
230.236	1885
230.302	2275
230.368	2786
230.433	911
230.499	1382
230.564	1610
230.630	-161
230.695	305
230.761	523
230.826	-862
230.892	2733
230.957	-283
231.023	-589
231.088	405
231.154	49
231.219	88
231.284	80
231.350	1463
231.415	-258
231.481	1211
231.546	208
231.612	624
231.677	-41
231.742	-253
231.808	1419
231.873	-291
231.939	-905
232.004	1899
232.069	1418
232.135	84
232.200	429
232.265	580
232.331	-236
232.396	-121
232.461	-283
232.527	-857
232.592	252
232.657	212
232.723	489
232.788	271
232.853	754
232.918	196
232.984	-853
233.049	75
233.114	540
233.179	1588
233.245	2207
233.310	2247
233.375	-454
233.440	1231
233.506	53
233.571	-70
233.636	850
233.701	443
233.766	852
233.832	1669
233.897	451
233.962	-418
234.027	2787
234.092	808
234.157	644
234.222	468
234.288	990
234.353	4840
234.418	5436
234.483	3620
234.548	1086
234.613	1860
234.678	1508
234.743	808
234.808	6066
234.873	2753
234.938	2262
235.004	151
235.069	961
235.134	-487
235.199	1500
235.264	640
235.329	-868
235.394	499
235.459	1380
235.524	-360
235.589	982
235.654	26
235.719	-738
235.784	699
235.849	1000
235.913	2171
235.978	2196
236.043	3713
236.108	710
236.173	-243
236.238	1408
236.303	176
236.368	226
236.433	1292
236.498	2740
236.563	2574
236.627	3069
236.692	15378
236.757	14695
236.822	5060
236.887	3862
236.952	2953
237.017	1155
237.081	2857
237.146	2614
237.211	6832
237.276	14464
237.341	25058
237.405	13047
237.470	4844
237.535	3657
237.600	2054
237.664	1941
237.729	353
237.794	531
237.859	5007
237.923	3172
237.988	1349
238.053	1985
238.118	2277
238.182	6039
238.247	6736
238.312	2368
238.376	1565
238.441	325
238.506	2198
238.570	163
238.635	2178
238.700	385
238.764	175
238.829	2935
238.893	3469
238.958	1531
239.023	958
239.087	1031
239.152	1675
239.216	631
239.281	299
239.346	995
239.410	721
239.475	438
239.539	6422
239.604	5688
239.668	1812
239.733	1391
239.797	1725
239.862	7883
239.926	7639
239.991	3616
240.055	1000
240.120	121
240.184	1065
240.249	625
240.313	-47
240.378	1438
240.442	3044
240.507	7442
240.571	1853
240.635	2507
240.700	3793
240.764	1652
240.829	829
240.893	-519
240.957	1042
241.022	3465
241.086	6933
241.151	3357
241.215	-14
241.279	1851
241.344	2457
241.408	2267
241.472	376
241.537	1414
241.601	1210
241.665	-701
241.730	75
241.794	685
241.858	404
241.922	345
241.987	642
242.051	913
242.115	-420
242.179	423
242.244	317
242.308	1364
242.372	1717
242.436	390
242.501	629
242.565	33
242.629	778
242.693	1422
242.757	-379
242.822	153
242.886	750
242.950	1149
243.014	-20
243.078	917
243.142	1790
243.206	-325
243.271	1026
243.335	446
243.399	1358
243.463	5961
243.527	20720
243.591	7695
243.655	2471
243.719	910
243.783	2155
243.847	3085
243.911	3002
243.975	4146
244.040	3971
244.104	2689
244.168	631
244.232	2101
244.296	3701
244.360	2706
244.424	1502
244.488	951
244.552	2204
244.615	-451
244.679	1262
244.743	1308
244.807	1328
244.871	997
244.935	635
244.999	-281
245.063	1255
245.127	1810
245.191	2751
245.255	1642
245.319	1719
245.383	905
245.446	1929
245.510	521
245.574	758
245.638	1956
245.702	363
245.766	4351
245.829	3364
245.893	266
245.957	543
246.021	1851
246.085	696
246.149	1956
246.212	5726
246.276	7933
246.340	3828
246.404	2677
246.467	1927
246.531	2671
246.595	2335
246.659	2215
246.722	418
246.786	3662
246.850	2390
246.913	3848
246.977	328
247.041	1517
247.104	2201
247.168	1777
247.232	5421
247.295	11073
247.359	6379
247.423	2515
247.486	4383
247.550	3929
247.614	1122
247.677	3761
247.741	1711
247.804	1467
247.868	1971
247.932	3717
247.995	11145
248.059	4196
248.122	1124
248.186	3103
248.249	4038
248.313	15516
248.376	18767
248.440	12245
248.503	4044
248.567	4813
248.630	4781
248.694	7082
248.757	9595
248.821	17936
248.884	12621
248.948	8772
249.011	13890
249.075	20304
249.138	20233
249.202	8495
249.265	3929
249.328	5178
249.392	3435
249.455	3135
249.519	1576
249.582	3778
249.645	5873
249.709	4980
249.772	2851
249.835	3417
249.899	3037
249.962	2398
250.025	1459
250.089	5468
250.152	9287
250.215	4773
250.279	3164
250.342	3247
250.405	2619
250.468	2767
250.532	3196
250.595	6179
250.658	16236
250.721	34759
250.785	12407
250.848	7364
250.911	2843
250.974	4175
251.038	3857
251.101	10924
251.164	5500
251.227	5808
251.290	4918
251.354	7397
251.417	25049
251.480	29203
251.543	16550
251.606	47308
251.669	40129
251.732	14518
251.795	14605
251.859	14813
251.922	30596
251.985	21618
252.048	7806
252.111	5615
252.174	5079
252.237	10582
252.300	22113
252.363	21588
252.426	43774
252.489	19161
252.552	10318
252.615	6569
252.678	6977
252.741	15513
252.804	19128
252.867	42911
252.930	28350
252.993	14863
253.056	9683
253.119	6470
253.182	5232
253.245	7508
253.308	6873
253.371	5895
253.434	6326
253.497	6091
253.559	10908
253.622	8972
253.685	9451
253.748	11915
253.811	4915
253.874	6040
253.937	5385
254.000	4337
254.062	6073
254.125	11793
254.188	10262
254.251	10696
254.314	4658
254.376	9005
254.439	11013
254.502	8560
254.565	7696
254.628	15105
254.690	9374
254.753	4983
254.816	3581
254.878	5070
254.941	7856
255.004	8888
255.067	4107
255.129	3491
255.192	2730
255.255	1193
255.317	2469
255.380	1676
255.443	666
255.505	1012
255.568	794
255.631	1787
255.693	1986
255.756	867
255.819	1638
255.881	694
255.944	324
256.006	1218
256.069	977
256.132	761
256.194	1855
256.257	6164
256.319	3978
256.382	3591
256.444	2778
256.507	1849
256.569	1231
256.632	732
256.694	2919
256.757	8126
256.819	26140
256.882	11505
256.944	3639
257.007	4235
257.069	3923
257.132	2241
257.194	1780
257.257	1076
257.319	1318
257.381	1956
257.444	6448
257.506	26951
257.569	36566
257.631	20003
257.693	10006
257.756	3938
257.818	3181
257.880	2547
257.943	1893
258.005	1528
258.067	1503
258.130	1285
258.192	1771
258.254	5798
258.317	2890
258.379	2481
258.441	5161
258.503	6318
258.566	6182
258.628	11711
258.690	2724
258.753	2496
258.815	5937
258.877	3451
258.939	1323
259.001	1475
259.064	1794
259.126	904
259.188	3047
259.250	2171
259.312	1728
259.375	8329
259.437	6231
259.499	2280
259.561	2086
259.623	1695
259.685	1674
259.747	1842
259.809	6512
259.872	15622
259.934	19692
259.996	21776
260.058	5531
260.120	2426
260.182	1331
260.244	1181
260.306	1124
260.368	2216
260.430	800
260.492	3891
260.554	8861
260.616	6859
260.678	8955
260.740	15956
260.802	4113
260.864	3598
260.926	1586
260.988	2986
261.050	1813
261.112	5730
261.174	16196
261.236	14128
261.298	3449
261.359	5420
261.421	10306
261.483	2608
261.545	1840
261.607	676
261.669	1077
261.731	3291
261.793	10622
261.854	4197
261.916	3364
261.978	2323
262.040	2887
262.102	1287
262.164	3307
262.225	3073
262.287	1051
262.349	4843
262.411	4556
262.472	2542
262.534	2127
262.596	9937
262.658	2390
262.719	318
262.781	3627
262.843	8135
262.904	4271
262.966	2744
263.028	2612
263.090	12425
263.151	39043
263.213	13974
263.275	7714
263.336	2995
263.398	2675
263.459	515
263.521	1473
263.583	6238
263.644	4031
263.706	1406
263.767	356
263.829	1055
263.891	167
263.952	665
264.014	743
264.075	1705
264.137	8063
264.198	4577
264.260	778
264.321	1185
264.383	4018
264.444	11786
264.506	4078
264.567	2400
264.629	3910
264.690	8416
264.752	3778
264.813	2169
264.875	603
264.936	1653
264.998	1385
265.059	379
265.120	1477
265.182	1886
265.243	11272
265.305	15397
265.366	4389
265.427	2750
265.489	1283
265.550	552
265.611	516
265.673	1618
265.734	1490
265.795	1432
265.857	508
265.918	1096
265.979	3709
266.040	19872
266.102	20133
266.163	5839
266.224	4676
266.286	2259
266.347	1023
266.408	1454
266.469	1727
266.530	815
266.592	322
266.653	1996
266.714	6606
266.775	2136
266.836	465
266.898	475
266.959	1533
267.020	2091
267.081	2193
267.142	506
267.203	119
267.264	-786
267.326	1496
267.387	526
267.448	-18
267.509	450
267.570	985
267.631	1786
267.692	113
267.753	1106
267.814	941
267.875	2030
267.936	7533
267.997	3161
268.058	3130
268.119	1482
268.180	750
268.241	1353
268.302	744
268.363	820
268.424	1415
268.485	1263
268.546	445
268.607	461
268.668	419
268.729	117
268.790	841
268.851	1726
268.912	4208
268.972	6866
269.033	2716
269.094	807
269.155	1022
269.216	701
269.277	1108
269.338	944
269.398	541
269.459	1297
269.520	1834
269.581	3677
269.642	4679
269.702	2334
269.763	1555
269.824	1017
269.885	1684
269.945	3866
270.006	1013
270.067	200
270.128	979
270.188	333
270.249	612
270.310	413
270.370	969
270.431	63
270.492	329
270.553	829
270.613	3368
270.674	9074
270.734	3409
270.795	1525
270.856	2501
270.916	1456
270.977	431
271.038	2094
271.098	2231
271.159	3486
271.219	2879
271.280	981
271.340	1357
271.401	412
271.462	4534
271.522	3524
271.583	1133
271.643	1502
271.704	977
271.764	1765
271.825	4831
271.885	17570
271.946	24368
272.006	8825
272.066	9689
272.127	18267
272.187	7308
272.248	3513
272.308	2569
272.369	10827
272.429	7268
272.489	5021
272.550	5636
272.610	5944
272.671	4786
272.731	3391
272.791	6208
272.852	4111
272.912	3310
272.972	2116
273.033	1780
273.093	2986
273.153	4074
273.214	2225
273.274	2116
273.334	8148
273.394	19846
273.455	9147
273.515	6812
273.575	17772
273.635	8485
273.696	7837
273.756	17188
273.816	8140
273.876	4274
273.936	6508
273.997	16710
274.057	4213
274.117	3927
274.177	5051
274.237	20430
274.297	20298
274.358	13042
274.418	14422
274.478	12375
274.538	5105
274.598	2647
274.658	10944
274.718	16976
274.778	7029
274.838	3129
274.898	4038
274.958	22339
275.018	17683
275.078	11681
275.138	5335
275.198	2076
275.258	1672
275.318	2095
275.378	5669
275.438	6654
275.498	5037
275.558	8670
275.618	20931
275.678	13468
275.738	8140
275.798	6782
275.858	2641
275.918	504
275.978	2385
276.038	2514
276.098	1448
276.157	3586
276.217	14388
276.277	6693
276.337	4840
276.397	2972
276.457	3078
276.517	1362
276.576	1353
276.636	1479
276.696	2245
276.756	7841
276.815	6540
276.875	2574
276.935	3813
276.995	3014
277.055	2000
277.114	824
277.174	2359
277.234	10731
277.293	5729
277.353	1842
277.413	2424
277.472	1584
277.532	2456
277.592	2248
277.651	8714
277.711	20595
277.771	6623
277.830	21131
277.890	21775
277.950	11010
278.009	35731
278.069	15625
278.128	12929
278.188	21788
278.248	9274
278.307	20915
278.367	15652
278.426	3410
278.486	2035
278.545	1438
278.605	1975
278.664	1960
278.724	2121
278.783	5238
278.843	17320
278.902	5809
278.962	2822
279.021	3352
279.081	4313
279.140	3660
279.199	2674
279.259	3420
279.318	4056
279.378	5425
279.437	8965
279.496	28842
279.556	86403
279.615	84007
279.675	21836
279.734	11459
279.793	14602
279.853	22309
279.912	10069
279.971	5492
280.031	4945
280.090	9216
280.149	17500
280.208	12769
280.268	57772
280.327	72981
280.386	16784
280.445	11509
280.505	11646
280.564	5716
280.623	4354
280.682	5366
280.742	10637
280.801	3725
280.860	2414
280.919	1569
280.978	1786
281.037	1251
281.097	1637
281.156	1868
281.215	2512
281.274	1963
281.333	9874
281.392	10812
281.451	1646
281.510	1269
281.569	1642
281.628	1320
281.688	903
281.747	1778
281.806	1581
281.865	1151
281.924	579
281.983	327
282.042	729
282.101	920
282.160	1260
282.219	1071
282.278	1711
282.337	5956
282.396	5658
282.454	2289
282.513	2555
282.572	11031
282.631	7690
282.690	1935
282.749	1357
282.808	2114
282.867	2056
282.926	2441
282.985	1314
283.043	861
283.102	1397
283.161	785
283.220	3925
283.279	12513
283.338	3412
283.396	1510
283.455	1683
283.514	1595
283.573	3997
283.631	3465
283.690	1279
283.749	1559
283.808	4559
283.866	6146
283.925	1307
283.984	1819
284.043	2774
284.101	3039
284.160	1961
284.219	2713
284.277	3374
284.336	4818
284.395	14520
284.453	14128
284.512	5072
284.570	5507
284.629	5977
284.688	4934
284.746	5808
284.805	6512
284.863	9253
284.922	12063
284.981	14084
285.039	18899
285.098	31486
285.156	64050
285.215	92360
285.273	88293
285.332	76064
285.390	42817
285.449	27218
285.507	18654
285.566	14731
285.624	10174
285.683	7871
285.741	5283
285.799	5288
285.858	4712
285.916	4407
285.975	2699
286.033	2147
286.091	2658
286.150	1661
286.208	2928
286.267	2868
286.325	2667
286.383	4403
286.442	4153
286.500	2195
286.558	1512
286.616	1660
286.675	2722
286.733	2691
286.791	2503
286.850	2326
286.908	3411
286.966	6023
287.024	2881
287.083	2308
287.141	1904
287.199	1708
287.257	2364
287.315	2739
287.374	1822
287.432	5816
287.490	4132
287.548	1820
287.606	1471
287.664	971
287.723	2184
287.781	4114
287.839	2286
287.897	1621
287.955	1770
288.013	4119
288.071	8498
288.129	31764
288.187	105901
288.245	52464
288.303	14354
288.361	7653
288.419	5332
288.477	3411
288.535	3511
288.593	2677
288.651	2415
288.709	1174
288.767	566
288.825	1186
288.883	1292
288.941	1093
288.999	911
289.057	831
289.115	454
289.173	1415
289.231	1661
289.289	1063
289.346	1418
289.404	1824
289.462	2673
289.520	3724
289.578	881
289.636	34
289.694	553
289.751	-657
289.809	263
289.867	489
289.925	1511
289.983	1617
290.040	666
290.098	181
290.156	873
290.214	2137
290.271	606
290.329	937
290.387	-120
290.444	842
290.502	-61
290.560	369
290.617	498
290.675	867
290.733	533
290.790	1024
290.848	636
290.906	1259
290.963	1872
291.021	1182
291.078	1106
291.136	500
291.194	4199
291.251	13756
291.309	4156
291.366	826
291.424	481
291.481	2311
291.539	298
291.596	1504
291.654	-88
291.711	-208
291.769	963
291.826	3021
291.884	2415
291.941	188
291.999	985
292.056	1700
292.114	868
292.171	738
292.228	709
292.286	1958
292.343	3882
292.401	6282
292.458	4104
292.515	2394
292.573	2845
292.630	2195
292.687	2126
292.745	1261
292.802	2223
292.859	6839
292.917	12548
292.974	8570
293.031	2448
293.089	1319
293.146	1198
293.203	1235
293.260	509
293.318	1141
293.375	2971
293.432	1437
293.489	796
293.546	1316
293.604	1785
293.661	5997
293.718	17745
293.775	10398
293.832	5524
293.889	3481
293.947	3301
294.004	2432
294.061	2425
294.118	5127
294.175	13322
294.232	17575
294.289	7762
294.346	3315
294.403	2839
294.460	2885
294.517	1585
294.574	1731
294.631	1953
294.688	1986
294.745	4770
294.802	19273
294.859	26107
294.916	10621
294.973	5730
295.030	3941
295.087	3766
295.144	2330
295.201	2610
295.258	1428
295.315	1841
295.372	6972
295.429	15567
295.486	7304
295.542	3332
295.599	9053
295.656	19517
295.713	12267
295.770	15127
295.827	5724
295.883	2887
295.940	2891
295.997	3652
296.054	6164
296.111	2510
296.167	1661
296.224	344
296.281	758
296.338	1394
296.394	1786
296.451	546
296.508	5958
296.564	13914
296.621	8690
296.678	15052
296.734	25613
296.791	11251
296.848	4668
296.904	5230
296.961	11663
297.018	17147
297.074	14169
297.131	5545
297.187	3948
297.244	5073
297.301	13547
297.357	28126
297.414	11583
297.470	4459
297.527	2862
297.583	2540
297.640	2676
297.696	2049
297.753	1454
297.809	893
297.866	534
297.922	1007
297.979	663
298.035	814
298.092	3416
298.148	8964
298.204	9930
298.261	4330
298.317	6857
298.374	19341
298.430	13073
298.486	4437
298.543	3730
298.599	4057
298.656	4774
298.712	6441
298.768	14120
298.824	11198
298.881	4001
298.937	1992
298.993	2034
299.050	2714
299.106	2159
299.162	2494
299.218	2434
299.275	2179
299.331	2175
299.387	4266
299.443	16318
299.500	23483
299.556	11863
299.612	5016
299.668	4589
299.724	6429
299.780	9711
299.837	4797
299.893	5551
299.949	16960
300.005	24591
300.061	16809
300.117	28970
300.173	15203
300.229	6194
300.285	6534
300.341	9633
300.397	4543
300.453	3312
300.510	1961
300.566	3187
300.622	4395
300.678	13303
300.734	26145
300.790	18899
300.845	19967
300.901	13970
300.957	21779
301.013	17327
301.069	6069
301.125	3934
301.181	4536
301.237	2670
301.293	1945
301.349	1684
301.405	2275
301.461	1801
301.516	3977
301.572	3674
301.628	5522
301.684	5448
301.740	6969
301.796	13206
301.851	9028
301.907	13092
301.963	13301
302.019	17068
302.074	46127
302.130	51749
302.186	25465
302.242	10210
302.297	6642
302.353	6063
302.409	10838
302.464	11341
302.520	7566
302.576	18068
302.631	23616
302.687	14062
302.743	6216
302.798	3967
302.854	1764
302.910	2679
302.965	2768
303.021	7474
303.076	7309
303.132	8273
303.187	11232
303.243	5344
303.299	3060
303.354	1504
303.410	1994
303.465	741
303.521	1366
303.576	986
303.632	1861
303.687	4735
303.743	14146
303.798	14724
303.853	6046
303.909	2218
303.964	2545
304.020	4249
304.075	7629
304.130	7021
304.186	12460
304.241	14886
304.297	11277
304.352	6439
304.358	6119
304.407	3528
304.449	3641
304.463	3678
304.518	2891
304.539	2650
304.573	2267
304.629	1949
304.630	1995
304.684	4202
304.720	8429
304.739	10521
304.794	18906
304.811	16192
304.850	9487
304.902	4769
304.905	4481
304.960	2064
304.992	2091
305.015	2113
305.071	2781
305.083	2516
305.126	1576
305.173	1533
305.181	1530
305.236	1275
305.264	1560
305.292	1892
305.347	3369
305.354	3494
305.402	4203
305.445	3477
305.457	3294
305.512	4157
305.535	4384
305.567	4644
305.622	5093
305.626	5252
305.678	9676
305.716	16308
305.733	18264
305.788	23088
305.807	19771
305.843	14359
305.897	16822
305.898	16831
305.953	17376
305.988	12357
306.008	9845
306.063	7430
306.078	6684
306.118	4638
306.168	2716
306.173	2578
306.228	3010
306.259	2346
306.283	1921
306.338	2081
306.349	2156
306.393	2369
306.440	2506
306.448	2550
306.503	2787
306.530	2999
306.558	4577
306.613	11811
306.620	12871
306.668	19021
306.711	22998
306.723	22811
306.778	18361
306.801	13939
306.833	9325
306.888	4316
306.892	4030
306.943	1939
306.982	2214
306.997	2352
307.052	3081
307.072	2764
307.107	2680
307.162	4393
307.163	4406
307.217	6420
307.253	7942
307.272	8217
307.327	9520
307.343	8955
307.381	7429
307.434	5782
307.436	5999
307.491	13254
307.524	19783
307.546	20912
307.600	20681
307.614	18684
307.655	11827
307.704	5696
307.710	5545
307.765	6658
307.795	8054
307.819	9790
307.874	16825
307.885	17085
307.929	13210
307.975	9068
307.984	9162
308.038	11031
308.065	13299
308.093	23731
308.148	49597
308.156	55413
308.202	87092
308.246	111066
308.257	108125
308.312	60033
308.336	41411
308.366	32109
308.421	21825
308.426	20807
308.475	12944
308.517	8305
308.530	7690
308.585	6816
308.607	6608
308.639	6795
308.694	6948
308.697	7038
308.748	15108
308.787	22977
308.803	22495
308.857	16855
308.877	13787
308.912	11408
308.967	10467
308.967	10450
309.021	14574
309.058	18565
309.076	23568
309.130	40946
309.148	47344
309.185	81817
309.238	138375
309.239	138869
309.293	153282
309.328	147133
309.348	127984
309.402	61882
309.418	45235
309.457	32501
309.508	20031
309.511	19796
309.566	19001
309.598	19449
309.620	24410
309.674	39761
309.688	43734
309.729	41106
309.778	33112
309.783	32305
309.837	22052
309.868	16715
309.892	19829
309.946	29442
309.959	32324
310.001	41296
310.049	50016
310.055	48257
310.109	27732
310.139	16051
310.163	13080
310.218	8925
310.229	8247
310.272	6457
310.319	4198
310.326	4041
310.381	3829
310.409	3543
310.435	3457
310.489	3296
310.499	3290
310.543	3687
310.589	4157
310.598	4123
310.652	4011
310.679	3803
310.706	3485
310.760	2818
310.769	2725
310.814	2232
310.859	1618
310.868	1657
310.923	2097
310.948	2225
310.977	3022
311.031	4815
311.038	5058
311.085	5001
311.128	4629
311.139	4457
311.193	3513
311.218	3167
311.247	2975
311.301	2488
311.308	2424
311.356	2708
311.398	3031
311.410	2992
311.464	2712
311.488	2566
311.518	2668
311.572	2903
311.578	2917
311.626	4373
311.668	5746
311.680	5679
311.734	5179
311.758	4950
311.788	5487
311.842	6494
311.847	6580
311.896	6964
311.937	7290
311.950	7199
312.004	6738
312.027	6505
312.058	5425
312.112	3497
312.117	3301
312.165	3213
312.207	3136
312.297	5064
312.386	4721
312.476	4791
312.566	9900
312.656	4950
312.745	2996
312.835	2646
312.925	3893
313.015	3589
313.104	3838
313.194	2883
313.284	3463
313.374	5583
313.463	4812
313.553	2851
313.643	3482
313.732	2270
313.822	2606
313.912	3502
314.001	4575
314.091	4564
314.180	6910
314.270	5256
314.360	6557
314.449	4952
314.539	3881
314.628	3676
314.718	3984
314.808	5297
314.897	3576
314.987	4002
315.076	5059
315.166	6281
315.255	5849
315.345	4932
315.434	5350
315.524	5627
315.613	6058
315.703	8277
315.792	13424
315.881	41601
315.971	14542
316.060	11485
316.150	15439
316.239	16402
316.328	6806
316.418	3725
316.507	3044
316.597	5208
316.686	5831
316.775	7885
316.865	17317
316.954	4147
317.043	3743
317.133	3520
317.222	2904
317.311	3064
317.400	2404
317.490	6567
317.579	6647
317.668	4670
317.757	8932
317.847	20524
317.936	72330
318.025	26820
318.114	17633
318.203	10949
318.293	17008
318.382	37385
318.471	23941
318.560	30035
318.649	43515
318.738	9202
318.828	7586
318.917	7111
319.006	8409
319.095	19350
319.184	53230
319.273	28880
319.362	15231
319.451	6082
319.540	5656
319.629	13379
319.718	22852
319.807	10390
319.896	17205
319.985	63577
320.074	23922
320.163	6946
320.252	11541
320.341	8889
320.430	7333
320.519	11448
320.608	6889
320.697	6186
320.786	6566
320.875	7465
320.964	10280
321.053	15365
321.142	22308
321.230	23358
321.319	17856
321.408	38795
321.497	17033
321.586	16719
321.675	17429
321.764	16647
321.852	10997
321.941	22640
322.030	15207
322.119	15130
322.207	41041
322.296	27506
322.385	14674
322.474	16816
322.562	49809
322.651	24648
322.740	18083
322.829	24373
322.917	24349
323.006	14796
323.095	12834
323.183	7577
323.272	12910
323.361	22986
323.449	67708
323.538	22262
323.626	48429
323.715	29673
323.804	11851
323.892	43312
323.981	23547
324.069	7894
324.158	23260
324.246	20982
324.335	8605
324.424	14314
324.512	5314
324.601	5985
324.689	6534
324.778	8137
324.866	15700
324.954	5054
325.043	5408
325.131	9467
325.220	18355
325.308	20131
325.397	15248
325.485	8951
325.574	3632
325.662	2966
325.750	4034
325.839	3560
325.927	3267
326.015	4768
326.104	5853
326.192	9704
326.280	3912
326.369	3115
326.457	6581
326.545	11765
326.634	4533
326.722	3090
326.810	3676
326.898	3989
326.987	5036
327.075	10844
327.163	10252
327.251	3864
327.340	4828
327.428	4029
327.516	3748
327.604	4385
327.692	3354
327.781	4165
327.869	8172
327.957	4621
328.045	5840
328.133	2964
328.221	4303
328.309	3327
328.397	3624
328.485	4972
328.574	7483
328.662	25024
328.750	12928
328.838	4327
328.926	3465
329.014	3771
329.102	5424
329.190	13649
329.278	8683
329.366	2374
329.454	2077
329.542	2208
329.630	1956
329.718	3392
329.806	4392
329.893	3674
329.981	3566
330.069	3053
330.157	7829
330.245	22538
330.333	11069
330.421	4056
330.509	7077
330.597	29961
330.684	18483
330.772	6465
330.860	8470
330.948	10406
331.036	5788
331.123	1835
331.211	2793
331.299	3551
331.387	9207
331.475	16392
331.562	5341
331.650	2148
331.738	3855
331.825	5169
331.913	2337
332.001	1964
332.089	4088
332.176	8651
332.264	22751
332.352	16648
332.439	5522
332.527	3701
332.614	2904
332.702	5141
332.790	3296
332.877	10078
332.965	22026
333.052	6704
333.140	7246
333.228	16276
333.315	5609
333.403	4460
333.490	13011
333.578	12854
333.665	21226
333.753	9691
333.840	4026
333.928	5282
334.015	14640
334.103	20889
334.190	65942
334.278	17803
334.365	9964
334.452	8239
334.540	6803
334.627	6386
334.715	9240
334.802	17195
334.889	82638
334.977	83321
335.064	15959
335.151	7409
335.239	6850
335.326	8425
335.413	33298
335.501	43384
335.588	7867
335.675	4929
335.762	6559
335.850	11753
335.937	10632
336.024	25164
336.111	94727
336.199	45706
336.286	11742
336.373	5370
336.460	4149
336.547	4029
336.635	5422
336.722	3973
336.809	4311
336.896	6408
336.983	19491
337.070	48566
337.157	67638
337.245	52479
337.332	37056
337.419	4983
337.506	3729
337.593	4084
337.680	15502
337.767	47749
337.854	13370
337.941	14650
338.028	18383
338.115	6207
338.202	8709
338.289	13362
338.376	53536
338.463	15880
338.550	26993
338.637	27693
338.724	10489
338.811	16229
338.898	4505
338.984	2370
339.071	3975
339.158	5343
339.245	14267
339.332	8640
339.419	11133
339.506	10699
339.593	1820
339.679	3445
339.766	3471
339.853	4831
339.940	11963
340.027	3810
340.113	4264
340.200	6208
340.287	4140
340.374	5818
340.460	10314
340.547	3542
340.634	7534
340.720	28631
340.807	16161
340.894	3420
340.980	3795
341.067	2357
341.154	4188
341.240	6158
341.327	14105
341.414	4339
341.500	3437
341.587	4073
341.674	3135
341.760	8460
341.847	11963
341.933	3988
342.020	1784
342.106	2090
342.193	4777
342.279	7313
342.366	5781
342.452	9749
342.539	5999
342.625	11424
342.712	30586
342.798	12419
342.885	5523
342.971	1611
343.058	1817
343.144	2326
343.230	2667
343.317	2616
343.403	2758
343.490	1331
343.576	2081
343.662	2962
343.749	3587
343.835	4106
343.921	7235
344.008	41646
344.094	98594
344.180	22420
344.267	8802
344.353	29625
344.439	32663
344.525	15116
344.612	5994
344.698	4903
344.784	3776
344.870	2658
344.957	2421
345.043	5732
345.129	3645
345.215	9330
345.301	5039
345.387	2575
345.474	1634
345.560	2403
345.646	3083
345.732	2336
345.818	3560
345.904	2578
345.990	3655
346.076	3528
346.162	6793
346.249	3752
346.335	3030
346.421	2817
346.507	11886
346.593	42461
346.679	9045
346.765	3989
346.851	3895
346.937	3347
347.023	2672
347.108	3906
347.194	3338
347.280	2777
347.366	4503
347.452	13483
347.538	50957
347.624	38835
347.710	32542
347.796	6006
347.882	3636
347.967	2381
348.053	3950
348.139	2822
348.225	2521
348.311	2765
348.397	2213
348.482	4082
348.568	4277
348.654	2956
348.740	6595
348.825	5503
348.911	6588
348.997	22168
349.083	44952
349.168	7240
349.254	2598
349.340	2538
349.425	2977
349.511	4649
349.597	5008
349.682	9254
349.768	32226
349.854	14068
349.939	3443
350.025	2787
350.110	2607
350.196	2096
350.282	1090
350.367	2580
350.453	4769
350.538	5236
350.624	3794
350.709	4283
350.795	2709
350.880	2310
350.966	3502
351.051	4863
351.137	4027
351.222	2971
351.308	10108
351.393	29422
351.479	6121
351.564	1308
351.649	2856
351.735	2623
351.820	2242
351.906	2422
351.991	4018
352.076	18128
352.162	28956
352.247	5638
352.332	3040
352.418	6735
352.503	8885
352.588	41475
352.673	32882
352.759	7853
352.844	3338
352.929	4349
353.014	5980
353.100	3482
353.185	8400
353.270	10998
353.355	11851
353.441	4443
353.526	3779
353.611	9889
353.696	11263
353.781	6487
353.866	2710
353.952	3259
354.037	9433
354.122	23003
354.207	20265
354.292	7150
354.377	3630
354.462	2714
354.547	4704
354.632	3721
354.717	6414
354.802	8968
354.887	3954
354.972	2883
355.057	2028
355.142	2337
355.227	4040
355.312	6174
355.397	14758
355.482	36883
355.567	16469
355.652	12521
355.737	13072
355.822	38795
355.907	30019
355.991	5474
356.076	1931
356.161	3076
356.246	2180
356.331	3202
356.416	7317
356.501	55832
356.585	58273
356.670	8617
356.755	6974
356.840	8846
356.924	39319
357.009	141190
357.094	52534
357.179	13349
357.263	9784
357.348	8842
357.433	8514
357.517	7662
357.602	5830
357.687	5581
357.771	8833
357.856	30701
357.941	18315
358.025	27760
358.110	125739
358.195	57430
358.279	10160
358.364	7869
358.448	27264
358.533	74359
358.617	51669
358.702	51992
358.787	18991
358.871	11265
358.956	9721
359.040	4123
359.125	2617
359.209	4041
359.294	14494
359.378	24701
359.462	10517
359.547	5508
359.631	3920
359.716	1890
359.800	2403
359.885	5186
359.969	3619
360.053	2716
360.138	3439
360.222	5001
360.306	11253
360.391	7858
360.475	16783
360.559	36929
360.644	29713
360.728	19385
360.812	31284
360.896	85649
360.981	36937
361.065	19987
361.149	6180
361.233	5213
361.318	4771
361.402	6469
361.486	6272
361.570	2774
361.654	5262
361.739	13019
361.823	53602
361.907	84354
361.991	16098
362.075	9409
362.159	22278
362.243	16968
362.327	19225
362.411	28849
362.495	13438
362.580	6611
362.664	4936
362.748	4287
362.832	7295
362.916	12316
363.000	45786
363.084	105183
363.168	109001
363.252	26374
363.336	10492
363.420	13644
363.503	46310
363.587	52608
363.671	10899
363.755	7101
363.839	12062
363.923	5666
364.007	12089
364.091	14429
364.175	19567
364.258	80782
364.342	70969
364.426	103873
364.510	54306
364.594	19992
364.677	18397
364.761	73681
364.845	52300
364.929	19103
365.013	16392
365.096	12655
365.180	14708
365.264	18910
365.347	72517
365.431	29203
365.515	7840
365.598	4686
365.682	5085
365.766	7216
365.849	9375
365.933	5154
366.017	7578
366.100	4070
366.184	1777
366.267	4047
366.351	3213
366.435	2174
366.518	1843
366.602	3000
366.685	2265
366.769	3639
366.852	6984
366.936	12660
367.019	8060
367.103	5061
367.186	11537
367.270	3850
367.353	1807
367.436	3350
367.520	2057
367.603	4169
367.687	6350
367.770	13174
367.853	7069
367.937	22146
368.020	37730
368.104	8696
368.187	10688
368.270	14412
368.353	11799
368.437	14522
368.520	35908
368.603	22213
368.687	27233
368.770	53686
368.853	12960
368.936	12568
369.020	12916
369.103	5287
369.186	3777
369.269	4556
369.352	8586
369.436	12155
369.519	8071
369.602	3806
369.685	5591
369.768	4197
369.851	3847
369.934	2056
370.018	3793
370.101	10667
370.184	9184
370.267	5903
370.350	14851
370.433	18249
370.516	41030
370.599	53689
370.682	17160
370.765	28134
370.848	33923
370.931	61758
371.014	22476
371.097	3799
371.180	3658
371.263	2771
371.346	1756
371.429	2909
371.511	2807
371.594	6803
371.677	10364
371.760	11980
371.843	9177
371.926	40813
372.009	96435
372.091	32081
372.174	21431
372.257	52496
372.340	20304
372.423	15961
372.505	19174
372.588	7783
372.671	18147
372.754	62341
372.836	29979
372.919	20805
373.002	42903
373.085	11868
373.167	10984
373.250	26504
373.332	53495
373.415	66656
373.498	138162
373.580	51136
373.663	73385
373.746	93136
373.828	21882
373.911	9949
373.993	11181
374.076	41110
374.159	37112
374.241	16769
374.324	52755
374.406	33646
374.489	37389
374.571	111878
374.654	45687
374.736	21267
374.819	68029
374.901	98446
374.983	103510
375.066	18278
375.148	7712
375.231	32983
375.313	64015
375.395	22596
375.478	5936
375.560	4753
375.643	6625
375.725	20923
375.807	89058
375.890	71409
375.972	31524
376.054	17453
376.136	28742
376.219	11925
376.301	25141
376.383	80844
376.465	29900
376.548	20351
376.630	22908
376.712	69800
376.794	31528
376.877	4770
376.959	2317
377.041	4084
377.123	8522
377.205	10137
377.287	2468
377.369	2267
377.452	3598
377.534	3412
377.616	3106
377.698	2449
377.780	1688
377.862	3272
377.944	3352
378.026	1030
378.108	2637
378.190	1855
378.272	3056
378.354	1521
378.436	1227
378.518	4135
378.600	18986
378.682	16421
378.764	37314
378.846	28997
378.928	8039
379.010	11129
379.091	6455
379.173	3282
379.255	2258
379.337	4709
379.419	17014
379.501	53220
379.583	20375
379.664	4437
379.746	13232
379.828	36881
379.910	48694
379.991	44052
380.073	6779
380.155	4439
380.237	3969
380.318	3274
380.400	3466
380.482	8675
380.564	12822
380.645	12922
380.727	12443
380.809	7288
380.890	4279
380.972	3430
381.053	2656
381.135	4611
381.217	11691
381.298	39845
381.380	18747
381.461	13580
381.543	67647
381.624	84305
381.706	15404
381.787	8707
381.869	9615
381.951	26670
382.032	105266
382.113	67618
382.195	15620
382.276	11623
382.358	22451
382.439	57683
382.521	63311
382.602	100969
382.684	46426
382.765	90684
382.846	104017
382.928	160339
383.009	84320
383.090	53600
383.172	211861
383.253	324468
383.334	105193
383.416	99721
383.497	51253
383.578	25189
383.659	45989
383.741	171445
383.822	453348
383.903	228292
383.984	76827
384.066	127312
384.147	77198
384.228	16470
384.309	12953
384.390	10491
384.471	7790
384.553	7498
384.634	10667
384.715	11712
384.796	6091
384.877	7486
384.958	32719
385.039	39655
385.120	14614
385.201	8085
385.282	8938
385.363	8433
385.444	7349
385.525	16233
385.606	48618
385.687	40188
385.768	9579
385.849	11391
385.930	46309
386.011	80048
386.092	21244
386.173	6776
386.254	5449
386.335	5236
386.416	6055
386.496	23717
386.577	38768
386.658	12904
386.739	7806
386.820	8421
386.901	6807
386.981	6451
387.062	4434
387.143	8124
387.224	36567
387.304	35190
387.385	14262
387.466	9498
387.547	12927
387.627	8700
387.708	14614
387.789	61916
387.869	73840
387.950	20378
388.031	4926
388.111	2777
388.192	11918
388.273	17605
388.353	10341
388.434	5270
388.514	10304
388.595	49192
388.676	68810
388.756	35486
388.837	35588
388.917	20608
388.998	4155
389.078	5957
389.159	4827
389.239	3278
389.320	8702
389.400	4327
389.480	12587
389.561	36194
389.641	18275
389.722	6849
389.802	11277
389.883	14858
389.963	41427
390.043	26446
390.124	8465
390.204	15129
390.284	44776
390.365	25612
390.445	26671
390.525	60079
390.605	50357
390.686	19875
390.766	11078
390.846	5450
390.927	3092
391.007	4048
391.087	6048
391.167	8917
391.247	5880
391.328	6891
391.408	9993
391.488	7867
391.568	2848
391.648	5348
391.728	8699
391.808	7912
391.888	8642
391.969	20841
392.049	33267
392.129	14740
392.209	16485
392.289	42522
392.369	22892
392.449	21155
392.529	13508
392.609	12488
392.689	15310
392.769	41725
392.849	37723
392.929	28892
393.009	63703
393.089	56368
393.169	62677
393.248	182602
393.328	563980
393.408	595066
393.488	198273
393.568	62363
393.648	30619
393.728	19367
393.807	13270
393.887	12185
393.967	10687
394.047	10250
394.127	11197
394.206	14277
394.286	44839
394.366	203599
394.446	220330
394.525	48100
394.605	13786
394.685	11965
394.764	26457
394.844	45124
394.924	34416
395.003	11176
395.083	7729
395.163	6454
395.242	5972
395.322	6738
395.402	3972
395.481	7879
395.561	17142
395.640	54785
395.720	47243
395.799	57777
395.879	41971
395.958	19977
396.038	64338
396.117	267669
396.197	292498
396.276	83354
396.356	30540
396.435	24870
396.515	20030
396.594	27449
396.673	52558
396.753	180412
396.832	516122
396.912	392825
396.991	103759
397.070	32288
397.150	16997
397.229	12144
397.308	18971
397.388	35072
397.467	15865
397.546	6704
397.625	3513
397.705	7665
397.784	7838
397.863	4099
397.942	3706
398.022	3789
398.101	14256
398.180	45511
398.259	22987
398.338	6096
398.417	4475
398.497	3751
398.576	4600
398.655	2314
398.734	3400
398.813	3693
398.892	13107
398.971	49674
399.050	24884
399.129	2546
399.208	2164
399.287	2980
399.366	2096
399.445	2035
399.524	2591
399.603	1301
399.682	6058
399.761	16252
399.840	54120
399.919	39482
399.998	4845
400.077	673
400.156	719
400.235	4341
400.313	1343
400.392	2438
400.471	19482
400.550	33508
400.629	7210
400.708	3721
400.786	2380
400.865	9936
400.944	11037
401.023	5975
401.102	1517
401.180	1548
401.259	1948
401.338	2086
401.416	3958
401.495	3104
401.574	3254
401.652	1749
401.731	4356
401.810	2470
401.888	1518
401.967	1089
402.046	3823
402.124	4362
402.203	4166
402.281	3628
402.360	7225
402.438	14686
402.517	7793
402.596	3553
402.674	2601
402.753	1390
402.831	2198
402.910	2850
402.988	11240
403.066	45714
403.145	25371
403.223	13995
403.302	36245
403.380	25636
403.459	26811
403.537	9785
403.615	3426
403.694	150
403.772	1808
403.850	909
403.929	1316
404.007	1530
404.085	5782
404.164	5983
404.242	2846
404.320	4089
404.398	11292
404.477	19632
404.555	86350
404.633	74716
404.711	14401
404.789	5357
404.868	2624
404.946	748
405.024	1224
405.102	1270
405.180	1049
405.258	45
405.336	1433
405.415	1088
405.493	5238
405.571	4778
405.649	757
405.727	869
405.805	3196
405.883	2482
405.961	3693
406.039	3270
406.117	1462
406.195	3549
406.273	18690
406.351	77169
406.429	45082
406.507	6406
406.585	1425
406.663	2602
406.740	3522
406.818	2801
406.896	1642
406.974	2700
407.052	4536
407.130	43504
407.208	63646
407.285	12400
407.363	1114
407.441	2108
407.519	1975
407.596	3134
407.674	11341
407.752	47187
407.830	41405
407.907	9923
407.985	3203
408.063	2308
408.141	494
408.218	4329
408.296	4329
408.373	2635
408.451	3197
408.529	3045
408.606	691
408.684	377
408.762	382
408.839	473
408.917	803
408.994	977
409.072	1983
409.149	1415
409.227	4900
409.304	6669
409.382	5572
409.459	4841
409.537	9692
409.614	8415
409.692	4041
409.769	4936
409.846	9568
409.924	13629
410.001	9154
410.079	5200
410.156	4135
410.233	3143
410.311	1473
410.388	1831
410.465	4502
410.543	4421
410.620	1931
410.697	2828
410.775	3987
410.852	1055
410.929	4520
411.006	6589
411.083	4074
411.161	10650
411.238	10594
411.315	2460
411.392	1545
411.469	5249
411.547	6332
411.624	1889
411.701	2331
411.778	2003
411.855	5847
411.932	3152
412.009	1652
412.086	1391
412.163	2112
412.240	1831
412.317	4439
412.394	3277
412.471	1003
412.548	525
412.625	1007
412.702	2085
412.779	6208
412.856	3989
412.933	338
413.010	887
413.087	3186
413.164	19018
413.241	28409
413.318	5613
413.395	3547
413.471	6794
413.548	2695
413.625	1996
413.702	1608
413.779	1411
413.855	1001
413.932	-544
414.009	-651
414.086	100
414.162	737
414.239	2891
414.316	16127
414.393	40465
414.469	13354
414.546	1319
414.623	750
414.699	550
414.776	1470
414.853	471
414.929	495
415.006	1248
415.082	1958
415.159	1390
415.236	1239
415.312	1326
415.389	4193
415.465	4975
415.542	1922
415.618	1097
415.695	4121
415.771	1530
415.848	1660
415.924	1797
416.000	1268
416.077	1147
416.153	-368
416.230	-831
416.306	-116
416.383	143
416.459	74
416.535	-422
416.612	82
416.688	207
416.764	610
416.841	-114
416.917	766
416.993	331
417.069	1300
417.146	2117
417.222	3095
417.298	1169
417.374	791
417.451	1835
417.527	2426
417.603	2379
417.679	2241
417.755	1728
417.831	134
417.908	-154
417.984	886
418.060	-288
418.136	4690
418.212	6381
418.288	2536
418.364	1042
418.440	849
418.516	2533
418.592	3858
418.668	7860
418.744	12983
418.820	9036
418.896	2093
418.972	164
419.048	619
419.124	5451
419.200	3748
419.276	1067
419.352	-467
419.428	-83
419.504	898
419.579	2086
419.655	915
419.731	1481
419.807	8165
419.883	15394
419.959	9963
420.034	2617
420.110	6291
420.186	24768
420.262	19505
420.337	2776
420.413	2323
420.489	1371
420.565	2180
420.640	684
420.716	1780
420.792	-1
420.867	1527
420.943	335
421.019	4011
421.094	3004
421.170	2320
421.245	486
421.321	1547
421.397	1388
421.472	8834
421.548	28208
421.623	18349
421.699	5043
421.774	4202
421.850	3978
421.925	7115
422.001	6982
422.076	6720
422.152	8717
422.227	12785
422.302	16106
422.378	23352
422.453	42668
422.529	94798
422.604	208258
422.679	261989
422.755	216810
422.830	106534
422.905	48432
422.981	26898
423.056	17341
423.131	12605
423.207	9324
423.282	8010
423.357	12242
423.432	8147
423.508	8356
423.583	15639
423.658	11263
423.733	4911
423.808	5877
423.883	5464
423.959	4689
424.034	4130
424.109	4120
424.184	2925
424.259	1745
424.334	1788
424.409	1087
424.484	1459
424.559	1398
424.634	1705
424.709	3358
424.784	4610
424.859	2141
424.934	3374
425.009	18286
425.084	29846
425.159	10409
425.234	2218
425.309	691
425.384	7502
425.459	13553
425.534	4512
425.609	1303
425.683	722
425.758	951
425.833	1129
425.908	2134
425.983	9113
426.058	32421
426.132	13411
426.207	2507
426.282	4575
426.357	2794
426.431	1933
426.506	1281
426.581	1175
426.655	747
426.730	1360
426.805	796
426.879	2037
426.954	1324
427.029	4324
427.103	26220
427.178	67482
427.253	29030
427.327	3622
427.402	4372
427.476	14917
427.551	7787
427.625	2201
427.700	1537
427.774	752
427.849	1695
427.923	1547
427.998	582
428.072	851
428.147	5097
428.221	25592
428.296	81869
428.370	43996
428.444	6638
428.519	4775
428.593	10203
428.667	8785
428.742	11010
428.816	12545
428.890	51325
428.965	85993
429.039	26337
429.113	13186
429.188	4824
429.262	684
429.336	4077
429.410	13970
429.485	9491
429.559	8743
429.633	7477
429.707	2735
429.781	8851
429.855	54647
429.930	86793
430.004	38018
430.078	50597
430.152	49799
430.226	100572
430.300	101772
430.374	19134
430.448	7141
430.522	15651
430.596	47668
430.670	32137
430.744	83396
430.818	119026
430.892	24100
430.966	4610
431.040	2493
431.114	110
431.188	1591
431.262	962
431.336	1365
431.410	4381
431.484	13911
431.557	9573
431.631	1684
431.705	2637
431.779	14995
431.853	72851
431.927	53550
432.000	5846
432.074	1856
432.148	2166
432.222	1573
432.295	673
432.369	332
432.443	2243
432.516	23658
432.590	67767
432.664	24454
432.737	2039
432.811	-374
432.885	28
432.958	1300
433.032	-389
433.106	-442
433.179	95
433.253	112
433.326	629
433.400	75
433.473	1040
433.547	-950
433.620	-254
433.694	2384
433.767	2219
433.841	354
433.914	-658
433.988	547
434.061	993
434.134	446
434.208	-130
434.281	-540
434.355	322
434.428	470
434.501	751
434.575	-104
434.648	460
434.721	-13
434.795	102
434.868	-366
434.941	-546
435.014	-729
435.088	853
435.161	1684
435.234	3390
435.307	5617
435.381	2228
435.454	2137
435.527	4659
435.600	5279
435.673	3928
435.746	1871
435.819	1898
435.892	2020
435.966	435
436.039	677
436.112	482
436.185	423
436.258	-605
436.331	-683
436.404	875
436.477	-401
436.550	-260
436.623	-410
436.696	-134
436.769	151
436.842	-42
436.915	867
436.987	1391
437.060	350
437.133	-703
437.206	-120
437.279	-44
437.352	-35
437.425	44
437.498	859
437.570	3281
437.643	3638
437.716	437
437.789	775
437.861	5293
437.934	19962
438.007	9657
438.080	873
438.152	332
438.225	3688
438.298	31170
438.370	93826
438.443	44407
438.516	17492
438.588	2645
438.661	319
438.734	329
438.806	686
438.879	1183
438.951	4393
439.024	10089
439.096	3406
439.169	-19
439.241	223
439.314	-171
439.386	1517
439.459	3220
439.531	7422
439.604	3053
439.676	917
439.749	151
439.821	-478
439.893	-160
439.966	249
440.038	2058
440.110	3293
440.183	974
440.255	457
440.327	2566
440.400	13320
440.472	60205
440.544	41725
440.617	6144
440.689	6622
440.761	10149
440.833	16671
440.905	12132
440.978	1677
441.050	-100
441.122	704
441.194	131
441.266	826
441.338	-146
441.411	2548
441.483	18616
441.555	31281
441.627	7581
441.699	4750
441.771	3920
441.843	1162
441.915	474
441.987	259
442.059	-375
442.131	1444
442.203	3099
442.275	4970
442.347	5593
442.419	8098
442.491	45219
442.563	118313
442.635	56846
442.706	21583
442.778	15251
442.850	4327
442.922	2285
442.994	3164
443.066	5167
443.137	4230
443.209	3802
443.281	6547
443.353	14306
443.425	53470
443.496	188421
443.568	202776
443.640	88402
443.711	20321
443.783	7449
443.855	4596
443.926	2354
443.998	3004
444.070	2874
444.141	2599
444.213	5369
444.285	6535
444.356	4269
444.428	3696
444.499	2307
444.571	892
444.642	1053
444.714	1810
444.785	4183
444.857	5215
444.928	11459
445.000	8323
445.071	7913
445.143	11309
445.214	9571
445.285	14043
445.357	37928
445.428	121171
445.500	265246
445.571	193418
445.642	119987
445.714	47320
445.785	28242
445.856	10626
445.928	8445
445.999	9548
446.070	8929
446.141	5248
446.213	6130
446.284	3962
446.355	3118
446.426	1461
446.497	1738
446.569	3839
446.640	6545
446.711	4875
446.782	2045
446.853	2343
446.924	3050
446.995	2959
447.066	1824
447.138	4637
447.209	1637
447.280	-371
447.351	-311
447.422	150
447.493	1672
447.564	2023
447.635	4072
447.706	1862
447.777	439
447.847	-262
447.918	-455
447.989	1080
448.060	2287
448.131	6862
448.202	6791
448.273	4708
448.344	2749
448.414	1337
448.485	850
448.556	1099
448.627	450
448.698	1414
448.768	53
448.839	164
448.910	2267
448.981	4296
449.051	1580
449.122	915
449.193	229
449.263	19
449.334	445
449.405	1471
449.475	4728
449.546	4790
449.616	4220
449.687	4256
449.758	966
449.828	-320
449.899	-358
449.969	283
450.040	-33
450.110	1647
450.181	1070
450.251	551
450.322	-43
450.392	1171
450.463	296
450.533	-18
450.604	93
450.674	187
450.744	1246
450.815	216
450.885	435
450.955	797
451.026	980
451.096	862
451.166	872
451.237	4857
451.307	12679
451.377	6887
451.447	835
451.518	980
451.588	664
451.658	662
451.728	1868
451.799	11663
451.869	15979
451.939	4380
452.009	262
452.079	930
452.149	803
452.219	2244
452.289	13391
452.360	13522
452.430	2601
452.500	1944
452.570	3327
452.640	6844
452.710	17158
452.780	27122
452.850	19358
452.920	16208
452.990	6703
453.060	3404
453.129	3766
453.199	5108
453.269	14439
453.339	36380
453.409	58366
453.479	50345
453.549	79152
453.619	85878
453.688	41206
453.758	6879
453.828	2874
453.898	1524
453.968	1386
454.037	1426
454.087	1481
454.107	1490
454.168	472
454.177	304
454.247	593
454.249	580
454.316	-71
454.330	217
454.386	1223
454.411	3070
454.456	5876
454.492	9515
454.525	12753
454.574	8015
454.595	5988
454.655	1919
454.665	1264
454.734	1977
454.736	2058
454.804	3678
454.817	5587
454.873	12763
454.898	14418
454.943	17274
454.979	11388
455.013	6213
455.060	3343
455.082	2206
455.141	4020
455.152	4334
455.221	10300
455.222	10537
455.291	24433
455.303	25360
455.360	27746
455.384	38880
455.430	56039
455.465	46688
455.499	38702
455.546	23240
455.569	15894
455.627	12115
455.638	11551
455.707	2599
455.708	2608
455.777	1348
455.789	1439
455.846	1585
455.869	1420
455.916	1218
455.950	1730
455.985	2091
456.031	1575
456.054	1326
456.112	1816
456.124	1905
456.193	1558
456.193	1539
456.262	2166
456.274	2232
456.332	2279
456.355	2547
456.401	3153
456.436	2545
456.470	1731
456.516	1485
456.540	1464
456.597	1088
456.609	1007
456.678	1271
456.678	1253
456.747	988
456.759	988
456.817	1124
456.840	1090
456.886	859
456.920	1114
456.955	1414
457.001	2033
457.024	2354
457.082	2460
457.093	2490
457.162	3968
457.163	3990
457.232	4143
457.243	3893
457.301	2626
457.324	2513
457.370	2524
457.405	2312
457.439	2106
457.485	2732
457.508	3023
457.566	3112
457.577	3253
457.646	5324
457.647	5362
457.715	10110
457.727	11226
457.784	18030
457.808	22582
457.853	27344
457.889	32637
457.922	33526
457.969	25557
457.991	26872
458.050	30132
458.060	30754
458.129	48176
458.130	48792
458.198	49853
458.211	45796
458.267	31472
458.292	22505
458.336	13495
458.372	11921
458.405	14460
458.453	20806
458.474	26242
458.533	46886
458.543	48379
458.611	77995
458.614	78700
458.680	57511
458.694	46834
458.749	25864
458.775	18857
458.818	9938
458.855	7972
458.887	6456
458.936	4906
458.955	4526
459.016	4225
459.024	4199
459.093	4233
459.097	4257
459.162	4135
459.177	4232
459.230	5029
459.257	5380
459.299	5902
459.338	6585
459.368	7070
459.418	8396
459.437	8106
459.499	6125
459.505	6098
459.574	3982
459.579	3950
459.643	3492
459.659	3476
459.711	3907
459.740	4012
459.780	3895
459.820	4134
459.849	4338
459.900	4351
459.917	4208
459.981	4371
459.986	4393
460.054	4069
460.061	4054
460.123	4374
460.141	4553
460.191	5791
460.222	6701
460.260	7053
460.302	7523
460.328	7147
460.382	5821
460.397	5874
460.462	5685
460.465	5866
460.534	10969
460.543	11653
460.602	33610
460.623	41996
460.671	66190
460.703	88468
460.739	79376
460.783	65475
460.808	58160
460.864	16484
460.876	12791
460.944	6080
460.945	6002
461.013	5058
461.024	5025
461.081	5155
461.104	5196
461.150	4602
461.184	4291
461.218	4622
461.264	4770
461.286	4590
461.345	4540
461.355	4530
461.423	4498
461.425	4482
461.491	4511
461.505	4754
461.559	7773
461.585	8955
461.628	13289
461.665	17593
461.696	18805
461.745	23586
461.764	21754
461.825	9884
461.832	9665
461.901	5598
461.905	5568
461.969	4880
461.985	4835
462.037	5555
462.065	5675
462.105	5553
462.145	5565
462.173	7162
462.225	10307
462.241	11267
462.305	16657
462.310	16304
462.378	10139
462.385	9131
462.446	6990
462.465	6524
462.514	5820
462.545	5873
462.582	5819
462.625	5703
462.650	5513
462.705	5008
462.718	5032
462.785	4983
462.786	5013
462.854	6997
462.865	7351
462.922	8736
462.945	9570
462.990	8343
463.025	6319
463.058	5852
463.104	5596
463.126	5347
463.184	4801
463.194	4851
463.262	5164
463.264	5182
463.330	5466
463.344	5538
463.398	6132
463.424	6207
463.466	5984
463.504	6108
463.533	6182
463.583	6213
463.601	6356
463.663	6390
463.669	6486
463.737	7921
463.743	8068
463.805	11722
463.823	12756
463.873	17891
463.903	21223
463.940	22080
463.982	23761
464.008	20201
464.062	10854
464.076	10411
464.142	6291
464.144	6229
464.211	5734
464.221	5682
464.279	5693
464.301	5866
464.347	6246
464.381	6348
464.414	7016
464.461	8113
464.482	8615
464.540	9775
464.550	9605
464.617	8524
464.620	8457
464.685	8519
464.699	8607
464.753	9937
464.779	10569
464.820	10656
464.859	10702
464.888	10390
464.938	9855
464.956	10227
465.018	11537
465.023	11412
465.091	9451
465.098	9241
465.158	9995
465.177	10220
465.226	9769
465.257	9468
465.293	9663
465.336	9760
465.361	10158
465.416	11278
465.428	11934
465.495	15285
465.496	15355
465.563	22697
465.575	24009
465.631	29335
465.654	31825
465.698	21341
465.734	11824
465.765	10731
465.813	8578
465.833	8390
465.893	8746
465.900	8778
465.968	8968
465.972	8972
466.035	8610
466.052	8504
466.102	8305
466.131	8108
466.170	8686
466.210	9269
466.237	9279
466.290	9313
466.304	9228
466.369	8696
466.372	8743
466.439	9719
466.449	9853
466.506	9998
466.528	10021
466.573	13855
466.607	16681
466.641	23365
466.687	32674
466.708	35837
466.766	44624
466.775	41319
466.842	15963
466.845	14724
466.909	10941
466.925	10112
466.977	10343
467.004	10532
467.044	11361
467.083	12168
467.111	12765
467.163	13819
467.178	14473
467.242	17086
467.245	16992
467.312	14403
467.321	14035
467.379	13810
467.400	13690
467.446	14551
467.480	15129
467.559	14169
467.638	12341
467.717	12873
467.796	13716
467.875	15528
467.955	14306
468.034	19584
468.113	39230
468.192	56777
468.271	19087
468.350	15639
468.429	21670
468.508	22962
468.588	15964
468.667	13980
468.746	12811
468.825	12860
468.904	10992
468.983	12262
469.062	18414
469.141	20631
469.220	10762
469.299	11632
469.378	11706
469.456	14814
469.535	13662
469.614	12925
469.693	13330
469.772	15466
469.851	19741
469.930	14737
470.009	13444
470.088	12527
470.166	13978
470.245	18503
470.324	20796
470.403	15106
470.482	11862
470.560	12320
470.639	12647
470.718	14265
470.797	11951
470.875	12845
470.954	16087
471.033	17836
471.111	10712
471.190	9974
471.269	9505
471.347	10021
471.426	10753
471.505	11180
471.583	12985
471.662	12315
471.740	10587
471.819	10766
471.898	10984
471.976	11243
472.055	10878
472.133	12404
472.212	16268
472.290	15926
472.369	11928
472.447	9469
472.526	9732
472.604	11438
472.683	11739
472.761	12155
472.839	10818
472.918	10499
472.996	9984
473.075	11545
473.153	11402
473.231	9801
473.310	11573
473.388	12184
473.466	11174
473.545	12873
473.623	15500
473.701	14862
473.780	12415
473.858	10280
473.936	13026
474.014	10612
474.093	13543
474.171	16367
474.249	20871
474.327	14656
474.405	10609
474.484	8771
474.562	9767
474.640	10296
474.718	9008
474.796	9983
474.874	9786
474.952	8715
475.030	8639
475.108	10072
475.187	9180
475.265	10472
475.343	15707
475.421	17034
475.499	10049
475.577	10594
475.655	12601
475.733	20343
475.811	33974
475.889	31949
475.966	20934
476.044	10949
476.122	12661
476.200	15548
476.278	12508
476.356	10207
476.434	10388
476.512	11946
476.590	15079
476.667	12925
476.745	9097
476.823	9662
476.901	10146
476.979	10355
477.056	9782
477.134	10236
477.212	9754
477.290	10629
477.367	9128
477.445	8996
477.523	8679
477.601	9414
477.678	9292
477.756	11025
477.834	11517
477.911	9148
477.989	8600
478.066	8912
478.144	9917
478.222	11426
478.299	17213
478.377	16503
478.454	9956
478.532	8079
478.609	9058
478.687	9624
478.764	7581
478.842	9464
478.919	9346
478.997	9777
479.074	8179
479.152	9994
479.229	11459
479.307	8956
479.384	8271
479.461	7892
479.539	8304
479.616	10396
479.694	8822
479.771	10013
479.848	8604
479.926	11014
480.003	13464
480.080	8474
480.157	8259
480.235	8628
480.312	8442
480.389	9660
480.467	12711
480.544	15516
480.621	10207
480.698	10664
480.775	10370
480.853	10462
480.930	9083
481.007	8965
481.084	11374
481.161	16511
481.238	12061
481.315	8323
481.392	8137
481.470	8499
481.547	8055
481.624	7564
481.701	8874
481.778	9224
481.855	9866
481.932	13492
482.009	21337
482.086	15313
482.163	10736
482.240	13806
482.317	22290
482.393	16219
482.470	9365
482.547	10261
482.624	9166
482.701	10603
482.778	8997
482.855	8330
482.932	8261
483.009	7743
483.085	12127
483.162	15000
483.239	14123
483.316	9955
483.393	9702
483.469	8029
483.546	9303
483.623	9898
483.699	8396
483.776	9065
483.853	9795
483.930	13957
484.006	28940
484.083	50611
484.160	28508
484.236	40733
484.313	30360
484.389	24212
484.466	22303
484.543	20474
484.619	23345
484.696	25640
484.772	24226
484.849	23207
484.925	19331
485.002	19852
485.078	21911
485.155	23640
485.231	18743
485.308	18640
485.384	19480
485.461	22024
485.537	31910
485.614	37029
485.690	19324
485.766	17742
485.843	19240
485.919	25171
485.995	24780
486.072	17776
486.148	16801
486.224	16990
486.301	17794
486.377	22173
486.453	23989
486.530	20948
486.606	25444
486.682	26058
486.758	30079
486.835	34341
486.911	27578
486.987	39739
487.063	44647
487.139	56283
487.215	41741
487.292	26101
487.368	22471
487.444	25706
487.520	37000
487.596	36991
487.672	55847
487.748	158930
487.824	241761
487.900	70536
487.976	27535
488.052	26658
488.128	33768
488.204	24312
488.280	18928
488.356	20291
488.432	34050
488.508	51939
488.584	22315
488.660	17212
488.736	16791
488.812	17379
488.888	22067
488.964	25216
489.039	51357
489.115	75991
489.191	45608
489.267	17102
489.343	15498
489.418	14056
489.494	14595
489.570	12721
489.646	15436
489.722	13513
489.797	14469
489.873	20307
489.949	39389
490.024	33055
490.100	14347
490.176	13611
490.251	16669
490.327	21144
490.403	14001
490.478	13178
490.554	12118
490.629	12339
490.705	11225
490.781	13346
490.856	12865
490.932	13813
491.007	13776
491.083	13796
491.158	12462
491.234	16289
491.309	30083
491.385	30252
491.460	12741
491.536	13645
491.611	12233
491.686	13494
491.762	17503
491.837	31718
491.913	51073
491.988	71845
492.063	89787
492.139	27015
492.214	16667
492.289	11214
492.365	10394
492.440	12994
492.515	11713
492.590	13138
492.666	10175
492.741	13965
492.816	18848
492.891	12321
492.967	12054
493.042	11530
493.117	12963
493.192	13538
493.267	26670
493.342	97661
493.418	137075
493.493	21165
493.568	10772
493.643	9524
493.718	11126
493.793	16594
493.868	19527
493.943	13957
494.018	10448
494.093	10513
494.168	9448
494.243	8448
494.318	8674
494.393	8846
494.468	8205
494.543	8376
494.618	9994
494.693	9358
494.768	8501
494.842	9450
494.917	8551
494.992	9068
495.067	8896
495.142	8577
495.217	10328
495.292	9937
495.366	10844
495.441	12590
495.516	15912
495.591	21043
495.665	65203
495.740	156198
495.815	59850
495.890	13322
495.964	10516
496.039	13798
496.114	11800
496.188	16522
496.263	15001
496.338	10595
496.412	12392
496.487	13736
496.561	13838
496.636	14343
496.710	11833
496.785	13168
496.860	13907
496.934	10723
497.009	12756
497.083	10944
497.158	10502
497.232	12621
497.307	15600
497.381	13288
497.455	14852
497.530	18469
497.604	13931
497.679	14718
497.753	21175
497.827	24296
497.902	21826
497.976	25593
498.050	61437
498.125	249291
498.199	251024
498.273	35125
498.348	23934
498.422	20164
498.496	19617
498.570	18734
498.645	13567
498.719	13185
498.793	17094
498.867	25591
498.941	32605
499.016	97746
499.090	277588
499.164	91511
499.238	14070
499.312	12948
499.386	16061
499.460	14301
499.534	13669
499.609	17974
499.683	22162
499.757	20339
499.831	42610
499.905	178290
499.979	167042
500.053	25972
500.127	25725
500.201	19922
500.275	14606
500.349	13430
500.422	14865
500.496	20776
500.570	41387
500.644	100054
500.718	187554
500.792	40354
500.866	14069
500.940	17294
501.013	14551
501.087	14531
501.161	24250
501.235	28393
501.309	56688
501.382	162270
501.456	138541
501.530	31290
501.603	53286
501.677	20776
501.751	8886
501.825	13646
501.898	22915
501.972	64653
502.046	40378
502.119	13576
502.193	28308
502.266	69959
502.340	32495
502.413	30865
502.487	58544
502.561	32708
502.634	11718
502.708	11020
502.781	9269
502.855	9418
502.928	6682
503.002	8282
503.075	7515
503.149	8838
503.222	8703
503.295	10051
503.369	11157
503.442	14724
503.516	46070
503.589	115957
503.662	72361
503.736	25075
503.809	55398
503.882	46509
503.956	72066
504.029	72419
504.102	89490
504.175	127181
504.249	39216
504.322	18510
504.395	13190
504.468	10212
504.542	8755
504.615	7281
504.688	7636
504.761	6228
504.834	9094
504.907	11056
504.980	17272
505.053	8873
505.127	10914
505.200	14052
505.273	10946
505.346	7033
505.419	5712
505.492	7560
505.565	5330
505.638	6611
505.711	5760
505.784	5221
505.857	5528
505.930	7962
506.003	5912
506.076	8764
506.149	8802
506.221	9543
506.294	11087
506.367	23783
506.440	87562
506.513	44756
506.586	11771
506.659	7689
506.731	7183
506.804	7064
506.877	11656
506.950	8113
507.022	6775
507.095	7042
507.168	9778
507.241	6989
507.313	6035
507.386	5611
507.459	9674
507.531	6510
507.604	5626
507.677	6702
507.749	4997
507.822	8257
507.894	14482
507.967	18333
508.040	10146
508.112	9979
508.185	9807
508.257	8623
508.330	14510
508.402	9481
508.475	8664
508.547	9704
508.620	9224
508.692	13182
508.765	9392
508.837	6198
508.909	7548
508.982	6731
509.054	9194
509.127	6751
509.199	6914
509.271	6066
509.344	5700
509.416	6115
509.488	6111
509.560	7420
509.633	7682
509.705	9181
509.777	7811
509.849	11929
509.922	8398
509.994	6290
510.066	6454
510.138	7146
510.210	16438
510.283	13028
510.355	11341
510.427	9546
510.499	9371
510.571	8829
510.643	9029
510.715	15783
510.787	11804
510.859	10670
510.931	11170
511.003	15891
511.076	13294
511.148	7330
511.219	8344
511.291	13344
511.363	14388
511.435	8135
511.507	6936
511.579	7945
511.651	8348
511.723	7340
511.795	7219
511.867	7802
511.939	8858
512.010	17192
512.082	13718
512.154	7386
512.226	7836
512.298	12792
512.369	16834
512.441	13383
512.513	13772
512.585	9137
512.656	11463
512.728	10722
512.800	9052
512.871	9802
512.943	8897
513.015	7363
513.086	8541
513.158	9771
513.230	7962
513.301	12468
513.373	15561
513.444	9082
513.516	7787
513.588	8033
513.659	10179
513.731	11740
513.802	9821
513.874	20652
513.945	32645
514.016	10797
514.088	9575
514.159	8423
514.231	12219
514.302	16652
514.374	11782
514.445	10297
514.516	21088
514.588	14661
514.659	10872
514.730	18232
514.802	14642
514.873	9487
514.944	11359
515.016	10652
515.087	11824
515.158	14548
515.229	19330
515.301	10511
515.372	9817
515.443	8183
515.514	8640
515.585	7510
515.656	9262
515.728	9168
515.799	7693
515.870	10253
515.941	9934
516.012	9148
516.083	12947
516.154	13105
516.225	17502
516.296	17186
516.367	15172
516.438	16639
516.509	19922
516.580	28958
516.651	83590
516.722	297829
516.793	124695
516.864	29161
516.935	27672
517.006	28549
517.077	37180
517.148	85281
517.219	312064
517.289	475896
517.360	129780
517.431	42293
517.502	15881
517.573	16497
517.643	14719
517.714	16989
517.785	16899
517.856	18287
517.926	23332
517.997	24593
518.068	29515
518.138	37596
518.209	52908
518.280	195911
518.350	724970
518.421	264163
518.492	36464
518.562	26182
518.633	26206
518.703	27401
518.774	55258
518.845	147480
518.915	139212
518.986	38731
519.056	25618
519.127	32765
519.197	46189
519.268	98870
519.338	62213
519.408	20010
519.479	23242
519.549	15596
519.620	13203
519.690	10540
519.760	10822
519.831	10966
519.901	11071
519.971	10735
520.042	11672
520.112	10952
520.182	14746
520.253	15555
520.323	11083
520.393	16838
520.463	27240
520.534	16613
520.604	36393
520.674	17429
520.744	16893
520.814	40448
520.885	32677
520.955	31333
521.025	110995
521.095	41691
521.165	11566
521.235	10108
521.305	9349
521.375	9095
521.445	10328
521.515	12879
521.585	15557
521.655	13483
521.725	12766
521.795	11365
521.865	7380
521.935	14376
522.005	10400
522.075	8230
522.145	10488
522.215	10257
522.285	13553
522.355	16811
522.424	30703
522.494	24248
522.564	15484
522.634	26840
522.704	78628
522.774	29839
522.843	10893
522.913	9929
522.983	12163
523.053	9902
523.122	10161
523.192	13171
523.262	40858
523.331	37026
523.401	10654
523.471	8014
523.540	8820
523.610	7594
523.680	8405
523.749	9219
523.819	10476
523.888	10689
523.958	7905
524.027	9101
524.097	9410
524.166	7887
524.236	8347
524.305	10363
524.375	7674
524.444	7705
524.514	11361
524.583	8793
524.653	9217
524.722	12008
524.791	7613
524.861	9533
524.930	6326
524.999	7704
525.069	11889
525.138	8778
525.207	11048
525.277	9403
525.346	9145
525.415	10244
525.484	9861
525.554	11191
525.623	13292
525.692	15520
525.761	14807
525.830	16595
525.900	19252
525.969	29268
526.038	49215
526.107	98747
526.176	292005
526.245	226283
526.314	67055
526.383	145920
526.452	194605
526.522	318189
526.591	296469
526.660	66754
526.729	37131
526.797	41068
526.867	74974
526.935	294604
527.004	625401
527.073	336794
527.142	35579
527.211	17383
527.280	16529
527.349	14315
527.418	9293
527.487	10137
527.555	6885
527.624	8047
527.693	7460
527.762	8828
527.831	6417
527.899	7795
527.968	7229
528.037	6512
528.106	9762
528.174	13957
528.243	12245
528.312	15357
528.380	20493
528.449	8387
528.518	8516
528.586	5660
528.655	6966
528.723	6766
528.792	7036
528.861	7272
528.929	6545
528.998	9552
529.066	14867
529.135	23168
529.203	20922
529.272	30011
529.340	37273
529.409	34277
529.477	29622
529.545	29827
529.614	35830
529.682	40488
529.751	44532
529.819	47871
529.887	53221
529.956	45576
530.024	44520
530.092	40657
530.161	40866
530.229	45472
530.297	47705
530.365	44230
530.434	49126
530.502	48442
530.570	42930
530.638	37751
530.707	36615
530.775	35480
530.843	35544
530.911	40189
530.979	39500
531.047	47550
531.115	43864
531.183	38658
531.252	37614
531.320	35825
531.388	35892
531.456	41138
531.524	42378
531.592	45964
531.660	54023
531.728	45738
531.796	43589
531.864	43176
531.932	44047
532.000	44069
532.067	48871
532.135	51377
532.203	53572
532.271	57184
532.339	57750
532.407	74014
532.475	60783
532.542	51952
532.610	51310
532.678	58276
532.746	106827
532.814	193787
532.881	82267
532.949	53512
533.017	49536
533.084	47326
533.152	44116
533.220	44684
533.287	47078
533.355	48787
533.423	47408
533.490	48998
533.558	46592
533.625	43224
533.693	42246
533.761	41699
533.828	40820
533.896	40128
533.963	49608
534.031	50456
534.098	59149
534.166	46333
534.233	39642
534.300	39835
534.368	38040
534.435	35673
534.503	37016
534.570	41719
534.637	40989
534.705	42572
534.772	44555
534.840	54247
534.907	150833
534.974	176780
535.041	40942
535.109	33424
535.176	31067
535.243	32639
535.310	31425
535.378	32324
535.445	28886
535.512	27398
535.579	27618
535.646	24803
535.714	25887
535.781	27490
535.848	28046
535.915	28229
535.982	28220
536.049	26393
536.116	26395
536.183	22850
536.250	22263
536.317	22390
536.384	23782
536.451	24821
536.518	28156
536.585	23999
536.652	27244
536.719	29827
536.786	25446
536.853	23163
536.920	25688
536.987	32893
537.053	32599
537.120	89609
537.187	75498
537.254	22390
537.321	20870
537.388	20742
537.454	17641
537.521	17245
537.588	16495
537.654	18302
537.721	17407
537.788	18721
537.855	17433
537.921	18442
537.988	17599
538.055	17867
538.121	16066
538.188	15653
538.254	18706
538.321	27031
538.388	21052
538.454	15725
538.521	16663
538.587	16095
538.654	15568
538.720	15691
538.787	14684
538.853	15474
538.920	15556
538.986	15455
539.053	14168
539.119	13967
539.185	15425
539.252	16768
539.318	20850
539.385	19287
539.451	15597
539.517	16298
539.583	18043
539.650	29682
539.716	63210
539.782	20853
539.849	12866
539.915	14657
539.981	13895
540.047	15047
540.114	14380
540.180	16006
540.246	13048
540.312	16382
540.378	23610
540.444	26363
540.510	29421
540.576	69465
540.643	25151
540.709	12106
540.775	12484
540.841	12726
540.907	15102
540.973	20718
541.039	16991
541.105	17595
541.171	12397
541.237	11870
541.303	12977
541.369	14647
541.435	15099
541.500	22985
541.566	15782
541.632	11519
541.698	10668
541.764	11332
541.830	10891
541.896	9505
541.961	11664
542.027	10831
542.093	11853
542.159	12635
542.224	11850
542.290	15627
542.356	20473
542.421	23828
542.487	14354
542.553	12305
542.618	11962
542.684	11353
542.750	12225
542.815	13580
542.881	19664
542.947	58646
543.012	42244
543.078	12166
543.143	9818
543.209	11324
543.274	11093
543.340	13059
543.405	24423
543.471	36344
543.536	12523
543.602	11015
543.667	9790
543.732	11230
543.798	9475
543.863	10348
543.928	9160
543.994	9750
544.059	10519
544.124	10165
544.190	10547
544.255	10844
544.320	11046
544.386	11085
544.451	13235
544.516	15890
544.581	15459
544.646	38444
544.712	54936
544.777	15177
544.842	11900
544.907	12645
544.972	11891
545.037	12292
545.102	13903
545.168	13171
545.233	13847
545.298	14056
545.363	15581
545.428	17473
545.493	25072
545.558	49325
545.623	22340
545.688	14471
545.753	13386
545.818	13932
545.883	14344
545.947	13546
546.012	14755
546.077	15275
546.142	15491
546.207	14448
546.272	17265
546.337	17607
546.401	17161
546.466	16556
546.531	16235
546.596	18234
546.661	17760
546.725	19381
546.790	18211
546.855	20124
546.919	20343
546.984	22688
547.049	25432
547.113	29571
547.178	28922
547.243	34314
547.307	37910
547.372	42758
547.436	43436
547.501	42743
547.565	45458
547.630	44373
547.695	42369
547.759	43086
547.823	42458
547.888	41043
547.952	42673
548.017	44679
548.081	48771
548.146	48778
548.210	48574
548.274	49102
548.339	46811
548.403	44335
548.468	40735
548.532	40128
548.596	41363
548.660	42668
548.725	47362
548.789	50580
548.853	50223
548.917	46673
548.982	47791
549.046	43345
549.110	35563
549.174	37376
549.238	43440
549.303	45546
549.367	49320
549.431	46379
549.495	42765
549.559	44311
549.623	50116
549.687	56089
549.751	59268
549.815	65071
549.879	65372
549.943	59697
550.007	64683
550.071	63115
550.135	60211
550.199	55189
550.263	54150
550.327	51883
550.391	55642
550.455	60064
550.519	59923
550.582	64423
550.646	76486
550.710	76843
550.774	71487
550.838	72273
550.901	74028
550.965	79347
551.029	81390
551.093	88654
551.156	96904
551.220	119827
551.284	139986
551.347	99183
551.411	98149
551.475	96857
551.538	78459
551.602	71334
551.666	65084
551.729	62248
551.793	62092
551.856	60680
551.920	61185
551.983	59839
552.047	58427
552.110	58318
552.174	61189
552.237	60419
552.301	56900
552.364	53066
552.428	50668
552.491	54536
552.554	55654
552.618	56439
552.681	56607
552.745	55253
552.808	65145
552.871	72435
552.934	61477
552.998	56791
553.061	54680
553.124	54563
553.187	52831
553.251	55842
553.314	56494
553.377	57999
553.440	71224
553.503	124095
553.567	159711
553.630	66716
553.693	57749
553.756	57475
553.819	53808
553.882	51726
553.945	52613
554.008	52715
554.071	52232
554.134	53041
554.197	48923
554.260	47870
554.323	49647
554.386	50206
554.449	52172
554.512	51788
554.575	49721
554.638	49156
554.701	49492
554.764	48338
554.827	47683
554.889	45003
554.952	41513
555.015	40102
555.078	42699
555.141	43412
555.203	42099
555.266	42293
555.329	42043
555.391	38543
555.454	38847
555.517	39998
555.580	37849
555.642	35514
555.705	34791
555.768	35041
555.830	34903
555.893	31723
555.955	32792
556.018	31894
556.080	31263
556.143	33161
556.206	31820
556.268	32007
556.330	31382
556.393	31601
556.455	30603
556.518	31875
556.580	33066
556.643	27710
556.705	27728
556.767	26620
556.830	26977
556.892	26563
556.955	32789
557.017	28429
557.079	25966
557.142	26116
557.204	26850
557.266	34772
557.328	30090
557.391	21871
557.453	22297
557.515	21821
557.577	25077
557.639	26608
557.701	23472
557.764	22459
557.826	23401
557.888	27063
557.950	25824
558.012	28689
558.074	40116
558.136	86320
558.198	199394
558.260	69127
558.322	29608
558.384	31644
558.446	35054
558.508	38491
558.570	46216
558.632	60128
558.694	81815
558.756	112639
558.818	323800
558.880	741351
558.942	247625
559.003	212991
559.065	101278
559.127	41844
559.189	41462
559.251	47519
559.312	70882
559.374	165468
559.436	518540
559.498	244664
559.559	46652
559.621	41777
559.683	49739
559.744	83808
559.806	258752
559.868	368829
559.929	70037
559.991	45192
560.052	70571
560.114	195587
560.176	121021
560.237	112110
560.299	175319
560.360	39659
560.422	18502
560.483	17897
560.545	15132
560.606	15209
560.667	14269
560.729	13932
560.790	13532
560.852	13796
560.913	12711
560.974	12389
561.036	12382
561.097	13108
561.158	13442
561.220	13408
561.281	12444
561.342	12230
561.403	14747
561.465	17360
561.526	31570
561.587	38065
561.648	15405
561.709	13510
561.771	12699
561.832	12510
561.893	11496
561.954	12849
562.015	11515
562.076	11582
562.137	12486
562.198	12487
562.259	12308
562.320	11807
562.381	12693
562.442	17731
562.503	15644
562.564	11476
562.625	11857
562.686	12396
562.747	15076
562.808	13066
562.869	11711
562.930	13064
562.991	12680
563.051	11734
563.112	12359
563.173	11141
563.234	11141
563.294	11098
563.355	11270
563.416	12258
563.477	10702
563.537	11498
563.598	11697
563.659	12003
563.720	10673
563.780	11883
563.841	11766
563.901	11735
563.962	11545
564.023	11162
564.083	11871
564.144	10835
564.204	11314
564.265	11662
564.325	12513
564.386	19179
564.446	17202
564.507	10403
564.567	10348
564.628	11939
564.688	10452
564.749	10127
564.809	11507
564.869	14106
564.930	10450
564.990	11113
565.050	9816
565.111	10412
565.171	10876
565.231	10374
565.292	11089
565.352	9888
565.412	9839
565.472	10728
565.532	11559
565.593	10573
565.653	10345
565.713	11141
565.773	11773
565.833	13004
565.893	13972
565.953	10987
566.013	10824
566.074	11719
566.134	14291
566.194	17456
566.254	17996
566.314	13136
566.374	11509
566.434	11656
566.494	10466
566.554	11416
566.614	12054
566.673	11174
566.733	11730
566.793	12179
566.853	12970
566.913	11872
566.973	12044
567.033	13454
567.092	14819
567.152	14417
567.212	13794
567.272	12386
567.331	13083
567.391	12789
567.451	12601
567.511	16090
567.570	15628
567.630	12129
567.690	11826
567.749	11574
567.809	11991
567.868	13701
567.928	13773
567.988	13974
568.047	14105
568.107	15195
568.166	17801
568.226	23730
568.285	28592
568.345	23994
568.404	20424
568.464	18463
568.523	17175
568.582	18859
568.642	20141
568.701	23883
568.761	30986
568.820	42771
568.879	40832
568.939	32932
568.998	24281
569.057	19102
569.116	17227
569.176	16363
569.235	14378
569.294	14151
569.353	12743
569.413	12758
569.472	11844
569.531	11757
569.590	10948
569.649	12079
569.708	11187
569.767	13095
569.827	16766
569.886	15143
569.945	11855
570.004	11846
570.063	12890
570.122	12166
570.181	12644
570.240	13642
570.299	14263
570.358	16566
570.417	12752
570.475	11056
570.534	11757
570.593	11728
570.652	12635
570.711	14010
570.770	11980
570.829	12352
570.887	12225
570.946	13061
571.005	10659
571.064	10787
571.122	12588
571.181	14076
571.240	10925
571.299	10444
571.357	11276
571.416	11575
571.475	12057
571.533	13062
571.592	10184
571.650	11082
571.709	12563
571.768	11473
571.826	11712
571.885	10776
571.943	10536
572.002	9729
572.060	10881
572.119	10581
572.177	9612
572.236	9799
572.294	9442
572.352	10974
572.411	11618
572.469	9807
572.528	9731
572.586	11656
572.644	13331
572.703	18926
572.761	12552
572.819	9296
572.877	9462
572.936	8795
572.994	9448
573.052	10293
573.110	10831
573.169	10507
573.227	9620
573.285	9823
573.343	10522
573.401	9999
573.459	9886
573.517	9546
573.576	9652
573.634	10562
573.692	11422
573.750	10383
573.808	9330
573.866	9758
573.924	12399
573.982	11721
574.040	9117
574.098	10207
574.155	8897
574.213	9155
574.271	9449
574.329	10045
574.387	9365
574.445	8471
574.503	9010
574.560	7688
574.618	9042
574.676	8311
574.734	8828
574.792	9512
574.849	9034
574.907	7354
574.965	8565
575.022	8615
575.080	8093
575.138	8770
575.195	8083
575.253	8623
575.311	9702
575.368	8626
575.426	7795
575.483	8968
575.541	8833
575.598	8760
575.656	8305
575.713	8922
575.771	8366
575.828	8647
575.886	9086
575.943	8705
576.001	9117
576.058	8416
576.115	9502
576.173	9500
576.230	10878
576.287	11953
576.345	11690
576.402	9545
576.459	9547
576.517	10250
576.574	9677
576.631	9813
576.688	9227
576.746	8490
576.803	8334
576.860	8173
576.917	9630
576.974	7845
577.031	8151
577.089	8506
577.146	8759
577.203	8905
577.260	10157
577.317	9176
577.374	10490
577.431	10595
577.488	9979
577.545	9255
577.602	9349
577.659	9971
577.716	10659
577.773	12762
577.830	9919
577.886	9868
577.943	8654
578.000	9371
578.057	8600
578.114	10306
578.171	9897
578.227	10637
578.284	10485
578.341	10726
578.398	9167
578.454	10080
578.511	10780
578.568	11925
578.625	9806
578.681	9910
578.738	9672
578.794	9681
578.851	10355
578.908	9830
578.964	10503
579.021	11109
579.077	9435
579.134	9963
579.190	9487
579.247	9590
579.303	9305
579.360	9940
579.416	8307
579.473	10357
579.529	9612
579.586	9323
579.642	10137
579.698	10807
579.755	11031
579.811	12254
579.867	11311
579.924	11062
579.980	12004
580.036	13239
580.093	12880
580.149	15808
580.205	15385
580.261	14078
580.317	12990
580.374	13520
580.430	14755
580.486	14177
580.542	13115
580.598	13451
580.619	13444
580.654	13446
580.692	12934
580.710	12700
580.765	13235
580.767	13266
580.823	13766
580.838	13974
580.879	14565
580.911	14615
580.935	14680
580.984	14019
580.991	13950
581.047	14684
581.057	14514
581.103	13816
581.130	14605
581.159	15441
581.203	15151
581.215	15098
581.270	14772
581.276	14805
581.326	15284
581.349	15491
581.382	15792
581.422	16165
581.438	16346
581.494	16160
581.494	16142
581.550	15574
581.567	15958
581.606	16763
581.640	16550
581.661	16416
581.713	17528
581.717	17635
581.773	16323
581.786	16402
581.829	16656
581.859	17328
581.885	17968
581.932	17562
581.940	17481
581.996	18972
582.004	19019
582.052	19399
582.077	19227
582.107	19047
582.150	19018
582.163	19016
582.219	18952
582.223	18957
582.274	19104
582.296	19374
582.330	19848
582.368	20183
582.386	20376
582.441	21088
582.441	21095
582.497	21074
582.514	21285
582.552	21852
582.587	22684
582.608	23165
582.659	22382
582.663	22320
582.719	22322
582.732	22510
582.774	23340
582.805	23778
582.830	24116
582.877	24644
582.885	24770
582.941	27179
582.950	27818
582.996	31076
583.023	32983
583.052	35155
583.095	35243
583.107	35092
583.162	32305
583.168	32081
583.218	30139
583.240	29254
583.273	27991
583.313	26720
583.328	26290
583.384	25344
583.385	25296
583.439	23575
583.458	23295
583.494	23002
583.531	21763
583.549	21126
583.603	22339
583.605	22375
583.660	20744
583.676	21173
583.715	22206
583.748	21807
583.770	21664
583.820	21799
583.825	21775
583.881	22099
583.893	21849
583.936	21073
583.965	21337
583.991	21628
584.038	22087
584.046	22169
584.101	22115
584.110	22247
584.156	22539
584.183	22429
584.211	22484
584.255	22831
584.266	22940
584.321	22654
584.328	22892
584.376	24663
584.400	24330
584.431	23726
584.472	24042
584.486	24192
584.541	24284
584.545	24341
584.596	25192
584.617	24894
584.651	24764
584.689	26277
584.706	26578
584.761	26251
584.762	26251
584.816	26214
584.834	26494
584.871	26671
584.906	26743
584.926	27019
584.978	27183
584.980	27157
585.035	27279
585.051	27621
585.090	28765
585.123	29046
585.145	29472
585.195	30311
585.200	30408
585.254	32829
585.267	33860
585.309	37487
585.340	39774
585.364	41120
585.412	41341
585.419	41378
585.473	45171
585.484	46615
585.528	55837
585.556	66010
585.583	85604
585.628	129342
585.637	145327
585.692	283316
585.700	307948
585.747	397107
585.772	344211
585.801	221581
585.845	85471
585.856	69123
585.910	44136
585.917	41788
585.965	36786
585.989	35034
586.019	33884
586.061	32423
586.074	32075
586.128	31888
586.133	31825
586.183	30663
586.205	30180
586.237	29546
586.277	28391
586.292	27889
586.346	26699
586.349	26662
586.401	26282
586.421	25970
586.455	25782
586.493	26577
586.509	27771
586.564	31713
586.565	31882
586.618	41073
586.637	41886
586.672	36988
586.709	31339
586.727	29822
586.781	28931
586.781	28927
586.835	25836
586.853	25050
586.889	23300
586.925	21973
586.944	21841
586.996	21902
586.998	21903
587.052	22479
587.068	22440
587.106	22252
587.140	22173
587.161	22035
587.212	22043
587.215	22091
587.269	23175
587.284	23446
587.323	23407
587.356	23337
587.377	23338
587.427	23419
587.431	23455
587.485	23580
587.499	23790
587.539	24487
587.571	25053
587.593	25424
587.643	26299
587.648	26390
587.702	26788
587.715	27064
587.755	27694
587.786	28170
587.810	28459
587.858	28553
587.864	28702
587.917	31090
587.930	31565
587.971	33153
588.001	34474
588.025	35041
588.073	36289
588.079	36598
588.133	39403
588.145	40270
588.187	43558
588.217	45584
588.241	47598
588.288	52258
588.295	52991
588.348	60456
588.360	62011
588.402	68735
588.431	74278
588.456	79036
588.503	89044
588.510	90756
588.564	106420
588.575	110185
588.617	127844
588.646	141873
588.671	158676
588.718	197624
588.725	207479
588.778	296178
588.789	318146
588.832	475027
588.861	594791
588.886	730381
588.932	992005
588.939	1003115
588.993	993461
589.004	987105
589.047	804619
589.075	647012
589.100	513402
589.147	299060
589.154	285359
589.207	208682
589.218	195535
589.261	181879
589.290	177137
589.314	183812
589.361	204467
589.368	213925
589.421	305851
589.433	328984
589.475	511701
589.504	654511
589.528	760331
589.576	928039
589.582	909225
589.635	667094
589.647	606562
589.689	367703
589.718	221116
589.742	179258
589.790	113932
589.795	110729
589.849	87217
589.861	82548
589.902	75484
589.932	70120
589.955	63997
590.004	51447
590.009	50819
590.062	45406
590.075	44077
590.115	40956
590.146	38897
590.168	37827
590.218	35305
590.222	35199
590.275	34148
590.289	33872
590.328	33381
590.360	32883
590.381	32327
590.431	31169
590.435	31119
590.488	30247
590.503	29948
590.541	29431
590.574	29128
590.594	29014
590.645	28940
590.647	28935
590.700	28236
590.716	28081
590.753	27759
590.787	27500
590.806	27323
590.859	26875
590.859	26876
590.912	26499
590.930	26414
590.965	26617
591.001	26836
591.018	26771
591.071	26488
591.072	26478
591.124	27296
591.143	27504
591.177	27141
591.214	26898
591.230	27229
591.283	28347
591.285	28371
591.336	28464
591.356	28529
591.389	28263
591.427	27829
591.442	27296
591.495	25262
591.498	25107
591.547	25149
591.569	25237
591.600	25357
591.640	25355
591.653	25479
591.706	25992
591.711	26043
591.759	27155
591.782	27722
591.811	28407
591.853	29375
591.864	29083
591.917	27371
591.924	27114
591.969	26746
591.995	26582
592.022	27116
592.066	27976
592.075	28326
592.127	30290
592.137	30658
592.180	31723
592.208	32347
592.233	30931
592.279	28089
592.285	28063
592.338	27856
592.350	27793
592.390	27448
592.421	27206
592.443	27443
592.491	27907
592.495	27925
592.548	28087
592.562	28118
592.600	27673
592.633	27295
592.653	27354
592.704	27341
592.705	27521
592.775	28742
592.846	28703
592.916	29315
592.987	31493
593.058	30611
593.128	29463
593.199	29519
593.270	29238
593.341	29162
593.411	31837
593.482	31166
593.553	30884
593.623	30766
593.694	32723
593.764	33423
593.835	32081
593.906	31728
593.976	32183
594.047	33234
594.117	38002
594.188	37745
594.258	34009
594.329	34129
594.399	33449
594.470	34994
594.540	36590
594.611	35818
594.681	37031
594.751	36328
594.822	38782
594.892	39159
594.963	41039
595.033	40656
595.103	41949
595.174	43763
595.244	52432
595.314	56835
595.384	45514
595.455	45677
595.525	47075
595.595	47501
595.665	48279
595.736	46906
595.806	48958
595.876	48451
595.946	49465
596.016	50197
596.087	53782
596.157	52249
596.227	52762
596.297	55302
596.367	58261
596.437	62774
596.507	68704
596.577	73304
596.647	64215
596.717	64294
596.787	66205
596.857	66476
596.927	66806
596.997	68605
597.067	69677
597.137	73871
597.207	72601
597.277	71635
597.347	71280
597.417	69770
597.487	70798
597.557	71209
597.626	74180
597.696	75270
597.766	79184
597.836	83012
597.906	71487
597.975	70422
598.045	70373
598.115	73573
598.185	77256
598.254	84902
598.324	90920
598.394	92061
598.464	93101
598.533	89294
598.603	87862
598.672	86571
598.742	88691
598.812	89224
598.881	91688
598.951	91977
599.020	93940
599.090	96211
599.159	98787
599.229	97112
599.299	97108
599.368	100990
599.437	101818
599.507	97718
599.576	97418
599.646	101576
599.715	102509
599.785	100007
599.854	100610
599.924	104171
599.993	103536
600.062	105072
600.132	108426
600.201	112874
600.270	124590
600.340	127630
600.409	127164
600.478	127944
600.547	132237
600.617	129275
600.686	121471
600.755	118528
600.824	119738
600.894	118877
600.963	122217
601.032	123940
601.101	125551
601.170	125924
601.239	128242
601.308	133293
601.378	136233
601.447	137696
601.516	138890
601.585	144494
601.654	150030
601.723	150336
601.792	155933
601.861	163556
601.930	176069
601.999	180916
602.068	176546
602.137	177321
602.206	178870
602.275	178873
602.343	181146
602.412	182472
602.481	183174
602.550	182022
602.619	185937
602.688	184441
602.756	189449
602.825	185492
602.894	193298
602.963	187774
603.032	194158
603.100	192671
603.169	185905
603.238	197528
603.307	185562
603.375	188608
603.444	199614
603.513	180747
603.581	192083
603.650	202464
603.719	164521
603.787	153265
603.856	157796
603.924	162920
603.993	167630
604.061	169892
604.130	173862
604.198	178467
604.267	180146
604.335	185303
604.404	183296
604.472	190759
604.541	189891
604.609	200499
604.678	206518
604.746	210588
604.815	223124
604.883	210407
604.951	204051
605.020	209821
605.088	189762
605.156	176824
605.225	176107
605.293	175128
605.361	177755
605.429	172737
605.498	181222
605.566	174892
605.634	185749
605.702	178501
605.771	183055
605.839	190807
605.907	172822
605.975	182553
606.043	172855
606.111	165765
606.180	188610
606.248	165327
606.316	166096
606.384	180435
606.452	137978
606.520	110491
606.588	105870
606.656	104197
606.724	102147
606.792	97340
606.860	87912
606.928	81892
606.996	79841
607.064	77421
607.132	81187
607.200	84429
607.267	87080
607.335	87648
607.403	91246
607.471	88312
607.539	87319
607.607	86569
607.674	76950
607.742	77912
607.810	77958
607.878	77829
607.946	77002
608.013	80533
608.081	84516
608.149	85167
608.216	83431
608.284	85706
608.352	84738
608.419	84823
608.487	87276
608.555	80707
608.622	81402
608.690	84412
608.757	90488
608.825	93651
608.893	92236
608.960	92526
609.028	91010
609.095	89091
609.163	81627
609.230	72427
609.298	66568
609.365	70181
609.432	75799
609.500	81277
609.567	94226
609.635	107329
609.702	112165
609.769	107170
609.837	86702
609.904	73310
609.971	75917
610.039	91033
610.106	127756
610.173	269480
610.241	643512
610.308	349293
610.375	114661
610.442	83234
610.509	76484
610.577	75849
610.644	77178
610.711	77681
610.778	80590
610.845	83352
610.912	90957
610.980	97135
611.047	106426
611.114	97074
611.181	88483
611.248	86334
611.315	92100
611.382	93291
611.449	95894
611.516	98785
611.583	98697
611.650	97767
611.717	100432
611.784	102287
611.851	111032
611.918	123148
611.984	147908
612.051	225832
612.118	491155
612.185	1201393
612.252	728102
612.319	183082
612.386	136527
612.452	121325
612.519	115505
612.586	118891
612.653	115565
612.719	114688
612.786	109307
612.853	101562
612.919	99369
612.986	101231
613.053	95649
613.120	89049
613.186	86328
613.253	86556
613.319	86180
613.386	85546
613.453	90694
613.519	94458
613.586	95222
613.652	105211
613.719	97791
613.785	93999
613.852	90543
613.918	89937
613.985	97304
614.051	112628
614.118	152563
614.184	140587
614.250	92301
614.317	90749
614.383	89952
614.449	91196
614.516	90582
614.582	90962
614.648	89042
614.715	87715
614.781	85704
614.847	87864
614.914	86939
614.980	85096
615.046	85269
615.112	86769
615.179	85668
615.245	87965
615.311	88639
615.377	92346
615.443	94056
615.509	91997
615.575	96493
615.642	93791
615.708	97970
615.774	104546
615.840	110858
615.906	124611
615.972	162504
616.038	268244
616.104	594325
616.170	1379497
616.236	1133663
616.302	281622
616.368	198073
616.434	138064
616.500	124092
616.565	139968
616.631	183337
616.697	141520
616.763	149545
616.829	242748
616.895	456670
616.961	424782
617.026	164182
617.092	106217
617.158	98870
617.224	92627
617.289	86086
617.355	82965
617.421	81005
617.487	82916
617.552	76865
617.618	76141
617.684	75212
617.749	77597
617.815	74385
617.880	70267
617.946	71093
618.012	74051
618.077	75400
618.143	70154
618.208	72632
618.274	76215
618.339	79297
618.405	63923
618.470	66527
618.536	64517
618.601	67063
618.667	60823
618.732	58284
618.798	56525
618.863	58083
618.928	56460
618.994	58037
619.059	62380
619.124	68077
619.190	60432
619.255	57553
619.320	56221
619.386	56943
619.451	55732
619.516	54592
619.581	55831
619.647	57154
619.712	57085
619.777	54800
619.842	56021
619.907	60353
619.972	58442
620.038	58155
620.103	55732
620.168	55374
620.233	57280
620.298	57373
620.363	57776
620.428	59729
620.493	61169
620.558	60342
620.623	61351
620.688	60272
620.753	60198
620.818	62522
620.883	62505
620.948	62846
621.013	61796
621.078	62159
621.143	61307
621.207	64804
621.272	61829
621.337	61747
621.402	62864
621.467	65421
621.532	66931
621.596	65337
621.661	59933
621.726	57624
621.791	58712
621.855	61342
621.920	61298
621.985	62477
622.049	65586
622.114	65324
622.179	63802
622.243	65548
622.308	65255
622.373	69657
622.437	67978
622.502	62983
622.566	62361
622.631	62151
622.695	63520
622.760	63889
622.824	63906
622.889	65211
622.953	67052
623.018	80924
623.082	79268
623.147	67738
623.211	65933
623.276	67462
623.340	61606
623.404	61104
623.469	61034
623.533	63657
623.597	59839
623.662	59643
623.726	56381
623.790	52660
623.854	52256
623.919	56153
623.983	53376
624.047	55620
624.111	55317
624.176	58097
624.240	62667
624.304	67542
624.368	54607
624.432	55487
624.496	57151
624.560	61757
624.625	62927
624.689	59027
624.753	61320
624.817	58760
624.881	54966
624.945	53114
625.009	51185
625.073	52832
625.137	57256
625.201	62430
625.265	59229
625.329	55597
625.393	54844
625.456	53425
625.520	54116
625.584	58112
625.648	64015
625.712	76912
625.776	113798
625.839	119493
625.903	62037
625.967	48913
626.031	64204
626.095	84897
626.158	54287
626.222	41432
626.286	38939
626.349	37317
626.413	35515
626.477	38873
626.540	35918
626.604	35932
626.668	35909
626.731	35046
626.795	36116
626.858	34745
626.922	33029
626.986	32865
627.049	31596
627.113	35263
627.176	33768
627.240	33951
627.303	32489
627.366	32748
627.430	34057
627.493	33227
627.557	32278
627.620	35085
627.684	33512
627.747	32915
627.810	29811
627.874	30115
627.937	26955
628.000	31180
628.064	28254
628.127	24209
628.190	25488
628.253	25613
628.317	23481
628.380	23102
628.443	24799
628.506	25363
628.569	21527
628.632	21596
628.696	20382
628.759	20579
628.822	18868
628.885	19047
628.948	19266
629.011	19169
629.074	19307
629.137	18442
629.200	19026
629.263	21478
629.326	17004
629.389	17474
629.452	18265
629.515	19251
629.578	18144
629.641	20140
629.704	19124
629.767	18879
629.830	17362
629.892	16847
629.955	16217
630.018	19380
630.081	19487
630.144	22019
630.207	17948
630.269	19306
630.332	18835
630.395	18104
630.458	17286
630.520	16267
630.583	17259
630.646	16792
630.708	15746
630.771	16153
630.834	17671
630.896	16062
630.959	16644
631.021	16246
631.084	16855
631.146	18066
631.209	18874
631.272	16372
631.334	16968
631.397	17427
631.459	16664
631.522	19289
631.584	19354
631.646	21172
631.709	21170
631.771	25641
631.834	21692
631.896	19089
631.958	17229
632.021	17579
632.083	16595
632.145	17353
632.208	16479
632.270	17625
632.332	15315
632.395	15428
632.457	15973
632.519	14325
632.581	16186
632.643	15452
632.706	16236
632.768	13904
632.830	15248
632.892	15282
632.954	14927
633.016	16651
633.078	14573
633.141	15636
633.203	15260
633.265	15352
633.327	14538
633.389	14876
633.451	17076
633.513	19005
633.575	18692
633.637	18551
633.698	17230
633.760	16818
633.822	17994
633.884	18407
633.946	17642
634.008	18394
634.070	20569
634.132	24643
634.193	23372
634.255	25035
634.317	24995
634.379	26060
634.441	21713
634.502	19192
634.564	17749
634.626	16876
634.687	15150
634.749	15597
634.811	15186
634.873	13992
634.934	15378
634.996	15484
635.057	14009
635.119	14533
635.181	15163
635.242	16976
635.304	13966
635.365	18199
635.427	14856
635.488	15942
635.550	13736
635.611	15631
635.673	13966
635.734	19479
635.796	17522
635.857	21358
635.918	20619
635.980	23898
636.041	24650
636.102	27439
636.164	27860
636.225	27791
636.286	21275
636.348	20425
636.409	17775
636.470	15846
636.531	16271
636.593	16098
636.654	15403
636.715	14037
636.776	13620
636.838	12065
636.899	13693
636.960	12352
637.021	11920
637.082	12388
637.143	12103
637.204	11335
637.265	11266
637.326	11751
637.387	12428
637.448	10729
637.509	12024
637.570	11544
637.631	12096
637.692	10452
637.753	10360
637.814	12122
637.875	10952
637.936	12372
637.997	11113
638.058	13117
638.119	12814
638.179	11351
638.240	10196
638.301	10903
638.362	9909
638.423	10434
638.483	11149
638.544	9748
638.605	10372
638.666	9701
638.726	10203
638.787	11724
638.848	9549
638.908	10717
638.969	9925
639.030	10047
639.090	8300
639.151	9881
639.211	11142
639.272	13967
639.332	20241
639.393	13872
639.453	11674
639.514	11763
639.574	10555
639.635	10014
639.695	9734
639.756	9309
639.816	10372
639.877	11862
639.937	18188
639.997	22225
640.058	10019
640.118	9121
640.178	10378
640.239	9207
640.299	9329
640.359	9455
640.420	10047
640.480	11315
640.540	13161
640.600	13266
640.661	12034
640.721	11737
640.781	16737
640.841	13667
640.901	10695
640.961	9783
641.021	10879
641.082	12621
641.142	15284
641.202	11091
641.262	7925
641.322	10086
641.382	7541
641.442	9576
641.502	9337
641.562	9253
641.622	9164
641.682	10318
641.742	11688
641.802	11525
641.861	10526
641.921	8832
641.981	10103
642.041	9777
642.101	12063
642.161	7548
642.221	7430
642.280	8017
642.340	8300
642.400	7667
642.460	9717
642.519	8385
642.579	8030
642.639	8695
642.698	7276
642.758	10948
642.818	8851
642.877	8579
642.937	9710
642.997	11122
643.056	14423
643.116	9842
643.175	9936
643.235	10239
643.294	9994
643.354	11372
643.414	11687
643.473	14308
643.532	17555
643.592	25277
643.651	42118
643.711	78152
643.770	160110
643.830	404480
643.889	804853
643.948	184411
644.008	34823
644.067	20109
644.126	15358
644.186	12634
644.245	11646
644.304	8258
644.363	11080
644.423	8955
644.482	9498
644.541	10903
644.600	9520
644.659	13909
644.719	16790
644.778	28767
644.837	51687
644.896	114163
644.955	262050
645.014	77824
645.073	18639
645.132	12849
645.191	11481
645.250	10464
645.309	12551
645.368	11611
645.427	17317
645.486	29494
645.545	50837
645.604	14953
645.663	9586
645.722	10398
645.781	10738
645.840	13008
645.898	15605
645.957	24914
646.016	39229
646.075	75300
646.134	155212
646.192	433698
646.251	592861
646.310	84760
646.369	24272
646.427	19826
646.486	13697
646.545	11136
646.603	10376
646.662	9793
646.721	9215
646.779	9176
646.838	8978
646.896	12549
646.955	18256
647.014	30706
647.072	58823
647.131	171939
647.189	71791
647.248	11227
647.306	8863
647.365	8568
647.423	5970
647.481	8286
647.540	5049
647.598	6847
647.657	6216
647.715	7612
647.773	5045
647.832	8199
647.890	5492
647.948	5249
648.007	6215
648.065	5113
648.123	5455
648.181	7643
648.240	8700
648.298	6667
648.356	4870
648.414	5976
648.472	5089
648.531	6585
648.589	5018
648.647	5574
648.705	5707
648.763	6148
648.821	6289
648.879	4866
648.937	7214
648.995	8634
649.053	12242
649.111	20148
649.169	34426
649.227	66375
649.285	143282
649.343	415130
649.401	178454
649.459	38399
649.516	23827
649.574	18407
649.632	36829
649.690	43311
649.748	22172
649.806	28884
649.863	55250
649.921	121082
649.979	70842
650.037	10961
650.094	5639
650.152	6484
650.210	4084
650.268	6460
650.325	6634
650.383	7653
650.440	3914
650.498	4586
650.556	4030
650.613	4257
650.671	4453
650.728	5286
650.786	4645
650.843	7310
650.901	3478
650.958	4155
651.016	3235
651.073	4910
651.131	3091
651.188	3583
651.246	3984
651.303	2394
651.360	3581
651.418	3417
651.475	4123
651.532	2356
651.590	4412
651.647	3106
651.704	3704
651.762	4067
651.819	3241
651.876	3492
651.933	3001
651.990	3977
652.048	1664
652.105	2996
652.162	3088
652.219	2525
652.276	3241
652.333	3105
652.390	2686
652.448	3221
652.505	3396
652.562	3976
652.619	4152
652.676	9072
652.733	9161
652.790	3906
652.847	2255
652.904	3608
652.961	2192
653.017	2606
653.074	4053
653.131	3923
653.188	2110
653.245	2983
653.302	2392
653.359	2238
653.415	3073
653.472	1826
653.529	2717
653.586	2872
653.642	2241
653.699	3239
653.756	1957
653.813	2257
653.869	3159
653.926	3181
653.983	2195
654.039	3349
654.096	2329
654.152	3668
654.209	1582
654.266	3588
654.322	2515
654.379	3458
654.435	4248
654.492	4637
654.548	4905
654.605	7515
654.661	4820
654.717	3507
654.774	2711
654.830	2626
654.887	2555
654.943	2809
655.000	4087
655.056	3873
655.112	2816
655.168	2057
655.225	3124
655.281	3219
655.337	3924
655.394	7514
655.450	4415
655.506	4362
655.562	7555
655.618	6813
655.675	2354
655.731	2271
655.787	2241
655.843	3886
655.899	1369
655.955	2795
656.011	2870
656.067	2553
656.123	2500
656.179	3103
656.235	3383
656.291	2055
656.347	3011
656.403	2523
656.459	2987
656.515	3250
656.571	2605
656.627	3395
656.683	2908
656.739	3643
656.795	2883
656.850	2441
656.906	3098
656.962	3381
657.018	2486
657.074	4059
657.129	4416
657.185	6983
657.241	14742
657.297	7773
657.352	3161
657.408	2384
657.464	3844
657.519	3066
657.575	1490
657.630	2555
657.686	1394
657.742	2396
657.797	1918
657.853	2461
657.908	3206
657.964	1635
658.019	2192
658.075	2778
658.130	2529
658.186	1777
658.241	2909
658.297	2144
658.352	1853
658.407	2580
658.463	2077
658.518	2194
658.573	3378
658.629	1909
658.684	1645
658.739	2464
658.795	2224
658.850	2230
658.905	1520
658.960	1697
659.016	1839
659.071	2648
659.126	2416
659.181	2190
659.236	6511
659.291	6533
659.346	3620
659.401	3918
659.457	5091
659.512	7174
659.567	4446
659.622	2536
659.677	1647
659.732	1536
659.787	2512
659.842	3207
659.897	3339
659.952	3279
660.007	2841
660.061	2456
660.116	1736
660.171	2058
660.226	1645
660.281	3125
660.336	1181
660.391	2458
660.445	1345
660.500	2492
660.555	2368
660.610	1990
660.664	2344
660.719	1147
660.774	2192
660.828	2548
660.883	2141
660.938	2513
660.992	1550
661.047	2367
661.101	1757
661.156	1678
661.211	932
661.265	1954
661.320	2407
661.374	2188
661.429	1217
661.483	3096
661.538	1969
661.592	2176
661.647	2230
661.701	4224
661.755	1492
661.810	2774
661.864	1414
661.919	1896
661.973	2270
662.027	1459
662.081	1668
662.136	2210
662.190	2390
662.244	2727
662.299	1476
662.353	3013
662.407	1455
662.461	2252
662.515	2407
662.569	2299
662.624	1993
662.678	2094
662.732	1857
662.786	2140
662.840	1668
662.894	2162
662.948	1012
663.002	2331
663.056	1996
663.110	2365
663.164	928
663.218	2704
663.272	2058
663.326	3041
663.380	1529
663.434	2490
663.488	1140
663.542	1376
663.595	2258
663.649	1853
663.703	2624
663.757	1597
663.811	1049
663.864	2166
663.918	1534
663.972	1426
664.026	2258
664.079	1928
664.133	2534
664.187	1968
664.240	1460
664.294	2348
664.348	1885
664.401	2409
664.455	2015
664.508	2168
664.562	1569
664.615	2177
664.669	721
664.722	2002
664.776	992
664.829	1284
664.883	1392
664.936	2108
664.990	1776
665.043	2999
665.097	1119
665.150	3572
665.203	1668
665.257	2255
665.310	2164
665.363	3285
665.417	2300
665.470	1673
665.523	1797
665.576	2580
665.630	2921
665.683	2584
665.736	1738
665.789	2441
665.842	1587
665.895	3018
665.949	2019
666.002	1938
666.055	1768
666.108	3175
666.161	1530
666.214	2820
666.267	2167
666.320	3643
666.373	2713
666.426	2575
666.479	2478
666.532	2460
666.585	2651
666.638	3998
666.691	2642
666.744	3745
666.796	2466
666.849	2866
666.902	2064
666.955	2281
667.008	1965
667.060	1487
667.113	1328
667.166	2422
667.219	1594
667.271	2593
667.324	2170
667.377	2253
667.430	1698
667.482	3524
667.535	2773
667.587	2879
667.640	2573
667.693	3346
667.745	5456
667.798	6233
667.850	2446
667.903	2075
667.955	2038
668.008	2065
668.060	2167
668.113	2500
668.165	1865
668.218	3082
668.270	1639
668.322	2526
668.375	2207
668.427	2876
668.479	1670
668.532	2114
668.584	2209
668.636	1957
668.689	2332
668.741	1690
668.793	1295
668.845	2514
668.898	2795
668.950	2243
669.002	1626
669.054	1592
669.106	1995
669.158	3210
669.211	1940
669.263	2365
669.315	4236
669.367	3444
669.419	2443
669.471	3458
669.523	2777
669.575	4532
669.627	2862
669.679	2588
669.731	1801
669.783	2672
669.835	2590
669.886	2332
669.938	2526
669.990	2235
670.042	1231
670.094	2241
670.146	2696
670.197	2632
670.249	2328
670.301	3535
670.353	3856
670.404	6785
670.456	7696
670.508	13595
670.560	22726
670.611	41089
670.663	72907
670.715	186190
670.766	274222
670.818	64902
670.869	12289
670.921	7411
670.972	5770
671.024	3938
671.075	3330
671.127	2926
671.178	2635
671.230	2930
671.281	3271
671.333	3606
671.384	3179
671.436	4066
671.487	6302
671.538	9110
671.590	13221
671.641	22170
671.692	41157
671.744	77554
671.795	47136
671.846	15257
671.897	7443
671.949	5036
672.000	4483
672.051	3528
672.102	4084
672.153	2364
672.204	1885
672.256	3347
672.307	2661
672.358	2867
672.409	3043
672.460	2294
672.511	1707
672.562	1560
672.613	1510
672.664	2026
672.715	1807
672.766	2441
672.817	1083
672.868	2014
672.919	1360
672.970	2027
673.021	1947
673.071	1355
673.122	1408
673.173	2302
673.224	1552
673.275	1414
673.326	1211
673.376	1834
673.427	1151
673.478	1471
673.528	1622
673.579	2578
673.630	1456
673.680	2316
673.731	1558
673.782	1080
673.832	1275
673.883	2400
673.934	1199
673.984	2048
674.035	1567
674.085	1847
674.136	1925
674.186	2444
674.237	2391
674.287	4478
674.338	1493
674.388	2003
674.438	2317
674.489	2031
674.539	2223
674.589	2245
674.640	2084
674.690	1820
674.740	1359
674.791	2281
674.841	2022
674.891	1797
674.942	2099
674.992	1251
675.042	1085
675.092	1910
675.142	1147
675.193	1737
675.243	1175
675.293	2002
675.343	1254
675.393	2032
675.443	967
675.493	2297
675.543	475
675.593	1787
675.643	1278
675.693	925
675.743	709
675.793	1586
675.843	1864
675.893	926
675.943	822
675.993	1765
676.043	1282
676.093	1304
676.142	1400
676.192	1834
676.242	472
676.292	1403
676.341	1181
676.391	1316
676.441	865
676.491	1782
676.540	813
676.590	1202
676.640	1593
676.689	2041
676.739	749
676.789	1063
676.838	1306
676.888	853
676.937	911
676.987	1654
677.037	1206
677.086	1130
677.136	860
677.185	1287
677.235	589
677.284	475
677.333	116
677.383	16
677.432	547
677.482	299
677.531	374
677.580	992
677.630	839
677.679	1026
677.728	549
677.778	877
677.827	763
677.876	1431
677.925	625
677.975	949
678.024	1178
678.073	737
678.122	949
678.171	1068
678.220	1246
678.269	1494
678.319	1469
678.368	1316
678.417	915
678.466	1690
678.515	1586
678.564	1754
678.613	1196
678.662	1122
678.711	636
678.760	1731
678.809	719
678.857	1407
678.906	891
678.955	1439
679.004	1744
679.053	1323
679.102	795
679.151	1083
679.199	1304
679.248	319
679.297	731
679.346	754
679.394	825
679.443	1041
679.492	1021
679.540	1198
679.589	1528
679.638	568
679.686	430
679.735	1555
679.784	1078
679.832	1762
679.881	227
679.929	964
679.978	194
680.026	1205
680.075	573
680.123	797
680.172	34
680.220	850
680.268	765
680.317	839
680.365	844
680.414	297
680.462	-558
680.510	907
680.559	-5
680.607	1008
680.655	341
680.703	1034
680.752	1156
680.800	-186
680.848	-312
680.896	451
680.945	338
680.993	847
681.041	-188
681.089	943
681.137	539
681.185	858
681.233	-221
681.258	301
681.281	747
681.329	61
681.377	526
681.380	597
681.425	1031
681.473	1534
681.502	1092
681.521	700
681.569	1469
681.617	915
681.624	1057
681.665	1600
681.713	1260
681.745	1506
681.761	1560
681.809	1525
681.857	1754
681.867	1830
681.904	1877
681.952	2460
681.989	2069
682.000	1898
682.048	2084
682.096	2493
682.111	2511
682.143	2381
682.191	1884
682.233	3011
682.239	3136
682.286	2028
682.334	2399
682.354	2544
682.382	2647
682.430	3031
682.476	1997
682.477	1931
682.525	2381
682.572	3199
682.598	3373
682.620	3457
682.667	2604
682.715	3910
682.720	3896
682.763	3367
682.810	3760
682.841	3564
682.857	3393
682.905	4202
682.952	3539
682.963	3631
683.000	3771
683.047	4286
683.085	4265
683.095	4209
683.142	4285
683.190	4516
683.206	4197
683.237	3570
683.284	4235
683.328	4621
683.332	4607
683.379	3732
683.426	4130
683.449	4234
683.473	4384
683.521	4862
683.568	5328
683.571	5323
683.615	4684
683.662	5702
683.693	5132
683.709	4789
683.757	4489
683.804	5610
683.814	5645
683.851	5585
683.898	5802
683.936	5774
683.945	5757
683.992	5541
684.039	6659
684.057	6646
684.086	6501
684.133	6341
684.179	6118
684.180	6074
684.227	6779
684.274	6688
684.300	6633
684.321	6610
684.368	6810
684.415	7034
684.422	7019
684.462	6670
684.509	6779
684.543	6642
684.556	6572
684.603	6937
684.649	6834
684.665	6929
684.696	7146
684.743	7169
684.786	7378
684.790	7381
684.837	7328
684.883	8603
684.908	8518
684.930	8347
684.977	9058
685.023	8442
685.029	8458
685.070	8110
685.117	8550
685.150	8319
685.164	8321
685.210	8470
685.257	9517
685.272	9452
685.303	9159
685.350	9994
685.393	9180
685.396	9112
685.443	10282
685.490	10714
685.514	10681
685.536	10378
685.583	10043
685.629	9817
685.636	9795
685.675	9673
685.722	9838
685.757	9625
685.768	9581
685.815	9727
685.861	10159
685.878	10259
685.908	10402
685.954	10286
686.000	10714
686.000	10720
686.047	11453
686.093	13228
686.121	13169
686.139	12528
686.185	12291
686.232	11072
686.242	10885
686.278	10526
686.324	10280
686.363	10493
686.370	10589
686.416	10501
686.463	11462
686.484	11217
686.509	10797
686.555	10677
686.601	10870
686.606	10932
686.647	11392
686.693	10616
686.727	11001
686.739	11216
686.785	10921
686.831	12026
686.848	11774
686.877	11142
686.923	11288
686.969	11135
686.969	11134
687.015	11597
687.061	11664
687.090	11952
687.107	11957
687.153	11674
687.199	11551
687.211	11400
687.245	11305
687.291	11834
687.332	12188
687.336	12232
687.382	12369
687.428	12403
687.453	12948
687.474	13085
687.520	12421
687.565	12350
687.574	12149
687.611	12256
687.657	13632
687.695	14610
687.702	14889
687.748	16218
687.794	17859
687.816	18426
687.839	17538
687.885	15155
687.931	14005
687.937	13655
687.976	12712
688.022	13355
688.058	12986
688.067	12964
688.113	12963
688.158	12487
688.179	12739
688.204	13140
688.249	13111
688.295	13998
688.300	13878
688.340	13254
688.386	14024
688.421	14190
688.431	14138
688.477	14126
688.522	14181
688.542	14145
688.567	14384
688.613	13862
688.658	14959
688.663	14906
688.703	14151
688.749	14230
688.784	14058
688.794	14056
688.839	13970
688.884	13941
688.905	13969
688.930	14029
688.975	14127
689.020	13830
689.026	13769
689.065	13907
689.110	14673
689.146	14811
689.155	14764
689.201	15050
689.246	14681
689.267	14706
689.291	14701
689.336	14450
689.381	14233
689.388	14109
689.426	13895
689.471	14874
689.509	14743
689.516	14698
689.561	14552
689.606	14466
689.630	14496
689.651	14570
689.696	13659
689.741	15114
689.750	14829
689.785	14034
689.830	14640
689.871	14597
689.875	14579
689.920	14586
689.965	14237
689.992	14112
690.010	14290
690.054	14287
690.099	15043
690.112	14980
690.144	14698
690.189	15050
690.233	14697
690.233	14716
690.278	14962
690.323	14491
690.354	14537
690.367	14748
690.412	15400
690.457	15169
690.474	15514
690.501	15900
690.546	15983
690.590	15975
690.595	15957
690.635	16062
690.680	16053
690.716	15907
690.724	16080
690.769	17291
690.813	18958
690.836	19032
690.857	19666
690.902	22130
690.946	24228
690.957	24832
690.991	30739
691.035	38181
691.077	45077
691.080	45081
691.124	42809
691.168	41165
691.198	40062
691.213	38242
691.257	32756
691.301	26651
691.318	24580
691.346	23672
691.390	21304
691.434	19085
691.439	18812
691.478	18603
691.522	18731
691.559	18405
691.567	18414
691.611	18721
691.655	18495
691.680	18733
691.699	18811
691.743	17821
691.787	17982
691.800	17800
691.831	17856
691.875	18004
691.919	18483
691.921	18449
691.964	18514
692.008	18613
692.041	18771
692.052	18849
692.096	19330
692.139	19408
692.162	19263
692.183	18901
692.227	18883
692.271	18197
692.282	18070
692.315	18167
692.359	17779
692.402	18471
692.403	18517
692.447	18482
692.490	19417
692.523	19725
692.534	19681
692.578	19202
692.622	18855
692.643	18805
692.666	18960
692.709	18809
692.753	19012
692.763	18909
692.797	18580
692.840	18306
692.884	18175
692.884	18218
692.928	18770
692.971	18924
693.004	19403
693.015	19464
693.059	19245
693.102	19035
693.124	18833
693.146	18918
693.189	19473
693.233	19593
693.245	19702
693.276	20498
693.320	20997
693.363	21987
693.365	21953
693.407	22414
693.450	23479
693.485	23954
693.493	24349
693.537	26379
693.580	28341
693.605	29392
693.624	31699
693.667	36868
693.710	42578
693.725	44338
693.753	54971
693.797	71981
693.840	88995
693.845	90774
693.883	85708
693.926	80073
693.966	74863
693.970	73655
694.013	59641
694.056	45458
694.086	35697
694.099	34722
694.142	31198
694.185	27763
694.206	26065
694.229	25809
694.272	24925
694.315	24635
694.326	24335
694.358	24015
694.401	23897
694.444	23823
694.446	23753
694.487	23239
694.530	22702
694.566	22361
694.573	22277
694.616	20839
694.659	20052
694.686	19307
694.702	19292
694.745	19385
694.787	18982
694.806	19001
694.830	19215
694.873	19034
694.916	19373
694.926	19234
694.959	19300
695.002	19955
695.044	20281
695.046	20254
695.087	20348
695.130	20219
695.166	20192
695.172	20277
695.215	20138
695.258	20409
695.286	20454
695.301	20588
695.343	20868
695.386	21166
695.406	21184
695.428	21032
695.471	20653
695.514	20376
695.526	20222
695.556	20598
695.599	21062
695.641	21548
695.646	21554
695.684	21566
695.726	21495
695.766	21244
695.769	21270
695.811	20898
695.854	20759
695.886	20395
695.896	20487
695.938	20772
695.981	20995
696.005	21115
696.023	21275
696.065	21398
696.108	21860
696.125	21861
696.150	22046
696.192	22296
696.235	22538
696.245	22564
696.277	22623
696.319	22503
696.361	22630
696.365	22567
696.404	22687
696.446	22658
696.485	22671
696.488	22746
696.530	22963
696.572	23132
696.604	23301
696.614	23228
696.656	22398
696.698	21723
696.724	21281
696.740	21427
696.783	21592
696.825	21800
696.844	21797
696.867	21947
696.909	22184
696.951	22461
696.964	22453
696.992	22212
697.034	21807
697.076	21469
697.083	21348
697.118	21873
697.160	22404
697.202	22920
697.203	22873
697.244	22691
697.286	22452
697.323	22081
697.327	22155
697.369	22359
697.411	22562
697.442	22677
697.453	22835
697.494	23086
697.536	23475
697.562	23628
697.578	23747
697.620	23922
697.661	23995
697.682	24043
697.703	24574
697.744	25305
697.786	26241
697.801	26464
697.828	26480
697.869	26422
697.911	26397
697.921	26305
697.952	25520
697.994	24449
698.035	23316
698.040	23118
698.077	23284
698.118	23407
698.160	23508
698.160	23443
698.201	23773
698.243	23935
698.279	24081
698.284	24171
698.325	24385
698.367	24601
698.399	24674
698.408	24668
698.449	24343
698.491	24009
698.518	23736
698.532	23845
698.573	23964
698.614	24075
698.638	24074
698.656	24153
698.697	24199
698.738	24221
698.757	24179
698.779	24428
698.820	24735
698.862	25073
698.877	25125
698.903	25458
698.944	25890
698.985	26310
698.996	26356
699.026	26309
699.067	26141
699.116	25870
699.235	25285
699.354	24031
699.474	24197
699.593	26743
699.713	26133
699.832	24953
699.951	26320
700.070	24736
700.190	22831
700.309	22549
700.428	24621
700.547	22890
700.667	23298
700.786	25978
700.905	23007
701.024	24268
701.143	22208
701.262	21218
701.381	22070
701.500	24122
701.619	25007
701.738	22505
701.857	21477
701.976	20920
702.095	21051
702.214	23028
702.333	23862
702.452	22752
702.571	21843
702.690	21505
702.809	20568
702.928	20555
703.047	20797
703.165	19663
703.284	19761
703.403	21469
703.522	21687
703.640	21424
703.759	24708
703.878	30483
703.997	20658
704.115	20268
704.234	19925
704.353	19713
704.471	18355
704.590	18207
704.708	18938
704.827	17779
704.946	19756
705.064	20569
705.183	18519
705.301	21419
705.420	29944
705.538	25968
705.656	25320
705.775	30337
705.893	68226
706.012	80936
706.130	25604
706.249	25211
706.367	23585
706.485	24650
706.604	23288
706.722	24818
706.840	30854
706.958	40887
707.077	28087
707.195	22614
707.313	22051
707.431	21108
707.549	21687
707.668	19919
707.786	22072
707.904	20669
708.022	20497
708.140	20173
708.258	19261
708.376	21387
708.494	20542
708.612	23592
708.730	30593
708.848	28035
708.966	26959
709.084	24560
709.202	23339
709.320	25289
709.438	24794
709.556	24983
709.674	24355
709.791	23596
709.909	23370
710.027	23177
710.145	22951
710.263	24122
710.380	23230
710.498	22996
710.616	22456
710.733	21653
710.851	23496
710.969	24110
711.086	22165
711.204	21831
711.322	23058
711.439	23653
711.557	23601
711.674	22683
711.792	22674
711.909	27346
712.027	31280
712.144	21708
712.262	20970
712.379	23340
712.497	31069
712.614	31548
712.732	26719
712.849	25890
712.966	28029
713.084	31855
713.201	27630
713.318	28277
713.436	27208
713.553	26002
713.670	28884
713.787	29787
713.905	30258
714.022	26514
714.139	28562
714.256	33225
714.373	42557
714.490	69493
714.608	180149
714.725	717400
714.842	652838
714.959	64824
715.076	35459
715.193	28028
715.310	27417
715.427	24931
715.544	23495
715.661	24138
715.778	23946
715.895	25010
716.011	24931
716.128	22934
716.245	23251
716.362	25273
716.479	25512
716.596	21746
716.713	23405
716.829	21355
716.946	20933
717.063	20337
717.180	20104
717.296	19389
717.413	19539
717.530	18977
717.646	18693
717.763	19086
717.880	18623
717.996	18708
718.113	19309
718.229	18101
718.346	18791
718.462	19131
718.579	22687
718.695	36440
718.812	27715
718.928	26094
719.045	19182
719.161	19395
719.277	17408
719.394	18203
719.510	20893
719.626	20160
719.743	26141
719.859	33286
719.975	63442
720.092	240311
720.208	508296
720.324	59651
720.440	24922
720.557	23507
720.673	31767
720.789	38722
720.905	73989
721.021	26040
721.137	17904
721.253	17905
721.369	18030
721.486	20407
721.602	26272
721.718	16080
721.834	15256
721.950	15699
722.066	15082
722.181	15538
722.297	16118
722.413	14737
722.529	14860
722.645	14630
722.761	14948
722.877	15261
722.993	15015
723.108	17957
723.224	16500
723.340	15020
723.456	13722
723.571	14393
723.687	13006
723.803	14050
723.918	13946
724.034	13729
724.150	13653
724.265	15392
724.381	29465
724.497	34297
724.612	13410
724.728	13022
724.843	13503
724.959	15243
725.074	28232
725.190	30180
725.305	14125
725.421	13457
725.536	11635
725.651	12223
725.767	11829
725.882	11417
725.997	12079
726.113	12627
726.228	11688
726.343	12358
726.459	10969
726.574	12579
726.689	11643
726.804	10860
726.920	11130
727.035	11650
727.150	12176
727.265	11491
727.380	11774
727.495	12283
727.610	11882
727.725	12905
727.841	17596
727.956	40847
728.071	28057
728.186	12034
728.301	11062
728.416	12232
728.531	11556
728.645	10638
728.760	11159
728.875	11395
728.990	10644
729.105	10881
729.220	11703
729.335	11253
729.449	10259
729.564	9899
729.679	8784
729.794	10667
729.908	12350
730.023	10057
730.138	9417
730.253	10283
730.367	9447
730.482	9929
730.596	9930
730.711	11002
730.826	12801
730.940	14465
731.055	11408
731.169	10620
731.284	10113
731.398	10359
731.513	12586
731.627	12564
731.742	14124
731.856	15481
731.970	14154
732.085	18174
732.199	25583
732.313	45088
732.428	115773
732.542	333445
732.656	175706
732.771	34205
732.885	18928
732.999	16828
733.113	16185
733.227	14321
733.342	12840
733.456	12483
733.570	12084
733.684	11983
733.798	12558
733.912	10941
734.026	10976
734.140	12247
734.254	11757
734.368	19291
734.482	21376
734.596	11190
734.710	10820
734.824	11034
734.938	9227
735.052	11294
735.166	12266
735.280	10672
735.393	10903
735.507	11230
735.621	14118
735.735	21661
735.849	12016
735.962	9898
736.076	11115
736.190	10871
736.303	14955
736.417	16959
736.531	9931
736.644	9799
736.758	9372
736.872	9449
736.985	8435
737.099	9153
737.212	9075
737.326	8674
737.439	8849
737.553	8846
737.666	9212
737.780	8397
737.893	8963
738.007	9158
738.120	9182
738.233	9264
738.347	9006
738.460	8904
738.573	10180
738.687	9349
738.800	10187
738.913	12200
739.026	9426
739.140	11058
739.253	11987
739.366	8290
739.479	7798
739.592	8147
739.705	8156
739.818	9199
739.932	8852
740.045	8635
740.158	8676
740.271	8814
740.384	8363
740.497	8122
740.610	8701
740.723	7673
740.836	8338
740.949	8300
741.062	11802
741.174	9619
741.287	8843
741.400	7590
741.513	7229
741.626	8351
741.739	9061
741.851	7660
741.964	7326
742.077	7362
742.189	8120
742.302	8349
742.415	8107
742.527	7823
742.640	7831
742.753	7392
742.865	7544
742.978	6736
743.090	7565
743.203	7758
743.316	6932
743.428	6891
743.541	7173
743.653	5671
743.766	6949
743.878	7224
743.990	9788
744.103	8776
744.215	6641
744.327	7137
744.440	10113
744.552	12627
744.664	8866
744.777	6693
744.889	5957
745.001	6671
745.113	6430
745.226	6415
745.338	6763
745.450	6679
745.562	6537
745.674	6180
745.786	6610
745.898	6700
746.010	6905
746.122	6999
746.234	7282
746.347	7271
746.459	6273
746.570	5493
746.682	6255
746.794	6635
746.906	6593
747.018	7008
747.130	6699
747.242	5738
747.354	6608
747.466	6571
747.577	5773
747.689	6134
747.801	6602
747.913	6357
748.024	5584
748.136	6313
748.248	6153
748.359	6113
748.471	6225
748.583	6751
748.694	7890
748.806	10810
748.918	8156
749.029	5889
749.141	6708
749.252	7326
749.364	7796
749.475	13939
749.587	8926
749.698	5421
749.809	6046
749.921	5358
750.032	5231
750.144	5026
750.255	5415
750.366	5294
750.478	4842
750.589	6481
750.700	6838
750.811	6073
750.923	8192
751.034	15148
751.145	14761
751.256	5871
751.367	5737
751.479	5427
751.590	4944
751.701	5576
751.812	5573
751.923	5613
752.034	6300
752.145	6053
752.256	4541
752.367	4556
752.478	4168
752.589	6946
752.700	5203
752.811	4967
752.922	4460
753.032	6532
753.143	6720
753.254	5037
753.365	5731
753.476	5560
753.586	5492
753.697	5169
753.808	5641
753.919	5120
754.029	4645
754.140	5615
754.251	5760
754.361	5227
754.472	5922
754.582	5276
754.693	5446
754.804	5758
754.914	4905
755.025	4329
755.135	5363
755.246	5469
755.356	5006
755.466	4843
755.577	5285
755.687	5039
755.798	4863
755.908	4998
756.018	4935
756.129	4686
756.239	4761
756.349	5664
756.460	5388
756.570	6632
756.680	5550
756.790	5916
756.900	5841
757.011	4878
757.121	5193
757.231	5418
757.341	6151
757.451	5053
757.561	4261
757.671	5348
757.781	4427
757.891	5526
758.001	5454
758.111	6669
758.221	5856
758.331	7119
758.441	7006
758.551	8947
758.661	8715
758.771	6705
758.880	6410
758.990	6423
759.100	6204
759.210	5932
759.320	6243
759.429	7036
759.539	7331
759.649	7493
759.758	7293
759.868	7970
759.978	6571
760.087	8459
760.197	9048
760.307	8981
760.416	8238
760.526	7328
760.635	8766
760.745	8537
760.854	8767
760.964	9411
761.073	9272
761.182	8417
761.292	8567
761.401	8802
761.511	7225
761.620	7222
761.729	7564
761.839	7458
761.948	6685
762.057	8174
762.166	7467
762.276	6333
762.385	8340
762.494	6830
762.603	6928
762.712	7236
762.822	7669
762.931	8468
763.040	6751
763.149	7131
763.258	7867
763.367	8585
763.476	8905
763.585	8326
763.694	9562
763.803	8672
763.912	9952
764.021	9665
764.130	9338
764.238	10917
764.347	11261
764.456	12050
764.565	12741
764.674	13170
764.783	13996
764.891	13999
765.000	16867
765.109	18588
765.217	20179
765.326	25410
765.435	30159
765.543	35226
765.652	41765
765.761	54870
765.869	75650
765.978	111387
766.086	179733
766.195	322629
766.303	614376
766.412	819427
766.520	693696
766.629	527987
766.737	265564
766.846	151920
766.954	101868
767.062	75281
767.171	62544
767.279	44768
767.387	34993
767.496	28640
767.604	25782
767.712	22193
767.820	20169
767.928	18843
768.037	17973
768.145	17611
768.253	16362
768.361	15878
768.469	15589
768.577	16007
768.685	17595
768.793	18734
768.901	19563
769.009	22717
769.117	26023
769.225	32640
769.333	46157
769.441	71235
769.549	123902
769.657	255912
769.765	573862
769.873	671342
769.981	484046
770.088	202908
770.196	100885
770.304	63879
770.412	45156
770.519	35160
770.627	27589
770.735	22319
770.842	20772
770.950	17553
771.058	15537
771.165	14493
771.273	14260
771.380	13602
771.488	12975
771.595	13035
771.703	11528
771.810	11142
771.918	10434
772.025	11393
772.133	11733
772.240	10438
772.348	11326
772.455	10246
772.562	9661
772.670	8721
772.777	9008
772.884	8225
772.991	9122
773.099	9125
773.206	7760
773.313	8910
773.420	7826
773.528	7683
773.635	7741
773.742	8955
773.849	7666
773.956	7591
774.063	7934
774.170	6997
774.277	8999
774.384	7069
774.491	7535
774.598	7742
774.705	8151
774.812	8751
774.919	7773
775.026	7335
775.133	7006
775.239	6736
775.346	7433
775.453	5627
775.560	6059
775.667	7328
775.773	6419
775.880	5995
775.987	6909
776.093	6957
776.200	6875
776.307	5772
776.413	6743
776.520	6629
776.627	6136
776.733	6201
776.840	4892
776.946	7369
777.053	6140
777.159	6038
777.266	4673
777.372	6950
777.478	6523
777.585	6687
777.691	5862
777.798	6421
777.904	7191
778.010	11553
778.117	9272
778.223	6104
778.329	5985
778.435	4538
778.542	5860
778.648	5671
778.754	5038
778.860	5530
778.966	5294
779.072	5078
779.178	5547
779.284	5403
779.391	5291
779.497	4466
779.603	7458
779.708	5828
779.815	10005
779.920	21124
780.026	41208
780.132	8926
780.238	4726
780.344	5115
780.450	5883
780.556	4913
780.661	4836
780.767	5216
780.873	4434
780.979	4742
781.085	4496
781.190	4612
781.296	4431
781.402	3704
781.507	4871
781.613	4057
781.719	4393
781.824	4779
781.930	5017
782.035	4545
782.141	5031
782.246	4656
782.352	4732
782.457	4749
782.563	4808
782.668	4545
782.773	4209
782.879	4023
782.984	4787
783.090	5871
783.195	8101
783.300	5742
783.405	4516
783.511	3362
783.616	4725
783.721	4528
783.826	3703
783.932	4660
784.037	5115
784.142	4268
784.247	4832
784.352	5024
784.457	4404
784.562	4741
784.667	3635
784.772	3630
784.877	3294
784.982	4489
785.087	4070
785.192	4957
785.297	3920
785.402	4034
785.507	3516
785.611	4143
785.716	3079
785.821	4871
785.926	4011
786.031	3670
786.135	4571
786.240	4867
786.345	2345
786.450	3853
786.554	4076
786.659	3385
786.763	2638
786.868	4137
786.973	4171
787.077	3272
787.182	2847
787.286	4196
787.391	4096
787.495	3123
787.600	3383
787.704	2664
787.809	3561
787.913	3417
788.017	4307
788.122	3499
788.226	2940
788.330	3759
788.435	4132
788.539	3584
788.643	2365
788.747	3252
788.852	3209
788.956	3516
789.060	3765
789.164	3787
789.268	2726
789.372	3254
789.476	3162
789.580	3613
789.684	2512
789.788	3430
789.892	2975
789.996	3382
790.100	3058
790.204	3508
790.308	3901
790.412	3688
790.516	4203
790.620	4296
790.724	4289
790.828	3850
790.931	2212
791.035	5042
791.139	3477
791.242	3125
791.346	4161
791.450	2994
791.554	1708
791.657	2313
791.761	3833
791.864	4159
791.968	3544
792.072	4118
792.175	3908
792.279	2840
792.382	2994
792.486	3353
792.589	2723
792.693	2914
792.796	1825
792.899	3561
793.003	3101
793.106	1705
793.209	2780
793.313	3887
793.416	1899
793.519	4285
793.623	5179
793.726	7309
793.829	4049
793.932	3508
794.035	2147
794.138	4129
794.242	3487
794.345	3469
794.448	4767
794.551	6118
794.654	13336
794.757	20675
794.860	6445
794.963	3424
795.066	2436
795.169	3284
795.272	2267
795.375	3192
795.477	2593
795.580	3162
795.683	1804
795.786	2115
795.889	1896
795.991	3290
796.094	4020
796.197	1817
796.300	3648
796.402	3242
796.505	2563
796.608	2492
796.710	2402
796.813	2535
796.915	2463
797.018	2352
797.120	3085
797.223	1384
797.326	3623
797.428	1871
797.530	2051
797.633	2192
797.735	4135
797.838	6125
797.940	3966
798.042	1948
798.145	2516
798.247	2708
798.349	947
798.452	2745
798.554	1770
798.656	1838
798.758	3900
798.860	2652
798.962	2124
799.065	1672
799.167	2243
799.269	3630
799.371	3962
799.473	3821
799.575	3043
799.677	4416
799.779	4295
799.881	4385
799.983	4188
800.085	2718
800.187	1982
800.289	2003
800.390	1997
800.492	2456
800.594	3069
800.696	2033
800.798	2668
800.899	1305
801.001	1633
801.103	1898
801.205	2060
801.306	2768
801.408	1371
801.509	1342
801.611	2042
801.713	2436
801.814	1167
801.916	1846
802.017	1848
802.119	814
802.220	2848
802.322	1143
802.423	4161
802.525	1155
802.626	1563
802.727	2006
802.829	3440
802.930	-268
803.031	3058
803.133	1742
803.234	2706
803.335	1986
803.436	991
803.538	1985
803.639	579
803.740	2178
803.841	572
803.942	2733
804.043	2013
804.144	1132
804.245	2116
804.346	1861
804.447	1762
804.548	3103
804.649	3897
804.750	1717
804.851	1048
804.952	1109
805.053	1587
805.154	641
805.255	3114
805.355	1378
805.456	950
805.557	2536
805.658	769
805.758	2289
805.859	1299
805.960	2245
806.061	977
806.161	1362
806.262	1657
806.362	2042
806.463	1465
806.564	2312
806.664	1564
806.765	2755
806.865	2844
806.966	1837
807.066	1661
807.166	2242
807.267	1154
807.367	913
807.468	2069
807.568	81
807.668	2335
807.769	2606
807.869	1415
807.969	1897
808.069	1161
808.170	2090
808.270	554
808.370	2063
808.470	2872
808.570	1299
808.670	1733
808.770	1347
808.870	232
808.970	1784
809.070	406
809.170	83
809.271	2056
809.370	1130
809.470	1691
809.570	1554
809.670	347
809.770	1099
809.870	1570
809.970	1469
810.070	1796
810.169	1554
810.269	457
810.369	1823
810.469	959
810.568	978
810.668	516
810.768	915
810.867	1880
810.967	959
811.066	821
811.166	687
811.265	1969
811.365	661
811.464	1244
811.564	1250
811.663	2366
811.763	36
811.862	1241
811.962	1272
812.061	1066
812.160	198
812.260	1283
812.359	1188
812.458	2012
812.557	3965
812.657	5153
812.756	3073
812.855	1749
812.954	1452
813.053	1886
813.153	1385
813.252	326
813.351	1063
813.450	1618
813.549	936
813.648	1623
813.747	983
813.846	1693
813.945	1288
814.044	1043
814.143	956
814.242	1594
814.341	1281
814.439	1429
814.538	1642
814.637	1242
814.736	1076
814.835	2343
814.933	1399
815.032	1462
815.131	1931
815.229	2519
815.328	3886
815.427	3048
815.525	2941
815.624	2553
815.722	2644
815.821	3318
815.919	2847
816.018	2673
816.116	3345
816.215	3058
816.313	3721
816.412	3800
816.510	3480
816.609	4793
816.707	5208
816.805	4169
816.904	3213
817.002	4341
817.100	5271
817.198	5480
817.296	4574
817.395	4828
817.493	6184
817.591	5443
817.689	7654
817.787	8461
817.885	12694
817.983	20431
818.081	41520
818.179	97765
818.277	245623
818.375	218121
818.473	62666
818.571	24591
818.669	16664
818.767	13884
818.865	14646
818.963	15881
819.061	23570
819.158	37583
819.256	81068
819.354	185699
819.452	399001
819.549	270095
819.647	82764
819.745	34607
819.842	21418
819.940	13911
820.038	10831
820.135	8565
820.233	8981
820.330	5377
820.428	5640
820.525	5923
820.623	3993
820.720	3732
820.818	4345
820.915	4100
821.012	3761
821.110	2541
821.207	3762
821.304	3321
821.402	2921
821.499	3027
821.596	3242
821.693	2755
821.791	4415
821.888	4248
821.985	7793
822.082	5427
822.179	3502
822.276	2173
822.373	2756
822.470	2416
822.567	2171
822.664	1756
822.761	2688
822.858	1138
822.955	2244
823.052	2021
823.149	2495
823.246	2098
823.343	1988
823.440	2592
823.536	2386
823.633	1387
823.730	1473
823.827	1774
823.923	1484
824.020	2910
824.117	1604
824.213	1466
824.310	1318
824.407	1626
824.503	2411
824.600	1654
824.696	1268
824.793	3418
824.889	1306
824.986	2365
825.082	1148
825.179	1127
825.275	2583
825.371	2282
825.468	2345
825.564	551
825.660	2238
825.757	2373
825.853	2401
825.949	654
826.045	1817
826.142	1565
826.238	1910
826.334	1694
826.430	2078
826.526	1310
826.622	1297
826.718	1892
826.814	1380
826.910	2483
827.006	648
827.102	629
827.198	2114
827.294	1449
827.390	1480
827.486	2234
827.582	280
827.678	842
827.774	1900
827.869	766
827.965	2868
828.061	-190
828.157	1504
828.252	1590
828.348	838
828.444	2257
828.539	1303
828.635	1626
828.731	2213
828.826	254
828.922	1580
829.017	1674
829.113	1678
829.208	1073
829.304	1427
829.399	2985
829.495	1259
829.590	2752
829.685	1597
829.781	1498
829.876	1822
829.971	1284
830.066	928
830.162	1014
830.257	1302
830.352	1046
830.447	2072
830.543	1351
830.638	1175
830.733	2574
830.828	1156
830.923	1311
831.018	1858
831.113	1925
831.208	648
831.303	829
831.398	1407
831.493	843
831.588	1402
831.683	1241
831.778	1354
831.873	1177
831.967	2174
832.062	773
832.157	1174
832.252	2070
832.346	1222
832.441	3352
832.536	3822
832.631	8413
832.725	6323
832.820	1348
832.914	653
833.009	656
833.104	2222
833.198	2711
833.293	533
833.387	1971
833.482	1326
833.576	1751
833.670	703
833.765	1250
833.859	1343
833.954	2115
834.048	921
834.142	961
834.237	667
834.331	1066
834.425	1023
834.519	728
834.613	1288
834.708	31
834.802	755
834.896	1394
834.990	1040
835.084	1053
835.178	1006
835.272	796
835.366	989
835.460	1823
835.554	563
835.648	380
835.742	246
835.836	594
835.930	264
836.024	1832
836.117	1699
836.211	1434
836.305	3100
836.399	3339
836.493	468
836.586	2415
836.680	400
836.774	740
836.867	1729
836.961	-126
837.055	745
837.148	222
837.242	850
837.335	550
837.429	806
837.522	349
837.616	1539
837.709	4247
837.803	2901
837.896	2001
837.989	1300
838.083	2652
838.176	4887
838.269	2918
838.363	2074
838.456	732
838.549	2946
838.642	3793
838.735	9407
838.829	3744
838.922	526
839.015	818
839.108	263
839.201	911
839.294	1024
839.387	1141
839.480	842
839.573	1753
839.666	2325
839.759	1397
839.852	184
839.945	708
840.038	433
840.131	601
840.223	586
840.316	654
840.409	736
840.502	155
840.594	1376
840.687	-519
840.780	1181
840.873	768
840.965	917
841.058	2139
841.150	4445
841.243	1933
841.336	1816
841.428	664
841.521	-275
841.613	447
841.706	556
841.798	1185
841.890	207
841.983	-75
842.075	1118
842.167	1037
842.260	1372
842.352	2111
842.444	3047
842.537	5487
842.629	7396
842.721	1017
842.813	766
842.905	-90
842.997	590
843.090	1248
843.182	2565
843.274	4562
843.366	11415
843.458	22375
843.550	13402
843.642	1643
843.734	1364
843.826	1218
843.918	1504
844.009	1579
844.101	347
844.193	620
844.285	749
844.377	1051
844.469	1594
844.560	-685
844.652	1597
844.744	194
844.835	573
844.927	1004
845.019	1549
845.110	1210
845.202	725
845.293	948
845.385	-177
845.476	566
845.568	740
845.659	-378
845.751	1157
845.842	216
845.934	-265
846.025	841
846.116	841
846.208	86
846.299	262
846.390	1696
846.482	342
846.573	1262
846.664	2554
846.755	3302
846.846	3318
846.937	-369
847.029	425
847.120	717
847.211	-73
847.302	1573
847.393	-713
847.484	149
847.575	-82
847.666	883
847.757	305
847.847	1004
847.938	1033
848.029	726
848.120	445
848.211	297
848.302	-269
848.392	163
848.483	356
848.574	190
848.664	228
848.755	156
848.846	1022
848.936	479
849.027	693
849.118	1641
849.208	762
849.299	1616
849.389	4120
849.480	7484
849.570	15931
849.661	30738
849.751	52170
849.841	17034
849.932	2960
850.022	1185
850.112	1661
850.203	1428
850.293	1325
850.383	898
850.474	7
850.564	67
850.654	293
850.744	246
850.834	62
850.924	625
851.014	763
851.104	943
851.194	283
851.284	2099
851.374	2131
851.464	1226
851.554	927
851.644	658
851.734	2378
851.824	1527
851.914	194
852.004	825
852.094	13
852.183	-40
852.273	342
852.363	-53
852.452	1025
852.542	1006
852.632	241
852.721	563
852.811	-39
852.901	1202
852.990	1237
853.080	1265
853.169	1558
853.259	1640
853.348	1300
853.438	1495
853.527	3454
853.617	4617
853.706	9442
853.795	17626
853.885	41226
853.974	78101
854.063	145126
854.152	213900
854.242	81769
854.331	15440
854.420	7023
854.509	3760
854.598	3940
854.687	3160
854.777	2091
854.866	1109
854.955	1794
855.044	682
855.133	406
855.222	1059
855.311	625
855.400	1335
855.488	1432
855.577	425
855.666	1375
855.755	2222
855.844	2935
855.933	3761
856.021	1770
856.110	1268
856.199	78
856.288	-374
856.376	551
856.465	97
856.554	214
856.642	619
856.731	1099
856.819	1539
856.908	618
856.996	83
857.085	441
857.173	401
857.262	283
857.350	195
857.438	477
857.527	564
857.615	-312
857.703	270
857.792	418
857.880	-46
857.968	220
858.056	261
858.145	-187
858.233	-484
858.321	125
858.409	751
858.497	-176
858.585	-118
858.673	340
858.761	653
858.849	-161
858.937	-216
859.025	718
859.113	-75
859.201	164
859.289	460
859.377	96
859.465	687
859.552	63
859.640	171
859.728	1160
859.816	-146
859.903	-84
859.991	-191
860.079	275
860.166	-370
860.254	102
860.342	910
860.429	202
860.517	837
860.604	619
860.692	353
860.779	-343
860.867	764
860.954	-219
861.042	1262
861.129	1256
861.216	28
861.304	1165
861.391	399
861.478	-325
861.565	589
861.653	435
861.740	-671
861.827	-181
861.914	1297
862.001	327
862.089	-296
862.176	-165
862.263	-109
862.350	-140
862.437	-525
862.524	505
862.611	-419
862.698	162
862.785	479
862.871	268
862.958	495
863.045	2
863.132	663
863.219	-133
863.306	-597
863.392	717
863.479	508
863.566	180
863.652	880
863.739	-356
863.826	474
863.912	-12
863.999	-71
864.086	394
864.172	1198
864.259	-512
864.345	748
864.432	116
864.518	677
864.604	695
864.691	636
864.777	477
864.863	851
864.950	2015
865.036	1281
865.122	3396
865.209	2823
865.295	3448
865.381	3249
865.467	3135
865.553	5153
865.639	5512
865.726	10872
865.812	22330
865.898	42585
865.984	63742
866.070	118618
866.156	122875
866.242	33538
866.328	8170
866.414	4751
866.499	4069
866.585	3746
866.671	3026
866.757	2944
866.843	3043
866.928	2280
867.014	2253
867.100	2394
867.186	2347
867.271	2683
867.357	3678
867.442	4355
867.528	3095
867.614	2745
867.699	1573
867.785	1667
867.870	1298
867.956	1486
868.041	2502
868.127	1396
868.212	1712
868.297	1544
868.383	2385
868.468	3414
868.553	5811
868.639	5793
868.724	10379
868.809	10796
868.894	2681
868.979	2113
869.065	1861
869.150	472
869.235	610
869.320	1036
869.405	376
869.490	1393
869.575	1282
869.660	720
869.745	1519
869.830	1867
869.915	1201
870.000	1990
870.085	1578
870.169	1226
870.254	937
870.339	722
870.424	53
870.509	2420
870.593	1715
870.678	2253
870.763	1514
870.847	952
870.932	1227
871.016	1291
871.101	1011
871.186	1377
871.270	1614
871.355	1175
871.439	2094
871.523	1162
871.608	464
871.692	233
871.777	1831
871.861	1843
871.945	757
872.030	1793
872.114	1781
872.198	684
872.282	553
872.367	-23
872.451	-33
872.535	746
872.619	808
872.703	393
872.787	514
872.871	1133
872.955	683
873.039	-64
873.123	1101
873.207	1576
873.291	243
873.375	406
873.459	167
873.543	121
873.627	107
873.711	-51
873.794	762
873.878	674
873.962	436
874.045	693
874.129	52
874.137	107
874.213	664
874.245	661
874.296	650
874.352	318
874.380	162
874.460	649
874.464	667
874.547	390
874.568	517
874.631	924
874.676	1199
874.714	1406
874.784	1206
874.798	1179
874.881	1759
874.892	1603
874.965	476
874.999	650
875.048	927
875.107	728
875.131	626
875.215	521
875.215	521
875.298	242
875.323	203
875.381	135
875.430	653
875.465	1003
875.538	1092
875.548	1110
875.631	628
875.646	517
875.714	-39
875.753	-26
875.798	-40
875.861	868
875.881	1155
875.964	608
875.968	610
876.047	713
876.076	475
876.130	-5
876.183	919
876.213	1448
876.291	1757
876.296	1780
876.379	754
876.398	736
876.462	587
876.506	1219
876.545	1820
876.613	577
876.628	300
876.711	444
876.721	445
876.794	455
876.828	449
876.877	498
876.935	642
876.960	683
877.043	916
877.043	916
877.125	851
877.150	848
877.208	946
877.258	1102
877.291	1166
877.365	1175
877.374	1200
877.456	1063
877.472	1061
877.539	920
877.579	1007
877.622	1047
877.687	1059
877.704	1057
877.787	449
877.794	507
877.869	1469
877.901	1260
877.952	479
878.008	117
878.034	142
878.115	287
878.117	286
878.199	129
878.222	338
878.282	1084
878.329	1305
878.364	1296
878.437	954
878.447	911
878.529	128
878.544	96
878.611	-77
878.651	21
878.694	408
878.758	713
878.776	644
878.858	43
878.865	54
878.941	525
878.972	513
879.023	507
879.078	782
879.105	889
879.185	529
879.187	522
879.269	759
879.292	813
879.351	1061
879.399	660
879.433	174
879.506	335
879.516	438
879.598	696
879.613	621
879.680	-102
879.720	220
879.762	650
879.827	474
879.844	412
879.926	497
879.933	483
880.007	364
880.040	488
880.089	705
880.147	1506
880.171	1882
880.253	3492
880.254	3504
880.335	4914
880.360	5110
880.417	5885
880.467	9029
880.499	11203
880.574	12790
880.580	12668
880.662	4431
880.680	3438
880.744	1057
880.787	546
880.825	388
880.893	560
880.907	470
880.989	154
881.000	83
881.070	799
881.106	961
881.152	422
881.213	312
881.233	433
881.315	868
881.319	837
881.396	284
881.426	225
881.478	92
881.532	384
881.559	536
881.639	278
881.641	269
881.722	568
881.745	443
881.803	323
881.852	534
881.885	523
881.958	274
881.966	247
882.047	492
882.064	428
882.129	786
882.171	1293
882.210	1566
882.277	2273
882.291	2334
882.372	1095
882.383	999
882.454	724
882.489	691
882.535	509
882.596	310
882.616	236
882.697	-258
882.702	-247
882.778	390
882.808	447
882.859	245
882.914	29
882.940	31
883.020	162
883.021	165
883.102	287
883.127	420
883.183	642
883.233	703
883.264	427
883.339	47
883.345	98
883.426	346
883.445	441
883.507	411
883.551	556
883.587	689
883.657	417
883.668	412
883.749	1043
883.763	1040
883.830	218
883.869	-286
883.910	-314
883.975	190
883.991	262
884.072	38
884.081	57
884.152	549
884.187	639
884.233	518
884.292	569
884.314	487
884.394	-202
884.398	-229
884.475	153
884.504	386
884.555	198
884.610	-308
884.636	-258
884.716	449
884.716	451
884.797	259
884.821	79
884.877	-47
884.927	271
884.958	248
885.033	-29
885.038	-26
885.118	-249
885.139	-260
885.199	-33
885.244	213
885.279	294
885.350	330
885.359	300
885.439	255
885.456	120
885.520	-3
885.561	178
885.600	129
885.667	48
885.680	98
885.760	322
885.773	307
885.840	-135
885.878	-171
885.920	271
885.984	767
886.000	600
886.080	-186
886.089	-272
886.160	93
886.195	289
886.240	200
886.300	57
886.320	182
886.400	552
886.406	577
886.480	330
886.511	359
886.560	711
886.616	918
886.640	780
886.720	274
886.722	259
886.800	461
886.827	592
886.879	401
886.932	256
886.959	611
887.038	1572
887.039	1565
887.119	454
887.143	184
887.198	827
887.248	1097
887.278	690
887.354	-5
887.358	26
887.437	402
887.459	592
887.517	638
887.564	521
887.596	430
887.669	235
887.676	189
887.755	-388
887.774	-517
887.835	336
887.880	1003
887.914	718
887.985	120
887.994	164
888.073	446
888.090	523
888.153	646
888.195	710
888.232	755
888.300	770
888.311	753
888.391	693
888.405	677
888.470	-15
888.510	-486
888.549	-25
888.615	868
888.628	716
888.708	-261
888.720	-417
888.787	-318
888.825	-278
888.866	-250
888.930	-174
888.945	-101
889.024	304
889.035	357
889.103	65
889.140	-86
889.182	136
889.245	457
889.261	586
889.340	1194
889.349	1265
889.419	675
889.454	363
889.498	474
889.559	642
889.577	498
889.656	-119
889.664	-176
889.735	-77
889.768	-19
889.814	222
889.873	546
889.978	-142
890.083	-118
890.187	238
890.292	-263
890.397	797
890.501	-9
890.606	751
890.710	-12
890.815	1735
890.919	309
891.024	438
891.128	47
891.233	-38
891.337	718
891.442	261
891.546	-539
891.650	-92
891.755	413
891.859	2331
891.963	-570
892.068	737
892.172	100
892.276	742
892.380	500
892.484	415
892.589	411
892.693	216
892.797	-665
892.901	-217
893.005	-117
893.109	453
893.213	992
893.317	-71
893.421	216
893.525	138
893.629	-346
893.733	815
893.837	-749
893.941	295
894.045	458
894.148	-101
894.252	26
894.356	237
894.460	777
894.564	315
894.667	-183
894.771	-298
894.875	-1025
894.978	13
895.082	24
895.186	563
895.289	825
895.393	281
895.496	747
895.600	507
895.703	553
895.807	-561
895.910	249
896.014	-270
896.117	-23
896.221	-264
896.324	833
896.427	535
896.531	-145
896.634	472
896.737	58
896.840	714
896.944	-702
897.047	358
897.150	22
897.253	475
897.356	116
897.460	717
897.563	484
897.666	702
897.769	-226
897.872	291
897.975	-26
898.078	223
898.181	-224
898.284	-344
898.387	-46
898.490	482
898.593	9
898.695	485
898.798	-993
898.901	276
899.004	-671
899.107	-24
899.209	906
899.312	277
899.415	194
899.518	-272
899.620	-318
899.723	834
899.826	-621
899.928	661
900.031	-113
900.133	-868
900.236	-566
900.338	78
900.441	-795
900.543	241
900.646	-651
900.748	267
900.851	155
900.953	526
901.055	-183
901.158	-320
901.260	-1180
901.362	674
901.465	152
901.567	25
901.669	170
901.771	-387
901.873	-879
901.976	-561
902.078	-569
902.180	128
902.282	-339
902.384	548
902.486	133
902.588	-100
902.690	399
902.792	-50
902.894	-219
902.996	-221
903.098	-784
903.200	-376
903.302	-126
903.404	24
903.505	-978
903.607	-74
903.709	244
903.811	194
903.913	-568
904.014	-94
904.116	-512
904.218	-620
904.319	-478
904.421	300
904.523	-572
904.624	-350
904.726	-239
904.827	-324
904.929	-1037
905.030	-226
905.132	617
905.233	307
905.335	-852
905.436	-648
905.537	-809
905.639	429
905.740	-718
905.841	-139
905.943	-426
906.044	-69
906.145	218
906.247	-113
906.348	-554
906.449	153
906.550	604
906.651	-331
906.752	-734
906.854	-377
906.955	-99
907.056	-95
907.157	1
907.258	82
907.359	-731
907.460	-299
907.561	-498
907.662	64
907.762	-422
907.863	-32
907.964	-378
908.065	-179
908.166	-591
908.267	438
908.367	87
908.468	-186
908.569	79
908.670	26
908.770	-367
908.871	-968
908.971	-19
909.072	-102
909.173	-566
909.273	30
909.374	-388
909.474	-268
909.575	328
909.675	-713
909.776	408
909.876	284
909.977	-381
910.077	35
910.177	-862
910.278	-100
910.378	-817
910.478	-203
910.579	-670
910.679	-132
910.779	195
910.879	-176
910.980	-291
911.080	-246
911.180	-789
911.280	-722
911.380	-690
911.480	-150
911.580	-1134
911.680	-737
911.780	-782
911.880	128
911.980	-428
912.080	-867
912.180	-340
912.280	-142
912.380	-192
912.480	-648
912.580	-982
912.679	-214
912.779	-552
912.879	-382
912.979	-776
913.078	-955
913.178	-1039
913.278	-1208
913.377	77
913.477	-260
913.577	-562
913.676	420
913.776	-234
913.875	392
913.975	-782
914.074	13
914.174	-609
914.273	-1230
914.373	1218
914.472	-785
914.572	-1613
914.671	-851
914.770	-50
914.870	-555
914.969	-1176
915.068	-645
915.167	-142
915.267	-602
915.366	-1177
915.465	-211
915.564	-120
915.663	-130
915.763	-338
915.862	626
915.961	150
916.060	-567
916.159	-458
916.258	-824
916.357	-773
916.456	369
916.555	-699
916.654	-101
916.752	1
916.851	-136
916.950	-907
917.049	-347
917.148	-103
917.247	-512
917.345	-707
917.444	-739
917.543	-912
917.642	68
917.740	-880
917.839	-280
917.937	-611
918.036	-17
918.135	-1142
918.233	-352
918.332	-242
918.430	595
918.529	-1132
918.627	-62
918.726	-147
918.824	-151
918.923	-524
919.021	-432
919.119	-306
919.218	-627
919.316	-1277
919.414	-510
919.512	-626
919.611	-171
919.709	-188
919.807	216
919.905	-919
920.003	351
920.102	-943
920.200	-324
920.298	-438
920.396	96
920.494	-953
920.592	-842
920.690	-692
920.788	171
920.886	-292
920.984	456
921.082	-194
921.180	-164
921.277	-27
921.375	-58
921.473	471
921.571	829
921.669	-1287
921.766	-231
921.864	-476
921.962	883
922.060	-264
922.157	-614
922.255	-403
922.352	272
922.450	525
922.548	170
922.645	-97
922.743	181
922.840	680
922.938	1453
923.035	960
923.133	1537
923.230	799
923.327	1935
923.425	1651
923.522	1983
923.619	875
923.717	875
923.814	531
923.911	1195
924.008	1719
924.106	865
924.203	303
924.300	1509
924.397	384
924.494	1321
924.591	1427
924.688	392
924.786	1229
924.883	1397
924.979	1014
925.077	1467
925.173	319
925.270	1494
925.367	734
925.464	1374
925.561	1176
925.658	1625
925.755	1094
925.852	1007
925.948	1278
926.045	1169
926.142	680
926.239	873
926.335	658
926.432	1539
926.529	-9
926.625	1421
926.722	876
926.818	1853
926.915	586
927.011	1559
927.108	726
927.204	1129
927.301	794
927.397	613
927.494	1169
927.590	894
927.687	688
927.783	1830
927.879	700
927.976	860
928.072	909
928.168	1426
928.264	1249
928.361	1066
928.457	855
928.553	1144
928.649	864
928.745	1172
928.841	1031
928.937	961
929.033	1235
929.129	940
929.225	451
929.321	1234
929.417	63
929.513	972
929.609	276
929.705	711
929.801	829
929.897	454
929.993	326
930.089	503
930.184	329
930.280	1297
930.376	1277
930.471	764
930.567	-51
930.663	802
930.758	10
930.854	174
930.950	333
931.045	272
931.141	743
931.236	1572
931.332	566
931.427	910
931.523	-29
931.618	300
931.714	-140
931.809	1071
931.905	831
932.000	865
932.095	443
932.191	449
932.286	575
932.381	950
932.476	898
932.572	314
932.667	-46
932.762	738
932.857	276
932.952	782
933.047	919
933.142	249
933.237	-625
933.332	1048
933.427	804
933.522	444
933.617	475
933.712	785
933.807	450
933.902	705
933.997	427
934.092	-142
934.187	468
934.282	997
934.376	446
934.471	1440
934.566	29
934.661	544
934.755	732
934.850	945
934.945	188
935.039	363
935.134	-191
935.228	776
935.323	609
935.417	584
935.512	377
935.606	-238
935.701	487
935.795	378
935.890	792
935.984	-271
936.079	-374
936.173	1391
936.267	-113
936.362	-733
936.456	542
936.550	765
936.644	684
936.738	299
936.833	-488
936.927	79
937.021	736
937.115	894
937.209	-966
937.303	1199
937.397	66
937.491	176
937.585	-119
937.679	436
937.773	475
937.867	344
937.961	42
938.055	797
938.149	442
938.243	606
938.337	-406
938.430	712
938.524	317
938.618	359
938.712	545
938.805	1000
938.899	-223
938.993	548
939.086	249
939.180	35
939.274	531
939.367	222
939.461	500
939.554	449
939.648	-158
939.741	157
939.835	-189
939.928	458
940.022	688
940.115	-17
940.208	194
940.302	1291
940.395	779
940.488	-39
940.582	647
940.675	-404
940.768	-253
940.861	-20
940.954	174
941.048	570
941.141	-189
941.234	-31
941.327	975
941.420	966
941.513	675
941.606	-271
941.699	714
941.792	494
941.885	716
941.978	-491
942.071	621
942.164	217
942.257	552
942.349	398
942.442	-156
942.535	412
942.628	384
942.721	-122
942.813	-732
942.906	458
942.999	96
943.091	-54
943.184	-157
943.277	-292
943.369	115
943.462	-136
943.554	390
943.647	-361
943.739	964
943.832	220
943.924	-1037
944.017	428
944.109	-789
944.201	-86
944.294	-339
944.386	174
944.478	-53
944.571	301
944.663	-38
944.755	395
944.847	-146
944.940	101
945.032	-944
945.124	-285
945.216	519
945.308	-429
945.400	285
945.492	756
945.584	-16
945.676	-95
945.768	-368
945.860	817
945.952	200
946.044	133
946.136	-975
946.228	-170
946.320	-175
946.412	250
946.503	-241
946.595	683
946.687	-918
946.779	-205
946.870	-385
946.962	-402
947.054	-815
947.145	222
947.237	-118
947.329	-166
947.420	340
947.512	76
947.603	-567
947.695	737
947.786	-952
947.878	-402
947.969	95
948.061	-648
948.152	-110
948.243	-297
948.335	-78
948.426	-628
948.517	-745
948.609	-237
948.700	-722
948.791	55
948.882	-556
948.973	-181
949.065	-364
949.156	388
949.247	-900
949.338	-420
949.429	-468
949.520	175
949.611	-1349
949.702	880
949.793	134
949.884	184
949.975	-1190
950.066	-1451
950.157	-676
950.247	-393
950.338	-836
950.429	325
950.520	-242
950.611	-310
950.701	-344
950.792	237
950.883	-283
950.973	50
951.064	-647
951.155	51
951.245	51
951.336	-79
951.427	-244
951.517	528
951.608	-223
951.698	-469
951.788	-441
951.879	-388
951.969	-388
952.060	-372
952.150	-250
952.240	-448
952.331	-2519
952.421	500
952.511	-965
952.602	-479
952.692	-1213
952.782	4
952.872	-767
952.962	-171
953.052	-1102
953.143	-305
953.233	159
953.323	333
953.413	-1263
953.503	754
953.593	2
953.683	-106
953.773	-751
953.863	-670
953.953	-637
954.042	234
954.132	-632
954.222	137
954.312	-813
954.402	-731
954.492	-879
954.581	865
954.671	-535
954.761	-612
954.850	82
954.940	-675
955.030	182
955.119	-717
955.209	-822
955.298	-194
955.388	-280
955.477	358
955.567	-1109
955.656	-36
955.746	111
955.835	-473
955.925	-1107
956.014	-686
956.103	-948
956.193	249
956.282	-53
956.371	590
956.461	-1066
956.550	-1273
956.639	-572
956.728	-646
956.817	-907
956.906	-849
956.995	-498
957.085	-894
957.174	37
957.263	-93
957.352	-855
957.441	121
957.530	-387
957.619	-489
957.708	-785
957.796	-245
957.885	41
957.974	-72
958.063	-631
958.152	-951
958.241	-345
958.329	-85
958.418	-791
958.507	-609
958.596	-394
958.684	-1047
958.773	524
958.861	-924
958.950	-1026
959.039	-560
959.127	-976
959.216	-110
959.304	-187
959.393	-355
959.481	-604
959.570	-771
959.658	-750
959.746	-1203
959.835	14
959.923	886
960.011	-1338
960.100	-379
960.188	-1191
960.276	-427
960.365	-706
960.453	-533
960.541	-845
960.629	-665
960.717	-727
960.805	-1033
960.893	249
960.981	-1859
961.069	-320
961.158	-1055
961.245	-183
961.333	-56
961.421	-1378
961.509	-297
961.597	77
961.685	-1426
961.773	-1039
961.861	-977
961.949	-153
962.036	-812
962.124	-291
962.212	-1204
962.299	-1571
962.387	-1917
962.475	-520
962.562	-1572
962.650	-646
962.738	-795
962.825	-1144
962.913	-167
963.000	-1425
963.088	-323
963.175	-998
963.263	-633
963.350	-2003
963.438	-827
963.525	-1061
963.612	389
963.700	518
963.787	5949
963.874	813
963.962	-542
964.049	-760
964.136	-1182
964.223	-1419
964.310	-303
964.398	-550
964.485	-1262
964.572	-105
964.659	-196
964.746	-266
964.833	-520
964.920	-996
965.007	-626
965.094	-793
965.181	-603
965.268	-1280
965.355	-1372
965.441	-1084
965.528	-1131
965.615	-735
965.702	-689
965.789	-1446
965.875	341
965.962	-539
966.049	-1280
966.136	-763
966.222	-1390
966.309	450
966.395	-188
966.482	-288
966.569	-1137
966.655	-1330
966.742	-580
966.828	-996
966.915	-1917
967.001	-1015
967.087	-1294
967.174	-1296
967.260	-186
967.347	-971
967.433	-348
967.519	2713
967.605	516
967.692	-971
967.778	-821
967.864	-1246
967.950	-1053
968.036	-1236
968.123	168
968.209	-1314
968.295	-1738
968.381	-38
968.467	204
968.553	-2188
968.639	429
968.725	-1747
968.811	288
968.897	523
968.983	-1143
969.069	-1465
969.154	-804
969.240	-427
969.326	-1569
969.412	-1201
969.497	-1176
969.583	-1461
969.669	21
969.755	-474
969.840	-823
969.926	-673
970.012	-1059
970.097	-11
970.183	-335
970.268	-676
970.354	-481
970.439	-950
970.525	2016
970.610	-1461
970.696	-389
970.781	-1290
970.866	-2285
970.952	-737
971.037	-1356
971.122	-494
971.208	-379
971.293	-1365
971.378	-1594
971.463	-888
971.549	-207
971.634	-2106
971.719	-43
971.804	-1188
971.889	-1042
971.974	-1982
972.059	-1129
972.144	-1145
972.229	-1713
972.314	-2087
972.399	-325
972.484	-1368
972.569	-472
972.654	-1884
972.739	365
972.824	-962
972.908	-507
972.993	-1777
973.078	-1535
973.163	-1727
973.247	-353
973.332	-3261
973.417	555
973.501	-1578
973.586	-734
973.671	-1183
973.755	-1223
973.840	439
973.924	-866
974.009	-1191
974.093	-1382
974.178	86
974.262	141
974.346	-213
974.431	-224
974.515	-1499
974.600	-838
974.684	-966
974.768	-1296
974.852	-1164
974.937	-1554
975.021	92
975.105	-1159
975.189	-1826
975.273	-615
975.358	-1823
975.442	-1306
975.526	-976
975.610	-1540
975.694	-1579
975.778	28
975.862	-1538
975.946	-2378
976.030	-198
976.114	-1143
976.198	-985
976.281	-893
976.365	-686
976.449	-1182
976.533	-546
976.617	-1362
976.700	-1226
976.784	-825
976.868	-1512
976.951	-118
977.035	-1320
977.119	-554
977.202	-1246
977.286	-1089
977.369	-883
977.453	-736
977.536	-1585
977.620	-1897
977.703	-696
977.787	-2374
977.870	-1278
977.953	398
978.037	-1775
978.120	14
978.203	-1593
978.287	-26
978.370	-1295
978.453	-257
978.536	-962
978.620	-618
978.703	-748
978.786	-1177
978.869	-1481
978.952	-1495
979.035	-650
979.118	-748
979.201	-1193
979.284	-999
979.367	-2086
979.450	-399
979.533	-1506
979.616	-1514
979.699	-1101
979.782	-367
979.865	-1579
979.948	-1301
980.030	-2107
980.113	-1518
980.196	-2373
980.279	-313
980.361	-1492
980.444	-690
980.526	-847
980.609	-426
980.692	-619
980.774	-516
980.857	-2563
980.939	-186
981.022	-1562
981.104	-1688
981.187	-1666
981.269	-673
981.352	-381
981.434	-1045
981.516	-1846
981.599	-114
981.681	-937
981.763	-825
981.846	-1534
981.928	-390
982.010	-1248
982.092	-1773
982.174	-564
982.256	-1726
982.339	-948
982.421	-475
982.503	-599
982.585	-1020
982.667	-1481
982.749	-1616
982.831	-1422
982.913	-1276
982.995	-510
983.077	-1022
983.158	-141
983.240	-2458
983.322	-1245
983.404	-366
983.486	-2128
983.568	-54
983.649	-1236
983.731	-168
983.813	-1559
983.894	-1014
983.976	-1840
984.058	-1269
984.139	23
984.221	-1668
984.302	-1063
984.384	-1267
984.465	-1956
984.547	-352
984.628	-1734
984.710	-276
984.791	-1734
984.872	-615
984.954	-1211
985.035	-1197
985.116	-1493
985.198	-890
985.279	-516
985.360	-892
985.441	-1216
985.522	35
985.604	-1427
985.685	-3197
985.766	-346
985.847	167
985.928	-1421
986.009	-1089
986.090	-1194
986.171	-383
986.252	-2446
986.333	-1180
986.414	-1141
986.495	-747
986.576	-1726
986.656	-718
986.737	-1291
986.818	-1108
986.899	-2018
986.980	-1204
987.060	-661
987.141	-1344
987.222	-1138
987.302	-1434
987.383	-1225
987.464	-1418
987.544	-683
987.625	-1189
987.705	-822
987.786	-872
987.866	-1223
987.947	-1231
988.027	-1431
988.108	-1431
988.188	-1074
988.268	-436
988.349	-1158
988.429	-1586
988.509	-592
988.589	-1087
988.670	-2510
988.750	486
988.830	-1169
988.910	-471
988.990	-1488
989.070	-674
989.151	-1533
989.231	-2181
989.311	-855
989.391	-643
989.471	-2096
989.551	-1454
989.631	-1786
989.711	-280
989.791	-1811
989.870	-1451
989.950	-341
990.030	-1798
990.110	-1915
990.190	-947
990.269	-1154
990.349	-1672
990.429	-1446
990.509	-663
990.588	-2450
990.668	-522
990.747	-1530
990.827	-676
990.907	-1098
990.986	-1382
991.066	-1743
991.145	-925
991.225	-983
991.304	-1322
991.383	-1621
991.463	-1783
991.542	-1371
991.622	-1124
991.701	-2401
991.780	-1462
991.859	-2008
991.939	-1161
992.018	-834
992.097	-726
992.176	-1381
992.256	-530
992.335	-2236
992.414	-381
992.493	-2239
992.572	-1517
992.651	190
992.730	-1443
992.809	-2101
992.888	-1726
992.967	-1231
993.046	-768
993.125	-3092
993.203	-1811
993.282	-1423
993.361	-1400
993.440	-1342
993.519	-2050
993.597	-1772
993.676	-2575
993.755	-742
993.834	-1837
993.912	-2694
993.991	-1169
994.069	-1666
994.148	-755
994.226	-2501
994.305	-862
994.384	-1679
994.462	97
994.540	-2858
994.619	-1029
994.697	-1388
994.776	-1592
994.854	-1070
994.932	-1109
995.011	-1977
995.089	-2379
995.167	-2463
995.245	-1388
995.324	-2582
995.402	-724
995.480	-1958
995.558	-998
995.636	-3111
995.714	-1870
995.792	-791
995.870	-1710
995.948	-2020
996.026	-655
996.104	-2412
996.182	-1049
996.260	-2188
996.338	-1041
996.416	-2357
996.494	-2349
996.572	-1487
996.649	-1952
996.727	-1773
996.805	-1534
996.883	-1842
996.960	-1464
997.038	-735
997.116	-1068
997.193	-2918
997.271	-1469
997.348	-1847
997.426	-1105
997.504	-2373
997.581	-354
997.658	-1136
997.736	-2467
997.813	-1632
997.891	-1164
997.968	-2885
998.046	-1728
998.123	-1608
998.200	-1610
998.277	-1812
998.355	-1216
998.432	-1978
998.509	-348
998.586	-1274
998.663	-1630
998.741	-1299
998.818	-1421
998.895	-2808
998.972	-1147
999.049	-2045
999.126	-1854
999.203	-1030
999.280	-1090
999.357	-2399
999.434	-2327
999.511	-2388
999.587	-1295
999.664	-2268
999.741	-1443
999.818	-972
999.895	-2172
999.971	-1962
1000.048	-2093
1000.125	-1102
1000.202	-1643
1000.278	-1724
1000.355	-731
1000.431	-2005
1000.508	-2096
1000.584	-1432
1000.661	-1453
1000.738	-3288
1000.814	-1585
1000.890	-1687
1000.967	-1960
1001.043	-1733
1001.120	-2446
1001.196	-2448
1001.272	-2143
1001.349	-845
1001.425	-318
1001.501	-1921
1001.577	-2529
1001.654	-1749
1001.730	-962
1001.806	-1084
1001.882	-2800
1001.958	-2091
1002.034	-1444
1002.110	-2234
1002.186	-1345
1002.262	-1423
1002.338	-2763
1002.414	-1816
1002.490	-1022
1002.566	-1820
1002.642	-1959
1002.718	-1292
1002.794	-1736
1002.870	-1820
1002.945	-1487
1003.021	-1633
1003.097	-2511
1003.173	-1938
1003.248	-1595
1003.324	-1879
1003.400	-1886
1003.475	-2559
1003.551	-1896
1003.626	-1507
1003.702	-1519
1003.777	-2214
1003.853	-1521
1003.928	-1559
1004.004	-2090
1004.079	-1623
1004.155	-1684
1004.230	-2615
1004.305	-192
1004.381	-2104
1004.456	-1297
1004.531	-1851
1004.607	-1224
1004.682	-1519
1004.757	-1392
1004.832	-2127
1004.907	-1537
1004.982	-1258
1005.057	-1245
1005.133	-2162
1005.208	-886
1005.283	-1659
1005.358	-655
1005.433	-2126
1005.508	-1697
1005.583	-2160
1005.657	-2467
1005.732	-1754
1005.807	-2214
1005.882	-1885
1005.957	-1242
1006.032	-1380
1006.106	-1059
1006.181	-2143
1006.256	-1869
1006.331	-2328
1006.405	-1436
1006.480	-1705
1006.554	-2023
1006.629	-1630
1006.704	-2273
1006.778	-2443
1006.853	-1855
1006.927	-2246
1007.002	-2100
1007.076	-2128
1007.150	-2103
1007.225	-1681
1007.299	-1160
1007.373	-1783
1007.448	-1701
1007.522	-1028
1007.596	-1591
1007.671	-2282
1007.745	-873
1007.819	-2239
1007.893	-1808
1007.967	-1879
1008.041	-2308
1008.115	-1436
1008.190	-2108
1008.264	-2552
1008.338	-2979
1008.412	-2484
1008.486	-2478
1008.560	-2261
1008.633	-2030
1008.707	-2217
1008.781	-544
1008.855	-1445
1008.929	-1693
1009.003	-2794
1009.076	-2001
1009.150	-1534
1009.224	-1483
1009.298	-1889
1009.371	-2044
1009.445	-1176
1009.519	-2423
1009.592	-2586
1009.666	-1640
1009.739	-1794
1009.813	-2320
1009.886	-1444
1009.960	-2480
1010.033	-2260
1010.107	-1971
1010.180	-3160
1010.253	-1705
1010.327	-2645
1010.400	-2084
1010.473	-1439
1010.547	-947
1010.620	-1848
1010.693	-2091
1010.766	-2747
1010.840	-1946
1010.913	-2596
1010.986	-1791
1011.059	-2077
1011.132	-1491
1011.205	-1036
1011.278	-1805
1011.351	-2113
1011.424	-1511
1011.497	-2902
1011.570	-1877
1011.643	-1812
1011.716	-2176
1011.789	-2296
1011.862	-1864
1011.934	-1772
1012.007	-3077
1012.080	-2242
1012.153	-1927
1012.225	-1682
1012.298	-2171
1012.371	-2972
1012.443	-745
1012.516	-3323
1012.588	-1405
1012.661	-2203
1012.733	-2170
1012.806	-2265
1012.879	-1303
1012.951	-2310
1013.023	-1594
1013.096	-1805
1013.168	-1879
1013.241	-1845
1013.313	-839
1013.385	-2235
1013.458	-2171
1013.530	-1872
1013.602	-1876
1013.674	-1726
1013.746	-1750
1013.819	-2847
1013.891	-1244
1013.963	-2591
1014.035	-2244
1014.107	-2408
1014.179	-848
1014.251	-1942
1014.323	-1562
1014.395	-2062
1014.467	-1311
1014.539	-2064
1014.611	-1978
1014.683	-2272
1014.754	-1198
1014.826	-1709
1014.898	-1617
1014.970	-2984
1015.042	-383
1015.113	-2135
1015.185	-1868
1015.257	-2437
1015.328	-1847
1015.400	-1767
1015.471	-1703
1015.543	-3241
1015.615	-1198
1015.686	-1684
1015.757	-1792
1015.829	-1524
1015.901	-2337
1015.972	-2202
1016.043	-1754
1016.115	-2030
1016.186	-1905
1016.257	-2137
1016.328	-1639
1016.400	-1813
1016.471	-2724
1016.542	-1748
1016.613	-945
1016.685	-1976
1016.756	-1383
1016.827	-2580
1016.898	-2207
1016.969	-1897
1017.040	-2125
1017.111	-1526
1017.182	-2112
1017.253	-1465
1017.324	-1996
1017.395	-2668
1017.466	-1302
1017.537	-2182
1017.608	-2001
1017.678	-2019
1017.749	-1268
1017.820	-1909
1017.891	-2212
1017.961	-2766
1018.032	-1956
1018.103	-2275
1018.173	-1723
1018.244	-2476
1018.315	-2274
1018.385	-1221
1018.456	-2818
1018.526	-2424
1018.597	-2044
1018.667	-1987
1018.738	-2286
1018.808	-2144
1018.878	-1565
1018.949	-2708
1019.019	-1710
1019.089	-2576
1019.160	-1184
1019.230	-2461
1019.300	-979
1019.371	-2984
1019.441	-1624
1019.511	-2802
1019.581	-2350
1019.651	-1749
1019.721	-1448
1019.791	-2632
1019.861	-1614
1019.931	-2480
1020.001	-1505
1020.071	-1180
1020.141	-1222
1020.211	-2467
1020.281	-2141
1020.351	-2222
1020.421	-1971
1020.491	-878
1020.560	-2085
1020.630	-2403
1020.700	-1497
1020.770	-2397
1020.839	-2380
1020.909	-2672
1020.979	-1988
1021.048	-2213
1021.118	-1763
1021.187	-2715
1021.257	-2343
1021.326	-1236
1021.396	-2048
1021.465	-2308
1021.535	-2194
1021.604	-3282
1021.674	-1889
1021.743	-1966
1021.812	-1640
1021.882	-2526
1021.951	-2149
1022.020	-2903
1022.089	-1340
1022.159	-2114
1022.228	-1718
1022.297	-2430
1022.366	-1830
1022.435	-2723
1022.504	-1464
1022.573	-2113
1022.642	-1312
1022.711	-2745
1022.781	-1967
1022.849	-2015
1022.918	-2642
1022.987	-1905
1023.056	-2099
1023.125	-1852
1023.194	-1824
1023.263	-2218
1023.331	-1019
1023.400	-2669
1023.469	-2086
1023.538	-2465
1023.606	-2855
1023.675	-2299
1023.744	-2610
1023.812	-2984
1023.881	-1319
1023.949	-2821
1024.018	-2421
1024.086	-2557
1024.155	-2522
1024.223	-2557
1024.292	-1709
1024.360	-1725
1024.429	-2098
1024.497	-2702
1024.565	-2199
1024.634	-2504
1024.702	-2372
1024.770	-2651
1024.838	-2196
1024.907	-2441
1024.975	-2613
1025.043	-1894
1025.111	-2881
1025.179	-2169
1025.247	-2512
1025.315	-2583
1025.383	-1797
1025.451	-2783
1025.519	-2612
1025.587	-2144
1025.655	-1560
1025.723	-2380
1025.791	-2037
1025.859	-2051
1025.927	-2050
1025.995	-2961
1026.062	-1981
1026.130	-2368
1026.198	-2487
1026.266	-2188
1026.333	-1431
1026.401	-2321
1026.469	-1297
1026.536	-1802
1026.604	-2283
1026.671	-3448
1026.739	-2051
1026.806	-2716
1026.874	-2333
1026.941	-2209
1027.009	-2466
1027.076	-3641
1027.144	-1172
1027.211	-1986
1027.278	-2408
1027.345	-2923
1027.413	-2195
1027.480	-2622
1027.547	-2661
1027.614	-2302
1027.682	-1281
1027.749	-1929
1027.816	-1724
1027.883	-3056
1027.950	-1686
1028.017	-2929
1028.084	-2277
1028.151	-2879
1028.218	-2376
1028.285	-3223
1028.352	-1830
1028.419	-2812
1028.486	-2499
1028.553	-3302
1028.619	-2428
1028.686	-3086
1028.753	-2432
1028.820	-3201
1028.886	-2294
1028.953	-2768
1029.020	-1959
1029.086	-3319
1029.153	-2918
1029.220	-2420
1029.286	-2071
1029.353	-1607
1029.419	-1708
1029.486	-3103
1029.552	-2424
1029.619	-2029
1029.685	-2224
1029.751	-2540
1029.818	-1288
1029.884	-2518
1029.951	-1697
1030.017	-2410
1030.083	-2605
1030.149	-2391
1030.216	-2379
1030.282	-1901
1030.348	-1987
1030.414	-2682
1030.480	-2523
1030.546	-2509
1030.612	-3407
1030.678	-2235
1030.744	-2543
1030.810	-2533
1030.876	-2077
1030.942	-3230
1031.008	-1644
1031.074	-2711
1031.140	-2602
1031.206	-1758
1031.272	-2898
1031.337	-2558
1031.403	-1818
1031.469	-2740
1031.534	-1488
1031.600	-2006
1031.666	-2928
1031.731	-3256
1031.797	-2973
1031.863	-2329
1031.928	-2671
1031.994	-2946
1032.059	-2332
1032.125	-2450
1032.190	-2449
1032.256	-2930
1032.321	-2631
1032.386	-3153
1032.452	-2148
1032.517	-2134
1032.582	-2513
1032.647	-2048
1032.713	-2946
1032.778	-2678
1032.843	-1749
1032.908	-2508
1032.974	-2121
1033.039	-2644
1033.104	-1545
1033.169	-2728
1033.234	-2882
1033.299	-2121
1033.364	-2310
1033.429	-2503
1033.494	-1696
1033.559	-3307
1033.624	-2136
1033.688	-1606
1033.753	-2650
1033.818	-2066
1033.883	-1807
1033.948	-3263
1034.013	-1129
1034.077	-2808
1034.142	-1151
1034.207	-1347
1034.271	-880
1034.336	-224
1034.400	-718
1034.465	-1971
1034.530	-1978
1034.594	-2449
1034.658	-2109
1034.723	-3694
1034.787	-2117
1034.852	-2465
1034.916	-2346
1034.981	-2739
1035.045	-2522
1035.109	-3300
1035.173	-2378
1035.238	-2714
1035.302	-2422
1035.366	-2839
1035.430	-2470
1035.495	-3147
1035.559	-2189
1035.623	-2734
1035.687	-2633
1035.751	-2787
1035.815	-2094
1035.879	-3025
1035.943	-2483
1036.007	-2801
1036.071	-2137
1036.135	-2780
1036.198	-2413
1036.262	-3330
1036.326	-2371
1036.390	-2668
1036.454	-2042
1036.517	-2770
1036.581	-1848
1036.645	-2560
1036.709	-2221
1036.772	-3473
1036.836	-2451
1036.900	-2907
1036.963	-2033
1037.026	-3304
1037.090	-2725
1037.154	-2744
1037.217	-2275
1037.280	-3188
1037.344	-2145
1037.407	-3713
1037.471	-1837
1037.534	-1937
1037.597	-1585
1037.661	-3237
1037.724	-2718
1037.787	-3867
1037.850	-2589
1037.913	-3199
1037.977	-1751
1038.040	-2790
1038.103	-2582
1038.166	-2197
1038.229	-2560
1038.292	-3320
1038.355	-2569
1038.418	-2545
1038.481	-2413
1038.544	-2461
1038.607	-2206
1038.670	-1855
1038.732	-2822
1038.795	-3146
1038.858	-2364
1038.921	-2650
1038.984	-2737
1039.046	-2068
1039.109	-2634
1039.172	-2900
1039.234	-2037
1039.297	-3257
1039.360	-2279
1039.422	-2901
1039.485	-2850
1039.547	-2914
1039.610	-2795
1039.672	-2686
1039.734	-2453
1039.797	-3477
1039.859	-2100
1039.922	-2758
1039.984	-2636
1040.046	-2606
1040.109	-2610
1040.171	-2650
1040.233	-2472
1040.295	-2816
1040.358	-2684
1040.420	-2932
1040.482	-2699
1040.544	-2475
1040.606	-2204
1040.668	-2701
1040.730	-2972
1040.792	-3102
1040.854	-3548
1040.916	-3321
1040.978	-2085
1041.040	-2666
1041.102	-2210
1041.164	-2402
1041.225	-2449
1041.287	-3977
1041.349	-2726
1041.411	-2594
1041.472	-2389
1041.534	-2734
1041.596	-2477
1041.657	-2740
1041.719	-2147
1041.781	-2740
1041.842	-2640
1041.904	-2711
1041.965	-1525
1042.027	-3102
1042.088	-2074
1042.150	-3020
1042.211	-2736
1042.272	-2183
1042.334	-2458
1042.395	-2672
1042.456	-2076
1042.518	-2733
1042.579	-2140
1042.640	-2951
1042.701	-2597
1042.763	-3539
1042.824	-2479
1042.885	-3388
1042.946	-2426
1043.007	-3171
1043.068	-3346
1043.129	-2497
1043.190	-2597
1043.251	-2440
1043.312	-2464
1043.373	-2874
1043.434	-2472
1043.495	-2897
1043.556	-2493
1043.616	-3085
1043.677	-2351
1043.738	-2798
1043.799	-3150
1043.859	-3033
1043.920	-2557
1043.981	-3029
1044.041	-2145
1044.102	-2767
1044.162	-2195
1044.223	-3183
1044.284	-2604
1044.344	-3346
1044.405	-2071
1044.465	-2971
1044.525	-2561
1044.586	-2482
1044.646	-1812
1044.707	-2913
1044.767	-2463
1044.827	-2881
1044.887	-2642
1044.948	-3157
1045.008	-2551
1045.068	-2997
1045.128	-2066
1045.188	-3140
1045.249	-1680
1045.309	-2465
1045.369	-2625
1045.429	-3296
1045.489	-2541
1045.549	-2688
1045.609	-2614
1045.669	-3197
1045.729	-2161
1045.789	-2483
1045.848	-2934
1045.908	-2519
1045.968	-2764
1046.028	-2476
1046.088	-1348
1046.147	-2269
1046.207	-1762
1046.267	-1334
1046.326	-2055
1046.386	-3025
1046.446	-1400
1046.505	-1811
1046.565	-988
1046.624	-2091
1046.684	-984
1046.743	-1838
1046.803	-887
1046.862	-1369
1046.922	0
