'Start Wavelength	183.907
'End Wavelength	1046.922
'Gate Delay	5.000
'Gate Width (ms)	1.050
'Laser Output Level	0.000
'X Position	0.000
'Y Position	0.000
'Z Position	0.000
'Grid Point Number	1.000
'Shot Number	100.000
183.907	476.000
183.977	498.000
184.047	193
184.116	512
184.186	391
184.256	-254
184.325	828
184.395	-539
184.465	842
184.534	-260
184.604	336
184.674	524
184.743	-31
184.813	975
184.883	-233
184.952	-248
185.022	624
185.092	138
185.161	276
185.231	779
185.301	798
185.370	455
185.440	232
185.509	-72
185.579	-256
185.649	453
185.718	283
185.788	798
185.857	624
185.927	253
185.996	662
186.066	-51
186.136	31
186.205	797
186.275	-19
186.344	364
186.414	-515
186.483	56
186.553	1759
186.622	1094
186.692	1254
186.761	632
186.831	494
186.900	-406
186.970	467
187.039	647
187.109	225
187.178	1258
187.248	549
187.317	-15
187.387	643
187.456	1037
187.526	-450
187.595	316
187.664	16
187.734	718
187.803	580
187.873	1070
187.942	484
188.012	614
188.081	19
188.150	196
188.220	1168
188.289	938
188.358	30
188.428	993
188.497	161
188.567	1010
188.636	-173
188.705	238
188.775	972
188.844	523
188.913	693
188.983	507
189.052	331
189.121	12
189.191	319
189.260	1223
189.329	316
189.399	89
189.468	466
189.537	-153
189.606	597
189.676	-235
189.745	356
189.814	-94
189.883	94
189.953	224
190.022	675
190.091	-139
190.161	-176
190.230	100
190.299	188
190.368	673
190.437	-319
190.507	28
190.576	476
190.645	570
190.714	-28
190.783	-309
190.853	808
190.922	1875
190.991	633
191.060	-162
191.129	-668
191.198	548
191.268	-77
191.337	232
191.406	313
191.475	527
191.544	155
191.613	22
191.682	982
191.752	680
191.821	-161
191.890	628
191.959	179
192.028	607
192.097	513
192.166	774
192.235	164
192.304	738
192.373	-268
192.442	-224
192.511	-772
192.580	551
192.650	-267
192.719	-78
192.788	131
192.857	911
192.926	977
192.995	513
193.064	671
193.133	758
193.202	257
193.271	694
193.340	-357
193.409	697
193.478	501
193.547	1019
193.615	483
193.684	444
193.753	797
193.822	624
193.891	54
193.960	587
194.029	354
194.098	436
194.167	43
194.236	495
194.305	774
194.374	291
194.443	-213
194.512	499
194.580	1198
194.649	480
194.718	-396
194.787	-222
194.856	-329
194.925	-3
194.994	-267
195.062	147
195.131	102
195.200	302
195.269	760
195.338	38
195.407	186
195.475	233
195.544	428
195.613	-191
195.682	18
195.751	-204
195.819	-224
195.888	-115
195.957	1222
196.026	496
196.094	271
196.163	632
196.232	467
196.301	115
196.369	533
196.438	236
196.507	581
196.576	461
196.644	21
196.713	-226
196.782	37
196.850	1019
196.919	624
196.988	268
197.056	-220
197.125	-264
197.194	831
197.262	63
197.331	313
197.400	610
197.468	-168
197.537	331
197.606	534
197.674	357
197.743	559
197.812	387
197.880	115
197.949	-558
198.017	190
198.086	-1
198.155	15
198.223	50
198.292	228
198.360	-99
198.429	-232
198.497	604
198.566	291
198.635	117
198.703	191
198.772	940
198.840	895
198.909	-376
198.977	381
199.046	329
199.114	88
199.183	380
199.251	198
199.320	-48
199.388	-396
199.457	616
199.525	413
199.594	37
199.662	55
199.731	1125
199.799	169
199.867	857
199.936	386
200.004	-449
200.073	-70
200.141	418
200.210	241
200.278	484
200.346	462
200.415	580
200.483	679
200.552	801
200.620	590
200.688	924
200.757	-145
200.825	535
200.893	-290
200.962	867
201.030	507
201.098	546
201.167	189
201.235	-141
201.303	658
201.372	1275
201.440	619
201.508	821
201.577	677
201.645	243
201.713	166
201.781	893
201.850	1306
201.918	508
201.986	585
202.055	828
202.123	2
202.191	418
202.259	486
202.327	532
202.396	798
202.464	731
202.532	580
202.600	3019
202.669	2116
202.737	619
202.805	724
202.873	505
202.941	222
203.009	-548
203.078	468
203.146	659
203.214	-195
203.282	-29
203.350	759
203.418	261
203.487	380
203.555	787
203.623	266
203.691	944
203.759	-268
203.827	1053
203.895	1000
203.963	372
204.031	438
204.099	532
204.168	-93
204.236	1012
204.304	217
204.372	314
204.440	485
204.508	271
204.576	-83
204.644	630
204.712	187
204.780	736
204.848	-176
204.916	-269
204.984	929
205.052	261
205.120	577
205.188	-17
205.256	45
205.324	314
205.392	-2
205.460	-61
205.528	-475
205.596	707
205.664	865
205.732	553
205.799	769
205.867	628
205.935	-713
206.003	867
206.071	111
206.139	146
206.207	300
206.275	332
206.343	48
206.411	703
206.478	141
206.546	682
206.614	180
206.682	397
206.750	-232
206.818	1454
206.885	647
206.953	547
207.021	1031
207.089	1268
207.157	-168
207.225	423
207.292	124
207.360	196
207.428	-660
207.496	-251
207.563	261
207.631	86
207.699	601
207.767	352
207.834	-334
207.902	620
207.970	407
208.038	215
208.105	325
208.173	829
208.241	-160
208.309	-211
208.376	570
208.444	1002
208.512	195
208.579	390
208.647	1449
208.715	1745
208.782	6
208.850	1009
208.918	67
208.985	-140
209.053	-5
209.120	523
209.188	-114
209.256	-78
209.323	288
209.391	-346
209.459	1353
209.526	524
209.594	131
209.661	237
209.729	597
209.796	79
209.864	209
209.932	-17
209.999	1990
210.067	701
210.134	-145
210.202	945
210.269	756
210.337	1233
210.404	706
210.472	217
210.539	174
210.607	487
210.674	258
210.742	528
210.809	-149
210.877	535
210.944	327
211.012	-345
211.079	903
211.146	127
211.214	1053
211.281	1551
211.349	2022
211.416	1073
211.484	795
211.551	303
211.618	1058
211.686	170
211.753	-121
211.821	643
211.888	467
211.955	1114
212.023	501
212.090	312
212.157	-343
212.225	155
212.292	1410
212.359	-298
212.427	1189
212.494	617
212.561	656
212.629	145
212.696	258
212.763	515
212.831	-579
212.898	539
212.965	716
213.032	364
213.100	433
213.167	-172
213.234	1286
213.301	870
213.369	531
213.436	268
213.503	-468
213.570	302
213.638	673
213.705	-405
213.772	-506
213.839	-126
213.906	534
213.973	420
214.041	-214
214.108	929
214.175	211
214.242	260
214.309	-334
214.376	180
214.444	401
214.511	552
214.578	226
214.645	229
214.712	712
214.779	886
214.846	-505
214.913	541
214.980	888
215.048	916
215.115	2115
215.182	146
215.249	260
215.316	410
215.383	903
215.450	439
215.517	1028
215.584	760
215.651	-267
215.718	97
215.785	743
215.852	-430
215.919	889
215.986	553
216.053	68
216.120	-141
216.187	126
216.254	3
216.321	132
216.388	-486
216.455	-62
216.522	138
216.589	556
216.656	207
216.722	-164
216.789	460
216.856	-251
216.923	730
216.990	374
217.057	132
217.124	318
217.191	40
217.258	591
217.324	-116
217.391	146
217.458	-183
217.525	318
217.592	173
217.659	-841
217.725	1344
217.792	-627
217.859	1219
217.926	-493
217.993	-33
218.059	702
218.126	1030
218.193	306
218.260	69
218.327	628
218.393	241
218.460	-74
218.527	390
218.594	-10
218.660	-309
218.727	223
218.794	-817
218.860	1386
218.927	-47
218.994	-82
219.061	-142
219.127	712
219.194	105
219.261	314
219.327	53
219.394	793
219.461	-25
219.527	397
219.594	534
219.661	339
219.727	-626
219.794	1750
219.860	-44
219.927	1713
219.994	1669
220.060	2935
220.127	3964
220.193	1895
220.260	-74
220.326	779
220.393	277
220.460	611
220.526	-97
220.593	-183
220.659	1324
220.726	256
220.792	956
220.859	334
220.925	336
220.992	310
221.058	1300
221.125	-2
221.191	618
221.258	-420
221.324	1080
221.391	-27
221.457	550
221.524	193
221.590	454
221.657	968
221.723	422
221.789	-515
221.856	-97
221.922	271
221.989	703
222.055	82
222.121	-136
222.188	2361
222.254	530
222.321	1332
222.387	-249
222.453	788
222.520	-341
222.586	18
222.652	57
222.719	438
222.785	765
222.851	-371
222.918	443
222.984	809
223.050	924
223.116	-1278
223.183	1074
223.249	-223
223.315	242
223.382	659
223.448	115
223.514	483
223.580	286
223.647	-188
223.713	-179
223.779	196
223.845	-155
223.911	430
223.978	80
224.044	523
224.110	36
224.176	307
224.242	234
224.309	-564
224.375	668
224.441	498
224.507	52
224.573	-831
224.639	630
224.705	-39
224.772	645
224.838	-219
224.904	113
224.970	309
225.036	458
225.102	-165
225.168	651
225.234	682
225.300	686
225.366	371
225.432	933
225.499	370
225.565	457
225.631	-269
225.697	558
225.763	728
225.829	440
225.895	672
225.961	49
226.027	379
226.093	-1063
226.159	1791
226.225	1645
226.291	481
226.357	479
226.423	904
226.489	390
226.554	-20
226.620	625
226.686	102
226.752	234
226.818	362
226.884	1296
226.950	1054
227.016	285
227.082	1022
227.148	895
227.214	485
227.279	576
227.345	544
227.411	1294
227.477	2549
227.543	7400
227.609	6604
227.674	3715
227.740	920
227.806	1213
227.872	825
227.938	654
228.003	227
228.069	274
228.135	-138
228.201	535
228.267	63
228.332	463
228.398	-1172
228.464	1356
228.530	-8
228.595	550
228.661	-216
228.727	-113
228.792	1261
228.858	132
228.924	-1347
228.990	1581
229.055	26
229.121	887
229.187	-82
229.252	-292
229.318	20
229.384	407
229.449	-94
229.515	-1406
229.581	260
229.646	2579
229.712	287
229.777	382
229.843	383
229.909	494
229.974	367
230.040	205
230.105	98
230.171	-42
230.236	1219
230.302	-359
230.368	-338
230.433	-491
230.499	784
230.564	437
230.630	-635
230.695	147
230.761	821
230.826	-1284
230.892	604
230.957	565
231.023	73
231.088	610
231.154	141
231.219	269
231.284	-162
231.350	916
231.415	-933
231.481	-19
231.546	378
231.612	876
231.677	182
231.742	-678
231.808	1210
231.873	-111
231.939	-873
232.004	1126
232.069	624
232.135	32
232.200	312
232.265	986
232.331	887
232.396	35
232.461	275
232.527	-259
232.592	-118
232.657	63
232.723	390
232.788	30
232.853	1084
232.918	480
232.984	-186
233.049	310
233.114	-731
233.179	441
233.245	1304
233.310	764
233.375	-333
233.440	357
233.506	-355
233.571	-74
233.636	282
233.701	211
233.766	-141
233.832	1036
233.897	163
233.962	-757
234.027	1251
234.092	831
234.157	445
234.222	457
234.288	957
234.353	1257
234.418	1008
234.483	1367
234.548	1005
234.613	782
234.678	554
234.743	-464
234.808	1308
234.873	-844
234.938	2083
235.004	502
235.069	341
235.134	-487
235.199	927
235.264	1225
235.329	-1564
235.394	929
235.459	1145
235.524	-939
235.589	1280
235.654	691
235.719	-806
235.784	1429
235.849	-103
235.913	407
235.978	566
236.043	167
236.108	279
236.173	-316
236.238	1014
236.303	449
236.368	-635
236.433	619
236.498	79
236.563	815
236.627	233
236.692	937
236.757	451
236.822	749
236.887	110
236.952	1272
237.017	-1031
237.081	1689
237.146	-425
237.211	670
237.276	-532
237.341	2306
237.405	523
237.470	443
237.535	822
237.600	521
237.664	593
237.729	-1069
237.794	-409
237.859	784
237.923	-220
237.988	163
238.053	1462
238.118	239
238.182	834
238.247	2549
238.312	-623
238.376	486
238.441	-1570
238.506	1514
238.570	-75
238.635	1368
238.700	-69
238.764	-14
238.829	819
238.893	290
238.958	412
239.023	177
239.087	94
239.152	1284
239.216	-118
239.281	736
239.346	583
239.410	153
239.475	-170
239.539	1624
239.604	173
239.668	1688
239.733	2626
239.797	4713
239.862	12499
239.926	9974
239.991	3705
240.055	2189
240.120	1459
240.184	916
240.249	609
240.313	824
240.378	34
240.442	1313
240.507	1346
240.571	729
240.635	-55
240.700	901
240.764	-251
240.829	914
240.893	-294
240.957	700
241.022	1188
241.086	1895
241.151	-470
241.215	23
241.279	895
241.344	491
241.408	378
241.472	-161
241.537	1199
241.601	366
241.665	-436
241.730	-110
241.794	1108
241.858	-519
241.922	2
241.987	850
242.051	424
242.115	-1346
242.179	698
242.244	-176
242.308	951
242.372	456
242.436	-532
242.501	218
242.565	-362
242.629	-424
242.693	532
242.757	-512
242.822	-275
242.886	849
242.950	854
243.014	-591
243.078	219
243.142	728
243.206	-182
243.271	884
243.335	-714
243.399	437
243.463	997
243.527	1811
243.591	176
243.655	-261
243.719	-105
243.783	953
243.847	304
243.911	228
243.975	244
244.040	-837
244.104	1138
244.168	1127
244.232	489
244.296	84
244.360	1314
244.424	-645
244.488	1408
244.552	965
244.615	-811
244.679	-306
244.743	-220
244.807	-792
244.871	1105
244.935	840
244.999	-103
245.063	21
245.127	688
245.191	634
245.255	503
245.319	294
245.383	-669
245.446	2120
245.510	-266
245.574	624
245.638	-60
245.702	-1623
245.766	327
245.829	1509
245.893	590
245.957	-152
246.021	1074
246.085	49
246.149	13
246.212	1604
246.276	1189
246.340	347
246.404	247
246.467	1811
246.531	-842
246.595	1584
246.659	1758
246.722	-1167
246.786	1027
246.850	610
246.913	-432
246.977	-688
247.041	668
247.104	340
247.168	597
247.232	882
247.295	2857
247.359	2338
247.423	635
247.486	252
247.550	1767
247.614	555
247.677	832
247.741	989
247.804	1075
247.868	5925
247.932	1689
247.995	3534
248.059	715
248.122	-586
248.186	1611
248.249	643
248.313	3345
248.376	5092
248.440	1902
248.503	-787
248.567	2695
248.630	-159
248.694	1023
248.757	1886
248.821	4789
248.884	2864
248.948	1519
249.011	3259
249.075	4876
249.138	5179
249.202	1016
249.265	78
249.328	2458
249.392	362
249.455	542
249.519	606
249.582	427
249.645	1557
249.709	653
249.772	284
249.835	867
249.899	793
249.962	1217
250.025	216
250.089	1138
250.152	2812
250.215	1174
250.279	894
250.342	1435
250.405	983
250.468	100
250.532	925
250.595	1313
250.658	2053
250.721	5603
250.785	781
250.848	2198
250.911	543
250.974	1173
251.038	696
251.101	3075
251.164	668
251.227	708
251.290	701
251.354	723
251.417	3134
251.480	4921
251.543	1930
251.606	9038
251.669	6955
251.732	2079
251.795	2290
251.859	2788
251.922	3493
251.985	2562
252.048	1748
252.111	1030
252.174	497
252.237	1487
252.300	4593
252.363	3146
252.426	7895
252.489	1938
252.552	1484
252.615	-150
252.678	1751
252.741	4363
252.804	3287
252.867	8050
252.930	5296
252.993	2104
253.056	1287
253.119	589
253.182	867
253.245	713
253.308	1653
253.371	600
253.434	771
253.497	1209
253.559	2272
253.622	1041
253.685	886
253.748	1107
253.811	1377
253.874	1481
253.937	855
254.000	163
254.062	1272
254.125	1711
254.188	3058
254.251	1051
254.314	114
254.376	635
254.439	1762
254.502	581
254.565	1428
254.628	3334
254.690	461
254.753	323
254.816	1407
254.878	764
254.941	2121
255.004	2368
255.067	528
255.129	189
255.192	1543
255.255	509
255.317	831
255.380	1658
255.443	782
255.505	952
255.568	100
255.631	583
255.693	1836
255.756	57
255.819	2104
255.881	1095
255.944	968
256.006	324
256.069	27
256.132	589
256.194	1398
256.257	1285
256.319	927
256.382	557
256.444	2713
256.507	1406
256.569	1108
256.632	39
256.694	15
256.757	679
256.819	1224
256.882	-473
256.944	571
257.007	1339
257.069	505
257.132	675
257.194	1704
257.257	383
257.319	-322
257.381	-50
257.444	1273
257.506	2305
257.569	2629
257.631	2392
257.693	1197
257.756	1001
257.818	-415
257.880	307
257.943	1704
258.005	-170
258.067	-184
258.130	1395
258.192	962
258.254	874
258.317	519
258.379	691
258.441	1141
258.503	1934
258.566	1662
258.628	1846
258.690	398
258.753	1428
258.815	923
258.877	211
258.939	74
259.001	1257
259.064	373
259.126	770
259.188	180
259.250	976
259.312	1450
259.375	1483
259.437	1078
259.499	995
259.561	79
259.623	1844
259.685	273
259.747	987
259.809	814
259.872	2315
259.934	3738
259.996	4029
260.058	1615
260.120	470
260.182	1108
260.244	1269
260.306	381
260.368	1486
260.430	755
260.492	1002
260.554	1734
260.616	1103
260.678	2463
260.740	1767
260.802	331
260.864	1969
260.926	215
260.988	1304
261.050	949
261.112	510
261.174	3123
261.236	1760
261.298	884
261.359	1377
261.421	3173
261.483	308
261.545	1984
261.607	-52
261.669	1320
261.731	1664
261.793	1595
261.854	-81
261.916	1309
261.978	864
262.040	1098
262.102	1271
262.164	211
262.225	1606
262.287	1219
262.349	341
262.411	1371
262.472	1527
262.534	1040
262.596	1099
262.658	1459
262.719	-408
262.781	2358
262.843	1154
262.904	1342
262.966	1855
263.028	1895
263.090	2378
263.151	3548
263.213	1713
263.275	1236
263.336	1283
263.398	2042
263.459	1122
263.521	1410
263.583	1406
263.644	1329
263.706	1318
263.767	916
263.829	1350
263.891	1132
263.952	794
264.014	445
264.075	830
264.137	662
264.198	1139
264.260	837
264.321	1143
264.383	-362
264.444	1744
264.506	698
264.567	990
264.629	1461
264.690	219
264.752	590
264.813	1154
264.875	-250
264.936	1566
264.998	602
265.059	2220
265.120	1131
265.182	829
265.243	1457
265.305	764
265.366	752
265.427	-124
265.489	1933
265.550	176
265.611	1082
265.673	973
265.734	778
265.795	1191
265.857	-90
265.918	-298
265.979	1166
266.040	1715
266.102	1979
266.163	935
266.224	1026
266.286	1370
266.347	789
266.408	1164
266.469	1626
266.530	1897
266.592	1228
266.653	1889
266.714	1926
266.775	1689
266.836	1528
266.898	1400
266.959	2097
267.020	1902
267.081	3029
267.142	1161
267.203	1808
267.264	1768
267.326	2714
267.387	1325
267.448	788
267.509	2027
267.570	1680
267.631	753
267.692	593
267.753	1254
267.814	969
267.875	898
267.936	2011
267.997	703
268.058	812
268.119	1071
268.180	694
268.241	-308
268.302	823
268.363	582
268.424	1146
268.485	158
268.546	473
268.607	29
268.668	1112
268.729	707
268.790	975
268.851	1163
268.912	1484
268.972	1307
269.033	709
269.094	502
269.155	1653
269.216	273
269.277	936
269.338	672
269.398	929
269.459	274
269.520	28
269.581	156
269.642	883
269.702	824
269.763	1031
269.824	957
269.885	-40
269.945	695
270.006	1619
270.067	288
270.128	565
270.188	563
270.249	410
270.310	140
270.370	1429
270.431	978
270.492	727
270.553	1270
270.613	455
270.674	1561
270.734	517
270.795	1174
270.856	1219
270.916	939
270.977	1420
271.038	1058
271.098	0
271.159	714
271.219	873
271.280	884
271.340	287
271.401	598
271.462	809
271.522	746
271.583	627
271.643	803
271.704	425
271.764	1492
271.825	2170
271.885	4115
271.946	6682
272.006	3160
272.066	2668
272.127	6575
272.187	7237
272.248	3138
272.308	1769
272.369	3571
272.429	2076
272.489	1510
272.550	2044
272.610	2718
272.671	2156
272.731	1901
272.791	1538
272.852	2125
272.912	2304
272.972	2046
273.033	2306
273.093	1935
273.153	2926
273.214	3586
273.274	3253
273.334	3764
273.394	6068
273.455	4969
273.515	4420
273.575	5584
273.635	5465
273.696	6394
273.756	7567
273.816	6193
273.876	5262
273.936	5588
273.997	4647
274.057	3213
274.117	3131
274.177	3269
274.237	4710
274.297	5058
274.358	2484
274.418	3057
274.478	2763
274.538	1692
274.598	1863
274.658	1788
274.718	2477
274.778	1562
274.838	2183
274.898	1292
274.958	3741
275.018	4346
275.078	3812
275.138	1288
275.198	2503
275.258	1695
275.318	1467
275.378	1095
275.438	1292
275.498	1408
275.558	1916
275.618	4011
275.678	2740
275.738	2717
275.798	1618
275.858	1388
275.918	835
275.978	2259
276.038	1494
276.098	1523
276.157	2484
276.217	1669
276.277	1178
276.337	889
276.397	1935
276.457	1993
276.517	2462
276.576	2371
276.636	2054
276.696	2486
276.756	2024
276.815	1983
276.875	2272
276.935	2721
276.995	2687
277.055	2457
277.114	3324
277.174	2628
277.234	2109
277.293	1759
277.353	2475
277.413	2068
277.472	2242
277.532	1739
277.592	4534
277.651	15181
277.711	30965
277.771	11557
277.830	28662
277.890	28080
277.950	19750
278.009	54376
278.069	25678
278.128	21415
278.188	33409
278.248	17035
278.307	35417
278.367	23681
278.426	8296
278.486	5527
278.545	3969
278.605	4479
278.664	3962
278.724	4657
278.783	3988
278.843	7390
278.902	5607
278.962	5011
279.021	6771
279.081	18721
279.140	18440
279.199	9997
279.259	9770
279.318	13646
279.378	18279
279.437	30527
279.496	71290
279.556	290253
279.615	233263
279.675	74510
279.734	38246
279.793	39366
279.853	46201
279.912	21479
279.971	16190
280.031	14618
280.090	17266
280.149	26000
280.208	42979
280.268	190947
280.327	195714
280.386	56666
280.445	26268
280.505	16092
280.564	12714
280.623	10578
280.682	8967
280.742	7849
280.801	6201
280.860	6428
280.919	4859
280.978	5468
281.037	4982
281.097	4129
281.156	6702
281.215	4883
281.274	4565
281.333	5035
281.392	4698
281.451	3916
281.510	3854
281.569	3269
281.628	3907
281.688	3841
281.747	3342
281.806	3260
281.865	3437
281.924	1930
281.983	2522
282.042	2481
282.101	2306
282.160	2871
282.219	2915
282.278	2345
282.337	2937
282.396	2614
282.454	2463
282.513	2699
282.572	3233
282.631	3353
282.690	3176
282.749	1595
282.808	3200
282.867	3551
282.926	2424
282.985	3555
283.043	3200
283.102	2613
283.161	3341
283.220	3654
283.279	4341
283.338	3998
283.396	3601
283.455	4259
283.514	3787
283.573	4263
283.631	4333
283.690	4453
283.749	4065
283.808	4424
283.866	5374
283.925	4322
283.984	5938
284.043	5396
284.101	5710
284.160	5845
284.219	7786
284.277	8157
284.336	7908
284.395	9853
284.453	9861
284.512	10640
284.570	11801
284.629	14209
284.688	17338
284.746	21190
284.805	25884
284.863	33610
284.922	41117
284.981	49486
285.039	64813
285.098	86409
285.156	106290
285.215	99375
285.273	84411
285.332	99264
285.390	94167
285.449	73393
285.507	54557
285.566	41911
285.624	32846
285.683	27763
285.741	23013
285.799	17838
285.858	16083
285.916	12988
285.975	11817
286.033	10123
286.091	10162
286.150	7904
286.208	8022
286.267	6586
286.325	6128
286.383	5504
286.442	5861
286.500	5632
286.558	4725
286.616	4792
286.675	5505
286.733	5036
286.791	4272
286.850	4568
286.908	4038
286.966	3772
287.024	3731
287.083	3318
287.141	3735
287.199	3945
287.257	3468
287.315	3174
287.374	3265
287.432	2343
287.490	2902
287.548	2378
287.606	2617
287.664	3088
287.723	2774
287.781	3428
287.839	2376
287.897	1829
287.955	2292
288.013	2453
288.071	2523
288.129	5347
288.187	18101
288.245	8582
288.303	3356
288.361	3012
288.419	2570
288.477	1912
288.535	2501
288.593	1981
288.651	1307
288.709	1855
288.767	2069
288.825	1067
288.883	1797
288.941	1902
288.999	1689
289.057	1753
289.115	2305
289.173	1533
289.231	1669
289.289	1405
289.346	793
289.404	2929
289.462	1959
289.520	1939
289.578	2106
289.636	1425
289.694	1571
289.751	2118
289.809	1774
289.867	1661
289.925	2422
289.983	1290
290.040	1703
290.098	1224
290.156	1415
290.214	1063
290.271	581
290.329	2258
290.387	1680
290.444	1266
290.502	2011
290.560	1926
290.617	1493
290.675	1604
290.733	2045
290.790	1484
290.848	2512
290.906	1986
290.963	1069
291.021	1174
291.078	1460
291.136	1666
291.194	1755
291.251	2068
291.309	1013
291.366	1144
291.424	1658
291.481	1604
291.539	2680
291.596	4725
291.654	2384
291.711	1563
291.769	2726
291.826	1538
291.884	1284
291.941	1191
291.999	1802
292.056	1767
292.114	775
292.171	1323
292.228	1788
292.286	1614
292.343	1811
292.401	1159
292.458	1660
292.515	2034
292.573	1934
292.630	2133
292.687	1195
292.745	1297
292.802	1463
292.859	3333
292.917	6023
292.974	2573
293.031	2036
293.089	1334
293.146	2124
293.203	1547
293.260	1943
293.318	1617
293.375	2189
293.432	1279
293.489	2558
293.546	1795
293.604	3025
293.661	8433
293.718	12095
293.775	5997
293.832	5084
293.889	6307
293.947	5130
294.004	2675
294.061	1615
294.118	2900
294.175	4269
294.232	7836
294.289	6264
294.346	3845
294.403	2660
294.460	1991
294.517	2380
294.574	1291
294.631	1967
294.688	2082
294.745	2498
294.802	4584
294.859	4251
294.916	2101
294.973	1407
295.030	768
295.087	1586
295.144	1424
295.201	1758
295.258	1907
295.315	1719
295.372	1936
295.429	3545
295.486	2669
295.542	1811
295.599	1424
295.656	1503
295.713	1833
295.770	2816
295.827	1503
295.883	2009
295.940	1156
295.997	1352
296.054	1281
296.111	1942
296.167	2199
296.224	960
296.281	1131
296.338	1076
296.394	1235
296.451	1203
296.508	1709
296.564	2584
296.621	2982
296.678	5027
296.734	6448
296.791	2912
296.848	2147
296.904	2049
296.961	1762
297.018	1835
297.074	2142
297.131	2057
297.187	1348
297.244	1714
297.301	4224
297.357	7853
297.414	2625
297.470	1784
297.527	2135
297.583	964
297.640	1177
297.696	1285
297.753	487
297.809	420
297.866	1585
297.922	935
297.979	778
298.035	1097
298.092	1260
298.148	1282
298.204	3004
298.261	2063
298.317	2555
298.374	5954
298.430	4077
298.486	2669
298.543	863
298.599	1372
298.656	881
298.712	1575
298.768	1662
298.824	1734
298.881	1535
298.937	1043
298.993	1575
299.050	1736
299.106	1830
299.162	1707
299.218	1602
299.275	1435
299.331	1705
299.387	3229
299.443	7243
299.500	15530
299.556	14665
299.612	5525
299.668	4894
299.724	12521
299.780	16813
299.837	7212
299.893	4378
299.949	10769
300.005	16620
300.061	12874
300.117	20774
300.173	10250
300.229	4373
300.285	3674
300.341	3229
300.397	2231
300.453	2488
300.510	2776
300.566	3718
300.622	5510
300.678	19776
300.734	27436
300.790	12052
300.845	8413
300.901	11060
300.957	19005
301.013	8552
301.069	4909
301.125	3293
301.181	2263
301.237	2666
301.293	2111
301.349	2361
301.405	1627
301.461	2045
301.516	1651
301.572	1677
301.628	1389
301.684	1200
301.740	1888
301.796	3019
301.851	2593
301.907	2030
301.963	2455
302.019	3570
302.074	13860
302.130	13890
302.186	6774
302.242	3647
302.297	2274
302.353	1852
302.409	2860
302.464	2221
302.520	1451
302.576	3308
302.631	4826
302.687	1476
302.743	2083
302.798	1152
302.854	1531
302.910	1135
302.965	1160
303.021	2114
303.076	1184
303.132	1210
303.187	1947
303.243	505
303.299	509
303.354	565
303.410	1335
303.465	1097
303.521	715
303.576	1330
303.632	1138
303.687	559
303.743	4226
303.798	3706
303.853	2876
303.909	1011
303.964	1328
304.020	1102
304.075	1512
304.130	1520
304.186	2181
304.241	2447
304.297	1716
304.352	558
304.358	662
304.407	1500
304.449	1101
304.463	966
304.518	1373
304.539	1356
304.573	1322
304.629	1411
304.630	1420
304.684	1865
304.720	3041
304.739	3620
304.794	5265
304.811	4625
304.850	3117
304.902	2516
304.905	2477
304.960	1008
304.992	1197
305.015	1349
305.071	1710
305.083	1568
305.126	1025
305.173	1695
305.181	1817
305.236	1100
305.264	1017
305.292	898
305.347	1139
305.354	1217
305.402	1805
305.445	1450
305.457	1319
305.512	1429
305.535	1424
305.567	1481
305.622	1481
305.626	1471
305.678	1371
305.716	2303
305.733	2704
305.788	3373
305.807	2927
305.843	2093
305.897	4057
305.898	4082
305.953	4607
305.988	3170
306.008	2377
306.063	1566
306.078	1569
306.118	1684
306.168	1191
306.173	1138
306.228	1731
306.259	1208
306.283	815
306.338	1527
306.349	1429
306.393	1074
306.440	1047
306.448	1068
306.503	1901
306.530	1781
306.558	1517
306.613	1349
306.620	1398
306.668	1996
306.711	2506
306.723	2564
306.778	2476
306.801	2248
306.833	2003
306.888	1853
306.892	1855
306.943	1722
306.982	1135
306.997	1049
307.052	1941
307.072	1784
307.107	1314
307.162	1803
307.163	1798
307.217	1499
307.253	1666
307.272	1707
307.327	1592
307.343	1686
307.381	2057
307.434	1893
307.436	1880
307.491	1837
307.524	2366
307.546	2683
307.600	2630
307.614	2477
307.655	1883
307.704	1600
307.710	1630
307.765	1988
307.795	2114
307.819	2003
307.874	2195
307.885	2107
307.929	2007
307.975	3069
307.984	3245
308.038	2962
308.065	3037
308.093	3758
308.148	5351
308.156	5922
308.202	9095
308.246	11560
308.257	11422
308.312	6380
308.336	4925
308.366	4637
308.421	3900
308.426	3923
308.475	4157
308.517	4301
308.530	4297
308.585	4313
308.607	4382
308.639	4707
308.694	5070
308.697	5095
308.748	5476
308.787	5917
308.803	6139
308.857	6513
308.877	6708
308.912	7549
308.967	9757
308.967	9793
309.021	15781
309.058	20603
309.076	22997
309.130	32046
309.148	34162
309.185	41509
309.238	53261
309.239	53547
309.293	70108
309.328	76757
309.348	71850
309.402	49480
309.418	42956
309.457	35047
309.508	27147
309.511	27307
309.566	33379
309.598	38850
309.620	49452
309.674	81983
309.688	90435
309.729	87955
309.778	73934
309.783	72017
309.837	45451
309.868	31438
309.892	26752
309.946	18630
309.959	17183
310.001	14228
310.049	11247
310.055	10959
310.109	8715
310.139	7831
310.163	7097
310.218	5686
310.229	5413
310.272	5058
310.319	4645
310.326	4513
310.381	3844
310.409	3550
310.435	3714
310.489	3800
310.499	3874
310.543	3410
310.589	2771
310.598	2761
310.652	2804
310.679	2893
310.706	2774
310.760	2438
310.769	2379
310.814	2413
310.859	2552
310.868	2610
310.923	2822
310.948	2925
310.977	2869
311.031	2835
311.038	2821
311.085	2589
311.128	2359
311.139	2390
311.193	2639
311.218	2687
311.247	2456
311.301	2081
311.308	2038
311.356	2305
311.398	2584
311.410	2569
311.464	2369
311.488	2279
311.518	2239
311.572	2289
311.578	2288
311.626	2128
311.668	1923
311.680	1946
311.734	2133
311.758	2200
311.788	2234
311.842	2318
311.847	2327
311.896	2298
311.937	2268
311.950	2209
312.004	1976
312.027	1877
312.058	2083
312.112	2457
312.117	2492
312.165	2402
312.207	2323
312.297	2360
312.386	1893
312.476	2954
312.566	1799
312.656	1975
312.745	2093
312.835	2536
312.925	2380
313.015	2361
313.104	2874
313.194	2784
313.284	2545
313.374	2155
313.463	2559
313.553	3817
313.643	2604
313.732	3080
313.822	2706
313.912	3373
314.001	3954
314.091	4094
314.180	3843
314.270	4537
314.360	3773
314.449	3332
314.539	3732
314.628	4103
314.718	4080
314.808	3578
314.897	4584
314.987	5511
315.076	5057
315.166	5091
315.255	5229
315.345	4986
315.434	4060
315.524	5929
315.613	6346
315.703	11694
315.792	36316
315.881	137116
315.971	40443
316.060	9167
316.150	5303
316.239	4126
316.328	4300
316.418	5446
316.507	3954
316.597	5455
316.686	5007
316.775	4765
316.865	4546
316.954	4724
317.043	4284
317.133	3846
317.222	3403
317.311	3324
317.400	2454
317.490	5663
317.579	5835
317.668	8921
317.757	16972
317.847	64617
317.936	199682
318.025	58678
318.114	52960
318.203	21716
318.293	6498
318.382	7446
318.471	8531
318.560	6518
318.649	6016
318.738	3304
318.828	3284
318.917	2982
319.006	3132
319.095	2513
319.184	3336
319.273	3613
319.362	2753
319.451	2863
319.540	2276
319.629	2464
319.718	2550
319.807	2175
319.896	2140
319.985	4693
320.074	3006
320.163	3029
320.252	3193
320.341	3277
320.430	1918
320.519	3553
320.608	3249
320.697	4800
320.786	4331
320.875	6601
320.964	6383
321.053	6460
321.142	6245
321.230	8306
321.319	8021
321.408	10146
321.497	9658
321.586	8664
321.675	5782
321.764	6094
321.852	6109
321.941	6754
322.030	6052
322.119	6460
322.207	9135
322.296	9490
322.385	11602
322.474	14161
322.562	14793
322.651	11179
322.740	7093
322.829	6897
322.917	5370
323.006	4944
323.095	4683
323.183	4290
323.272	3792
323.361	4538
323.449	4875
323.538	3678
323.626	3771
323.715	3785
323.804	2606
323.892	3149
323.981	3381
324.069	3404
324.158	3044
324.246	3237
324.335	2459
324.424	3379
324.512	3572
324.601	2574
324.689	2599
324.778	3335
324.866	1712
324.954	2964
325.043	1511
325.131	1805
325.220	3275
325.308	2494
325.397	2600
325.485	2985
325.574	2072
325.662	3015
325.750	1657
325.839	3171
325.927	2029
326.015	1983
326.104	2060
326.192	2285
326.280	1864
326.369	2254
326.457	2448
326.545	2788
326.634	2493
326.722	2814
326.810	3059
326.898	3290
326.987	2795
327.075	2402
327.163	3048
327.251	2118
327.340	2426
327.428	4431
327.516	4585
327.604	4018
327.692	2777
327.781	2892
327.869	1267
327.957	1895
328.045	1166
328.133	2959
328.221	1886
328.309	2535
328.397	2162
328.485	3089
328.574	4782
328.662	7309
328.750	3972
328.838	3320
328.926	1406
329.014	2762
329.102	1471
329.190	3284
329.278	2187
329.366	2488
329.454	1886
329.542	1509
329.630	1019
329.718	2620
329.806	1334
329.893	2327
329.981	1049
330.069	2515
330.157	2918
330.245	2776
330.333	2578
330.421	1794
330.509	2024
330.597	2580
330.684	2340
330.772	3313
330.860	2432
330.948	2269
331.036	2052
331.123	2353
331.211	1938
331.299	2380
331.387	1825
331.475	2987
331.562	1790
331.650	2339
331.738	2180
331.825	2503
331.913	1900
332.001	2354
332.089	1708
332.176	1986
332.264	2020
332.352	2645
332.439	1979
332.527	2353
332.614	2455
332.702	1750
332.790	2459
332.877	4094
332.965	11246
333.052	9798
333.140	11138
333.228	30903
333.315	8241
333.403	4368
333.490	4443
333.578	12901
333.665	45946
333.753	17070
333.840	4252
333.928	4907
334.015	4596
334.103	5885
334.190	7051
334.278	9972
334.365	14812
334.452	15762
334.540	9775
334.627	8704
334.715	11343
334.802	16130
334.889	26257
334.977	39324
335.064	24399
335.151	10508
335.239	8336
335.326	7431
335.413	7001
335.501	7083
335.588	6297
335.675	7456
335.762	8668
335.850	12742
335.937	18941
336.024	33162
336.111	53519
336.199	50405
336.286	21880
336.373	11298
336.460	6902
336.547	6467
336.635	5380
336.722	4780
336.809	4130
336.896	4214
336.983	3666
337.070	5050
337.157	4687
337.245	4911
337.332	4442
337.419	3486
337.506	3835
337.593	3214
337.680	3230
337.767	4056
337.854	2570
337.941	2617
338.028	2686
338.115	2715
338.202	3295
338.289	3348
338.376	3640
338.463	2858
338.550	2563
338.637	2681
338.724	2698
338.811	3335
338.898	3507
338.984	3045
339.071	2306
339.158	3054
339.245	2403
339.332	2870
339.419	1485
339.506	2803
339.593	1107
339.679	2468
339.766	1945
339.853	2870
339.940	2111
340.027	3102
340.113	2373
340.200	3317
340.287	1728
340.374	1962
340.460	2802
340.547	1406
340.634	1817
340.720	3735
340.807	2353
340.894	3002
340.980	1930
341.067	2276
341.154	2553
341.240	2945
341.327	2432
341.414	2665
341.500	1560
341.587	2480
341.674	2659
341.760	2668
341.847	1608
341.933	2664
342.020	1340
342.106	2821
342.193	2163
342.279	2830
342.366	1872
342.452	3125
342.539	1764
342.625	2638
342.712	3672
342.798	2548
342.885	2296
342.971	2290
343.058	1968
343.144	1862
343.230	2231
343.317	2891
343.403	1402
343.490	1949
343.576	1655
343.662	3303
343.749	1777
343.835	2620
343.921	2275
344.008	8856
344.094	14950
344.180	4533
344.267	2510
344.353	3255
344.439	3509
344.525	1859
344.612	2440
344.698	2093
344.784	1711
344.870	2655
344.957	1757
345.043	2753
345.129	1648
345.215	3270
345.301	1525
345.387	1855
345.474	1365
345.560	1980
345.646	2345
345.732	2018
345.818	1977
345.904	2422
345.990	1899
346.076	2265
346.162	1741
346.249	2974
346.335	1677
346.421	2934
346.507	2218
346.593	5319
346.679	1317
346.765	3556
346.851	5685
346.937	3271
347.023	3354
347.108	2302
347.194	2113
347.280	2822
347.366	3262
347.452	10476
347.538	13159
347.624	8012
347.710	4602
347.796	2640
347.882	2402
347.967	2639
348.053	2442
348.139	2274
348.225	1821
348.311	1740
348.397	2893
348.482	3635
348.568	2742
348.654	4989
348.740	14787
348.825	13033
348.911	6183
348.997	5368
349.083	6475
349.168	2473
349.254	2725
349.340	2880
349.425	2102
349.511	2511
349.597	1881
349.682	1468
349.768	4059
349.854	3232
349.939	2619
350.025	2425
350.110	2227
350.196	2373
350.282	1684
350.367	3393
350.453	2359
350.538	2337
350.624	1951
350.709	2918
350.795	923
350.880	2296
350.966	2899
351.051	2941
351.137	1802
351.222	2822
351.308	2232
351.393	2775
351.479	2526
351.564	1085
351.649	2429
351.735	2278
351.820	2228
351.906	2121
351.991	2256
352.076	2431
352.162	3386
352.247	2817
352.332	2631
352.418	2136
352.503	1733
352.588	4318
352.673	3285
352.759	2408
352.844	1252
352.929	1971
353.014	1649
353.100	2794
353.185	3630
353.270	1878
353.355	2647
353.441	3384
353.526	1405
353.611	2673
353.696	1520
353.781	3449
353.866	1305
353.952	3726
354.037	1746
354.122	3496
354.207	2155
354.292	2447
354.377	2725
354.462	3266
354.547	1740
354.632	3422
354.717	2219
354.802	2727
354.887	2422
354.972	2897
355.057	2598
355.142	2066
355.227	2418
355.312	2507
355.397	1888
355.482	3037
355.567	1919
355.652	3119
355.737	3543
355.822	4753
355.907	3212
355.991	3296
356.076	2074
356.161	2672
356.246	2362
356.331	3022
356.416	2190
356.501	8946
356.585	6632
356.670	1774
356.755	4401
356.840	3829
356.924	6808
357.009	16425
357.094	6816
357.179	2844
357.263	2911
357.348	2946
357.433	2499
357.517	2774
357.602	1945
357.687	2493
357.771	2784
357.856	3112
357.941	2554
358.025	6657
358.110	24059
358.195	11115
358.279	4211
358.364	3569
358.448	4633
358.533	6555
358.617	4056
358.702	5518
358.787	3127
358.871	3043
358.956	3098
359.040	3047
359.125	1791
359.209	2853
359.294	2810
359.378	5056
359.462	4314
359.547	3253
359.631	2451
359.716	1978
359.800	2246
359.885	2768
359.969	1966
360.053	3330
360.138	2915
360.222	1669
360.306	2385
360.391	3351
360.475	3318
360.559	3056
360.644	3091
360.728	2294
360.812	6401
360.896	10661
360.981	3271
361.065	3264
361.149	3148
361.233	2966
361.318	2524
361.402	1888
361.486	3812
361.570	3567
361.654	3592
361.739	3392
361.823	7857
361.907	12327
361.991	4792
362.075	6036
362.159	6936
362.243	16059
362.327	37654
362.411	59346
362.495	21049
362.580	10175
362.664	9660
362.748	10951
362.832	16676
362.916	35024
363.000	103940
363.084	142556
363.168	55561
363.252	16523
363.336	9911
363.420	8328
363.503	7139
363.587	7035
363.671	5321
363.755	4814
363.839	7753
363.923	7166
364.007	8730
364.091	12092
364.175	18419
364.258	43837
364.342	113125
364.426	211718
364.510	107019
364.594	31235
364.677	14628
364.761	14059
364.845	10428
364.929	6279
365.013	4280
365.096	5342
365.180	3220
365.264	4298
365.347	4975
365.431	3327
365.515	2458
365.598	2786
365.682	4937
365.766	2098
365.849	3193
365.933	2920
366.017	3562
366.100	2112
366.184	2976
366.267	4308
366.351	3625
366.435	2473
366.518	2295
366.602	3825
366.685	3160
366.769	3208
366.852	3034
366.936	3979
367.019	2906
367.103	3035
367.186	3956
367.270	3624
367.353	3121
367.436	4734
367.520	3195
367.603	4577
367.687	2930
367.770	3850
367.853	4885
367.937	5332
368.020	5307
368.104	3491
368.187	3872
368.270	3632
368.353	2606
368.437	3239
368.520	3078
368.603	2568
368.687	3064
368.770	5332
368.853	2801
368.936	3536
369.020	3990
369.103	3171
369.186	1641
369.269	2937
369.352	3354
369.436	2739
369.519	2507
369.602	1508
369.685	3773
369.768	2139
369.851	3356
369.934	1995
370.018	3155
370.101	1864
370.184	4176
370.267	3602
370.350	3715
370.433	5079
370.516	19458
370.599	66619
370.682	29610
370.765	8609
370.848	5579
370.931	5523
371.014	5448
371.097	2600
371.180	4760
371.263	4387
371.346	2791
371.429	4461
371.511	2391
371.594	3671
371.677	4879
371.760	5417
371.843	5183
371.926	12709
372.009	22658
372.091	13104
372.174	6502
372.257	9700
372.340	6153
372.423	6265
372.505	6564
372.588	4510
372.671	5299
372.754	5928
372.836	5372
372.919	6330
373.002	5910
373.085	5554
373.167	5238
373.250	5244
373.332	8099
373.415	15281
373.498	25743
373.580	23837
373.663	95593
373.746	89023
373.828	14526
373.911	7266
373.993	4144
374.076	4959
374.159	4586
374.241	5304
374.324	6661
374.406	7224
374.489	8113
374.571	15527
374.654	7195
374.736	6164
374.819	10557
374.901	17321
374.983	16785
375.066	7047
375.148	5128
375.231	5594
375.313	6758
375.395	6335
375.478	5219
375.560	6423
375.643	4520
375.725	6942
375.807	12058
375.890	10178
375.972	2729
376.054	4799
376.136	4109
376.219	3433
376.301	5386
376.383	8545
376.465	4764
376.548	3538
376.630	3955
376.712	7793
376.794	4120
376.877	3077
376.959	1010
377.041	3266
377.123	2380
377.205	4136
377.287	2070
377.369	4406
377.452	2644
377.534	3620
377.616	3578
377.698	3461
377.780	2028
377.862	3926
377.944	3744
378.026	1813
378.108	3506
378.190	3453
378.272	3102
378.354	3621
378.436	2205
378.518	2364
378.600	2387
378.682	3527
378.764	3842
378.846	3977
378.928	2556
379.010	2427
379.091	2849
379.173	3659
379.255	2157
379.337	3541
379.419	3061
379.501	5172
379.583	3955
379.664	3639
379.746	3066
379.828	5916
379.910	4187
379.991	5340
380.073	2776
380.155	4418
380.237	3485
380.318	2883
380.400	4029
380.482	4469
380.564	3109
380.645	4075
380.727	3886
380.809	5416
380.890	2747
380.972	3422
381.053	3921
381.135	5599
381.217	4047
381.298	7388
381.380	5275
381.461	5895
381.543	8627
381.624	10476
381.706	5795
381.787	5979
381.869	7363
381.951	10188
382.032	19932
382.113	17142
382.195	7164
382.276	11687
382.358	9795
382.439	15115
382.521	19816
382.602	26000
382.684	26037
382.765	44649
382.846	132154
382.928	289893
383.009	163232
383.090	133812
383.172	357331
383.253	444187
383.334	151020
383.416	60412
383.497	46057
383.578	56663
383.659	114926
383.741	318564
383.822	568284
383.903	312482
383.984	88079
384.066	46340
384.147	26946
384.228	21338
384.309	16552
384.390	15788
384.471	14133
384.553	13358
384.634	11829
384.715	11771
384.796	10656
384.877	11107
384.958	12465
385.039	11630
385.120	8913
385.201	9776
385.282	9637
385.363	12046
385.444	13921
385.525	14084
385.606	14150
385.687	12689
385.768	9014
385.849	8065
385.930	15551
386.011	20972
386.092	11093
386.173	9171
386.254	7232
386.335	7885
386.416	6632
386.496	7591
386.577	7849
386.658	6591
386.739	6233
386.820	7871
386.901	6449
386.981	9066
387.062	10348
387.143	12808
387.224	11286
387.304	13392
387.385	11933
387.466	10153
387.547	12519
387.627	11822
387.708	13321
387.789	15161
387.869	12151
387.950	10875
388.031	8751
388.111	7119
388.192	11000
388.273	12490
388.353	9617
388.434	6356
388.514	5713
388.595	9667
388.676	8713
388.756	6806
388.837	6812
388.917	5426
388.998	3453
389.078	6139
389.159	4860
389.239	3848
389.320	6438
389.400	3324
389.480	5625
389.561	6735
389.641	5752
389.722	4697
389.802	4191
389.883	5549
389.963	7360
390.043	5878
390.124	3785
390.204	5215
390.284	6148
390.365	4253
390.445	5216
390.525	5034
390.605	5726
390.686	3912
390.766	5340
390.846	6942
390.927	5545
391.007	4206
391.087	5942
391.167	5485
391.247	3696
391.328	7830
391.408	6873
391.488	6863
391.568	4883
391.648	6564
391.728	7874
391.808	8396
391.888	7843
391.969	9890
392.049	9699
392.129	11151
392.209	10980
392.289	15731
392.369	13540
392.449	14183
392.529	16513
392.609	20857
392.689	22178
392.769	27775
392.849	33285
392.929	44019
393.009	60941
393.089	93087
393.169	176459
393.248	423984
393.328	846422
393.408	798802
393.488	378316
393.568	162954
393.648	86842
393.728	54559
393.807	37196
393.887	29271
393.967	23499
394.047	19181
394.127	15542
394.206	15146
394.286	14747
394.366	27692
394.446	27538
394.525	12619
394.605	9699
394.685	10476
394.764	11111
394.844	17383
394.924	21079
395.003	11024
395.083	8324
395.163	8334
395.242	8385
395.322	7913
395.402	6017
395.481	9926
395.561	9941
395.640	28140
395.720	49465
395.799	25070
395.879	11580
395.958	11816
396.038	15765
396.117	39613
396.197	41327
396.276	21391
396.356	19200
396.435	26305
396.515	37387
396.594	60287
396.673	134676
396.753	389154
396.832	753688
396.912	530302
396.991	183182
397.070	76024
397.150	41270
397.229	33870
397.308	51209
397.388	80962
397.467	38782
397.546	16844
397.625	10433
397.705	11572
397.784	9034
397.863	8294
397.942	6720
398.022	7595
398.101	5302
398.180	7129
398.259	4025
398.338	6640
398.417	4940
398.497	4526
398.576	5328
398.655	4575
398.734	4971
398.813	4567
398.892	3517
398.971	5433
399.050	2872
399.129	3543
399.208	3651
399.287	4750
399.366	2138
399.445	3589
399.524	3575
399.603	2116
399.682	2973
399.761	3050
399.840	4179
399.919	4480
399.998	2481
400.077	2447
400.156	1056
400.235	4728
400.313	1883
400.392	1982
400.471	3286
400.550	4626
400.629	2051
400.708	3107
400.786	1106
400.865	2235
400.944	655
401.023	4219
401.102	1568
401.180	2569
401.259	1732
401.338	2123
401.416	2755
401.495	2206
401.574	2576
401.652	1330
401.731	2256
401.810	1465
401.888	1613
401.967	1424
402.046	1673
402.124	1801
402.203	969
402.281	2580
402.360	888
402.438	2796
402.517	165
402.596	2043
402.674	849
402.753	2148
402.831	2210
402.910	2645
402.988	1654
403.066	5584
403.145	3581
403.223	4229
403.302	4604
403.380	5274
403.459	4601
403.537	2664
403.615	2294
403.694	1981
403.772	2227
403.850	2595
403.929	2102
404.007	1996
404.085	3440
404.164	2176
404.242	2038
404.320	3466
404.398	2484
404.477	3702
404.555	9830
404.633	6861
404.711	2251
404.789	2215
404.868	1687
404.946	1552
405.024	1391
405.102	1972
405.180	1153
405.258	587
405.336	1625
405.415	1009
405.493	2418
405.571	2576
405.649	1270
405.727	1532
405.805	3506
405.883	2839
405.961	3029
406.039	1839
406.117	833
406.195	2271
406.273	1397
406.351	6318
406.429	5468
406.507	888
406.585	487
406.663	2384
406.740	777
406.818	1138
406.896	436
406.974	2455
407.052	-10
407.130	3479
407.208	3636
407.285	3186
407.363	344
407.441	1651
407.519	693
407.596	2232
407.674	3808
407.752	10712
407.830	8481
407.907	2899
407.985	3
408.063	1792
408.141	482
408.218	2346
408.296	-86
408.373	1415
408.451	1464
408.529	2034
408.606	1593
408.684	1945
408.762	1611
408.839	2712
408.917	2622
408.994	2981
409.072	2986
409.149	4810
409.227	9338
409.304	14297
409.382	13856
409.459	18104
409.537	21842
409.614	18988
409.692	14252
409.769	14566
409.846	23388
409.924	27660
410.001	17289
410.079	11744
410.156	8951
410.233	5873
410.311	4549
410.388	4914
410.465	4206
410.543	3266
410.620	3934
410.697	4365
410.775	4131
410.852	4071
410.929	5112
411.006	5618
411.083	4287
411.161	3601
411.238	3982
411.315	3527
411.392	2205
411.469	2855
411.547	2377
411.624	1103
411.701	1966
411.778	2201
411.855	810
411.932	2129
412.009	1304
412.086	1510
412.163	1486
412.240	618
412.317	1617
412.394	2318
412.471	2046
412.548	1736
412.625	1550
412.702	2100
412.779	637
412.856	1968
412.933	1313
413.010	1889
413.087	473
413.164	1508
413.241	2001
413.318	621
413.395	1478
413.471	1701
413.548	1106
413.625	1762
413.702	-332
413.779	1551
413.855	1016
413.932	1321
414.009	254
414.086	1863
414.162	1641
414.239	1606
414.316	1433
414.393	3519
414.469	304
414.546	925
414.623	1018
414.699	1029
414.776	274
414.853	822
414.929	1441
415.006	683
415.082	809
415.159	599
415.236	676
415.312	1813
415.389	1298
415.465	892
415.542	571
415.618	196
415.695	946
415.771	208
415.848	619
415.924	859
416.000	483
416.077	2273
416.153	189
416.230	225
416.306	1028
416.383	-330
416.459	2206
416.535	1331
416.612	1051
416.688	1716
416.764	1186
416.841	1641
416.917	1556
416.993	1847
417.069	1708
417.146	1097
417.222	657
417.298	601
417.374	1041
417.451	1124
417.527	442
417.603	864
417.679	664
417.755	325
417.831	1231
417.908	1293
417.984	714
418.060	502
418.136	586
418.212	1186
418.288	960
418.364	1781
418.440	-200
418.516	863
418.592	293
418.668	726
418.744	404
418.820	812
418.896	1041
418.972	826
419.048	1367
419.124	2932
419.200	-170
419.276	2098
419.352	557
419.428	1492
419.504	476
419.579	966
419.655	1544
419.731	1222
419.807	1628
419.883	1667
419.959	1817
420.034	2710
420.110	1991
420.186	2636
420.262	3003
420.337	1543
420.413	2618
420.489	1954
420.565	3308
420.640	3059
420.716	2842
420.792	2646
420.867	3553
420.943	3044
421.019	3358
421.094	3435
421.170	4353
421.245	4974
421.321	4477
421.397	5321
421.472	7509
421.548	11472
421.623	8996
421.699	8463
421.774	8513
421.850	9530
421.925	12074
422.001	15061
422.076	18179
422.152	23506
422.227	30934
422.302	45280
422.378	66317
422.453	109743
422.529	184807
422.604	244003
422.679	224745
422.755	233453
422.830	183904
422.905	110965
422.981	69519
423.056	48513
423.131	35420
423.207	26980
423.282	20434
423.357	17449
423.432	14208
423.508	12761
423.583	10646
423.658	9673
423.733	8286
423.808	7655
423.883	7638
423.959	9544
424.034	10906
424.109	10404
424.184	6436
424.259	5445
424.334	3917
424.409	4297
424.484	2856
424.559	3725
424.634	2879
424.709	3696
424.784	2574
424.859	3364
424.934	2182
425.009	3698
425.084	3341
425.159	2178
425.234	2872
425.309	1710
425.384	2258
425.459	1298
425.534	1390
425.609	809
425.683	1476
425.758	1853
425.833	1883
425.908	1976
425.983	1200
426.058	2924
426.132	1084
426.207	1221
426.282	3103
426.357	945
426.431	1518
426.506	1762
426.581	1201
426.655	1997
426.730	1364
426.805	163
426.879	1499
426.954	988
427.029	743
427.103	2553
427.178	3383
427.253	2260
427.327	915
427.402	530
427.476	941
427.551	1257
427.625	928
427.700	1658
427.774	751
427.849	2056
427.923	980
427.998	1750
428.072	2126
428.147	6868
428.221	35375
428.296	101534
428.370	51153
428.444	7849
428.519	2345
428.593	2335
428.667	2747
428.742	3879
428.816	12848
428.890	63468
428.965	89009
429.039	20282
429.113	3490
429.188	1659
429.262	1403
429.336	2532
429.410	1365
429.485	1805
429.559	1211
429.633	2136
429.707	2667
429.781	11175
429.855	59878
429.930	79185
430.004	18154
430.078	10455
430.152	38382
430.226	137871
430.300	123619
430.374	24441
430.448	7042
430.522	4836
430.596	4675
430.670	19501
430.744	78115
430.818	79505
430.892	12328
430.966	2485
431.040	1733
431.114	1221
431.188	78
431.262	770
431.336	-179
431.410	1189
431.484	627
431.557	1773
431.631	1902
431.705	4852
431.779	28006
431.853	97522
431.927	59929
432.000	8360
432.074	2174
432.148	1334
432.222	-165
432.295	966
432.369	650
432.443	397
432.516	1178
432.590	3365
432.664	1191
432.737	202
432.811	-298
432.885	866
432.958	983
433.032	260
433.106	-154
433.179	129
433.253	60
433.326	746
433.400	-864
433.473	365
433.547	-1092
433.620	1241
433.694	-185
433.767	38
433.841	-910
433.914	437
433.988	-299
434.061	151
434.134	-633
434.208	-210
434.281	-161
434.355	-143
434.428	172
434.501	606
434.575	-752
434.648	567
434.721	333
434.795	411
434.868	-543
434.941	197
435.014	258
435.088	1674
435.161	2659
435.234	4118
435.307	4293
435.381	5119
435.454	7418
435.527	12213
435.600	11830
435.673	9744
435.746	5741
435.819	4360
435.892	1965
435.966	1319
436.039	781
436.112	1320
436.185	830
436.258	382
436.331	-420
436.404	616
436.477	269
436.550	599
436.623	202
436.696	188
436.769	-13
436.842	445
436.915	282
436.987	-239
437.060	-573
437.133	47
437.206	-1092
437.279	131
437.352	-533
437.425	97
437.498	-766
437.570	-279
437.643	-742
437.716	120
437.789	-814
437.861	-22
437.934	137
438.007	357
438.080	64
438.152	416
438.225	-763
438.298	2960
438.370	5753
438.443	2812
438.516	-1279
438.588	-279
438.661	-453
438.734	416
438.806	-396
438.879	605
438.951	-751
439.024	-430
439.096	-1348
439.169	-99
439.241	-438
439.314	-883
439.386	-804
439.459	-381
439.531	-1112
439.604	-364
439.676	-35
439.749	378
439.821	-399
439.893	263
439.966	-448
440.038	-472
440.110	94
440.183	167
440.255	-416
440.327	770
440.400	306
440.472	1691
440.544	562
440.617	-289
440.689	24
440.761	57
440.833	-421
440.905	-318
440.978	-318
441.050	-590
441.122	672
441.194	-363
441.266	-337
441.338	-223
441.411	192
441.483	1191
441.555	219
441.627	388
441.699	-108
441.771	508
441.843	89
441.915	847
441.987	106
442.059	1960
442.131	511
442.203	1604
442.275	1462
442.347	5530
442.419	15875
442.491	79731
442.563	153660
442.635	53848
442.706	9449
442.778	4628
442.850	2802
442.922	2724
442.994	2404
443.066	2833
443.137	3481
443.209	5831
443.281	9164
443.353	23210
443.425	89042
443.496	242918
443.568	236561
443.640	89334
443.711	18765
443.783	8215
443.855	4525
443.926	3048
443.998	2158
444.070	2554
444.141	977
444.213	1280
444.285	1585
444.356	2083
444.428	967
444.499	1482
444.571	829
444.642	1490
444.714	974
444.785	2508
444.857	1188
444.928	2200
445.000	2198
445.071	3765
445.143	5518
445.214	8677
445.285	16764
445.357	47799
445.428	166206
445.500	283022
445.571	216196
445.642	135850
445.714	41160
445.785	12901
445.856	5332
445.928	3937
445.999	2452
446.070	1582
446.141	1317
446.213	1364
446.284	499
446.355	1238
446.426	183
446.497	797
446.569	93
446.640	122
446.711	-125
446.782	428
446.853	-106
446.924	450
446.995	54
447.066	77
447.138	-562
447.209	125
447.280	-1133
447.351	-456
447.422	-889
447.493	-616
447.564	-806
447.635	-633
447.706	-1141
447.777	385
447.847	-1086
447.918	-620
447.989	-1040
448.060	-101
448.131	-258
448.202	-184
448.273	-1517
448.344	-596
448.414	-169
448.485	-58
448.556	-567
448.627	-94
448.698	605
448.768	-786
448.839	-1323
448.910	-775
448.981	-691
449.051	64
449.122	-915
449.193	57
449.263	-666
449.334	-492
449.405	-838
449.475	-316
449.546	-544
449.616	278
449.687	331
449.758	-87
449.828	-551
449.899	-859
449.969	-1634
450.040	-56
450.110	-294
450.181	-806
450.251	-870
450.322	-84
450.392	-186
450.463	-791
450.533	-470
450.604	-638
450.674	-919
450.744	539
450.815	289
450.885	508
450.955	498
451.026	297
451.096	-771
451.166	827
451.237	10
451.307	1742
451.377	360
451.447	-871
451.518	-1002
451.588	-710
451.658	-48
451.728	227
451.799	-1141
451.869	551
451.939	-689
452.009	104
452.079	-889
452.149	241
452.219	-189
452.289	-10
452.360	8
452.430	620
452.500	1080
452.570	2735
452.640	8932
452.710	23792
452.780	22862
452.850	10388
452.920	3136
452.990	1612
453.060	969
453.129	-31
453.199	-846
453.269	586
453.339	214
453.409	-158
453.479	285
453.549	450
453.619	-5
453.688	-189
453.758	-358
453.828	-512
453.898	-510
453.968	-282
454.037	-649
454.087	-802
454.107	-883
454.168	-1560
454.177	-1689
454.247	-555
454.249	-539
454.316	-716
454.330	-646
454.386	-435
454.411	-508
454.456	-734
454.492	-469
454.525	-246
454.574	-314
454.595	-370
454.655	-496
454.665	-551
454.734	-330
454.736	-291
454.804	583
454.817	444
454.873	-285
454.898	-271
454.943	-335
454.979	-578
455.013	-828
455.060	-227
455.082	15
455.141	297
455.152	324
455.221	860
455.222	867
455.291	-175
455.303	-94
455.360	90
455.384	216
455.430	326
455.465	376
455.499	360
455.546	113
455.569	-2
455.627	989
455.638	1161
455.707	-186
455.708	-162
455.777	523
455.789	301
455.846	-856
455.869	-219
455.916	831
455.950	172
455.985	-435
456.031	-5
456.054	168
456.112	472
456.124	511
456.193	631
456.193	606
456.262	1018
456.274	1139
456.332	1476
456.355	997
456.401	217
456.436	958
456.470	1394
456.516	1163
456.540	1132
456.597	827
456.609	748
456.678	1120
456.678	1096
456.747	1109
456.759	1094
456.817	1096
456.840	1163
456.886	1124
456.920	1410
456.955	1628
457.001	1745
457.024	1906
457.082	1940
457.093	1791
457.162	2238
457.163	2263
457.232	2122
457.243	2298
457.301	3051
457.324	2794
457.370	2471
457.405	2865
457.439	3098
457.485	3226
457.508	3362
457.566	4479
457.577	4925
457.646	7225
457.647	7297
457.715	17514
457.727	19885
457.784	34486
457.808	45708
457.853	58128
457.889	63872
457.922	60633
457.969	38563
457.991	38532
458.050	51320
458.060	53754
458.129	95302
458.130	96381
458.198	86977
458.211	76763
458.267	38708
458.292	26157
458.336	17983
458.372	17979
458.405	26388
458.453	40927
458.474	51794
458.533	94648
458.543	97456
458.611	146077
458.614	146372
458.680	80077
458.694	61636
458.749	25628
458.775	17742
458.818	10788
458.855	8684
458.887	7604
458.936	6265
458.955	5826
459.016	4947
459.024	4907
459.093	5628
459.097	5573
459.162	3612
459.177	3810
459.230	4566
459.257	4280
459.299	4181
459.338	4560
459.368	4476
459.418	3860
459.437	3738
459.499	3821
459.505	3802
459.574	4021
459.579	4007
459.643	4221
459.659	4320
459.711	4241
459.740	4331
459.780	4321
459.820	4060
459.849	3880
459.900	4001
459.917	4115
459.981	4190
459.986	4171
460.054	4551
460.061	4545
460.123	4109
460.141	4138
460.191	4570
460.222	4514
460.260	4360
460.302	4295
460.328	4042
460.382	4132
460.397	4325
460.462	4618
460.465	4666
460.534	5881
460.543	6180
460.602	12143
460.623	14167
460.671	19926
460.703	25431
460.739	22910
460.783	16656
460.808	13810
460.864	5992
460.876	5450
460.944	4789
460.945	4779
461.013	4626
461.024	4585
461.081	4704
461.104	4859
461.150	4724
461.184	4528
461.218	4838
461.264	5555
461.286	5423
461.345	4452
461.355	4363
461.423	4724
461.425	4711
461.491	4307
461.505	4323
461.559	4591
461.585	4662
461.628	4575
461.665	4910
461.696	5302
461.745	5360
461.764	5189
461.825	4871
461.832	4993
461.901	5700
461.905	5779
461.969	4728
461.985	4484
462.037	5910
462.065	6496
462.105	5563
462.145	4886
462.173	5303
462.225	5741
462.241	5581
462.305	5266
462.310	5285
462.378	5464
462.385	5482
462.446	5877
462.465	5979
462.514	6069
462.545	6216
462.582	5891
462.625	5406
462.650	5124
462.705	4399
462.718	4510
462.785	5558
462.786	5566
462.854	5387
462.865	5390
462.922	5641
462.945	5646
462.990	5721
463.025	6090
463.058	6234
463.104	6024
463.126	5855
463.184	5435
463.194	5463
463.262	5436
463.264	5458
463.330	6342
463.344	6435
463.398	7109
463.424	7248
463.466	6254
463.504	5644
463.533	5664
463.583	5563
463.601	5624
463.663	5617
463.669	5599
463.737	5748
463.743	5725
463.805	6771
463.823	7072
463.873	6434
463.903	6089
463.940	6180
463.982	6260
464.008	6283
464.062	6151
464.076	6205
464.142	6779
464.144	6786
464.211	6312
464.221	6245
464.279	5907
464.301	5809
464.347	6076
464.381	6338
464.414	6453
464.461	6414
464.482	6390
464.540	6395
464.550	6346
464.617	5774
464.620	5748
464.685	6272
464.699	6360
464.753	6711
464.779	6955
464.820	7109
464.859	7097
464.888	6485
464.938	5528
464.956	5909
465.018	7031
465.023	7068
465.091	7597
465.098	7628
465.158	7266
465.177	7137
465.226	6866
465.257	6649
465.293	6604
465.336	6584
465.361	6762
465.416	7098
465.428	7049
465.495	6826
465.496	6839
465.563	6732
465.575	6739
465.631	7612
465.654	7982
465.698	7486
465.734	7004
465.765	6997
465.813	6855
465.833	6876
465.893	7151
465.900	7172
465.968	7038
465.972	7012
466.035	6942
466.052	6913
466.102	6959
466.131	7001
466.170	6992
466.210	6923
466.237	7160
466.290	7595
466.304	7547
466.369	7092
466.372	7107
466.439	7193
466.449	7178
466.506	7712
466.528	7916
466.573	7934
466.607	7860
466.641	7696
466.687	7470
466.708	7708
466.766	8281
466.775	8350
466.842	8776
466.845	8774
466.909	8423
466.925	8325
466.977	8689
467.004	8846
467.044	8726
467.083	8573
467.111	8607
467.163	8605
467.178	8559
467.242	8285
467.245	8308
467.312	8438
467.321	8439
467.379	8182
467.400	8062
467.446	8643
467.480	9034
467.559	9069
467.638	9297
467.717	8172
467.796	9344
467.875	9584
467.955	9349
468.034	10366
468.113	12186
468.192	13900
468.271	17121
468.350	23060
468.429	33263
468.508	34618
468.588	21105
468.667	13983
468.746	11093
468.825	10657
468.904	10090
468.983	9156
469.062	9359
469.141	9882
469.220	8512
469.299	9399
469.378	8881
469.456	10773
469.535	10271
469.614	8540
469.693	8749
469.772	10245
469.851	10152
469.930	10870
470.009	10249
470.088	12381
470.166	17985
470.245	31256
470.324	39165
470.403	25935
470.482	16679
470.560	12473
470.639	10963
470.718	11024
470.797	9790
470.875	9357
470.954	9266
471.033	9229
471.111	9695
471.190	8186
471.269	8500
471.347	8900
471.426	8254
471.505	9249
471.583	9082
471.662	8426
471.740	9904
471.819	8834
471.898	8949
471.976	9574
472.055	8522
472.133	8121
472.212	9219
472.290	8609
472.369	7788
472.447	8288
472.526	8333
472.604	9215
472.683	9664
472.761	8656
472.839	8708
472.918	8539
472.996	8661
473.075	9208
473.153	9280
473.231	9956
473.310	9726
473.388	9459
473.466	9463
473.545	10017
473.623	9619
473.701	9357
473.780	10394
473.858	9597
473.936	10993
474.014	10508
474.093	9359
474.171	9986
474.249	10402
474.327	9360
474.405	8654
474.484	9498
474.562	9875
474.640	9290
474.718	9053
474.796	9567
474.874	8961
474.952	8506
475.030	8964
475.108	8338
475.187	9421
475.265	9702
475.343	9884
475.421	9791
475.499	8909
475.577	9279
475.655	9344
475.733	9193
475.811	9080
475.889	9206
475.966	9832
476.044	9628
476.122	8162
476.200	9985
476.278	9007
476.356	8747
476.434	8831
476.512	9421
476.590	10853
476.667	10456
476.745	8241
476.823	9102
476.901	10123
476.979	9051
477.056	9826
477.134	8267
477.212	8623
477.290	8524
477.367	9213
477.445	8377
477.523	8109
477.601	8565
477.678	8777
477.756	9237
477.834	8966
477.911	8618
477.989	9213
478.066	9178
478.144	9152
478.222	8657
478.299	10088
478.377	9464
478.454	9278
478.532	9888
478.609	8705
478.687	9389
478.764	9374
478.842	8733
478.919	8586
478.997	8655
479.074	8510
479.152	9337
479.229	8947
479.307	8831
479.384	8510
479.461	8865
479.539	8749
479.616	9020
479.694	8600
479.771	9313
479.848	9302
479.926	7951
480.003	10162
480.080	8951
480.157	8881
480.235	8529
480.312	9129
480.389	9138
480.467	8944
480.544	9947
480.621	10493
480.698	10598
480.775	10485
480.853	9800
480.930	8916
481.007	9758
481.084	9175
481.161	10785
481.238	10268
481.315	9571
481.392	8341
481.470	9401
481.547	8784
481.624	8656
481.701	9739
481.778	9860
481.855	10730
481.932	10310
482.009	10762
482.086	11114
482.163	12065
482.240	13733
482.317	14699
482.393	12875
482.470	11170
482.547	11804
482.624	11208
482.701	10784
482.778	10687
482.855	10388
482.932	10884
483.009	11575
483.085	12750
483.162	13092
483.239	14175
483.316	13954
483.393	14512
483.469	12377
483.546	11898
483.623	11270
483.699	10382
483.776	8667
483.853	9407
483.930	9230
484.006	9215
484.083	11395
484.160	10207
484.236	10356
484.313	10499
484.389	10231
484.466	12505
484.543	13965
484.619	18686
484.696	21229
484.772	14372
484.849	11501
484.925	10624
485.002	10595
485.078	10214
485.155	9513
485.231	9304
485.308	8587
485.384	9345
485.461	9332
485.537	9529
485.614	10323
485.690	10424
485.766	9389
485.843	9401
485.919	9662
485.995	9812
486.072	8913
486.148	9187
486.224	8601
486.301	8921
486.377	8929
486.453	8911
486.530	9544
486.606	11669
486.682	9210
486.758	10219
486.835	10268
486.911	10071
486.987	12016
487.063	12700
487.139	12677
487.215	14250
487.292	16737
487.368	17588
487.444	21005
487.520	28396
487.596	43325
487.672	107783
487.748	331247
487.824	479371
487.900	148234
487.976	42874
488.052	23889
488.128	18772
488.204	14110
488.280	13678
488.356	12876
488.432	11833
488.508	11702
488.584	9373
488.660	10794
488.736	10192
488.812	9359
488.888	9570
488.964	8814
489.039	10649
489.115	11290
489.191	10717
489.267	9892
489.343	9388
489.418	8884
489.494	8974
489.570	8084
489.646	10015
489.722	9543
489.797	9226
489.873	9579
489.949	9977
490.024	9143
490.100	8997
490.176	10053
490.251	8745
490.327	9900
490.403	9204
490.478	10037
490.554	9994
490.629	9487
490.705	9392
490.781	9617
490.856	9545
490.932	9390
491.007	9292
491.083	8868
491.158	8558
491.234	8931
491.309	9855
491.385	9366
491.460	8002
491.536	9701
491.611	9264
491.686	8592
491.762	8718
491.837	10289
491.913	10934
491.988	10690
492.063	10671
492.139	9921
492.214	9764
492.289	9998
492.365	9349
492.440	9792
492.515	8992
492.590	9185
492.666	8283
492.741	9418
492.816	9260
492.891	9254
492.967	9597
493.042	9589
493.117	8849
493.192	10599
493.267	9956
493.342	10901
493.418	12209
493.493	10544
493.568	9676
493.643	9633
493.718	9782
493.793	9260
493.868	10230
493.943	9992
494.018	10208
494.093	9753
494.168	11304
494.243	9827
494.318	9803
494.393	10617
494.468	9531
494.543	9910
494.618	10669
494.693	9646
494.768	11013
494.842	11237
494.917	11635
494.992	10815
495.067	10724
495.142	10607
495.217	11329
495.292	11149
495.366	10688
495.441	10141
495.516	11771
495.591	11273
495.665	13580
495.740	16472
495.815	12832
495.890	10950
495.964	9736
496.039	12702
496.114	11892
496.188	13734
496.263	13580
496.338	10666
496.412	10415
496.487	9941
496.561	10945
496.636	10161
496.710	10409
496.785	11127
496.860	11418
496.934	11874
497.009	12649
497.083	12089
497.158	12782
497.232	12678
497.307	14313
497.381	14896
497.455	14503
497.530	11373
497.604	11058
497.679	10649
497.753	10612
497.827	10151
497.902	11174
497.976	11469
498.050	13167
498.125	16458
498.199	17023
498.273	13043
498.348	13872
498.422	15235
498.496	16675
498.570	18306
498.645	11328
498.719	8678
498.793	9992
498.867	9228
498.941	10206
499.016	11175
499.090	13687
499.164	12397
499.238	12396
499.312	13047
499.386	13921
499.460	15650
499.534	17759
499.609	19610
499.683	13828
499.757	9733
499.831	9130
499.905	10857
499.979	10864
500.053	8389
500.127	10258
500.201	10531
500.275	12049
500.349	12558
500.422	13412
500.496	16279
500.570	20102
500.644	25210
500.718	21853
500.792	9706
500.866	8301
500.940	6867
501.013	7902
501.087	7097
501.161	7850
501.235	5990
501.309	10640
501.382	9271
501.456	9954
501.530	7800
501.603	6565
501.677	7978
501.751	5943
501.825	8902
501.898	7612
501.972	7823
502.046	5873
502.119	6875
502.193	7826
502.266	6763
502.340	7854
502.413	7537
502.487	6807
502.561	7057
502.634	6780
502.708	8093
502.781	6271
502.855	8357
502.928	5343
503.002	6684
503.075	7072
503.149	7435
503.222	7450
503.295	7309
503.369	8199
503.442	8526
503.516	9490
503.589	11053
503.662	11357
503.736	14188
503.809	16525
503.882	19483
503.956	30951
504.029	65962
504.102	196046
504.175	270870
504.249	96897
504.322	34807
504.395	19700
504.468	15444
504.542	10998
504.615	8912
504.688	8875
504.761	6673
504.834	9792
504.907	8782
504.980	7198
505.053	6945
505.127	4855
505.200	9753
505.273	6801
505.346	5679
505.419	6040
505.492	7233
505.565	6459
505.638	7108
505.711	5253
505.784	5422
505.857	5251
505.930	8208
506.003	4696
506.076	8060
506.149	5747
506.221	4011
506.294	7009
506.367	5338
506.440	6714
506.513	6658
506.586	6033
506.659	4832
506.731	6141
506.804	5068
506.877	5256
506.950	5687
507.022	6747
507.095	4727
507.168	6476
507.241	7239
507.313	5510
507.386	5216
507.459	6451
507.531	5560
507.604	5308
507.677	6568
507.749	4357
507.822	6598
507.894	5893
507.967	6714
508.040	5073
508.112	6342
508.185	5451
508.257	3809
508.330	7253
508.402	5006
508.475	5336
508.547	5377
508.620	5569
508.692	5354
508.765	5505
508.837	5333
508.909	5753
508.982	5131
509.054	6042
509.127	4641
509.199	5268
509.271	4490
509.344	5047
509.416	5083
509.488	5531
509.560	5196
509.633	6093
509.705	5554
509.777	5289
509.849	6191
509.922	3525
509.994	4680
510.066	7201
510.138	4789
510.210	6793
510.283	4735
510.355	6440
510.427	6351
510.499	5235
510.571	5775
510.643	4473
510.715	7471
510.787	4335
510.859	7385
510.931	4986
511.003	6452
511.076	6459
511.148	4910
511.219	4452
511.291	6012
511.363	5977
511.435	5135
511.507	4267
511.579	6174
511.651	6348
511.723	4875
511.795	5075
511.867	5641
511.939	5155
512.010	4219
512.082	6824
512.154	4932
512.226	5438
512.298	6547
512.369	5154
512.441	6565
512.513	6919
512.585	4796
512.656	7226
512.728	5921
512.800	5762
512.871	6380
512.943	5993
513.015	4904
513.086	5341
513.158	6168
513.230	4171
513.301	5279
513.373	5831
513.444	5970
513.516	6090
513.588	5113
513.659	6007
513.731	5290
513.802	4803
513.874	8068
513.945	6718
514.016	5074
514.088	7626
514.159	4995
514.231	6465
514.302	5331
514.374	6752
514.445	5057
514.516	8886
514.588	5355
514.659	5909
514.730	5680
514.802	7465
514.873	4145
514.944	9265
515.016	6906
515.087	5075
515.158	5619
515.229	7183
515.301	5767
515.372	8016
515.443	5568
515.514	6136
515.585	5964
515.656	7614
515.728	8552
515.799	6655
515.870	8564
515.941	8849
516.012	7287
516.083	10051
516.154	9816
516.225	12576
516.296	15675
516.367	16562
516.438	18705
516.509	23557
516.580	42738
516.651	158356
516.722	469951
516.793	174557
516.864	34347
516.935	29935
517.006	36488
517.077	51007
517.148	125053
517.219	524064
517.289	707643
517.360	120457
517.431	34127
517.502	20675
517.573	18541
517.643	17003
517.714	16738
517.785	19669
517.856	20375
517.926	26334
517.997	32162
518.068	39336
518.138	55301
518.209	103293
518.280	363649
518.350	962681
518.421	428678
518.492	82064
518.562	47702
518.633	47444
518.703	63925
518.774	138830
518.845	348963
518.915	306600
518.986	83804
519.056	37126
519.127	24913
519.197	18868
519.268	15206
519.338	13276
519.408	10853
519.479	10342
519.549	7926
519.620	10375
519.690	8706
519.760	8429
519.831	8162
519.901	6716
519.971	8236
520.042	7483
520.112	5894
520.182	8304
520.253	7522
520.323	6778
520.393	5354
520.463	8241
520.534	3923
520.604	8397
520.674	7162
520.744	5626
520.814	5153
520.885	6941
520.955	5744
521.025	7138
521.095	6245
521.165	7850
521.235	5875
521.305	5135
521.375	6774
521.445	6552
521.515	5534
521.585	7217
521.655	5029
521.725	6584
521.795	6010
521.865	4508
521.935	8217
522.005	5663
522.075	6096
522.145	6811
522.215	4634
522.285	6917
522.355	7137
522.424	6323
522.494	5641
522.564	7305
522.634	7361
522.704	9420
522.774	5958
522.843	6736
522.913	6025
522.983	6987
523.053	5864
523.122	7637
523.192	6394
523.262	6882
523.331	5200
523.401	7549
523.471	5850
523.540	6941
523.610	6213
523.680	6862
523.749	6846
523.819	7161
523.888	7195
523.958	7283
524.027	6743
524.097	6910
524.166	7183
524.236	6035
524.305	9018
524.375	6421
524.444	5812
524.514	9213
524.583	6975
524.653	5766
524.722	7594
524.791	5734
524.861	8804
524.930	6953
524.999	7405
525.069	8743
525.138	7697
525.207	7474
525.277	8826
525.346	9552
525.415	10588
525.484	10897
525.554	11979
525.623	15523
525.692	17481
525.761	21026
525.830	26917
525.900	34012
525.969	54016
526.038	105273
526.107	224491
526.176	600044
526.245	438720
526.314	130839
526.383	304765
526.452	390647
526.522	546700
526.591	464249
526.660	78737
526.729	46789
526.797	52142
526.867	76495
526.935	227089
527.004	764885
527.073	470460
527.142	67293
527.211	28419
527.280	20217
527.349	16151
527.418	11607
527.487	13173
527.555	10144
527.624	9356
527.693	8150
527.762	10250
527.831	8016
527.899	9736
527.968	8699
528.037	7194
528.106	7950
528.174	9117
528.243	7909
528.312	7774
528.380	8208
528.449	6733
528.518	8943
528.586	6062
528.655	8916
528.723	7733
528.792	7937
528.861	6945
528.929	6584
528.998	8219
529.066	8599
529.135	8720
529.203	7909
529.272	8731
529.340	10764
529.409	10907
529.477	9249
529.545	8425
529.614	10984
529.682	9131
529.751	9215
529.819	14147
529.887	11633
529.956	10821
530.024	11627
530.092	9713
530.161	11837
530.229	11485
530.297	11211
530.365	12696
530.434	12483
530.502	10137
530.570	11564
530.638	8923
530.707	10854
530.775	11553
530.843	10030
530.911	11587
530.979	11592
531.047	11030
531.115	12173
531.183	10923
531.252	12518
531.320	10660
531.388	10812
531.456	12643
531.524	10472
531.592	13707
531.660	14254
531.728	11403
531.796	12274
531.864	12984
531.932	11180
532.000	11151
532.067	12404
532.135	13767
532.203	15679
532.271	14138
532.339	16285
532.407	15242
532.475	14667
532.542	13861
532.610	14546
532.678	13526
532.746	17078
532.814	20354
532.881	16065
532.949	15146
533.017	14682
533.084	13684
533.152	12879
533.220	13720
533.287	12221
533.355	14319
533.423	15233
533.490	14638
533.558	14672
533.625	14022
533.693	13988
533.761	14061
533.828	13516
533.896	12988
533.963	15239
534.031	15171
534.098	19818
534.166	20092
534.233	19597
534.300	21729
534.368	20891
534.435	20211
534.503	21254
534.570	23598
534.637	25759
534.705	28577
534.772	34465
534.840	66001
534.907	271535
534.974	305222
535.041	43943
535.109	23590
535.176	19516
535.243	20168
535.310	20304
535.378	17499
535.445	18830
535.512	19454
535.579	19046
535.646	18316
535.714	19338
535.781	19886
535.848	19779
535.915	19683
535.982	18351
536.049	19084
536.116	20494
536.183	16794
536.250	17211
536.317	18035
536.384	19632
536.451	19280
536.518	19702
536.585	18462
536.652	21792
536.719	20110
536.786	17916
536.853	18556
536.920	19784
536.987	19367
537.053	18589
537.120	21513
537.187	22250
537.254	21023
537.321	20591
537.388	22034
537.454	18895
537.521	20102
537.588	19445
537.654	20426
537.721	21445
537.788	22534
537.855	19968
537.921	21202
537.988	19553
538.055	20405
538.121	16834
538.188	16375
538.254	18038
538.321	17911
538.388	19582
538.454	21588
538.521	23519
538.587	21796
538.654	21407
538.720	20529
538.787	21342
538.853	20369
538.920	20060
538.986	17900
539.053	18377
539.119	19238
539.185	17903
539.252	21122
539.318	20638
539.385	23772
539.451	19181
539.517	21138
539.583	20516
539.650	21053
539.716	21695
539.782	19614
539.849	17985
539.915	20071
539.981	19840
540.047	18387
540.114	19005
540.180	21223
540.246	21272
540.312	22011
540.378	21633
540.444	20833
540.510	22438
540.576	22733
540.643	20611
540.709	18672
540.775	20208
540.841	19994
540.907	19753
540.973	20207
541.039	20686
541.105	20613
541.171	21639
541.237	22429
541.303	21358
541.369	23603
541.435	21374
541.500	20807
541.566	19264
541.632	18442
541.698	20061
541.764	22021
541.830	19436
541.896	19174
541.961	20007
542.027	19531
542.093	23400
542.159	22185
542.224	19585
542.290	21662
542.356	20579
542.421	19344
542.487	20134
542.553	18473
542.618	19868
542.684	19464
542.750	19269
542.815	20607
542.881	20191
542.947	21688
543.012	21735
543.078	19511
543.143	19410
543.209	19978
543.274	19258
543.340	19518
543.405	20574
543.471	20924
543.536	21358
543.602	20795
543.667	19740
543.732	22671
543.798	20116
543.863	21060
543.928	21002
543.994	20193
544.059	21258
544.124	21787
544.190	21828
544.255	23084
544.320	22103
544.386	21162
544.451	23032
544.516	23201
544.581	22272
544.646	24428
544.712	24895
544.777	23313
544.842	23026
544.907	22223
544.972	23254
545.037	25322
545.102	24410
545.168	24802
545.233	25781
545.298	25685
545.363	25769
545.428	27974
545.493	28312
545.558	27250
545.623	26815
545.688	26543
545.753	29012
545.818	29341
545.883	31776
545.947	31179
546.012	33338
546.077	34749
546.142	36194
546.207	36754
546.272	39620
546.337	39529
546.401	41241
546.466	43857
546.531	44247
546.596	47413
546.661	49947
546.725	53300
546.790	55653
546.855	61422
546.919	67807
546.984	74734
547.049	81123
547.113	90808
547.178	100898
547.243	114373
547.307	131237
547.372	143414
547.436	145345
547.501	153482
547.565	163533
547.630	149833
547.695	144641
547.759	146642
547.823	147281
547.888	148430
547.952	153644
548.017	161531
548.081	160860
548.146	160754
548.210	168246
548.274	179470
548.339	173539
548.403	159130
548.468	150473
548.532	149316
548.596	152772
548.660	153999
548.725	169331
548.789	181055
548.853	175562
548.917	168038
548.982	162711
549.046	146179
549.110	133829
549.174	141984
549.238	165348
549.303	176900
549.367	180326
549.431	171189
549.495	162194
549.559	163593
549.623	190587
549.687	203413
549.751	200855
549.815	239999
549.879	238827
549.943	230558
550.007	243350
550.071	234027
550.135	214661
550.199	205512
550.263	202305
550.327	190946
550.391	197602
550.455	219122
550.519	229793
550.582	244394
550.646	272435
550.710	274812
550.774	270494
550.838	275594
550.901	280786
550.965	296988
551.029	304262
551.093	324752
551.156	342456
551.220	368245
551.284	397034
551.347	329464
551.411	289491
551.475	284915
551.538	293097
551.602	274935
551.666	264462
551.729	250150
551.793	247550
551.856	243138
551.920	238491
551.983	237353
552.047	235113
552.110	237530
552.174	239508
552.237	243800
552.301	227868
552.364	220439
552.428	214960
552.491	223613
552.554	226924
552.618	226280
552.681	231868
552.745	227129
552.808	255484
552.871	282448
552.934	251045
552.998	229241
553.061	221657
553.124	213812
553.187	212203
553.251	219121
553.314	217145
553.377	220394
553.440	233971
553.503	237034
553.567	235721
553.630	238438
553.693	238682
553.756	240582
553.819	236718
553.882	230402
553.945	231633
554.008	230393
554.071	235017
554.134	234492
554.197	221680
554.260	221181
554.323	222542
554.386	225246
554.449	233361
554.512	230986
554.575	221904
554.638	219905
554.701	219531
554.764	216882
554.827	209996
554.889	202758
554.952	194723
555.015	188344
555.078	192844
555.141	192942
555.203	189836
555.266	190641
555.329	189487
555.391	181342
555.454	178809
555.517	170306
555.580	163535
555.642	159495
555.705	157368
555.768	155087
555.830	151280
555.893	144157
555.955	140078
556.018	137701
556.080	138373
556.143	141367
556.206	137491
556.268	135236
556.330	132469
556.393	129473
556.455	124300
556.518	122018
556.580	117996
556.643	114410
556.705	111971
556.767	109589
556.830	109860
556.892	105078
556.955	104029
557.017	100297
557.079	101656
557.142	96391
557.204	96141
557.266	94072
557.328	90199
557.391	83796
557.453	82436
557.515	80984
557.577	82028
557.639	82154
557.701	81396
557.764	81639
557.826	80844
557.888	82002
557.950	85487
558.012	90847
558.074	110637
558.136	213124
558.198	426514
558.260	163284
558.322	84198
558.384	83648
558.446	84864
558.508	88469
558.570	96788
558.632	107559
558.694	133458
558.756	215088
558.818	534010
558.880	999938
558.942	444838
559.003	450257
559.065	215060
559.127	96922
559.189	92690
559.251	103161
559.312	143338
559.374	306754
559.436	777713
559.498	391752
559.559	107827
559.621	91702
559.683	105780
559.744	162897
559.806	451974
559.868	592508
559.929	147124
559.991	102228
560.052	162857
560.114	411067
560.176	253799
560.237	250385
560.299	358056
560.360	88254
560.422	44928
560.483	39793
560.545	37691
560.606	36818
560.667	35982
560.729	35383
560.790	32124
560.852	32047
560.913	31419
560.974	31082
561.036	29548
561.097	30063
561.158	30564
561.220	29119
561.281	28659
561.342	28215
561.403	27925
561.465	26706
561.526	28867
561.587	28587
561.648	25943
561.709	25550
561.771	25599
561.832	24290
561.893	25377
561.954	24269
562.015	23493
562.076	24071
562.137	23794
562.198	23958
562.259	23948
562.320	23635
562.381	24405
562.442	23237
562.503	23348
562.564	22614
562.625	22736
562.686	21840
562.747	22228
562.808	21690
562.869	21050
562.930	21251
562.991	20717
563.051	20084
563.112	20254
563.173	20502
563.234	19701
563.294	20625
563.355	19495
563.416	19769
563.477	19403
563.537	18720
563.598	18949
563.659	19170
563.720	17829
563.780	18712
563.841	18457
563.901	19632
563.962	19043
564.023	17811
564.083	18786
564.144	18561
564.204	18204
564.265	18600
564.325	17307
564.386	18435
564.446	17681
564.507	17890
564.567	16915
564.628	17486
564.688	17495
564.749	16153
564.809	17974
564.869	17934
564.930	17228
564.990	17288
565.050	17719
565.111	18084
565.171	17013
565.231	17124
565.292	17891
565.352	17353
565.412	17528
565.472	16939
565.532	17161
565.593	16985
565.653	16592
565.713	16902
565.773	18269
565.833	17500
565.893	18526
565.953	16096
566.013	15467
566.074	16195
566.134	16030
566.194	15056
566.254	15791
566.314	15591
566.374	14841
566.434	15755
566.494	16057
566.554	15822
566.614	16583
566.673	16589
566.733	17264
566.793	16115
566.853	17280
566.913	17348
566.973	16945
567.033	16452
567.092	17394
567.152	16509
567.212	17440
567.272	17008
567.331	17965
567.391	17488
567.451	18826
567.511	17480
567.570	16864
567.630	17618
567.690	16655
567.749	15781
567.809	16198
567.868	16496
567.928	15218
567.988	16515
568.047	17912
568.107	16941
568.166	17105
568.226	17375
568.285	16912
568.345	17197
568.404	17438
568.464	17083
568.523	16704
568.582	16327
568.642	16982
568.701	16123
568.761	16118
568.820	16566
568.879	16380
568.939	15923
568.998	16227
569.057	15450
569.116	15820
569.176	16288
569.235	16101
569.294	15718
569.353	15512
569.413	16232
569.472	15330
569.531	15168
569.590	15261
569.649	16207
569.708	15547
569.767	17516
569.827	15877
569.886	14890
569.945	15289
570.004	15316
570.063	16343
570.122	15831
570.181	16733
570.240	16494
570.299	16143
570.358	16831
570.417	17203
570.475	16850
570.534	17449
570.593	15735
570.652	16960
570.711	16546
570.770	16906
570.829	16791
570.887	17245
570.946	17114
571.005	17611
571.064	18646
571.122	19520
571.181	17150
571.240	16447
571.299	16436
571.357	15957
571.416	16179
571.475	15795
571.533	16800
571.592	18480
571.650	17199
571.709	17835
571.768	19396
571.826	19930
571.885	19777
571.943	17398
572.002	16628
572.060	15797
572.119	16420
572.177	16321
572.236	15497
572.294	16240
572.352	17598
572.411	16778
572.469	17222
572.528	16695
572.586	16053
572.644	15745
572.703	15927
572.761	15493
572.819	14934
572.877	14459
572.936	14007
572.994	15015
573.052	14473
573.110	15073
573.169	16389
573.227	15690
573.285	15713
573.343	14762
573.401	15313
573.459	15855
573.517	15509
573.576	16052
573.634	16166
573.692	14797
573.750	15579
573.808	13963
573.866	14506
573.924	14637
573.982	14225
574.040	14244
574.098	14524
574.155	14288
574.213	14155
574.271	14591
574.329	15527
574.387	14000
574.445	13395
574.503	12561
574.560	12857
574.618	12933
574.676	12990
574.734	13422
574.792	13108
574.849	12273
574.907	12376
574.965	11924
575.022	10880
575.080	11435
575.138	12300
575.195	10158
575.253	11305
575.311	11120
575.368	12168
575.426	10093
575.483	11414
575.541	11929
575.598	11122
575.656	11021
575.713	11925
575.771	12226
575.828	11424
575.886	10918
575.943	11196
576.001	9501
576.058	9442
576.115	10097
576.173	10927
576.230	11118
576.287	11992
576.345	10751
576.402	12021
576.459	11624
576.517	9823
576.574	10974
576.631	10603
576.688	9384
576.746	9787
576.803	10065
576.860	9074
576.917	10219
576.974	10479
577.031	10342
577.089	9824
577.146	9381
577.203	9839
577.260	9949
577.317	9415
577.374	9767
577.431	9831
577.488	9388
577.545	9136
577.602	9840
577.659	9980
577.716	9866
577.773	9799
577.830	9785
577.886	9404
577.943	9807
578.000	9758
578.057	9384
578.114	9335
578.171	9902
578.227	9733
578.284	8712
578.341	10076
578.398	10044
578.454	8892
578.511	9873
578.568	9371
578.625	8974
578.681	9649
578.738	9213
578.794	9912
578.851	10043
578.908	10773
578.964	9360
579.021	9444
579.077	9281
579.134	10163
579.190	10230
579.247	9470
579.303	8758
579.360	9457
579.416	9032
579.473	9608
579.529	9457
579.586	9967
579.642	9923
579.698	10423
579.755	10779
579.811	9652
579.867	10370
579.924	9997
579.980	10022
580.036	9667
580.093	10012
580.149	10845
580.205	10424
580.261	10878
580.317	11230
580.374	11050
580.430	11252
580.486	10986
580.542	10023
580.598	10694
580.619	10505
580.654	10187
580.692	10373
580.710	10489
580.765	10852
580.767	10876
580.823	10606
580.838	10770
580.879	11263
580.911	11340
580.935	11415
580.984	10740
580.991	10663
581.047	11843
581.057	11681
581.103	11026
581.130	10893
581.159	10762
581.203	10465
581.215	10406
581.270	11302
581.276	11176
581.326	10080
581.349	10326
581.382	10710
581.422	10464
581.438	10363
581.494	9573
581.494	9566
581.550	9785
581.567	9864
581.606	10055
581.640	10302
581.661	10455
581.713	11222
581.717	11294
581.773	10192
581.786	10152
581.829	10004
581.859	10311
581.885	10658
581.932	10488
581.940	10459
581.996	11138
582.004	11113
582.052	10814
582.077	10272
582.107	9723
582.150	10173
582.163	10331
582.219	10137
582.223	10061
582.274	9094
582.296	9352
582.330	9861
582.368	10218
582.386	10424
582.441	10571
582.441	10574
582.497	10488
582.514	10136
582.552	9722
582.587	10125
582.608	10239
582.659	9936
582.663	9925
582.719	10407
582.732	10344
582.774	10202
582.805	10431
582.830	10620
582.877	10906
582.885	10936
582.941	9877
582.950	9992
582.996	10614
583.023	10501
583.052	10539
583.095	11376
583.107	11545
583.162	10740
583.168	10745
583.218	10693
583.240	10228
583.273	9615
583.313	9699
583.328	9820
583.384	10112
583.385	10100
583.439	9303
583.458	9326
583.494	9406
583.531	9313
583.549	9376
583.603	9491
583.605	9487
583.660	9260
583.676	9366
583.715	9566
583.748	9834
583.770	10134
583.820	9880
583.825	9822
583.881	10040
583.893	9868
583.936	9441
583.965	9232
583.991	9046
584.038	9866
584.046	10017
584.101	9955
584.110	9947
584.156	9845
584.183	9945
584.211	9892
584.255	9870
584.266	9959
584.321	10141
584.328	10215
584.376	10542
584.400	10702
584.431	10936
584.472	10500
584.486	10386
584.541	11204
584.545	11244
584.596	11409
584.617	11234
584.651	11457
584.689	12089
584.706	12084
584.761	11933
584.762	11937
584.816	12329
584.834	12693
584.871	13448
584.906	13736
584.926	13798
584.978	14156
584.980	14186
585.035	15554
585.051	16291
585.090	18366
585.123	19717
585.145	20420
585.195	21595
585.200	21802
585.254	25629
585.267	26624
585.309	29644
585.340	32298
585.364	34881
585.412	41825
585.419	42961
585.473	53757
585.484	57335
585.528	77189
585.556	96738
585.583	132835
585.628	217059
585.637	246882
585.692	504544
585.700	544826
585.747	671267
585.772	571966
585.801	360374
585.845	129354
585.856	100337
585.910	49462
585.917	44652
585.965	32757
585.989	28732
586.019	25979
586.061	23018
586.074	22306
586.128	19982
586.133	19865
586.183	19117
586.205	18831
586.237	18469
586.277	18126
586.292	17980
586.346	16571
586.349	16594
586.401	17292
586.421	17276
586.455	16987
586.493	17167
586.509	17448
586.564	17295
586.565	17335
586.618	19332
586.637	20202
586.672	22869
586.709	26566
586.727	28073
586.781	30299
586.781	30281
586.835	22745
586.853	20889
586.889	18826
586.925	17535
586.944	17162
586.996	16979
586.998	16978
587.052	16617
587.068	16615
587.106	16307
587.140	16499
587.161	16852
587.212	17041
587.215	17024
587.269	17164
587.284	17156
587.323	16912
587.356	17201
587.377	17626
587.427	18650
587.431	18696
587.485	18768
587.499	18913
587.539	19237
587.571	19257
587.593	19219
587.643	20358
587.648	20499
587.702	20891
587.715	21102
587.755	20967
587.786	20980
587.810	20952
587.858	20487
587.864	20454
587.917	20995
587.930	21043
587.971	21604
588.001	22024
588.025	21816
588.073	20941
588.079	20957
588.133	21777
588.145	22055
588.187	21776
588.217	21466
588.241	21837
588.288	22615
588.295	22677
588.348	23753
588.360	23877
588.402	24169
588.431	24562
588.456	24891
588.503	25449
588.510	25518
588.564	26966
588.575	27237
588.617	28390
588.646	29512
588.671	30822
588.718	33878
588.725	34516
588.778	41480
588.789	43514
588.832	62490
588.861	78852
588.886	114113
588.932	194001
588.939	201684
588.993	250994
589.004	247742
589.047	126609
589.075	60769
589.100	46207
589.147	31332
589.154	30886
589.207	29307
589.218	29114
589.261	30421
589.290	31654
589.314	31947
589.361	33749
589.368	34835
589.421	45383
589.433	48369
589.475	81242
589.504	108961
589.528	143954
589.576	217224
589.582	210643
589.635	101622
589.647	81299
589.689	45920
589.718	27537
589.742	26102
589.790	23928
589.795	23812
589.849	23226
589.861	23211
589.902	22834
589.932	22345
589.955	21838
590.004	21048
590.009	21036
590.062	21393
590.075	21437
590.115	21245
590.146	21358
590.168	21338
590.218	21074
590.222	21064
590.275	21248
590.289	21426
590.328	22213
590.360	22780
590.381	22886
590.431	22897
590.435	22865
590.488	23126
590.503	23140
590.541	23131
590.574	23285
590.594	23800
590.645	25221
590.647	25195
590.700	24877
590.716	24916
590.753	25703
590.787	26400
590.806	26651
590.859	27426
590.859	27399
590.912	27375
590.930	27332
590.965	27630
591.001	28171
591.018	27996
591.071	27296
591.072	27318
591.124	25998
591.143	25672
591.177	26733
591.214	27931
591.230	27745
591.283	27240
591.285	27244
591.336	27485
591.356	27751
591.389	27323
591.427	26721
591.442	26698
591.495	26829
591.498	26868
591.547	27016
591.569	27181
591.600	27751
591.640	28579
591.653	28564
591.706	28565
591.711	28601
591.759	29531
591.782	30060
591.811	30070
591.853	30200
591.864	30189
591.917	30190
591.924	30224
591.969	30766
591.995	31181
592.022	31117
592.066	31132
592.075	31266
592.127	32268
592.137	32511
592.180	32570
592.208	32608
592.233	32660
592.279	32961
592.285	33084
592.338	34514
592.350	34861
592.390	34714
592.421	34718
592.443	34871
592.491	35354
592.495	35407
592.548	36747
592.562	37161
592.600	36853
592.633	36674
592.653	36360
592.704	35474
592.705	35681
592.775	36029
592.846	37702
592.916	37124
592.987	37874
593.058	39072
593.128	39285
593.199	39035
593.270	39468
593.341	40481
593.411	41788
593.482	42511
593.553	44534
593.623	45998
593.694	47612
593.764	47433
593.835	46524
593.906	46524
593.976	47844
594.047	50158
594.117	51410
594.188	52196
594.258	53587
594.329	53509
594.399	53576
594.470	56452
594.540	58109
594.611	59928
594.681	59175
594.751	59651
594.822	61484
594.892	62186
594.963	65113
595.033	67749
595.103	70441
595.174	70136
595.244	72875
595.314	73171
595.384	76496
595.455	78102
595.525	80871
595.595	83346
595.665	83226
595.736	81050
595.806	84519
595.876	83073
595.946	86036
596.016	89343
596.087	91728
596.157	90906
596.227	92805
596.297	97882
596.367	104256
596.437	110017
596.507	110208
596.577	108671
596.647	113257
596.717	119663
596.787	120928
596.857	120474
596.927	122142
596.997	122523
597.067	122086
597.137	124554
597.207	124918
597.277	125593
597.347	120005
597.417	118481
597.487	117888
597.557	120414
597.626	122791
597.696	124684
597.766	124738
597.836	116260
597.906	111074
597.975	107728
598.045	111088
598.115	116793
598.185	125502
598.254	140283
598.324	151583
598.394	153317
598.464	148371
598.533	145701
598.603	134492
598.672	132326
598.742	135717
598.812	135725
598.881	139559
598.951	138067
599.020	141085
599.090	146623
599.159	149192
599.229	141622
599.299	139656
599.368	143055
599.437	140826
599.507	129270
599.576	126198
599.646	121885
599.715	122088
599.785	121259
599.854	116596
599.924	115259
599.993	114470
600.062	117656
600.132	119811
600.201	127109
600.270	149316
600.340	155473
600.409	154297
600.478	151492
600.547	157226
600.617	139330
600.686	111369
600.755	100281
600.824	95011
600.894	92419
600.963	93362
601.032	91526
601.101	89337
601.170	84193
601.239	82704
601.308	81411
601.378	83013
601.447	81375
601.516	82243
601.585	82270
601.654	83264
601.723	84057
601.792	87650
601.861	90334
601.930	92896
601.999	93632
602.068	94249
602.137	93801
602.206	95773
602.275	98629
602.343	99545
602.412	97608
602.481	102169
602.550	101119
602.619	104602
602.688	106519
602.756	106454
602.825	106266
602.894	111068
602.963	112393
603.032	113954
603.100	113203
603.169	114307
603.238	115328
603.307	116154
603.375	119476
603.444	119775
603.513	121864
603.581	123981
603.650	126047
603.719	121845
603.787	127152
603.856	130040
603.924	134381
603.993	139288
604.061	143694
604.130	152292
604.198	153830
604.267	157971
604.335	158414
604.404	159679
604.472	164501
604.541	166046
604.609	165727
604.678	167940
604.746	167096
604.815	172135
604.883	175245
604.951	175959
605.020	178328
605.088	182627
605.156	186412
605.225	190005
605.293	189141
605.361	190969
605.429	191828
605.498	196534
605.566	199284
605.634	213111
605.702	220142
605.771	225019
605.839	225608
605.907	220781
605.975	211702
606.043	208826
606.111	208898
606.180	209285
606.248	206108
606.316	204708
606.384	202271
606.452	204937
606.520	211005
606.588	220246
606.656	221559
606.724	215797
606.792	201160
606.860	182753
606.928	166931
606.996	161195
607.064	157117
607.132	162963
607.200	174398
607.267	178097
607.335	181425
607.403	185993
607.471	179507
607.539	175308
607.607	173567
607.674	153335
607.742	155414
607.810	152560
607.878	153946
607.946	158509
608.013	164641
608.081	167893
608.149	168354
608.216	176562
608.284	180368
608.352	181150
608.419	177610
608.487	174315
608.555	171598
608.622	178458
608.690	189633
608.757	209156
608.825	213280
608.893	208305
608.960	194396
609.028	185621
609.095	187418
609.163	186274
609.230	165428
609.298	153191
609.365	161819
609.432	175955
609.500	189965
609.567	216109
609.635	246735
609.702	257855
609.769	243749
609.837	188840
609.904	166686
609.971	174589
610.039	198708
610.106	255512
610.173	465712
610.241	964062
610.308	529592
610.375	217514
610.442	184538
610.509	175179
610.577	174585
610.644	176606
610.711	181743
610.778	185477
610.845	194077
610.912	206831
610.980	213772
611.047	212460
611.114	209650
611.181	203896
611.248	201814
611.315	214277
611.382	218529
611.449	226902
611.516	231234
611.583	227528
611.650	228981
611.717	233636
611.784	238630
611.851	248708
611.918	263506
611.984	308461
612.051	413697
612.118	742666
612.185	1466958
612.252	961738
612.319	373853
612.386	308032
612.452	276905
612.519	260977
612.586	255611
612.653	261330
612.719	266264
612.786	257205
612.853	238389
612.919	235006
612.986	239377
613.053	226193
613.120	209609
613.186	202980
613.253	205890
613.319	205439
613.386	206186
613.453	209997
613.519	212143
613.586	207150
613.652	208609
613.719	206183
613.785	209585
613.852	213508
613.918	210699
613.985	211896
614.051	223613
614.118	216133
614.184	209283
614.250	210330
614.317	215235
614.383	214820
614.449	217418
614.516	215876
614.582	217639
614.648	211199
614.715	209763
614.781	205176
614.847	206000
614.914	204285
614.980	199204
615.046	201540
615.112	206666
615.179	207122
615.245	210531
615.311	207539
615.377	209222
615.443	214175
615.509	215955
615.575	225476
615.642	221663
615.708	228709
615.774	236760
615.840	253353
615.906	271072
615.972	326999
616.038	468027
616.104	878425
616.170	1617345
616.236	1327099
616.302	528949
616.368	414428
616.434	302914
616.500	277102
616.565	314171
616.631	393604
616.697	317577
616.763	330543
616.829	504326
616.895	875912
616.961	783194
617.026	348588
617.092	246382
617.158	225680
617.224	218188
617.289	202078
617.355	192735
617.421	189441
617.487	189998
617.552	179421
617.618	178112
617.684	178890
617.749	181216
617.815	172095
617.880	168745
617.946	167729
618.012	171635
618.077	176850
618.143	167577
618.208	168858
618.274	181010
618.339	181417
618.405	150471
618.470	151524
618.536	151986
618.601	147690
618.667	138296
618.732	130736
618.798	130063
618.863	130299
618.928	129416
618.994	133666
619.059	128745
619.124	130950
619.190	129125
619.255	128473
619.320	128473
619.386	130131
619.451	127188
619.516	124331
619.581	125882
619.647	129697
619.712	128450
619.777	123852
619.842	124647
619.907	127714
619.972	130573
620.038	127651
620.103	125162
620.168	125096
620.233	128337
620.298	127635
620.363	129578
620.428	133085
620.493	134928
620.558	137246
620.623	139005
620.688	138588
620.753	137295
620.818	141066
620.883	141091
620.948	140672
621.013	138715
621.078	137057
621.143	136179
621.207	139956
621.272	137784
621.337	133208
621.402	131731
621.467	129960
621.532	130000
621.596	130733
621.661	127944
621.726	125967
621.791	127906
621.855	127624
621.920	126409
621.985	127768
622.049	130850
622.114	130886
622.179	132791
622.243	137003
622.308	138975
622.373	145931
622.437	139895
622.502	133670
622.566	132765
622.631	131461
622.695	136445
622.760	134285
622.824	133575
622.889	134144
622.953	133824
623.018	143962
623.082	143066
623.147	141473
623.211	138697
623.276	139520
623.340	134242
623.404	129650
623.469	130318
623.533	131443
623.597	127581
623.662	125817
623.726	119101
623.790	110938
623.854	108122
623.919	111163
623.983	112554
624.047	117092
624.111	115945
624.176	117682
624.240	118210
624.304	122491
624.368	115799
624.432	117285
624.496	121006
624.560	127139
624.625	126811
624.689	126432
624.753	132513
624.817	124905
624.881	122340
624.945	111735
625.009	107401
625.073	109565
625.137	111702
625.201	118233
625.265	118809
625.329	112964
625.393	113724
625.456	116650
625.520	119558
625.584	120140
625.648	124330
625.712	126444
625.776	124137
625.839	116463
625.903	99257
625.967	92454
626.031	102648
626.095	118922
626.158	109556
626.222	85974
626.286	81952
626.349	78086
626.413	72670
626.477	72845
626.540	74153
626.604	72468
626.668	73106
626.731	70960
626.795	70257
626.858	71211
626.922	69108
626.986	69580
627.049	67528
627.113	73160
627.176	69489
627.240	68253
627.303	69375
627.366	67471
627.430	68111
627.493	67195
627.557	64384
627.620	68382
627.684	70932
627.747	71012
627.810	62490
627.874	58071
627.937	55823
628.000	59298
628.064	55053
628.127	50213
628.190	49787
628.253	49055
628.317	45530
628.380	43619
628.443	42939
628.506	43042
628.569	41775
628.632	38425
628.696	39651
628.759	39014
628.822	36564
628.885	36636
628.948	35859
629.011	36409
629.074	34469
629.137	33362
629.200	32242
629.263	33391
629.326	30661
629.389	31170
629.452	32108
629.515	29590
629.578	29229
629.641	31870
629.704	30387
629.767	30776
629.830	29654
629.892	28474
629.955	28476
630.018	31206
630.081	28023
630.144	30563
630.207	27087
630.269	29001
630.332	27279
630.395	27999
630.458	26985
630.520	24853
630.583	26849
630.646	27014
630.708	27285
630.771	26156
630.834	29793
630.896	27941
630.959	28395
631.021	26710
631.084	27243
631.146	27525
631.209	28900
631.272	28427
631.334	29418
631.397	29252
631.459	28723
631.522	32805
631.584	33799
631.646	37434
631.709	38234
631.771	39430
631.834	37394
631.896	34444
631.958	30492
632.021	31805
632.083	27768
632.145	29283
632.208	26783
632.270	27762
632.332	26751
632.395	26143
632.457	26988
632.519	25168
632.581	26472
632.643	25222
632.706	25997
632.768	24992
632.830	25922
632.892	27143
632.954	24923
633.016	27939
633.078	26139
633.141	26339
633.203	25870
633.265	25304
633.327	25956
633.389	25607
633.451	27926
633.513	26179
633.575	28358
633.637	27084
633.698	27464
633.760	29172
633.822	30686
633.884	31863
633.946	34041
634.008	34338
634.070	36285
634.132	40834
634.193	45230
634.255	48862
634.317	50167
634.379	49931
634.441	41400
634.502	37318
634.564	34713
634.626	31023
634.687	28885
634.749	27535
634.811	27158
634.873	26461
634.934	26551
634.996	27930
635.057	25885
635.119	26500
635.181	28440
635.242	29049
635.304	25773
635.365	28420
635.427	27376
635.488	27239
635.550	28306
635.611	29779
635.673	27575
635.734	32279
635.796	33882
635.857	39575
635.918	41116
635.980	49333
636.041	50727
636.102	57340
636.164	57351
636.225	53794
636.286	43488
636.348	39128
636.409	33574
636.470	29987
636.531	30088
636.593	26846
636.654	27159
636.715	25832
636.776	25625
636.838	23608
636.899	22992
636.960	22347
637.021	22838
637.082	21615
637.143	21861
637.204	19952
637.265	21133
637.326	21323
637.387	22964
637.448	22152
637.509	22356
637.570	21431
637.631	22464
637.692	19167
637.753	19058
637.814	19795
637.875	20026
637.936	20306
637.997	19478
638.058	19544
638.119	19675
638.179	20089
638.240	19446
638.301	19226
638.362	18176
638.423	18381
638.483	19754
638.544	16828
638.605	18436
638.666	17964
638.726	17626
638.787	18197
638.848	17747
638.908	18035
638.969	18214
639.030	17665
639.090	15807
639.151	16441
639.211	17575
639.272	17850
639.332	18057
639.393	18952
639.453	20881
639.514	22029
639.574	17526
639.635	15639
639.695	16745
639.756	14837
639.816	15700
639.877	16774
639.937	17835
639.997	17146
640.058	14964
640.118	16139
640.178	17519
640.239	16135
640.299	16457
640.359	16754
640.420	18348
640.480	22575
640.540	25910
640.600	25463
640.661	21444
640.721	20467
640.781	21705
640.841	15868
640.901	16894
640.961	17238
641.021	19174
641.082	20711
641.142	16859
641.202	16973
641.262	13708
641.322	16236
641.382	15000
641.442	16180
641.502	15391
641.562	16397
641.622	16388
641.682	18347
641.742	22007
641.802	19870
641.861	16256
641.921	14343
641.981	15245
642.041	14065
642.101	13878
642.161	12952
642.221	13997
642.280	15247
642.340	14632
642.400	14477
642.460	16541
642.519	14617
642.579	15491
642.639	16209
642.698	13803
642.758	17060
642.818	15951
642.877	14829
642.937	15470
642.997	15930
643.056	16024
643.116	14286
643.175	17291
643.235	16056
643.294	16577
643.354	19191
643.414	20179
643.473	24857
643.532	30512
643.592	42971
643.651	66512
643.711	114798
643.770	221520
643.830	515225
643.889	892410
643.948	250712
644.008	59214
644.067	35453
644.126	25554
644.186	22268
644.245	19958
644.304	15983
644.363	19685
644.423	15328
644.482	17241
644.541	18566
644.600	17877
644.659	25088
644.719	32785
644.778	51456
644.837	90549
644.896	192766
644.955	400913
645.014	120540
645.073	30961
645.132	22389
645.191	20652
645.250	18234
645.309	21527
645.368	23805
645.427	33922
645.486	61720
645.545	101891
645.604	28017
645.663	19355
645.722	17312
645.781	19536
645.840	22821
645.898	28407
645.957	40941
646.016	61389
646.075	110675
646.134	211957
646.192	547647
646.251	682029
646.310	127211
646.369	42745
646.427	35194
646.486	24470
646.545	18695
646.603	17054
646.662	16283
646.721	15678
646.779	15555
646.838	16570
646.896	22513
646.955	31695
647.014	53429
647.072	108379
647.131	286856
647.189	118247
647.248	20741
647.306	14344
647.365	14836
647.423	10752
647.481	13462
647.540	9714
647.598	12652
647.657	11070
647.715	11981
647.773	10193
647.832	11146
647.890	8530
647.948	8867
648.007	10515
648.065	8919
648.123	8783
648.181	11851
648.240	9392
648.298	9187
648.356	9770
648.414	9993
648.472	9932
648.531	9496
648.589	9424
648.647	9353
648.705	8989
648.763	9718
648.821	10806
648.879	10050
648.937	12432
648.995	15529
649.053	20183
649.111	31488
649.169	52569
649.227	97130
649.285	204161
649.343	530241
649.401	226912
649.459	35096
649.516	20353
649.574	14816
649.632	16183
649.690	18825
649.748	24321
649.806	37048
649.863	74019
649.921	212025
649.979	121051
650.037	17306
650.094	8975
650.152	10027
650.210	7952
650.268	8093
650.325	7057
650.383	6612
650.440	4950
650.498	6073
650.556	5303
650.613	5592
650.671	6446
650.728	6411
650.786	7528
650.843	12082
650.901	6761
650.958	5722
651.016	4861
651.073	5153
651.131	4926
651.188	5018
651.246	3827
651.303	4137
651.360	4924
651.418	4166
651.475	4796
651.532	4224
651.590	4394
651.647	4194
651.704	4129
651.762	4126
651.819	4035
651.876	3862
651.933	3895
651.990	5092
652.048	2418
652.105	3110
652.162	4100
652.219	4318
652.276	4563
652.333	4688
652.390	3268
652.448	3279
652.505	3984
652.562	3981
652.619	2936
652.676	4043
652.733	4269
652.790	4094
652.847	2308
652.904	3504
652.961	2569
653.017	2700
653.074	3541
653.131	3457
653.188	2969
653.245	3381
653.302	3230
653.359	2919
653.415	3766
653.472	3210
653.529	3683
653.586	3124
653.642	2494
653.699	3810
653.756	3074
653.813	3531
653.869	4085
653.926	2911
653.983	2870
654.039	3848
654.096	2925
654.152	4307
654.209	2089
654.266	3902
654.322	2869
654.379	3420
654.435	3743
654.492	2930
654.548	2589
654.605	2498
654.661	3617
654.717	3480
654.774	3590
654.830	2826
654.887	2090
654.943	2873
655.000	3766
655.056	3855
655.112	3847
655.168	3529
655.225	3455
655.281	4473
655.337	3790
655.394	3893
655.450	3703
655.506	4065
655.562	2886
655.618	5223
655.675	3691
655.731	4697
655.787	4207
655.843	5213
655.899	5161
655.955	7053
656.011	7504
656.067	7475
656.123	8268
656.179	9891
656.235	10430
656.291	8803
656.347	9300
656.403	7461
656.459	6676
656.515	6370
656.571	5455
656.627	4556
656.683	4618
656.739	4347
656.795	4963
656.850	3744
656.906	4170
656.962	5465
657.018	3442
657.074	5688
657.129	7598
657.185	12220
657.241	28497
657.297	14012
657.352	3833
657.408	3693
657.464	2913
657.519	2357
657.575	1877
657.630	2047
657.686	2667
657.742	2632
657.797	2438
657.853	2396
657.908	2612
657.964	1722
658.019	2333
658.075	2702
658.130	2241
658.186	1254
658.241	2892
658.297	2160
658.352	2133
658.407	2510
658.463	923
658.518	1924
658.573	1783
658.629	980
658.684	1645
658.739	3162
658.795	1998
658.850	2328
658.905	1600
658.960	2037
659.016	449
659.071	2065
659.126	2556
659.181	1960
659.236	3053
659.291	2830
659.346	1461
659.401	1415
659.457	2804
659.512	1313
659.567	2073
659.622	1498
659.677	1139
659.732	1797
659.787	1579
659.842	1925
659.897	1839
659.952	1981
660.007	1946
660.061	1501
660.116	1516
660.171	1581
660.226	1721
660.281	3179
660.336	1365
660.391	2345
660.445	1322
660.500	2554
660.555	1463
660.610	2102
660.664	2340
660.719	2128
660.774	2262
660.828	1526
660.883	2244
660.938	1916
660.992	1225
661.047	2002
661.101	902
661.156	1526
661.211	1049
661.265	832
661.320	1509
661.374	2171
661.429	1026
661.483	2101
661.538	498
661.592	1912
661.647	1461
661.701	1651
661.755	2568
661.810	2286
661.864	798
661.919	999
661.973	2388
662.027	1128
662.081	1302
662.136	1440
662.190	1721
662.244	2304
662.299	1406
662.353	975
662.407	601
662.461	1468
662.515	1481
662.569	878
662.624	1972
662.678	1086
662.732	851
662.786	2188
662.840	1218
662.894	1469
662.948	1276
663.002	1567
663.056	1575
663.110	1359
663.164	1952
663.218	958
663.272	2033
663.326	2080
663.380	1387
663.434	2416
663.488	1166
663.542	2326
663.595	1257
663.649	1436
663.703	1946
663.757	1761
663.811	1050
663.864	683
663.918	1855
663.972	1778
664.026	2226
664.079	1380
664.133	2480
664.187	2705
664.240	1758
664.294	1793
664.348	2393
664.401	1761
664.455	1794
664.508	1878
664.562	1527
664.615	1759
664.669	1538
664.722	2813
664.776	1847
664.829	2402
664.883	1708
664.936	1256
664.990	1122
665.043	2379
665.097	1660
665.150	2812
665.203	1327
665.257	1353
665.310	3054
665.363	2503
665.417	1634
665.470	2307
665.523	1770
665.576	2255
665.630	2449
665.683	1449
665.736	2650
665.789	2663
665.842	1360
665.895	2520
665.949	2186
666.002	2598
666.055	1427
666.108	3031
666.161	1786
666.214	1597
666.267	2252
666.320	2094
666.373	2174
666.426	2205
666.479	1542
666.532	2616
666.585	2271
666.638	2231
666.691	2245
666.744	2211
666.796	2286
666.849	1971
666.902	2265
666.955	2082
667.008	1611
667.060	2030
667.113	1673
667.166	2348
667.219	2311
667.271	2269
667.324	1978
667.377	2634
667.430	1361
667.482	2244
667.535	1309
667.587	2095
667.640	1750
667.693	2246
667.745	2384
667.798	2581
667.850	2163
667.903	2338
667.955	1403
668.008	1946
668.060	2072
668.113	2842
668.165	1610
668.218	2517
668.270	2203
668.322	1939
668.375	1789
668.427	2006
668.479	1464
668.532	2361
668.584	1826
668.636	2582
668.689	1577
668.741	1468
668.793	1810
668.845	1835
668.898	1889
668.950	1613
669.002	2417
669.054	2250
669.106	1150
669.158	2215
669.211	1624
669.263	1535
669.315	1926
669.367	1257
669.419	1261
669.471	2225
669.523	1862
669.575	2051
669.627	351
669.679	1806
669.731	1254
669.783	2588
669.835	1696
669.886	1726
669.938	1788
669.990	2682
670.042	1011
670.094	1897
670.146	1492
670.197	1623
670.249	1979
670.301	1310
670.353	2864
670.404	3297
670.456	2117
670.508	3129
670.560	4318
670.611	6869
670.663	9865
670.715	25614
670.766	37674
670.818	11734
670.869	3361
670.921	3693
670.972	3030
671.024	2902
671.075	2146
671.127	2800
671.178	2869
671.230	3651
671.281	3676
671.333	4254
671.384	4330
671.436	7476
671.487	11089
671.538	16898
671.590	27871
671.641	47473
671.692	87857
671.744	162182
671.795	102778
671.846	33420
671.897	14989
671.949	9387
672.000	5707
672.051	6121
672.102	3976
672.153	4239
672.204	2703
672.256	3052
672.307	1371
672.358	3097
672.409	3026
672.460	2071
672.511	1219
672.562	1820
672.613	1401
672.664	2054
672.715	2057
672.766	1974
672.817	931
672.868	1207
672.919	2307
672.970	1121
673.021	1999
673.071	591
673.122	1337
673.173	2072
673.224	2105
673.275	730
673.326	972
673.376	1072
673.427	1206
673.478	1530
673.528	1628
673.579	924
673.630	952
673.680	2086
673.731	742
673.782	2001
673.832	1419
673.883	1537
673.934	351
673.984	1654
674.035	1183
674.085	1934
674.136	1620
674.186	1184
674.237	1518
674.287	1905
674.338	1104
674.388	1773
674.438	1724
674.489	1835
674.539	1234
674.589	1734
674.640	1644
674.690	2336
674.740	804
674.791	1692
674.841	1406
674.891	1121
674.942	817
674.992	1099
675.042	824
675.092	841
675.142	414
675.193	1553
675.243	526
675.293	1681
675.343	940
675.393	901
675.443	1000
675.493	1055
675.543	823
675.593	1225
675.643	1477
675.693	1702
675.743	1045
675.793	250
675.843	166
675.893	728
675.943	322
675.993	1427
676.043	617
676.093	1305
676.142	891
676.192	656
676.242	293
676.292	545
676.341	419
676.391	829
676.441	259
676.491	755
676.540	-287
676.590	119
676.640	538
676.689	561
676.739	272
676.789	1073
676.838	106
676.888	239
676.937	-102
676.987	921
677.037	762
677.086	99
677.136	-261
677.185	147
677.235	-12
677.284	1199
677.333	-844
677.383	498
677.432	-641
677.482	856
677.531	262
677.580	408
677.630	466
677.679	-194
677.728	311
677.778	36
677.827	385
677.876	1203
677.925	-19
677.975	559
678.024	679
678.073	1005
678.122	487
678.171	939
678.220	992
678.269	1333
678.319	2031
678.368	2074
678.417	1381
678.466	1968
678.515	662
678.564	712
678.613	-404
678.662	-751
678.711	880
678.760	394
678.809	-85
678.857	322
678.906	1065
678.955	210
679.004	1183
679.053	280
679.102	360
679.151	780
679.199	144
679.248	160
679.297	295
679.346	236
679.394	178
679.443	360
679.492	690
679.540	427
679.589	-402
679.638	959
679.686	256
679.735	579
679.784	872
679.832	2158
679.881	54
679.929	596
679.978	-457
680.026	63
680.075	63
680.123	-79
680.172	-654
680.220	161
680.268	20
680.317	270
680.365	-549
680.414	-286
680.462	-190
680.510	1293
680.559	-230
680.607	287
680.655	314
680.703	-233
680.752	373
680.800	233
680.848	-353
680.896	36
680.945	-35
680.993	-550
681.041	-23
681.089	413
681.137	633
681.185	160
681.233	-517
681.258	-206
681.281	74
681.329	327
681.377	-163
681.380	-148
681.425	-172
681.473	381
681.502	151
681.521	-37
681.569	1215
681.617	723
681.624	586
681.665	-426
681.713	1294
681.745	798
681.761	534
681.809	-283
681.857	781
681.867	597
681.904	-108
681.952	773
681.989	152
682.000	-49
682.048	420
682.096	286
682.111	380
682.143	501
682.191	489
682.233	666
682.239	677
682.286	215
682.334	324
682.354	712
682.382	1218
682.430	913
682.476	453
682.477	428
682.525	662
682.572	647
682.598	896
682.620	1092
682.667	1272
682.715	811
682.720	845
682.763	1001
682.810	885
682.841	1220
682.857	1369
682.905	314
682.952	1189
682.963	1240
683.000	1384
683.047	1069
683.085	2038
683.095	2285
683.142	1373
683.190	1695
683.206	1400
683.237	798
683.284	1422
683.328	935
683.332	885
683.379	1241
683.426	924
683.449	1094
683.473	1273
683.521	1484
683.568	2147
683.571	2116
683.615	1466
683.662	1801
683.693	1111
683.709	732
683.757	1388
683.804	1418
683.814	1465
683.851	1564
683.898	1856
683.936	1577
683.945	1502
683.992	1925
684.039	1936
684.057	1737
684.086	1392
684.133	1624
684.179	1841
684.180	1839
684.227	1626
684.274	1943
684.300	2150
684.321	2288
684.368	2072
684.415	2032
684.422	1980
684.462	1679
684.509	2005
684.543	1948
684.556	1905
684.603	2336
684.649	1605
684.665	1863
684.696	2348
684.743	2054
684.786	2389
684.790	2409
684.837	2317
684.883	2281
684.908	2140
684.930	2035
684.977	2468
685.023	1995
685.029	2077
685.070	2558
685.117	2206
685.150	2760
685.164	2967
685.210	2111
685.257	2560
685.272	2500
685.303	2394
685.350	2653
685.393	2930
685.396	2934
685.443	2028
685.490	2473
685.514	2290
685.536	2225
685.583	2494
685.629	2639
685.636	2551
685.675	1971
685.722	2967
685.757	2430
685.768	2224
685.815	2926
685.861	2748
685.878	2710
685.908	2637
685.954	2022
686.000	2828
686.000	2840
686.047	2887
686.093	2749
686.121	2658
686.139	2540
686.185	3244
686.232	2412
686.242	2472
686.278	2753
686.324	2623
686.363	3053
686.370	3130
686.416	3036
686.463	3530
686.484	3134
686.509	2629
686.555	3408
686.601	3148
686.606	3208
686.647	3639
686.693	2635
686.727	3138
686.739	3375
686.785	2993
686.831	3172
686.848	3260
686.877	3400
686.923	3373
686.969	3421
686.969	3421
687.015	3334
687.061	3609
687.090	4002
687.107	4164
687.153	3643
687.199	4029
687.211	3753
687.245	3086
687.291	3600
687.332	3535
687.336	3532
687.382	3638
687.428	2973
687.453	3411
687.474	3749
687.520	3735
687.565	3824
687.574	3740
687.611	3483
687.657	3750
687.695	3880
687.702	3909
687.748	4503
687.794	4868
687.816	4899
687.839	4880
687.885	4288
687.931	4652
687.937	4566
687.976	3955
688.022	4475
688.058	4121
688.067	4036
688.113	4066
688.158	4317
688.179	4019
688.204	3847
688.249	3938
688.295	4604
688.300	4586
688.340	4362
688.386	4799
688.421	4524
688.431	4491
688.477	4346
688.522	5000
688.542	5215
688.567	5347
688.613	5142
688.658	5287
688.663	5226
688.703	4785
688.749	4962
688.784	4947
688.794	4940
688.839	4743
688.884	5029
688.905	4881
688.930	4718
688.975	4516
689.020	4366
689.026	4365
689.065	4633
689.110	4479
689.146	4691
689.155	4702
689.201	4606
689.246	4811
689.267	4800
689.291	4848
689.336	4973
689.381	5610
689.388	5503
689.426	5076
689.471	5140
689.509	5587
689.516	5652
689.561	5451
689.606	5389
689.630	5450
689.651	5442
689.696	5154
689.741	5296
689.750	5173
689.785	4950
689.830	5091
689.871	5017
689.875	5002
689.920	5261
689.965	4788
689.992	4802
690.010	4892
690.054	4916
690.099	5206
690.112	5197
690.144	5059
690.189	4915
690.233	4586
690.233	4593
690.278	4768
690.323	4589
690.354	4679
690.367	4764
690.412	4903
690.457	5177
690.474	5300
690.501	5429
690.546	5649
690.590	5757
690.595	5685
690.635	4852
690.680	4974
690.716	5034
690.724	5165
690.769	4775
690.813	5455
690.836	5379
690.857	5277
690.902	5584
690.946	5445
690.957	5502
690.991	5697
691.035	5846
691.077	5847
691.080	5854
691.124	5731
691.168	6119
691.198	5769
691.213	5496
691.257	5711
691.301	5394
691.318	5150
691.346	5065
691.390	5335
691.434	5250
691.439	5263
691.478	5558
691.522	5881
691.559	6063
691.567	6095
691.611	6300
691.655	6282
691.680	6313
691.699	6241
691.743	5985
691.787	5971
691.800	5835
691.831	5812
691.875	6080
691.919	6252
691.921	6245
691.964	5971
692.008	5779
692.041	5229
692.052	5209
692.096	5544
692.139	6140
692.162	6203
692.183	6075
692.227	5867
692.271	5602
692.282	5689
692.315	6153
692.359	5813
692.402	5753
692.403	5767
692.447	5633
692.490	6015
692.523	5906
692.534	5850
692.578	6190
692.622	5756
692.643	5801
692.666	5853
692.709	5874
692.753	5677
692.763	5633
692.797	5833
692.840	6287
692.884	6459
692.884	6472
692.928	6403
692.971	6165
693.004	6062
693.015	6078
693.059	5874
693.102	6182
693.124	5980
693.146	5734
693.189	5680
693.233	5437
693.245	5422
693.276	5719
693.320	5825
693.363	6222
693.365	6209
693.407	5914
693.450	5653
693.485	5485
693.493	5557
693.537	6113
693.580	6391
693.605	6453
693.624	6321
693.667	6254
693.710	6027
693.725	5976
693.753	6294
693.797	6683
693.840	6976
693.845	7021
693.883	6991
693.926	6522
693.966	6642
693.970	6687
694.013	6483
694.056	6611
694.086	6667
694.099	6680
694.142	6210
694.185	6351
694.206	6396
694.229	6649
694.272	6654
694.315	6803
694.326	6800
694.358	6871
694.401	7354
694.444	7302
694.446	7294
694.487	7214
694.530	7015
694.566	6960
694.573	6982
694.616	6845
694.659	6838
694.686	6739
694.702	6832
694.745	7156
694.787	7279
694.806	7486
694.830	7456
694.873	6976
694.916	6622
694.926	6490
694.959	6754
695.002	7510
695.044	7598
695.046	7603
695.087	7792
695.130	7810
695.166	7963
695.172	8033
695.215	7838
695.258	8074
695.286	8205
695.301	8350
695.343	8524
695.386	8954
695.406	8991
695.428	9058
695.471	9236
695.514	9598
695.526	9640
695.556	10382
695.599	11545
695.641	12361
695.646	12446
695.684	11687
695.726	10775
695.766	9851
695.769	9868
695.811	9753
695.854	9816
695.886	9684
695.896	9758
695.938	9941
695.981	10067
696.005	10251
696.023	10657
696.065	11312
696.108	12287
696.125	12556
696.150	12620
696.192	12887
696.235	12901
696.245	12894
696.277	12894
696.319	12901
696.361	12869
696.365	12826
696.404	12889
696.446	13128
696.485	13119
696.488	13132
696.530	13047
696.572	12651
696.604	12563
696.614	12655
696.656	12726
696.698	12888
696.724	12857
696.740	12962
696.783	13361
696.825	13690
696.844	13831
696.867	13768
696.909	13367
696.951	13117
696.964	13004
696.992	13197
697.034	13328
697.076	13608
697.083	13615
697.118	13878
697.160	14088
697.202	14343
697.203	14312
697.244	14307
697.286	14343
697.323	14214
697.327	14240
697.369	14248
697.411	14214
697.442	14201
697.453	14274
697.494	14253
697.536	14395
697.562	14464
697.578	14430
697.620	14116
697.661	13760
697.682	13631
697.703	13996
697.744	14520
697.786	15139
697.801	15315
697.828	15352
697.869	15286
697.911	15202
697.921	15173
697.952	15093
697.994	14799
698.035	14569
698.040	14503
698.077	14861
698.118	15204
698.160	15532
698.160	15491
698.201	15854
698.243	16135
698.279	16375
698.284	16449
698.325	16741
698.367	17011
698.399	17154
698.408	17251
698.449	17510
698.491	17791
698.518	17901
698.532	17983
698.573	18102
698.614	18254
698.638	18274
698.656	18112
698.697	17638
698.738	17170
698.757	16892
698.779	17159
698.820	17604
698.862	18053
698.877	18161
698.903	18231
698.944	18292
698.985	18348
698.996	18316
699.026	18218
699.067	18019
699.116	17737
699.235	17049
699.354	17122
699.474	15808
699.593	15534
699.713	16505
699.832	16576
699.951	18059
700.070	17415
700.190	16340
700.309	14764
700.428	15391
700.547	14742
700.667	14682
700.786	14836
700.905	15318
701.024	14650
701.143	13833
701.262	15195
701.381	16066
701.500	15293
701.619	15486
701.738	15959
701.857	15415
701.976	13739
702.095	14639
702.214	14975
702.333	13729
702.452	15828
702.571	15057
702.690	15566
702.809	15172
702.928	13749
703.047	12690
703.165	14632
703.284	13708
703.403	13775
703.522	13270
703.640	13656
703.759	13149
703.878	11949
703.997	13116
704.115	13368
704.234	13923
704.353	13887
704.471	12336
704.590	12621
704.708	11770
704.827	12380
704.946	11252
705.064	11665
705.183	11544
705.301	12017
705.420	11366
705.538	11482
705.656	10456
705.775	10248
705.893	10827
706.012	10413
706.130	9992
706.249	11508
706.367	10518
706.485	11119
706.604	9218
706.722	10155
706.840	10830
706.958	11201
707.077	9930
707.195	10868
707.313	10213
707.431	10066
707.549	9127
707.668	10259
707.786	11266
707.904	9617
708.022	9789
708.140	8960
708.258	8833
708.376	10650
708.494	9037
708.612	10877
708.730	9486
708.848	9665
708.966	10833
709.084	9031
709.202	9022
709.320	8407
709.438	7339
709.556	7941
709.674	8079
709.791	8658
709.909	8516
710.027	9048
710.145	7853
710.263	8282
710.380	7966
710.498	8402
710.616	7270
710.733	7436
710.851	8356
710.969	7879
711.086	7613
711.204	8178
711.322	8000
711.439	7046
711.557	7058
711.674	7429
711.792	7981
711.909	7052
712.027	6854
712.144	7123
712.262	7708
712.379	6867
712.497	6629
712.614	6891
712.732	6995
712.849	7398
712.966	6968
713.084	8219
713.201	6066
713.318	7646
713.436	8074
713.553	7817
713.670	8789
713.787	8150
713.905	7887
714.022	8309
714.139	8576
714.256	13617
714.373	21519
714.490	45730
714.608	134571
714.725	564020
714.842	429950
714.959	37241
715.076	14986
715.193	11543
715.310	10238
715.427	7617
715.544	8939
715.661	8230
715.778	6390
715.895	7392
716.011	7195
716.128	7597
716.245	7295
716.362	6644
716.479	5276
716.596	6744
716.713	6500
716.829	5436
716.946	5858
717.063	5978
717.180	5658
717.296	5901
717.413	6038
717.530	6368
717.646	4736
717.763	5491
717.880	6075
717.996	5183
718.113	5098
718.229	4966
718.346	4605
718.462	4901
718.579	5551
718.695	5567
718.812	4771
718.928	5245
719.045	4909
719.161	4899
719.277	5676
719.394	5956
719.510	6552
719.626	7190
719.743	10256
719.859	18687
719.975	46078
720.092	206490
720.208	378139
720.324	35147
720.440	9525
720.557	7231
720.673	7237
720.789	5463
720.905	5390
721.021	5291
721.137	4607
721.253	4186
721.369	4984
721.486	5036
721.602	3750
721.718	4860
721.834	4505
721.950	4701
722.066	3019
722.181	4380
722.297	4540
722.413	4753
722.529	5062
722.645	4046
722.761	3110
722.877	4147
722.993	5555
723.108	7622
723.224	5992
723.340	4018
723.456	3417
723.571	3788
723.687	3190
723.803	4026
723.918	3291
724.034	3795
724.150	3492
724.265	4112
724.381	2729
724.497	4293
724.612	4263
724.728	4053
724.843	3249
724.959	3194
725.074	3882
725.190	3858
725.305	3193
725.421	3757
725.536	3411
725.651	4276
725.767	4067
725.882	3525
725.997	3533
726.113	4030
726.228	3538
726.343	3361
726.459	3361
726.574	3979
726.689	2416
726.804	3297
726.920	2986
727.035	4203
727.150	4161
727.265	3432
727.380	2802
727.495	4393
727.610	2781
727.725	2829
727.841	2923
727.956	3209
728.071	3131
728.186	2713
728.301	2438
728.416	4006
728.531	3163
728.645	2793
728.760	3723
728.875	3072
728.990	2893
729.105	4033
729.220	3795
729.335	3284
729.449	3299
729.564	3247
729.679	1932
729.794	3814
729.908	3539
730.023	3794
730.138	3099
730.253	3683
730.367	3032
730.482	3914
730.596	3252
730.711	5240
730.826	6297
730.940	4581
731.055	3902
731.169	4811
731.284	4435
731.398	4671
731.513	5454
731.627	6244
731.742	7421
731.856	9043
731.970	9996
732.085	13702
732.199	20118
732.313	40215
732.428	118472
732.542	355782
732.656	165995
732.771	28460
732.885	16542
732.999	13351
733.113	13979
733.227	13440
733.342	12007
733.456	12253
733.570	10572
733.684	10780
733.798	9972
733.912	9925
734.026	10495
734.140	10035
734.254	9856
734.368	9427
734.482	10036
734.596	9337
734.710	8979
734.824	9535
734.938	9346
735.052	8826
735.166	9390
735.280	9488
735.393	8228
735.507	8280
735.621	7505
735.735	8120
735.849	8450
735.962	8964
736.076	8354
736.190	8153
736.303	8549
736.417	8435
736.531	7155
736.644	8319
736.758	7205
736.872	8044
736.985	7683
737.099	7769
737.212	7522
737.326	7447
737.439	8169
737.553	6979
737.666	7577
737.780	6916
737.893	7698
738.007	7112
738.120	7543
738.233	6988
738.347	7384
738.460	7293
738.573	7500
738.687	6081
738.800	6743
738.913	7451
739.026	6434
739.140	6900
739.253	6886
739.366	6875
739.479	6460
739.592	6264
739.705	5804
739.818	7120
739.932	5696
740.045	6293
740.158	6640
740.271	7235
740.384	5891
740.497	5503
740.610	6165
740.723	6140
740.836	6886
740.949	6370
741.062	7150
741.174	6167
741.287	6184
741.400	6265
741.513	5215
741.626	6111
741.739	5347
741.851	4747
741.964	6304
742.077	5786
742.189	6159
742.302	10150
742.415	5708
742.527	5203
742.640	5078
742.753	4331
742.865	4948
742.978	4851
743.090	5452
743.203	5979
743.316	4575
743.428	5367
743.541	5236
743.653	4799
743.766	5366
743.878	5929
743.990	5544
744.103	11939
744.215	11552
744.327	4616
744.440	5749
744.552	5235
744.664	4634
744.777	4962
744.889	4610
745.001	4922
745.113	4556
745.226	4447
745.338	4747
745.450	5545
745.562	4637
745.674	4745
745.786	4948
745.898	4105
746.010	4003
746.122	4514
746.234	4991
746.347	4775
746.459	5483
746.570	5939
746.682	11985
746.794	18122
746.906	6024
747.018	4897
747.130	4636
747.242	3429
747.354	4745
747.466	5188
747.577	4128
747.689	4697
747.801	4255
747.913	4163
748.024	3432
748.136	3918
748.248	3871
748.359	4540
748.471	4432
748.583	3554
748.694	3878
748.806	4334
748.918	3415
749.029	4658
749.141	4386
749.252	4167
749.364	3471
749.475	3770
749.587	2640
749.698	3305
749.809	3780
749.921	4060
750.032	3031
750.144	2786
750.255	3347
750.366	3601
750.478	2891
750.589	2577
750.700	2428
750.811	3308
750.923	3784
751.034	3275
751.145	3716
751.256	2606
751.367	2615
751.479	3412
751.590	2942
751.701	2736
751.812	2627
751.923	3432
752.034	4409
752.145	3056
752.256	3090
752.367	3566
752.478	2884
752.589	3412
752.700	2741
752.811	3828
752.922	2843
753.032	2746
753.143	3711
753.254	3345
753.365	4573
753.476	3779
753.586	2408
753.697	2810
753.808	2910
753.919	2642
754.029	2738
754.140	3665
754.251	2819
754.361	2830
754.472	3341
754.582	2825
754.693	2620
754.804	3451
754.914	2352
755.025	2964
755.135	2667
755.246	2934
755.356	2327
755.466	2631
755.577	2463
755.687	3158
755.798	2273
755.908	2774
756.018	2925
756.129	3397
756.239	2903
756.349	3096
756.460	2480
756.570	4085
756.680	2525
756.790	3046
756.900	2500
757.011	2666
757.121	2282
757.231	2558
757.341	2541
757.451	1386
757.561	2130
757.671	3460
757.781	2691
757.891	2990
758.001	2353
758.111	3299
758.221	3044
758.331	3705
758.441	3227
758.551	3022
758.661	4123
758.771	3563
758.880	2777
758.990	2528
759.100	2549
759.210	3506
759.320	3533
759.429	3099
759.539	4434
759.649	4294
759.758	5709
759.868	5100
759.978	4870
760.087	5461
760.197	4513
760.307	5446
760.416	4363
760.526	3460
760.635	4000
760.745	5706
760.854	5954
760.964	7314
761.073	6196
761.182	6654
761.292	4717
761.401	4451
761.511	2872
761.620	3205
761.729	2753
761.839	2754
761.948	2734
762.057	2385
762.166	2544
762.276	1754
762.385	4080
762.494	2282
762.603	1819
762.712	2830
762.822	2536
762.931	1779
763.040	1938
763.149	2883
763.258	2766
763.367	2366
763.476	1768
763.585	1932
763.694	2515
763.803	2155
763.912	2792
764.021	2302
764.130	2368
764.238	3274
764.347	1901
764.456	2426
764.565	1926
764.674	1946
764.783	439
764.891	1406
765.000	2735
765.109	2202
765.217	2548
765.326	3424
765.435	1874
765.543	2871
765.652	2581
765.761	2924
765.869	3903
765.978	4868
766.086	8337
766.195	15371
766.303	44848
766.412	150601
766.520	96483
766.629	15784
766.737	6631
766.846	4588
766.954	2378
767.062	3713
767.171	2229
767.279	2544
767.387	1191
767.496	2069
767.604	1688
767.712	1721
767.820	1510
767.928	2179
768.037	1123
768.145	1852
768.253	1772
768.361	1147
768.469	1319
768.577	1734
768.685	3278
768.793	1882
768.901	930
769.009	3248
769.117	1886
769.225	2437
769.333	2742
769.441	4530
769.549	7371
769.657	16154
769.765	59184
769.873	119024
769.981	25032
770.088	4512
770.196	2955
770.304	3429
770.412	3308
770.519	2546
770.627	3177
770.735	2934
770.842	2049
770.950	2586
771.058	2981
771.165	4199
771.273	4502
771.380	4220
771.488	6536
771.595	6787
771.703	6128
771.810	6078
771.918	6138
772.025	7436
772.133	7714
772.240	7131
772.348	8798
772.455	8036
772.562	7945
772.670	6587
772.777	7420
772.884	7549
772.991	6794
773.099	8280
773.206	6493
773.313	7399
773.420	7517
773.528	6604
773.635	6376
773.742	7655
773.849	6411
773.956	6841
774.063	6392
774.170	6546
774.277	6607
774.384	5558
774.491	6058
774.598	6309
774.705	5914
774.812	6236
774.919	5846
775.026	6339
775.133	5646
775.239	6186
775.346	5145
775.453	6128
775.560	5274
775.667	6009
775.773	4925
775.880	6167
775.987	5405
776.093	6770
776.200	6179
776.307	4329
776.413	5827
776.520	6393
776.627	5334
776.733	5692
776.840	5560
776.946	11568
777.053	19958
777.159	30242
777.266	15619
777.372	27905
777.478	19240
777.585	8780
777.691	4654
777.798	6126
777.904	6268
778.010	4368
778.117	5129
778.223	4725
778.329	5202
778.435	3879
778.542	5644
778.648	4396
778.754	3609
778.860	4948
778.966	4255
779.072	4171
779.178	4459
779.284	3890
779.391	4044
779.497	3660
779.603	6253
779.708	2659
779.815	4082
779.920	5275
780.026	3701
780.132	4006
780.238	4146
780.344	3416
780.450	5299
780.556	2931
780.661	3322
780.767	5216
780.873	2111
780.979	3950
781.085	3494
781.190	3566
781.296	3509
781.402	4092
781.507	3597
781.613	2459
781.719	3175
781.824	3995
781.930	3863
782.035	3817
782.141	4334
782.246	2040
782.352	2706
782.457	3186
782.563	2839
782.668	3007
782.773	2281
782.879	1833
782.984	3646
783.090	3641
783.195	3470
783.300	4216
783.405	2910
783.511	2617
783.616	3823
783.721	2844
783.826	3483
783.932	3794
784.037	2753
784.142	2792
784.247	2020
784.352	3324
784.457	2705
784.562	4285
784.667	3059
784.772	2002
784.877	1597
784.982	4343
785.087	2475
785.192	3066
785.297	1725
785.402	2614
785.507	2339
785.611	3478
785.716	1313
785.821	2311
785.926	2799
786.031	2010
786.135	1900
786.240	3269
786.345	1045
786.450	1901
786.554	2218
786.659	1967
786.763	1513
786.868	2153
786.973	2765
787.077	1629
787.182	1752
787.286	2972
787.391	3095
787.495	889
787.600	1088
787.704	2179
787.809	1815
787.913	2013
788.017	2413
788.122	2812
788.226	3237
788.330	1193
788.435	1393
788.539	2920
788.643	1175
788.747	1073
788.852	1163
788.956	1224
789.060	2246
789.164	2291
789.268	1578
789.372	3074
789.476	2381
789.580	1939
789.684	1810
789.788	3037
789.892	2386
789.996	1892
790.100	1574
790.204	1175
790.308	2312
790.412	983
790.516	162
790.620	994
790.724	2853
790.828	1803
790.931	-352
791.035	2898
791.139	1319
791.242	1509
791.346	2259
791.450	1780
791.554	1212
791.657	864
791.761	1740
791.864	2529
791.968	1700
792.072	1472
792.175	1531
792.279	1384
792.382	849
792.486	1473
792.589	1192
792.693	1977
792.796	-29
792.899	2238
793.003	1906
793.106	-123
793.209	896
793.313	2219
793.416	-1092
793.519	2237
793.623	1963
793.726	1291
793.829	57
793.932	911
794.035	492
794.138	2809
794.242	2056
794.345	-46
794.448	-52
794.551	-520
794.654	3199
794.757	3350
794.860	1588
794.963	1632
795.066	738
795.169	1706
795.272	101
795.375	2350
795.477	1116
795.580	1707
795.683	5
795.786	2197
795.889	-154
795.991	1443
796.094	1514
796.197	236
796.300	2583
796.402	994
796.505	49
796.608	748
796.710	1881
796.813	2160
796.915	1941
797.018	1860
797.120	2038
797.223	-273
797.326	2184
797.428	932
797.530	463
797.633	778
797.735	1684
797.838	672
797.940	1425
798.042	863
798.145	19
798.247	1680
798.349	-315
798.452	2174
798.554	746
798.656	1458
798.758	2905
798.860	1571
798.962	827
799.065	645
799.167	-143
799.269	1879
799.371	2112
799.473	2762
799.575	788
799.677	116
799.779	1798
799.881	-212
799.983	2050
800.085	1489
800.187	1145
800.289	241
800.390	541
800.492	1233
800.594	1834
800.696	883
800.798	992
800.899	851
801.001	919
801.103	1917
801.205	975
801.306	1664
801.408	722
801.509	1018
801.611	887
801.713	1831
801.814	215
801.916	-104
802.017	-136
802.119	-174
802.220	602
802.322	-445
802.423	1627
802.525	-591
802.626	666
802.727	1082
802.829	1297
802.930	-1432
803.031	1131
803.133	211
803.234	548
803.335	1063
803.436	-162
803.538	697
803.639	167
803.740	977
803.841	-769
803.942	1595
804.043	1001
804.144	57
804.245	135
804.346	-397
804.447	-578
804.548	-85
804.649	773
804.750	147
804.851	-13
804.952	971
805.053	148
805.154	506
805.255	1469
805.355	-178
805.456	50
805.557	66
805.658	-363
805.758	619
805.859	1326
805.960	793
806.061	-56
806.161	-268
806.262	524
806.362	6
806.463	-310
806.564	1278
806.664	279
806.765	-94
806.865	572
806.966	457
807.066	-558
807.166	1222
807.267	1117
807.367	-477
807.468	942
807.568	-502
807.668	1230
807.769	1039
807.869	-547
807.969	487
808.069	114
808.170	738
808.270	-327
808.370	946
808.470	163
808.570	-780
808.670	534
808.770	10
808.870	-363
808.970	568
809.070	-62
809.170	-344
809.271	622
809.370	1092
809.470	958
809.570	399
809.670	-740
809.770	163
809.870	947
809.970	355
810.070	779
810.169	1301
810.269	-547
810.369	1263
810.469	12
810.568	140
810.668	105
810.768	-401
810.867	-220
810.967	-409
811.066	113
811.166	686
811.265	900
811.365	1025
811.464	-66
811.564	248
811.663	-180
811.763	-1111
811.862	-6
811.962	533
812.061	646
812.160	633
812.260	282
812.359	452
812.458	342
812.557	940
812.657	177
812.756	173
812.855	1054
812.954	13
813.053	488
813.153	584
813.252	-350
813.351	1212
813.450	-195
813.549	-464
813.648	948
813.747	588
813.846	853
813.945	-939
814.044	668
814.143	107
814.242	777
814.341	-373
814.439	-133
814.538	990
814.637	197
814.736	1270
814.835	1113
814.933	867
815.032	1462
815.131	2204
815.229	4665
815.328	5850
815.427	4961
815.525	4604
815.624	4385
815.722	4134
815.821	3332
815.919	4099
816.018	3287
816.116	4371
816.215	4320
816.313	4704
816.412	5216
816.510	5013
816.609	7266
816.707	7087
816.805	6158
816.904	5411
817.002	5787
817.100	6026
817.198	6604
817.296	5059
817.395	5892
817.493	5032
817.591	4625
817.689	4921
817.787	4481
817.885	4961
817.983	4354
818.081	4922
818.179	5453
818.277	8535
818.375	7797
818.473	7499
818.571	5575
818.669	6559
818.767	8166
818.865	5157
818.963	3729
819.061	4725
819.158	4314
819.256	6516
819.354	5835
819.452	9274
819.549	5490
819.647	5588
819.745	3920
819.842	4531
819.940	4253
820.038	4054
820.135	3625
820.233	5439
820.330	3840
820.428	3853
820.525	4617
820.623	3190
820.720	3312
820.818	4784
820.915	5455
821.012	4590
821.110	3374
821.207	5185
821.304	3467
821.402	5593
821.499	9158
821.596	10654
821.693	4510
821.791	5207
821.888	4186
821.985	5065
822.082	2491
822.179	5794
822.276	6166
822.373	3424
822.470	3642
822.567	3566
822.664	2838
822.761	3654
822.858	2991
822.955	3003
823.052	2163
823.149	2850
823.246	3822
823.343	2092
823.440	3149
823.536	3975
823.633	3335
823.730	3027
823.827	3899
823.923	2679
824.020	3908
824.117	5235
824.213	4570
824.310	3390
824.407	2249
824.503	4151
824.600	2070
824.696	2486
824.793	4748
824.889	3328
824.986	2739
825.082	1425
825.179	2187
825.275	3155
825.371	3749
825.468	2067
825.564	235
825.660	3397
825.757	4207
825.853	2824
825.949	1128
826.045	1614
826.142	2605
826.238	3066
826.334	3389
826.430	1268
826.526	1738
826.622	1261
826.718	2946
826.814	2667
826.910	2407
827.006	356
827.102	1453
827.198	3461
827.294	2511
827.390	3148
827.486	1668
827.582	1210
827.678	1412
827.774	3500
827.869	1184
827.965	2163
828.061	749
828.157	2643
828.252	2571
828.348	2386
828.444	1443
828.539	1605
828.635	2838
828.731	2076
828.826	1270
828.922	3241
829.017	2878
829.113	3188
829.208	1730
829.304	2436
829.399	3705
829.495	2439
829.590	1985
829.685	2041
829.781	2788
829.876	2308
829.971	1038
830.066	1409
830.162	2063
830.257	3781
830.352	1732
830.447	1475
830.543	1078
830.638	1340
830.733	3172
830.828	1427
830.923	2401
831.018	2155
831.113	2988
831.208	1244
831.303	949
831.398	532
831.493	1963
831.588	3105
831.683	709
831.778	680
831.873	699
831.967	3087
832.062	1621
832.157	1429
832.252	2159
832.346	893
832.441	2417
832.536	1436
832.631	2529
832.725	428
832.820	1525
832.914	1207
833.009	1039
833.104	427
833.198	1171
833.293	741
833.387	1710
833.482	1734
833.576	1717
833.670	984
833.765	1037
833.859	2549
833.954	1420
834.048	1072
834.142	1331
834.237	916
834.331	580
834.425	1132
834.519	52
834.613	1329
834.708	506
834.802	2183
834.896	885
834.990	514
835.084	941
835.178	652
835.272	894
835.366	1188
835.460	2013
835.554	849
835.648	810
835.742	722
835.836	665
835.930	208
836.024	1608
836.117	1241
836.211	132
836.305	542
836.399	268
836.493	-33
836.586	1308
836.680	1045
836.774	1014
836.867	2175
836.961	-448
837.055	-82
837.148	910
837.242	1025
837.335	1158
837.429	1223
837.522	-49
837.616	405
837.709	990
837.803	1003
837.896	1016
837.989	854
838.083	48
838.176	914
838.269	-468
838.363	1544
838.456	961
838.549	1367
838.642	-260
838.735	53
838.829	1097
838.922	583
839.015	-35
839.108	-96
839.201	973
839.294	813
839.387	926
839.480	21
839.573	596
839.666	-337
839.759	271
839.852	1214
839.945	1035
840.038	264
840.131	7
840.223	244
840.316	58
840.409	1632
840.502	351
840.594	2071
840.687	-790
840.780	826
840.873	-456
840.965	461
841.058	1176
841.150	1541
841.243	-660
841.336	300
841.428	66
841.521	522
841.613	-135
841.706	1551
841.798	162
841.890	270
841.983	-724
842.075	1243
842.167	-191
842.260	453
842.352	1190
842.444	109
842.537	-331
842.629	327
842.721	352
842.813	99
842.905	-137
842.997	1675
843.090	788
843.182	763
843.274	-1067
843.366	600
843.458	287
843.550	1560
843.642	-5
843.734	417
843.826	-158
843.918	-333
844.009	491
844.101	57
844.193	579
844.285	899
844.377	2147
844.469	3372
844.560	4644
844.652	2301
844.744	205
844.835	-284
844.927	430
845.019	161
845.110	759
845.202	1218
845.293	-252
845.385	-604
845.476	446
845.568	1513
845.659	-543
845.751	1230
845.842	226
845.934	6
846.025	220
846.116	177
846.208	-416
846.299	-22
846.390	-38
846.482	229
846.573	-615
846.664	248
846.755	-21
846.846	318
846.937	-1563
847.029	366
847.120	-741
847.211	-194
847.302	1587
847.393	-639
847.484	670
847.575	-761
847.666	-1163
847.757	-392
847.847	81
847.938	1605
848.029	330
848.120	-867
848.211	-258
848.302	-286
848.392	-219
848.483	873
848.574	-1109
848.664	330
848.755	842
848.846	595
848.936	531
849.027	151
849.118	253
849.208	757
849.299	2821
849.389	4354
849.480	12168
849.570	22970
849.661	49160
849.751	70806
849.841	20416
849.932	3240
850.022	622
850.112	1660
850.203	299
850.293	292
850.383	522
850.474	249
850.564	-333
850.654	367
850.744	11
850.834	-386
850.924	291
851.014	883
851.104	1148
851.194	-88
851.284	-180
851.374	257
851.464	-523
851.554	757
851.644	272
851.734	270
851.824	-234
851.914	-192
852.004	488
852.094	564
852.183	-45
852.273	318
852.363	-598
852.452	-24
852.542	911
852.632	-439
852.721	114
852.811	625
852.901	1014
852.990	806
853.080	1066
853.169	923
853.259	1917
853.348	1705
853.438	2947
853.527	4259
853.617	6891
853.706	13447
853.795	24627
853.885	51150
853.974	91436
854.063	165968
854.152	203731
854.242	78278
854.331	19038
854.420	9691
854.509	5667
854.598	5839
854.687	2656
854.777	2458
854.866	1367
854.955	1826
855.044	363
855.133	777
855.222	-253
855.311	551
855.400	554
855.488	648
855.577	262
855.666	-182
855.755	326
855.844	627
855.933	-407
856.021	1179
856.110	357
856.199	108
856.288	-134
856.376	292
856.465	-65
856.554	805
856.642	259
856.731	727
856.819	548
856.908	392
856.996	-1125
857.085	-392
857.173	-851
857.262	-180
857.350	-153
857.438	-779
857.527	81
857.615	-536
857.703	372
857.792	-87
857.880	-677
857.968	-499
858.056	392
858.145	469
858.233	-941
858.321	-773
858.409	-131
858.497	-99
858.585	-167
858.673	-112
858.761	-887
858.849	-373
858.937	-380
859.025	-74
859.113	415
859.201	-431
859.289	1931
859.377	412
859.465	-527
859.552	285
859.640	-1251
859.728	-434
859.816	-241
859.903	577
859.991	-1265
860.079	116
860.166	-898
860.254	597
860.342	22
860.429	380
860.517	-56
860.604	31
860.692	-376
860.779	-1068
860.867	-84
860.954	771
861.042	52
861.129	521
861.216	495
861.304	-305
861.391	-450
861.478	460
861.565	35
861.653	691
861.740	-558
861.827	-538
861.914	305
862.001	93
862.089	17
862.176	-108
862.263	166
862.350	438
862.437	753
862.524	-737
862.611	786
862.698	1708
862.785	1895
862.871	1345
862.958	588
863.045	221
863.132	680
863.219	-129
863.306	-901
863.392	933
863.479	-468
863.566	651
863.652	170
863.739	53
863.826	-4
863.912	79
863.999	351
864.086	-49
864.172	-225
864.259	1143
864.345	771
864.432	1289
864.518	448
864.604	1189
864.691	738
864.777	1323
864.863	1290
864.950	2840
865.036	4429
865.122	8015
865.209	8932
865.295	7187
865.381	7547
865.467	8142
865.553	8849
865.639	11469
865.726	16675
865.812	30889
865.898	53092
865.984	76359
866.070	136582
866.156	123822
866.242	37486
866.328	14010
866.414	8695
866.499	8106
866.585	6409
866.671	6683
866.757	6445
866.843	5760
866.928	5132
867.014	5237
867.100	5276
867.186	4382
867.271	4658
867.357	4656
867.442	4838
867.528	4576
867.614	5793
867.699	6474
867.785	6777
867.870	9250
867.956	8285
868.041	6608
868.127	6295
868.212	6776
868.297	5981
868.383	4430
868.468	4917
868.553	5448
868.639	3417
868.724	3865
868.809	4099
868.894	4306
868.979	4272
869.065	3990
869.150	3041
869.235	3920
869.320	3446
869.405	3232
869.490	4243
869.575	3288
869.660	2759
869.745	5225
869.830	3685
869.915	3185
870.000	3793
870.085	4025
870.169	4851
870.254	5805
870.339	2503
870.424	3615
870.509	3173
870.593	5326
870.678	4815
870.763	3453
870.847	3379
870.932	5169
871.016	4909
871.101	3356
871.186	3348
871.270	4893
871.355	2247
871.439	3608
871.523	4287
871.608	3234
871.692	2765
871.777	4912
871.861	3796
871.945	2588
872.030	3272
872.114	2932
872.198	2510
872.282	2860
872.367	2356
872.451	2421
872.535	3304
872.619	2844
872.703	3027
872.787	3260
872.871	2748
872.955	2389
873.039	1311
873.123	3314
873.207	3573
873.291	1992
873.375	2004
873.459	3865
873.543	2633
873.627	2463
873.711	1478
873.794	3007
873.878	1976
873.962	1700
874.045	1630
874.129	1898
874.137	1983
874.213	2835
874.245	2615
874.296	2253
874.352	2229
874.380	2222
874.460	1853
874.464	1837
874.547	2138
874.568	2326
874.631	2887
874.676	2860
874.714	2819
874.784	2953
874.798	2989
874.881	2359
874.892	2312
874.965	1998
874.999	2165
875.048	2398
875.107	1868
875.131	1619
875.215	1363
875.215	1362
875.298	666
875.323	1133
875.381	2193
875.430	3198
875.465	3887
875.538	2522
875.548	2323
875.631	1427
875.646	1395
875.714	1351
875.753	2028
875.798	2875
875.861	2861
875.881	2781
875.964	2192
875.968	2154
876.047	1765
876.076	1983
876.130	2351
876.183	2038
876.213	1836
876.291	2484
876.296	2519
876.379	1733
876.398	1711
876.462	1777
876.506	1411
876.545	1100
876.613	1979
876.628	2166
876.711	1574
876.721	1686
876.794	2754
876.828	2673
876.877	2251
876.935	2061
876.960	2091
877.043	1699
877.043	1701
877.125	2479
877.150	2614
877.208	2859
877.258	2132
877.291	1603
877.365	1386
877.374	1375
877.456	1567
877.472	1457
877.539	1114
877.579	1924
877.622	2812
877.687	2829
877.704	2786
877.787	2651
877.794	2614
877.869	2468
877.901	2570
877.952	2247
878.008	1206
878.034	968
878.115	1781
878.117	1798
878.199	1270
878.222	1530
878.282	2402
878.329	3018
878.364	3235
878.437	2770
878.447	2703
878.529	1346
878.544	1376
878.611	1626
878.651	1809
878.694	2388
878.758	2650
878.776	2501
878.858	2610
878.865	2540
878.941	1933
878.972	1718
879.023	1563
879.078	1845
879.105	2051
879.185	2385
879.187	2390
879.269	3091
879.292	3040
879.351	2924
879.399	2820
879.433	2508
879.506	2194
879.516	2260
879.598	1865
879.613	1913
879.680	1813
879.720	2209
879.762	2852
879.827	2640
879.844	2433
879.926	2195
879.933	2239
880.007	3266
880.040	3245
880.089	3024
880.147	3944
880.171	4456
880.253	6893
880.254	6899
880.335	7797
880.360	8469
880.417	11587
880.467	16337
880.499	19029
880.574	19607
880.580	19211
880.662	8322
880.680	6903
880.744	3504
880.787	2480
880.825	2627
880.893	3182
880.907	3130
880.989	2909
881.000	2863
881.070	3383
881.106	3174
881.152	2420
881.213	1844
881.233	1846
881.315	2613
881.319	2621
881.396	2736
881.426	2659
881.478	2854
881.532	3804
881.559	4045
881.639	3183
881.641	3158
881.722	2958
881.745	2626
881.803	2739
881.852	3309
881.885	3280
881.958	2590
881.966	2555
882.047	2671
882.064	2644
882.129	2594
882.171	2748
882.210	2703
882.277	1883
882.291	1840
882.372	2681
882.383	2802
882.454	4005
882.489	3826
882.535	3035
882.596	2948
882.616	3018
882.697	3112
882.702	3093
882.778	2282
882.808	2031
882.859	1867
882.914	1723
882.940	1806
883.020	2490
883.021	2502
883.102	2520
883.127	2808
883.183	3830
883.233	4040
883.264	3448
883.339	2290
883.345	2263
883.426	1833
883.445	1798
883.507	2161
883.551	2629
883.587	3214
883.657	3616
883.668	3578
883.749	3635
883.763	3584
883.830	2886
883.869	2709
883.910	2875
883.975	2800
883.991	2813
884.072	2680
884.081	2755
884.152	3784
884.187	3777
884.233	3877
884.292	4388
884.314	4012
884.394	2207
884.398	2124
884.475	1393
884.504	1141
884.555	1566
884.610	1910
884.636	2097
884.716	2904
884.716	2921
884.797	4218
884.821	4480
884.877	4029
884.927	3394
884.958	3030
885.033	2481
885.038	2461
885.118	2165
885.139	2017
885.199	1989
885.244	2110
885.279	2587
885.350	3547
885.359	3716
885.439	5034
885.456	5210
885.520	4157
885.561	3425
885.600	2850
885.667	2315
885.680	2525
885.760	3438
885.773	3595
885.840	2495
885.878	1833
885.920	2113
885.984	2511
886.000	2652
886.080	3305
886.089	3366
886.160	3684
886.195	3761
886.240	3489
886.300	3202
886.320	3369
886.400	4102
886.406	4107
886.480	2492
886.511	2026
886.560	2787
886.616	3476
886.640	3261
886.720	2394
886.722	2368
886.800	2911
886.827	3088
886.879	3236
886.932	3254
886.959	3620
887.038	4936
887.039	4934
887.119	3338
887.143	2952
887.198	3750
887.248	4354
887.278	3965
887.354	2911
887.358	2948
887.437	3591
887.459	3780
887.517	3844
887.564	3688
887.596	3395
887.669	2665
887.676	2640
887.755	2547
887.774	2464
887.835	2579
887.880	2699
887.914	2771
887.985	2703
887.994	2900
888.073	4823
888.090	5183
888.153	5526
888.195	5643
888.232	4856
888.300	3514
888.311	3433
888.391	2808
888.405	2666
888.470	2797
888.510	2845
888.549	3095
888.615	3638
888.628	3847
888.708	4916
888.720	5074
888.787	4379
888.825	3920
888.866	3430
888.930	2726
888.945	2878
889.024	3615
889.035	3706
889.103	4265
889.140	4512
889.182	3798
889.245	2779
889.261	3044
889.340	4269
889.349	4395
889.419	3563
889.454	3147
889.498	2955
889.559	2665
889.577	2976
889.656	4315
889.664	4438
889.735	4943
889.768	5160
889.814	4243
889.873	2998
889.978	3509
890.083	4065
890.187	4883
890.292	4931
890.397	3893
890.501	3264
890.606	2624
890.710	3856
890.815	5548
890.919	3891
891.024	3639
891.128	3244
891.233	2562
891.337	5503
891.442	4448
891.546	3634
891.650	3664
891.755	2624
891.859	4925
891.963	5152
892.068	4446
892.172	1580
892.276	2079
892.380	3402
892.484	4374
892.589	5204
892.693	3647
892.797	2273
892.901	2334
893.005	3235
893.109	5203
893.213	5887
893.317	4534
893.421	2134
893.525	2436
893.629	2282
893.733	4889
893.837	4268
893.941	3038
894.045	2988
894.148	2000
894.252	2872
894.356	4913
894.460	4911
894.564	3666
894.667	2876
894.771	1971
894.875	1793
894.978	3238
895.082	3739
895.186	4359
895.289	3244
895.393	2875
895.496	3731
895.600	3672
895.703	2105
895.807	3188
895.910	2424
896.014	3726
896.117	2886
896.221	3765
896.324	4131
896.427	3581
896.531	1522
896.634	3474
896.737	2655
896.840	3311
896.944	3513
897.047	4403
897.150	3749
897.253	1713
897.356	2200
897.460	1687
897.563	2502
897.666	4603
897.769	3532
897.872	2117
897.975	2610
898.078	2884
898.181	2254
898.284	2382
898.387	3452
898.490	4018
898.593	2555
898.695	1768
898.798	2543
898.901	2954
899.004	2854
899.107	3550
899.209	1783
899.312	4235
899.415	2514
899.518	2427
899.620	2109
899.723	2061
899.826	2975
899.928	2690
900.031	2323
900.133	3614
900.236	2827
900.338	1943
900.441	1395
900.543	3361
900.646	2394
900.748	2925
900.851	3521
900.953	2595
901.055	2063
901.158	2374
901.260	1652
901.362	2804
901.465	1679
901.567	2860
901.669	3734
901.771	2979
901.873	1950
901.976	3502
902.078	2416
902.180	2484
902.282	1964
902.384	2382
902.486	3161
902.588	4227
902.690	1969
902.792	2635
902.894	4089
902.996	4295
903.098	2286
903.200	2878
903.302	2230
903.404	2292
903.505	1385
903.607	3116
903.709	3581
903.811	4629
903.913	1816
904.014	2235
904.116	1598
904.218	2613
904.319	3073
904.421	5349
904.523	6784
904.624	3867
904.726	3621
904.827	3390
904.929	4287
905.030	3951
905.132	4136
905.233	3503
905.335	725
905.436	2132
905.537	2041
905.639	2241
905.740	2703
905.841	4283
905.943	3927
906.044	4597
906.145	2838
906.247	2079
906.348	2251
906.449	2416
906.550	3590
906.651	1862
906.752	1927
906.854	2035
906.955	1752
907.056	2901
907.157	3116
907.258	3799
907.359	1828
907.460	1999
907.561	1362
907.662	2391
907.762	1680
907.863	2827
907.964	3089
908.065	2789
908.166	1164
908.267	2703
908.367	1537
908.468	1947
908.569	2472
908.670	2983
908.770	1715
908.871	2996
908.971	2115
909.072	2486
909.173	2086
909.273	2181
909.374	2797
909.474	3298
909.575	2687
909.675	2334
909.776	1999
909.876	2762
909.977	2135
910.077	2468
910.177	3338
910.278	2802
910.378	935
910.478	2043
910.579	2136
910.679	2480
910.779	2695
910.879	3043
910.980	2826
911.080	2879
911.180	1692
911.280	1638
911.380	594
911.480	1669
911.580	1403
911.680	2845
911.780	2448
911.880	3202
911.980	1699
912.080	1374
912.180	1845
912.280	2338
912.380	2120
912.480	1390
912.580	1143
912.679	1746
912.779	2444
912.879	2410
912.979	1434
913.078	1702
913.178	1022
913.278	1135
913.377	1285
913.477	1651
913.577	1557
913.676	3332
913.776	2743
913.875	1950
913.975	1919
914.074	1746
914.174	1960
914.273	1599
914.373	1845
914.472	2122
914.572	1510
914.671	1542
914.770	1489
914.870	1975
914.969	1570
915.068	3052
915.167	2912
915.267	2077
915.366	2614
915.465	2712
915.564	2001
915.663	2094
915.763	2460
915.862	3630
915.961	2672
916.060	1856
916.159	1105
916.258	1436
916.357	1920
916.456	2541
916.555	2281
916.654	1957
916.752	2933
916.851	3050
916.950	2025
917.049	1730
917.148	1636
917.247	2170
917.345	1085
917.444	2194
917.543	1948
917.642	2015
917.740	2648
917.839	3415
917.937	2868
918.036	4530
918.135	2146
918.233	2069
918.332	1317
918.430	1873
918.529	2006
918.627	2753
918.726	2891
918.824	2756
918.923	2070
919.021	2700
919.119	1504
919.218	2426
919.316	1838
919.414	1974
919.512	2711
919.611	3289
919.709	2868
919.807	3467
919.905	4214
920.003	4284
920.102	3713
920.200	3297
920.298	3967
920.396	3608
920.494	2659
920.592	3306
920.690	3569
920.788	3535
920.886	3918
920.984	4221
921.082	3449
921.180	5586
921.277	4420
921.375	5393
921.473	6704
921.571	6863
921.669	5339
921.766	6032
921.864	5510
921.962	6985
922.060	5691
922.157	6219
922.255	6542
922.352	6458
922.450	6981
922.548	7994
922.645	7546
922.743	9982
922.840	16577
922.938	19739
923.035	16286
923.133	16217
923.230	18424
923.327	22345
923.425	20033
923.522	20363
923.619	18640
923.717	18516
923.814	16250
923.911	15661
924.008	16325
924.106	15731
924.203	15415
924.300	17252
924.397	16037
924.494	16712
924.591	16172
924.688	16579
924.786	16252
924.883	16866
924.979	15545
925.077	15838
925.173	15154
925.270	15427
925.367	15061
925.464	17132
925.561	17692
925.658	18100
925.755	14293
925.852	18136
925.948	16745
926.045	19144
926.142	18649
926.239	21764
926.335	16684
926.432	17974
926.529	20340
926.625	22094
926.722	16856
926.818	14847
926.915	16256
927.011	15589
927.108	15224
927.204	15339
927.301	12868
927.397	16995
927.494	17783
927.590	11241
927.687	11965
927.783	17930
927.879	15739
927.976	13753
928.072	11563
928.168	15534
928.264	14495
928.361	13480
928.457	14962
928.553	12974
928.649	13180
928.745	14209
928.841	11742
928.937	12482
929.033	13546
929.129	13380
929.225	15101
929.321	13348
929.417	11373
929.513	13796
929.609	11334
929.705	11508
929.801	13676
929.897	11522
929.993	11414
930.089	13755
930.184	11739
930.280	13772
930.376	16340
930.471	12064
930.567	9760
930.663	12476
930.758	10462
930.854	12160
930.950	11080
931.045	9975
931.141	10549
931.236	13975
931.332	11061
931.427	9769
931.523	13073
931.618	12600
931.714	7450
931.809	10474
931.905	12654
932.000	8453
932.095	8052
932.191	13746
932.286	14139
932.381	11955
932.476	7385
932.572	11954
932.667	8584
932.762	9913
932.857	10760
932.952	13857
933.047	10622
933.142	8240
933.237	10535
933.332	11236
933.427	11928
933.522	10193
933.617	8320
933.712	9582
933.807	11667
933.902	14134
933.997	13546
934.092	9146
934.187	9488
934.282	11153
934.376	10492
934.471	11956
934.566	8005
934.661	8514
934.755	10871
934.850	12063
934.945	9528
935.039	8766
935.134	6939
935.228	9563
935.323	14714
935.417	8645
935.512	6880
935.606	7051
935.701	10172
935.795	10759
935.890	9614
935.984	8059
936.079	6186
936.173	9976
936.267	8200
936.362	7406
936.456	9982
936.550	12321
936.644	9750
936.738	7345
936.833	7905
936.927	6311
937.021	7572
937.115	9374
937.209	9438
937.303	8734
937.397	6480
937.491	8393
937.585	9959
937.679	9598
937.773	6695
937.867	7148
937.961	6717
938.055	11246
938.149	10111
938.243	6101
938.337	6603
938.430	8415
938.524	13790
938.618	14880
938.712	10250
938.805	9052
938.899	10670
938.993	13322
939.086	10987
939.180	14838
939.274	15357
939.367	10951
939.461	9584
939.554	7666
939.648	7551
939.741	7221
939.835	7774
939.928	11010
940.022	8829
940.115	7718
940.208	8459
940.302	11277
940.395	10491
940.488	7573
940.582	7131
940.675	5550
940.768	5077
940.861	8649
940.954	9924
941.048	6087
941.141	4413
941.234	6803
941.327	6883
941.420	8089
941.513	8616
941.606	6148
941.699	5956
941.792	8362
941.885	7738
941.978	8450
942.071	7846
942.164	6157
942.257	5491
942.349	6513
942.442	7687
942.535	5573
942.628	5470
942.721	5896
942.813	6022
942.906	8035
942.999	6678
943.091	5893
943.184	6044
943.277	6586
943.369	4378
943.462	3675
943.554	6511
943.647	6104
943.739	8111
943.832	8539
943.924	2990
944.017	4595
944.109	4644
944.201	5588
944.294	4829
944.386	7028
944.478	4914
944.571	4723
944.663	5711
944.755	6408
944.847	6967
944.940	6382
945.032	3994
945.124	4022
945.216	6051
945.308	5987
945.400	5219
945.492	5452
945.584	6495
945.676	7697
945.768	6472
945.860	7547
945.952	8330
946.044	7797
946.136	5615
946.228	5541
946.320	5178
946.412	6181
946.503	7610
946.595	7743
946.687	4607
946.779	3953
946.870	4356
946.962	4462
947.054	4698
947.145	5222
947.237	4121
947.329	5788
947.420	5669
947.512	5070
947.603	3124
947.695	5075
947.786	3830
947.878	4283
947.969	6853
948.061	6582
948.152	5278
948.243	3806
948.335	3571
948.426	4349
948.517	5083
948.609	6838
948.700	4460
948.791	5064
948.882	3567
948.973	2852
949.065	4227
949.156	5615
949.247	3107
949.338	5453
949.429	2693
949.520	3948
949.611	3960
949.702	5961
949.793	4186
949.884	5548
949.975	4326
950.066	3739
950.157	3535
950.247	3634
950.338	3821
950.429	3188
950.520	3901
950.611	3878
950.701	4049
950.792	5960
950.883	5163
950.973	5081
951.064	4451
951.155	4627
951.245	4903
951.336	5423
951.427	4886
951.517	6682
951.608	4881
951.698	3933
951.788	2962
951.879	3047
951.969	3169
952.060	2914
952.150	4799
952.240	5233
952.331	3854
952.421	5830
952.511	3155
952.602	3978
952.692	2917
952.782	3112
952.872	3099
952.962	5117
953.052	3479
953.143	3355
953.233	2788
953.323	3893
953.413	3955
953.503	5680
953.593	4480
953.683	4028
953.773	2752
953.863	3321
953.953	3196
954.042	3513
954.132	4384
954.222	4431
954.312	2790
954.402	3938
954.492	3242
954.581	3875
954.671	3189
954.761	2608
954.850	4567
954.940	2415
955.030	1773
955.119	2373
955.209	2665
955.298	3433
955.388	4354
955.477	4177
955.567	2483
955.656	2966
955.746	2430
955.835	3300
955.925	2692
956.014	3694
956.103	4539
956.193	6114
956.282	4973
956.371	3595
956.461	4103
956.550	4154
956.639	2833
956.728	3219
956.817	2864
956.906	2993
956.995	4419
957.085	3233
957.174	3296
957.263	3467
957.352	2707
957.441	3105
957.530	3058
957.619	2769
957.708	2341
957.796	3248
957.885	2916
957.974	3269
958.063	3617
958.152	2349
958.241	2077
958.329	2409
958.418	3047
958.507	2812
958.596	3820
958.684	3053
958.773	4222
958.861	2631
958.950	2654
959.039	1632
959.127	1605
959.216	3937
959.304	2364
959.393	3366
959.481	3839
959.570	2213
959.658	2014
959.746	2933
959.835	2615
959.923	2147
960.011	1473
960.100	3222
960.188	3078
960.276	3489
960.365	2092
960.453	2204
960.541	1393
960.629	2889
960.717	1578
960.805	834
960.893	2205
960.981	3003
961.069	4354
961.158	4934
961.245	4686
961.333	4394
961.421	2302
961.509	2844
961.597	2242
961.685	3479
961.773	2880
961.861	3086
961.949	3446
962.036	2474
962.124	2083
962.212	2075
962.299	1590
962.387	2753
962.475	2426
962.562	2194
962.650	3582
962.738	2046
962.825	1890
962.913	2336
963.000	1662
963.088	3622
963.175	2221
963.263	2409
963.350	1914
963.438	2651
963.525	2098
963.612	3236
963.700	1936
963.787	2901
963.874	2769
963.962	2571
964.049	1987
964.136	2412
964.223	1592
964.310	2243
964.398	2133
964.485	2431
964.572	2079
964.659	3311
964.746	1642
964.833	1541
964.920	2020
965.007	2799
965.094	2349
965.181	2342
965.268	2424
965.355	2871
965.441	1739
965.528	1573
965.615	2571
965.702	2596
965.789	1673
965.875	3304
965.962	2840
966.049	1830
966.136	3537
966.222	3429
966.309	2735
966.395	3158
966.482	2996
966.569	2211
966.655	3191
966.742	2781
966.828	2599
966.915	2196
967.001	1596
967.087	1437
967.174	2247
967.260	1557
967.347	1551
967.433	1138
967.519	1702
967.605	1874
967.692	1928
967.778	2774
967.864	1814
967.950	2654
968.036	1201
968.123	2304
968.209	2381
968.295	1534
968.381	2565
968.467	1979
968.553	631
968.639	3242
968.725	1800
968.811	3228
968.897	2133
968.983	2607
969.069	1443
969.154	2546
969.240	1676
969.326	1830
969.412	1687
969.497	1590
969.583	620
969.669	3095
969.755	1784
969.840	1825
969.926	3751
970.012	5419
970.097	6211
970.183	4562
970.268	2845
970.354	2997
970.439	1611
970.525	2614
970.610	197
970.696	3852
970.781	2751
970.866	1140
970.952	2367
971.037	1704
971.122	2359
971.208	2244
971.293	1139
971.378	2099
971.463	1988
971.549	1683
971.634	1376
971.719	2492
971.804	1124
971.889	2402
971.974	1250
972.059	2216
972.144	2432
972.229	1371
972.314	1611
972.399	2322
972.484	1660
972.569	1710
972.654	485
972.739	2244
972.824	945
972.908	820
972.993	1555
973.078	1648
973.163	2077
973.247	2867
973.332	364
973.417	3211
973.501	973
973.586	2771
973.671	2001
973.755	1455
973.840	2452
973.924	3189
974.009	3304
974.093	3862
974.178	4007
974.262	2981
974.346	2217
974.431	2408
974.515	1761
974.600	1901
974.684	2483
974.768	2324
974.852	3361
974.937	1530
975.021	2759
975.105	1799
975.189	1592
975.273	2871
975.358	920
975.442	1234
975.526	2124
975.610	1061
975.694	1453
975.778	3091
975.862	1357
975.946	-207
976.030	2374
976.114	2126
976.198	1971
976.281	1622
976.365	2420
976.449	1837
976.533	1877
976.617	370
976.700	1030
976.784	1560
976.868	1123
976.951	1101
977.035	1134
977.119	2531
977.202	1109
977.286	2805
977.369	3313
977.453	6260
977.536	4605
977.620	3624
977.703	3040
977.787	2189
977.870	2941
977.953	3800
978.037	1490
978.120	3315
978.203	1368
978.287	2447
978.370	2107
978.453	2615
978.536	1365
978.620	3130
978.703	2077
978.786	2452
978.869	1078
978.952	2247
979.035	3110
979.118	3396
979.201	1334
979.284	3226
979.367	1976
979.450	3104
979.533	2114
979.616	1385
979.699	1331
979.782	2353
979.865	1899
979.948	2033
980.030	2018
980.113	1950
980.196	1284
980.279	2516
980.361	1604
980.444	1674
980.526	4086
980.609	4858
980.692	5270
980.774	5451
980.857	2634
980.939	4767
981.022	2539
981.104	3765
981.187	2034
981.269	3103
981.352	1790
981.434	2150
981.516	2215
981.599	3366
981.681	3170
981.763	2005
981.846	2287
981.928	2862
982.010	2635
982.092	2075
982.174	3222
982.256	2299
982.339	2258
982.421	2027
982.503	2556
982.585	1768
982.667	2426
982.749	2520
982.831	2374
982.913	1688
982.995	1819
983.077	2421
983.158	3655
983.240	1897
983.322	4670
983.404	7245
983.486	5356
983.568	5129
983.649	4029
983.731	4235
983.813	2780
983.894	3563
983.976	2830
984.058	3447
984.139	3637
984.221	3154
984.302	3561
984.384	3723
984.465	2861
984.547	4137
984.628	2614
984.710	4647
984.791	2973
984.872	3224
984.954	1991
985.035	3659
985.116	3411
985.198	3333
985.279	4041
985.360	3302
985.441	2708
985.522	3254
985.604	2539
985.685	1705
985.766	3325
985.847	5580
985.928	3182
986.009	3011
986.090	2736
986.171	4059
986.252	3059
986.333	4581
986.414	3471
986.495	3157
986.576	3616
986.656	4271
986.737	4208
986.818	3473
986.899	4589
986.980	3933
987.060	4944
987.141	4360
987.222	4563
987.302	5972
987.383	5787
987.464	5522
987.544	5053
987.625	5264
987.705	5197
987.786	6649
987.866	4796
987.947	5212
988.027	5280
988.108	5352
988.188	4650
988.268	5209
988.349	5735
988.429	4781
988.509	4285
988.589	4222
988.670	3060
988.750	5704
988.830	4253
988.910	4772
988.990	5114
989.070	4275
989.151	3835
989.231	4486
989.311	4579
989.391	3486
989.471	2597
989.551	4151
989.631	3824
989.711	5160
989.791	3579
989.870	4161
989.950	3694
990.030	4432
990.110	3921
990.190	2358
990.269	1904
990.349	3470
990.429	3955
990.509	4280
990.588	2381
990.668	3781
990.747	4292
990.827	3237
990.907	3795
990.986	3485
991.066	3446
991.145	2236
991.225	3477
991.304	4091
991.383	3710
991.463	3430
991.542	3716
991.622	2354
991.701	2596
991.780	2270
991.859	2402
991.939	2341
992.018	3600
992.097	4434
992.176	1777
992.256	2831
992.335	2699
992.414	4119
992.493	1666
992.572	2691
992.651	3664
992.730	2778
992.809	2825
992.888	1436
992.967	4102
993.046	2796
993.125	2174
993.203	2826
993.282	2801
993.361	3413
993.440	2016
993.519	1923
993.597	2814
993.676	2372
993.755	2884
993.834	3067
993.912	1590
993.991	4092
994.069	1653
994.148	3329
994.226	1527
994.305	2581
994.384	1467
994.462	3333
994.540	702
994.619	1211
994.697	1624
994.776	3112
994.854	2578
994.932	1197
995.011	1779
995.089	1566
995.167	1362
995.245	2159
995.324	1109
995.402	2983
995.480	1623
995.558	2190
995.636	922
995.714	2423
995.792	3928
995.870	1882
995.948	1297
996.026	1717
996.104	1102
996.182	2931
996.260	731
996.338	2047
996.416	1619
996.494	1519
996.572	3011
996.649	2230
996.727	215
996.805	1865
996.883	1281
996.960	1763
997.038	1957
997.116	2186
997.193	-10
997.271	1048
997.348	449
997.426	1713
997.504	2010
997.581	1989
997.658	1536
997.736	-984
997.813	984
997.891	1975
997.968	854
998.046	1328
998.123	1324
998.200	2039
998.277	1116
998.355	2448
998.432	-520
998.509	879
998.586	1223
998.663	1081
998.741	1374
998.818	1204
998.895	1159
998.972	2276
999.049	1613
999.126	966
999.203	508
999.280	885
999.357	875
999.434	1753
999.511	1039
999.587	1306
999.664	-314
999.741	1291
999.818	595
999.895	616
999.971	116
1000.048	313
1000.125	1253
1000.202	794
1000.278	959
1000.355	1612
1000.431	251
1000.508	-436
1000.584	430
1000.661	1243
1000.738	319
1000.814	670
1000.890	1336
1000.967	743
1001.043	609
1001.120	766
1001.196	670
1001.272	-536
1001.349	1117
1001.425	1049
1001.501	791
1001.577	85
1001.654	113
1001.730	97
1001.806	541
1001.882	561
1001.958	1712
1002.034	1408
1002.110	199
1002.186	-152
1002.262	-576
1002.338	-425
1002.414	1137
1002.490	713
1002.566	501
1002.642	-63
1002.718	461
1002.794	661
1002.870	-107
1002.945	1262
1003.021	111
1003.097	464
1003.173	1175
1003.248	-41
1003.324	594
1003.400	1061
1003.475	-568
1003.551	323
1003.626	31
1003.702	346
1003.777	-394
1003.853	-235
1003.928	286
1004.004	-129
1004.079	-431
1004.155	338
1004.230	-808
1004.305	1135
1004.381	-220
1004.456	-255
1004.531	-600
1004.607	316
1004.682	-104
1004.757	216
1004.832	-239
1004.907	-231
1004.982	-266
1005.057	939
1005.133	137
1005.208	282
1005.283	-482
1005.358	-291
1005.433	-549
1005.508	485
1005.583	-1058
1005.657	552
1005.732	584
1005.807	-247
1005.882	77
1005.957	-441
1006.032	-254
1006.106	-468
1006.181	407
1006.256	637
1006.331	-921
1006.405	-197
1006.480	-355
1006.554	-186
1006.629	406
1006.704	27
1006.778	-140
1006.853	581
1006.927	-723
1007.002	-279
1007.076	-241
1007.150	-244
1007.225	-39
1007.299	526
1007.373	-361
1007.448	32
1007.522	-69
1007.596	-32
1007.671	-989
1007.745	568
1007.819	-1110
1007.893	110
1007.967	-941
1008.041	-995
1008.115	-1232
1008.190	-642
1008.264	-719
1008.338	-1407
1008.412	-498
1008.486	-6
1008.560	-104
1008.633	-382
1008.707	-950
1008.781	382
1008.855	-684
1008.929	-80
1009.003	-1067
1009.076	-800
1009.150	-807
1009.224	158
1009.298	-677
1009.371	-1080
1009.445	-208
1009.519	-626
1009.592	-1257
1009.666	128
1009.739	-566
1009.813	-734
1009.886	-336
1009.960	-1136
1010.033	486
1010.107	436
1010.180	-1369
1010.253	-187
1010.327	-894
1010.400	-395
1010.473	-638
1010.547	861
1010.620	75
1010.693	285
1010.766	-31
1010.840	448
1010.913	-451
1010.986	-714
1011.059	-118
1011.132	-522
1011.205	875
1011.278	561
1011.351	138
1011.424	948
1011.497	-826
1011.570	-351
1011.643	-860
1011.716	-791
1011.789	-1555
1011.862	168
1011.934	-1072
1012.007	-981
1012.080	-1099
1012.153	-696
1012.225	-2
1012.298	-1154
1012.371	-804
1012.443	-544
1012.516	-1462
1012.588	-342
1012.661	-1774
1012.733	-1108
1012.806	-495
1012.879	-1222
1012.951	-214
1013.023	-580
1013.096	-517
1013.168	-974
1013.241	-688
1013.313	-1494
1013.385	-876
1013.458	-1011
1013.530	-481
1013.602	-923
1013.674	-191
1013.746	-1929
1013.819	-1243
1013.891	-300
1013.963	-1434
1014.035	-435
1014.107	-1158
1014.179	-923
1014.251	-2400
1014.323	-1185
1014.395	-1545
1014.467	-923
1014.539	-1408
1014.611	-1666
1014.683	-25
1014.754	-903
1014.826	-1922
1014.898	-432
1014.970	-1588
1015.042	46
1015.113	-1133
1015.185	-858
1015.257	-1508
1015.328	-361
1015.400	-1262
1015.471	-784
1015.543	-2023
1015.615	-1027
1015.686	-1574
1015.757	-372
1015.829	-689
1015.901	-214
1015.972	-888
1016.043	-1216
1016.115	-1607
1016.186	-1212
1016.257	-2162
1016.328	-874
1016.400	-518
1016.471	-1370
1016.542	-1595
1016.613	-659
1016.685	-1113
1016.756	-269
1016.827	-1378
1016.898	-1521
1016.969	-4
1017.040	-349
1017.111	-1818
1017.182	-982
1017.253	-1668
1017.324	-1358
1017.395	-1668
1017.466	-883
1017.537	-1106
1017.608	-1432
1017.678	-995
1017.749	-1813
1017.820	-1582
1017.891	-874
1017.961	-1922
1018.032	-1007
1018.103	-1213
1018.173	-900
1018.244	-1499
1018.315	-1077
1018.385	-301
1018.456	-1107
1018.526	-2007
1018.597	-1794
1018.667	-1615
1018.738	-2151
1018.808	-2059
1018.878	-1349
1018.949	-1546
1019.019	-1128
1019.089	-782
1019.160	-985
1019.230	-1496
1019.300	-1314
1019.371	-1690
1019.441	-1312
1019.511	-1291
1019.581	-1170
1019.651	-1505
1019.721	-535
1019.791	-1304
1019.861	-809
1019.931	-1579
1020.001	-1107
1020.071	-2062
1020.141	-1618
1020.211	-1324
1020.281	-1561
1020.351	-1791
1020.421	-1215
1020.491	-1159
1020.560	-1616
1020.630	-1751
1020.700	-1496
1020.770	-2022
1020.839	-1855
1020.909	-1729
1020.979	-653
1021.048	-2251
1021.118	-1461
1021.187	-1795
1021.257	-1045
1021.326	-1298
1021.396	-957
1021.465	-1674
1021.535	-1792
1021.604	-2187
1021.674	-750
1021.743	-1997
1021.812	-1002
1021.882	-1853
1021.951	-1632
1022.020	-1634
1022.089	-1322
1022.159	-1854
1022.228	-1466
1022.297	-1936
1022.366	-1611
1022.435	-2337
1022.504	-1054
1022.573	-2090
1022.642	-1267
1022.711	-2076
1022.781	-2039
1022.849	-1749
1022.918	-1635
1022.987	-1469
1023.056	-1017
1023.125	-2414
1023.194	-1695
1023.263	-1131
1023.331	-1304
1023.400	-1725
1023.469	-950
1023.538	-1650
1023.606	-1370
1023.675	-1716
1023.744	-1969
1023.812	-1818
1023.881	-1344
1023.949	-1795
1024.018	-1055
1024.086	-1449
1024.155	-919
1024.223	-2198
1024.292	-1174
1024.360	-1666
1024.429	-1742
1024.497	-1724
1024.565	-1741
1024.634	-1723
1024.702	-1289
1024.770	-1334
1024.838	-2633
1024.907	-1588
1024.975	-2068
1025.043	-1686
1025.111	-1720
1025.179	-1532
1025.247	-2138
1025.315	-1416
1025.383	-1753
1025.451	-1996
1025.519	-1718
1025.587	-1975
1025.655	-2309
1025.723	-721
1025.791	-1142
1025.859	-2013
1025.927	-1441
1025.995	-2244
1026.062	-1330
1026.130	-1705
1026.198	-1752
1026.266	-2875
1026.333	-903
1026.401	-1459
1026.469	-1931
1026.536	-2273
1026.604	-1389
1026.671	-2098
1026.739	-1045
1026.806	-1680
1026.874	-1486
1026.941	-2028
1027.009	-989
1027.076	-2204
1027.144	-1362
1027.211	-1407
1027.278	-1908
1027.345	-534
1027.413	-1663
1027.480	-2050
1027.547	-1762
1027.614	-1786
1027.682	-1121
1027.749	-1803
1027.816	-1723
1027.883	-1799
1027.950	-1541
1028.017	-2458
1028.084	-807
1028.151	-1323
1028.218	-759
1028.285	-1599
1028.352	-2091
1028.419	-2017
1028.486	-2684
1028.553	-1936
1028.619	-2319
1028.686	-1210
1028.753	-1515
1028.820	-1808
1028.886	-1735
1028.953	-1300
1029.020	-1421
1029.086	-2617
1029.153	-1816
1029.220	-2267
1029.286	-1396
1029.353	-1070
1029.419	-1993
1029.486	-1843
1029.552	-1837
1029.619	-2596
1029.685	-1562
1029.751	-1760
1029.818	-711
1029.884	-1982
1029.951	-686
1030.017	-2721
1030.083	-1627
1030.149	-1318
1030.216	-1566
1030.282	-1573
1030.348	-1566
1030.414	-2145
1030.480	-1772
1030.546	-2250
1030.612	-1535
1030.678	-2196
1030.744	-242
1030.810	-1758
1030.876	-1129
1030.942	-2465
1031.008	-1858
1031.074	-2349
1031.140	-2396
1031.206	-1837
1031.272	-1330
1031.337	-652
1031.403	-1655
1031.469	-2656
1031.534	-1334
1031.600	-1808
1031.666	-1304
1031.731	-1928
1031.797	-1599
1031.863	-2523
1031.928	-1532
1031.994	-1876
1032.059	-1883
1032.125	-2288
1032.190	-1997
1032.256	-2823
1032.321	-1868
1032.386	-1219
1032.452	-999
1032.517	-1832
1032.582	-1594
1032.647	-1001
1032.713	-1562
1032.778	-1952
1032.843	-1783
1032.908	-1870
1032.974	-2143
1033.039	-2043
1033.104	-1695
1033.169	-2702
1033.234	-1114
1033.299	-1623
1033.364	-755
1033.429	-2049
1033.494	-1033
1033.559	-1770
1033.624	-1630
1033.688	-1538
1033.753	-2085
1033.818	-1744
1033.883	-825
1033.948	-666
1034.013	-936
1034.077	-732
1034.142	-147
1034.207	-144
1034.271	1903
1034.336	2210
1034.400	766
1034.465	-554
1034.530	-1118
1034.594	-1213
1034.658	-1646
1034.723	-1740
1034.787	-1378
1034.852	-1535
1034.916	-1363
1034.981	-1499
1035.045	-1570
1035.109	-2003
1035.173	-1066
1035.238	-1752
1035.302	-1478
1035.366	-2279
1035.430	-1791
1035.495	-1649
1035.559	-1106
1035.623	-1950
1035.687	-676
1035.751	-2265
1035.815	-661
1035.879	-1423
1035.943	-807
1036.007	-1293
1036.071	-1269
1036.135	-1528
1036.198	-1720
1036.262	-2059
1036.326	-1160
1036.390	-1533
1036.454	-1214
1036.517	-1822
1036.581	-1218
1036.645	-978
1036.709	-360
1036.772	-2417
1036.836	-1356
1036.900	-1833
1036.963	-1834
1037.026	-1843
1037.090	-1916
1037.154	-1063
1037.217	-1122
1037.280	-1835
1037.344	-1117
1037.407	-1728
1037.471	-345
1037.534	-1977
1037.597	-1304
1037.661	-2850
1037.724	-273
1037.787	-1755
1037.850	-2074
1037.913	-1818
1037.977	-654
1038.040	-1208
1038.103	-1541
1038.166	-2179
1038.229	-449
1038.292	-2317
1038.355	-1220
1038.418	-2055
1038.481	-844
1038.544	-1933
1038.607	-1676
1038.670	-1783
1038.732	-839
1038.795	-2018
1038.858	-1489
1038.921	-1870
1038.984	-769
1039.046	-2085
1039.109	-1165
1039.172	-1497
1039.234	-1829
1039.297	-1761
1039.360	-1480
1039.422	-2200
1039.485	-1696
1039.547	-1523
1039.610	-1182
1039.672	-1602
1039.734	-1614
1039.797	-1804
1039.859	-1600
1039.922	-2257
1039.984	-1868
1040.046	-2059
1040.109	-1027
1040.171	-1780
1040.233	-1043
1040.295	-1473
1040.358	-1636
1040.420	-2378
1040.482	-1494
1040.544	-1602
1040.606	-1875
1040.668	-1854
1040.730	-1870
1040.792	-1571
1040.854	-1338
1040.916	-1473
1040.978	-1497
1041.040	-1570
1041.102	-1190
1041.164	-2178
1041.225	-1759
1041.287	-2317
1041.349	-1773
1041.411	-2127
1041.472	-889
1041.534	-2634
1041.596	-2025
1041.657	-1962
1041.719	-1081
1041.781	-1431
1041.842	-1530
1041.904	-1348
1041.965	-2220
1042.027	-1854
1042.088	-2353
1042.150	-2330
1042.211	-1729
1042.272	-1669
1042.334	-1567
1042.395	-1406
1042.456	-1218
1042.518	-1709
1042.579	-1348
1042.640	-2631
1042.701	-1922
1042.763	-2050
1042.824	-2117
1042.885	-2299
1042.946	-1919
1043.007	-2197
1043.068	-1456
1043.129	-1710
1043.190	-2135
1043.251	-1955
1043.312	-1076
1043.373	-1984
1043.434	-986
1043.495	-1596
1043.556	-1364
1043.616	-1556
1043.677	-960
1043.738	-1619
1043.799	-2070
1043.859	-2038
1043.920	-757
1043.981	-2019
1044.041	-1008
1044.102	-1874
1044.162	-1335
1044.223	-1895
1044.284	-1836
1044.344	-2020
1044.405	-2122
1044.465	-2233
1044.525	-1365
1044.586	-937
1044.646	-1081
1044.707	-2141
1044.767	-778
1044.827	-2476
1044.887	-1033
1044.948	-1892
1045.008	-797
1045.068	-2127
1045.128	-1331
1045.188	-1602
1045.249	-859
1045.309	-1467
1045.369	-1625
1045.429	-1599
1045.489	-1359
1045.549	-2141
1045.609	-1629
1045.669	-1711
1045.729	-1724
1045.789	-1361
1045.848	-1226
1045.908	-1861
1045.968	-1253
1046.028	-1498
1046.088	-554
1046.147	-1187
1046.207	-1641
1046.267	-1896
1046.326	-1388
1046.386	-1518
1046.446	-776
1046.505	-971
1046.565	-521
1046.624	-250
1046.684	-1000
1046.743	-1124
1046.803	-767
1046.862	-968
1046.922	0
