'Start Wavelength	183.907
'End Wavelength	1046.922
'Gate Delay	5.000
'Gate Width (ms)	1.050
'Laser Output Level	0.000
'X Position	0.000
'Y Position	0.000
'Z Position	0.000
'Grid Point Number	1.000
'Shot Number	100.000
183.907	923.000
183.977	-274.000
184.047	188
184.116	458
184.186	1190
184.256	115
184.325	93
184.395	-931
184.465	1373
184.534	754
184.604	-450
184.674	186
184.743	430
184.813	472
184.883	889
184.952	71
185.022	350
185.092	522
185.161	1261
185.231	135
185.301	19
185.370	770
185.440	-102
185.509	244
185.579	278
185.649	48
185.718	516
185.788	610
185.857	-127
185.927	300
185.996	730
186.066	398
186.136	323
186.205	-40
186.275	364
186.344	-49
186.414	143
186.483	-520
186.553	778
186.622	550
186.692	598
186.761	-466
186.831	1117
186.900	-130
186.970	729
187.039	-130
187.109	1376
187.178	649
187.248	628
187.317	265
187.387	435
187.456	501
187.526	304
187.595	866
187.664	129
187.734	249
187.803	310
187.873	551
187.942	1143
188.012	367
188.081	385
188.150	-366
188.220	-236
188.289	-5
188.358	-35
188.428	383
188.497	419
188.567	618
188.636	750
188.705	-301
188.775	592
188.844	-880
188.913	1054
188.983	446
189.052	603
189.121	572
189.191	276
189.260	-600
189.329	292
189.399	-231
189.468	892
189.537	452
189.606	578
189.676	258
189.745	313
189.814	283
189.883	39
189.953	-156
190.022	636
190.091	-558
190.161	-397
190.230	-289
190.299	270
190.368	509
190.437	555
190.507	105
190.576	-75
190.645	435
190.714	948
190.783	176
190.853	1682
190.922	784
190.991	392
191.060	421
191.129	637
191.198	401
191.268	-121
191.337	-146
191.406	247
191.475	-288
191.544	151
191.613	694
191.682	1063
191.752	88
191.821	-78
191.890	-467
191.959	692
192.028	94
192.097	-356
192.166	23
192.235	-133
192.304	-40
192.373	375
192.442	-365
192.511	832
192.580	390
192.650	819
192.719	16
192.788	504
192.857	158
192.926	-42
192.995	-12
193.064	657
193.133	560
193.202	219
193.271	368
193.340	-2
193.409	-77
193.478	304
193.547	293
193.615	-195
193.684	428
193.753	773
193.822	979
193.891	-372
193.960	781
194.029	-734
194.098	-206
194.167	264
194.236	923
194.305	622
194.374	138
194.443	114
194.512	-419
194.580	201
194.649	999
194.718	89
194.787	400
194.856	-392
194.925	543
194.994	142
195.062	-76
195.131	-492
195.200	-509
195.269	-28
195.338	-267
195.407	-386
195.475	15
195.544	435
195.613	-819
195.682	821
195.751	78
195.819	286
195.888	-287
195.957	569
196.026	316
196.094	963
196.163	-538
196.232	538
196.301	-708
196.369	-447
196.438	473
196.507	230
196.576	-361
196.644	185
196.713	730
196.782	-696
196.850	676
196.919	441
196.988	602
197.056	526
197.125	84
197.194	1232
197.262	-48
197.331	121
197.400	-491
197.468	379
197.537	-459
197.606	546
197.674	226
197.743	-76
197.812	-1138
197.880	-357
197.949	314
198.017	850
198.086	-239
198.155	116
198.223	327
198.292	-85
198.360	-358
198.429	75
198.497	-331
198.566	514
198.635	248
198.703	502
198.772	9
198.840	-3
198.909	-552
198.977	-209
199.046	273
199.114	291
199.183	-12
199.251	543
199.320	-447
199.388	381
199.457	-33
199.525	4
199.594	-475
199.662	144
199.731	416
199.799	-44
199.867	-205
199.936	348
200.004	489
200.073	446
200.141	188
200.210	305
200.278	-86
200.346	-47
200.415	205
200.483	-82
200.552	279
200.620	69
200.688	198
200.757	1098
200.825	-429
200.893	-369
200.962	137
201.030	-247
201.098	-17
201.167	961
201.235	-227
201.303	-409
201.372	16
201.440	426
201.508	48
201.577	1159
201.645	439
201.713	-16
201.781	-543
201.850	1187
201.918	287
201.986	354
202.055	797
202.123	216
202.191	-399
202.259	935
202.327	131
202.396	351
202.464	-246
202.532	222
202.600	1269
202.669	422
202.737	49
202.805	576
202.873	-274
202.941	313
203.009	-98
203.078	-101
203.146	218
203.214	-314
203.282	-539
203.350	488
203.418	-638
203.487	437
203.555	-515
203.623	729
203.691	464
203.759	-158
203.827	-438
203.895	-608
203.963	6
204.031	-189
204.099	-683
204.168	240
204.236	96
204.304	181
204.372	13
204.440	1258
204.508	-597
204.576	-117
204.644	-164
204.712	-248
204.780	1051
204.848	1012
204.916	-373
204.984	204
205.052	440
205.120	375
205.188	10
205.256	333
205.324	-622
205.392	-522
205.460	233
205.528	-139
205.596	164
205.664	208
205.732	-118
205.799	100
205.867	660
205.935	-344
206.003	1087
206.071	-596
206.139	-927
206.207	-61
206.275	-353
206.343	-714
206.411	-246
206.478	997
206.546	541
206.614	262
206.682	473
206.750	-259
206.818	702
206.885	902
206.953	-939
207.021	769
207.089	877
207.157	-219
207.225	178
207.292	-144
207.360	-43
207.428	-720
207.496	-1142
207.563	1052
207.631	96
207.699	-80
207.767	28
207.834	343
207.902	-506
207.970	-486
208.038	108
208.105	-252
208.173	-293
208.241	-34
208.309	189
208.376	665
208.444	493
208.512	-179
208.579	-946
208.647	234
208.715	508
208.782	-147
208.850	81
208.918	42
208.985	-137
209.053	435
209.120	-553
209.188	-444
209.256	473
209.323	-131
209.391	23
209.459	638
209.526	228
209.594	96
209.661	-258
209.729	290
209.796	608
209.864	-176
209.932	-934
209.999	1650
210.067	214
210.134	-19
210.202	-306
210.269	597
210.337	444
210.404	-180
210.472	493
210.539	546
210.607	-344
210.674	-443
210.742	-371
210.809	244
210.877	28
210.944	889
211.012	-720
211.079	983
211.146	-495
211.214	-268
211.281	-377
211.349	230
211.416	-5
211.484	168
211.551	-355
211.618	117
211.686	651
211.753	-941
211.821	56
211.888	68
211.955	-21
212.023	-14
212.090	-1373
212.157	-28
212.225	-308
212.292	130
212.359	144
212.427	586
212.494	133
212.561	-123
212.629	-91
212.696	114
212.763	83
212.831	-665
212.898	208
212.965	-485
213.032	-478
213.100	-520
213.167	-698
213.234	704
213.301	-274
213.369	245
213.436	-515
213.503	-508
213.570	148
213.638	19
213.705	-957
213.772	-591
213.839	7
213.906	1430
213.973	-80
214.041	-9
214.108	-132
214.175	-423
214.242	-459
214.309	-46
214.376	-1323
214.444	-722
214.511	-564
214.578	-204
214.645	-122
214.712	-50
214.779	-501
214.846	-853
214.913	476
214.980	-474
215.048	220
215.115	1210
215.182	48
215.249	-89
215.316	-47
215.383	-129
215.450	206
215.517	-110
215.584	-87
215.651	203
215.718	-811
215.785	40
215.852	-1391
215.919	681
215.986	261
216.053	-483
216.120	-685
216.187	408
216.254	150
216.321	-405
216.388	-181
216.455	149
216.522	-370
216.589	2
216.656	-345
216.722	-103
216.789	-508
216.856	-179
216.923	-734
216.990	537
217.057	-835
217.124	131
217.191	-510
217.258	199
217.324	-181
217.391	188
217.458	-410
217.525	-192
217.592	387
217.659	-1055
217.725	280
217.792	-960
217.859	422
217.926	-723
217.993	112
218.059	-7
218.126	287
218.193	715
218.260	65
218.327	-158
218.393	40
218.460	-1149
218.527	-775
218.594	457
218.660	-320
218.727	400
218.794	-607
218.860	338
218.927	-90
218.994	-619
219.061	-222
219.127	431
219.194	-339
219.261	87
219.327	-610
219.394	1497
219.461	-1347
219.527	727
219.594	-385
219.661	-325
219.727	-859
219.794	471
219.860	-554
219.927	-246
219.994	274
220.060	511
220.127	882
220.193	435
220.260	-467
220.326	-38
220.393	-489
220.460	290
220.526	-185
220.593	217
220.659	1179
220.726	-47
220.792	-64
220.859	-140
220.925	-787
220.992	359
221.058	-435
221.125	-468
221.191	85
221.258	-738
221.324	720
221.391	-351
221.457	-204
221.524	645
221.590	-243
221.657	-63
221.723	-711
221.789	-122
221.856	969
221.922	-727
221.989	80
222.055	-354
222.121	-672
222.188	1488
222.254	-96
222.321	-731
222.387	-561
222.453	281
222.520	-292
222.586	-547
222.652	-235
222.719	-629
222.785	689
222.851	-402
222.918	185
222.984	141
223.050	-937
223.116	-1425
223.183	231
223.249	-273
223.315	-727
223.382	-350
223.448	-281
223.514	-1025
223.580	-230
223.647	-826
223.713	-1759
223.779	-335
223.845	-722
223.911	189
223.978	-762
224.044	246
224.110	-695
224.176	347
224.242	407
224.309	-985
224.375	733
224.441	630
224.507	-924
224.573	-1132
224.639	599
224.705	-98
224.772	399
224.838	-983
224.904	59
224.970	466
225.036	-921
225.102	-737
225.168	789
225.234	343
225.300	-77
225.366	8
225.432	-144
225.499	42
225.565	-517
225.631	-15
225.697	-480
225.763	134
225.829	-445
225.895	-191
225.961	-138
226.027	-259
226.093	-376
226.159	492
226.225	598
226.291	-338
226.357	-706
226.423	351
226.489	-299
226.554	456
226.620	310
226.686	844
226.752	69
226.818	-689
226.884	-590
226.950	1087
227.016	-106
227.082	787
227.148	253
227.214	423
227.279	-693
227.345	327
227.411	315
227.477	352
227.543	2442
227.609	2630
227.674	756
227.740	-276
227.806	145
227.872	-177
227.938	-632
228.003	454
228.069	-98
228.135	-9
228.201	200
228.267	211
228.332	-129
228.398	-1462
228.464	-326
228.530	-463
228.595	-227
228.661	-775
228.727	-687
228.792	732
228.858	5
228.924	-1147
228.990	974
229.055	-551
229.121	-37
229.187	-178
229.252	-670
229.318	-967
229.384	1099
229.449	43
229.515	-1362
229.581	-145
229.646	1311
229.712	13
229.777	-449
229.843	-754
229.909	-340
229.974	166
230.040	110
230.105	89
230.171	-321
230.236	-119
230.302	189
230.368	-1176
230.433	-775
230.499	270
230.564	999
230.630	-54
230.695	-238
230.761	812
230.826	-1854
230.892	939
230.957	-972
231.023	-966
231.088	493
231.154	-415
231.219	577
231.284	-231
231.350	312
231.415	-1265
231.481	873
231.546	-937
231.612	268
231.677	-285
231.742	-1381
231.808	1017
231.873	-403
231.939	-2045
232.004	360
232.069	413
232.135	-1003
232.200	-1177
232.265	669
232.331	-999
232.396	-187
232.461	-178
232.527	-749
232.592	-1019
232.657	-378
232.723	348
232.788	-520
232.853	-12
232.918	-737
232.984	-285
233.049	-370
233.114	-926
233.179	-673
233.245	253
233.310	-419
233.375	-1384
233.440	546
233.506	-548
233.571	-819
233.636	-449
233.701	93
233.766	136
233.832	93
233.897	-567
233.962	-1351
234.027	764
234.092	-83
234.157	-325
234.222	-1034
234.288	-212
234.353	-800
234.418	-7
234.483	361
234.548	631
234.613	-303
234.678	311
234.743	-796
234.808	849
234.873	-1818
234.938	1529
235.004	-478
235.069	-657
235.134	-1368
235.199	719
235.264	-427
235.329	-1150
235.394	990
235.459	545
235.524	-1701
235.589	550
235.654	-1111
235.719	-1669
235.784	896
235.849	-439
235.913	-442
235.978	69
236.043	43
236.108	44
236.173	-1096
236.238	310
236.303	-996
236.368	-525
236.433	-164
236.498	-709
236.563	-860
236.627	-791
236.692	575
236.757	-138
236.822	170
236.887	-394
236.952	98
237.017	-1538
237.081	509
237.146	-1344
237.211	-221
237.276	-192
237.341	-192
237.405	-573
237.470	649
237.535	-342
237.600	106
237.664	281
237.729	-743
237.794	-995
237.859	87
237.923	-161
237.988	-858
238.053	583
238.118	-527
238.182	-1060
238.247	1136
238.312	-1083
238.376	-613
238.441	-2166
238.506	1108
238.570	-1206
238.635	868
238.700	-113
238.764	-709
238.829	-1050
238.893	-1642
238.958	280
239.023	-182
239.087	-104
239.152	-664
239.216	-839
239.281	159
239.346	-106
239.410	-188
239.475	-830
239.539	-69
239.604	-738
239.668	1496
239.733	910
239.797	1760
239.862	4020
239.926	2008
239.991	1595
240.055	263
240.120	139
240.184	-208
240.249	-328
240.313	-622
240.378	-795
240.442	-861
240.507	-292
240.571	-395
240.635	-719
240.700	-224
240.764	-22
240.829	-426
240.893	-1765
240.957	462
241.022	-42
241.086	183
241.151	-991
241.215	-939
241.279	746
241.344	-671
241.408	77
241.472	-902
241.537	461
241.601	-144
241.665	-743
241.730	-750
241.794	1135
241.858	-476
241.922	-40
241.987	-99
242.051	-1188
242.115	-433
242.179	619
242.244	-1210
242.308	489
242.372	197
242.436	-1168
242.501	-115
242.565	-1005
242.629	-904
242.693	721
242.757	-1389
242.822	114
242.886	197
242.950	602
243.014	-752
243.078	-17
243.142	-716
243.206	-1423
243.271	-516
243.335	-836
243.399	747
243.463	-656
243.527	1230
243.591	-216
243.655	393
243.719	-1718
243.783	291
243.847	-638
243.911	533
243.975	-1026
244.040	-1019
244.104	1650
244.168	83
244.232	-322
244.296	-377
244.360	-641
244.424	-1835
244.488	64
244.552	517
244.615	-1507
244.679	332
244.743	-568
244.807	-1295
244.871	-342
244.935	-385
244.999	-1377
245.063	-938
245.127	938
245.191	-704
245.255	-713
245.319	-634
245.383	-771
245.446	1332
245.510	-217
245.574	-536
245.638	335
245.702	-2494
245.766	-374
245.829	998
245.893	-1093
245.957	-683
246.021	796
246.085	103
246.149	-599
246.212	1165
246.276	-658
246.340	-512
246.404	162
246.467	-27
246.531	-2681
246.595	170
246.659	351
246.722	-1297
246.786	445
246.850	-742
246.913	-371
246.977	-1306
247.041	-349
247.104	-510
247.168	310
247.232	-834
247.295	-141
247.359	162
247.423	-430
247.486	-715
247.550	1374
247.614	-740
247.677	-171
247.741	-298
247.804	-337
247.868	758
247.932	-1213
247.995	879
248.059	-802
248.122	-423
248.186	1323
248.249	274
248.313	334
248.376	1414
248.440	383
248.503	-1136
248.567	1584
248.630	-1500
248.694	-853
248.757	325
248.821	604
248.884	533
248.948	-260
249.011	309
249.075	1094
249.138	497
249.202	99
249.265	-610
249.328	349
249.392	-565
249.455	210
249.519	-437
249.582	-86
249.645	-125
249.709	-577
249.772	-572
249.835	-379
249.899	-491
249.962	-122
250.025	-178
250.089	359
250.152	880
250.215	-364
250.279	-1535
250.342	221
250.405	156
250.468	-425
250.532	-908
250.595	972
250.658	167
250.721	3488
250.785	-673
250.848	1350
250.911	-1157
250.974	427
251.038	-760
251.101	566
251.164	-545
251.227	366
251.290	-769
251.354	296
251.417	1912
251.480	2324
251.543	969
251.606	4390
251.669	3921
251.732	663
251.795	515
251.859	1140
251.922	2530
251.985	1044
252.048	101
252.111	-262
252.174	-738
252.237	1021
252.300	1440
252.363	642
252.426	4377
252.489	735
252.552	13
252.615	-786
252.678	92
252.741	779
252.804	235
252.867	4371
252.930	1868
252.993	776
253.056	262
253.119	-98
253.182	-750
253.245	-511
253.308	-164
253.371	-1223
253.434	-114
253.497	-836
253.559	567
253.622	-226
253.685	-457
253.748	-64
253.811	-601
253.874	1019
253.937	-1166
254.000	-99
254.062	-1444
254.125	-10
254.188	0
254.251	-763
254.314	-234
254.376	-1041
254.439	-294
254.502	-214
254.565	-947
254.628	803
254.690	-863
254.753	-1029
254.816	-976
254.878	436
254.941	-293
255.004	946
255.067	-712
255.129	-827
255.192	0
255.255	-1254
255.317	-771
255.380	-252
255.443	-600
255.505	-994
255.568	-1402
255.631	-285
255.693	-673
255.756	-729
255.819	416
255.881	-728
255.944	103
256.006	-637
256.069	-1190
256.132	-1078
256.194	-664
256.257	-531
256.319	-473
256.382	-218
256.444	1065
256.507	4
256.569	-1
256.632	-94
256.694	-263
256.757	118
256.819	375
256.882	-1151
256.944	-273
257.007	1111
257.069	-662
257.132	-685
257.194	168
257.257	-217
257.319	-1567
257.381	-1121
257.444	-351
257.506	-51
257.569	364
257.631	-403
257.693	-720
257.756	-614
257.818	-655
257.880	-443
257.943	374
258.005	-925
258.067	-398
258.130	583
258.192	-300
258.254	-266
258.317	-698
258.379	120
258.441	-1178
258.503	436
258.566	-650
258.628	85
258.690	-623
258.753	333
258.815	-109
258.877	-734
258.939	-1098
259.001	-50
259.064	-662
259.126	-1058
259.188	-501
259.250	253
259.312	-347
259.375	-346
259.437	-290
259.499	-441
259.561	-730
259.623	142
259.685	-746
259.747	-608
259.809	-463
259.872	54
259.934	23
259.996	59
260.058	-838
260.120	-1191
260.182	-357
260.244	-609
260.306	-660
260.368	-275
260.430	-617
260.492	394
260.554	-126
260.616	-1195
260.678	-286
260.740	-429
260.802	-846
260.864	-116
260.926	-1251
260.988	358
261.050	-832
261.112	-316
261.174	26
261.236	-336
261.298	-802
261.359	-566
261.421	457
261.483	-1254
261.545	941
261.607	-1039
261.669	-96
261.731	-394
261.793	-929
261.854	-1116
261.916	560
261.978	-678
262.040	-581
262.102	597
262.164	-644
262.225	312
262.287	-253
262.349	-818
262.411	-455
262.472	209
262.534	-1457
262.596	-990
262.658	-73
262.719	-1362
262.781	-146
262.843	-524
262.904	-1022
262.966	-256
263.028	-351
263.090	-265
263.151	843
263.213	224
263.275	-773
263.336	-1059
263.398	970
263.459	-379
263.521	-441
263.583	73
263.644	-691
263.706	-552
263.767	-1400
263.829	186
263.891	-534
263.952	-685
264.014	-1025
264.075	-451
264.137	-627
264.198	-511
264.260	-707
264.321	-898
264.383	-1062
264.444	-321
264.506	-726
264.567	-685
264.629	-95
264.690	-1628
264.752	-817
264.813	-364
264.875	-1245
264.936	565
264.998	-1205
265.059	151
265.120	-56
265.182	-1525
265.243	-1227
265.305	-189
265.366	-436
265.427	-593
265.489	-63
265.550	-1340
265.611	-485
265.673	-569
265.734	-238
265.795	-208
265.857	-943
265.918	-847
265.979	-1057
266.040	180
266.102	-367
266.163	115
266.224	-1174
266.286	-1100
266.347	-1262
266.408	-652
266.469	-1104
266.530	-352
266.592	-481
266.653	-67
266.714	-416
266.775	-702
266.836	-301
266.898	-1016
266.959	-667
267.020	-108
267.081	513
267.142	-97
267.203	-493
267.264	-705
267.326	566
267.387	-193
267.448	-585
267.509	-672
267.570	-5
267.631	-455
267.692	-1184
267.753	-384
267.814	-1103
267.875	-146
267.936	-656
267.997	-713
268.058	-829
268.119	-1211
268.180	-627
268.241	-1306
268.302	-310
268.363	-497
268.424	-936
268.485	-154
268.546	-1348
268.607	-128
268.668	-1012
268.729	-1306
268.790	-889
268.851	12
268.912	-1285
268.972	-1102
269.033	-1183
269.094	-551
269.155	-929
269.216	-1338
269.277	-633
269.338	-650
269.398	-332
269.459	-653
269.520	-339
269.581	-287
269.642	-1022
269.702	-712
269.763	-647
269.824	-410
269.885	-1494
269.945	-724
270.006	-495
270.067	-488
270.128	-882
270.188	-966
270.249	-834
270.310	-681
270.370	-858
270.431	-498
270.492	-1376
270.553	-753
270.613	-1341
270.674	-737
270.734	-1489
270.795	-686
270.856	-98
270.916	-961
270.977	-1638
271.038	-61
271.098	-473
271.159	-604
271.219	-1287
271.280	-747
271.340	-730
271.401	-494
271.462	-753
271.522	-941
271.583	-667
271.643	-215
271.704	-1529
271.764	-324
271.825	-366
271.885	821
271.946	1486
272.006	-51
272.066	101
272.127	839
272.187	1738
272.248	872
272.308	-729
272.369	751
272.429	-113
272.489	-298
272.550	-431
272.610	-518
272.671	-563
272.731	127
272.791	-595
272.852	-819
272.912	434
272.972	-498
273.033	-545
273.093	-671
273.153	200
273.214	468
273.274	-543
273.334	501
273.394	865
273.455	-283
273.515	670
273.575	537
273.635	867
273.696	1081
273.756	1754
273.816	1607
273.876	767
273.936	-79
273.997	380
274.057	-700
274.117	-478
274.177	288
274.237	360
274.297	739
274.358	83
274.418	159
274.478	455
274.538	-895
274.598	-573
274.658	-259
274.718	238
274.778	-520
274.838	-430
274.898	-374
274.958	559
275.018	1271
275.078	394
275.138	2
275.198	-879
275.258	-305
275.318	-762
275.378	-323
275.438	-516
275.498	-1216
275.558	359
275.618	-243
275.678	-926
275.738	-135
275.798	21
275.858	-1046
275.918	-333
275.978	-332
276.038	-70
276.098	-27
276.157	-636
276.217	108
276.277	-182
276.337	-199
276.397	-375
276.457	-295
276.517	-413
276.576	-79
276.636	-469
276.696	-724
276.756	-706
276.815	76
276.875	-299
276.935	-513
276.995	-505
277.055	76
277.114	63
277.174	-710
277.234	293
277.293	195
277.353	77
277.413	-496
277.472	-235
277.532	952
277.592	576
277.651	4325
277.711	9428
277.771	2323
277.830	8677
277.890	8386
277.950	4117
278.009	18359
278.069	7024
278.128	6177
278.188	11164
278.248	4139
278.307	10918
278.367	8445
278.426	1189
278.486	533
278.545	88
278.605	462
278.664	266
278.724	-61
278.783	1109
278.843	1549
278.902	561
278.962	458
279.021	691
279.081	3747
279.140	2079
279.199	1102
279.259	1089
279.318	2692
279.378	2975
279.437	5334
279.496	15094
279.556	65895
279.615	56698
279.675	15341
279.734	6373
279.793	7071
279.853	7702
279.912	3651
279.971	3130
280.031	2783
280.090	3718
280.149	6221
280.208	8061
280.268	43025
280.327	48681
280.386	11352
280.445	4924
280.505	2471
280.564	1209
280.623	2129
280.682	1242
280.742	1753
280.801	697
280.860	442
280.919	859
280.978	367
281.037	-5
281.097	273
281.156	1056
281.215	612
281.274	296
281.333	1581
281.392	-36
281.451	509
281.510	977
281.569	35
281.628	421
281.688	-69
281.747	342
281.806	-214
281.865	232
281.924	-369
281.983	-22
282.042	388
282.101	35
282.160	290
282.219	335
282.278	446
282.337	-176
282.396	218
282.454	-4
282.513	483
282.572	268
282.631	-389
282.690	-709
282.749	-453
282.808	-185
282.867	-521
282.926	-91
282.985	-128
283.043	-384
283.102	83
283.161	508
283.220	47
283.279	73
283.338	320
283.396	-603
283.455	862
283.514	508
283.573	733
283.631	-343
283.690	993
283.749	-211
283.808	739
283.866	1081
283.925	333
283.984	1281
284.043	945
284.101	1911
284.160	1406
284.219	1509
284.277	1933
284.336	1674
284.395	2298
284.453	2101
284.512	2483
284.570	2867
284.629	3392
284.688	4713
284.746	5631
284.805	7407
284.863	10036
284.922	12102
284.981	14367
285.039	19441
285.098	28206
285.156	38281
285.215	40900
285.273	35767
285.332	37824
285.390	31431
285.449	22991
285.507	16517
285.566	12424
285.624	9893
285.683	7479
285.741	6911
285.799	5609
285.858	3316
285.916	4077
285.975	3021
286.033	1972
286.091	1952
286.150	2193
286.208	1966
286.267	1686
286.325	1416
286.383	1236
286.442	543
286.500	579
286.558	1706
286.616	861
286.675	874
286.733	392
286.791	228
286.850	353
286.908	223
286.966	730
287.024	-346
287.083	126
287.141	-786
287.199	670
287.257	345
287.315	542
287.374	44
287.432	84
287.490	287
287.548	384
287.606	16
287.664	-122
287.723	284
287.781	107
287.839	-113
287.897	50
287.955	50
288.013	306
288.071	-166
288.129	2151
288.187	12826
288.245	5012
288.303	530
288.361	843
288.419	-93
288.477	-94
288.535	-334
288.593	26
288.651	-541
288.709	-247
288.767	-406
288.825	-70
288.883	389
288.941	-65
288.999	-803
289.057	-163
289.115	-248
289.173	-562
289.231	34
289.289	-65
289.346	-789
289.404	-11
289.462	-999
289.520	-364
289.578	-1706
289.636	-689
289.694	-84
289.751	-180
289.809	-68
289.867	-67
289.925	654
289.983	-1403
290.040	489
290.098	-63
290.156	-437
290.214	-891
290.271	-1318
290.329	430
290.387	242
290.444	-565
290.502	-92
290.560	-751
290.617	-634
290.675	-749
290.733	-525
290.790	-491
290.848	240
290.906	-732
290.963	-1237
291.021	224
291.078	-514
291.136	-513
291.194	-493
291.251	-421
291.309	-239
291.366	-541
291.424	-311
291.481	262
291.539	-1308
291.596	111
291.654	-652
291.711	-851
291.769	-461
291.826	-339
291.884	-216
291.941	-59
291.999	-907
292.056	-733
292.114	-278
292.171	-647
292.228	515
292.286	58
292.343	-895
292.401	-290
292.458	-146
292.515	-433
292.573	-503
292.630	-642
292.687	-551
292.745	-399
292.802	-692
292.859	30
292.917	1097
292.974	-335
293.031	-31
293.089	-65
293.146	-38
293.203	196
293.260	-645
293.318	-163
293.375	48
293.432	-180
293.489	-205
293.546	38
293.604	233
293.661	1055
293.718	1797
293.775	1702
293.832	552
293.889	1306
293.947	1677
294.004	464
294.061	-283
294.118	-275
294.175	885
294.232	2291
294.289	968
294.346	340
294.403	374
294.460	-45
294.517	-683
294.574	13
294.631	-863
294.688	-197
294.745	-583
294.802	1624
294.859	580
294.916	-472
294.973	-388
295.030	-1213
295.087	-482
295.144	15
295.201	-702
295.258	-740
295.315	-666
295.372	-46
295.429	-78
295.486	358
295.542	-562
295.599	-339
295.656	-210
295.713	-381
295.770	716
295.827	95
295.883	-35
295.940	-94
295.997	181
296.054	-301
296.111	104
296.167	-55
296.224	-1453
296.281	-867
296.338	-921
296.394	-355
296.451	-1428
296.508	-450
296.564	-756
296.621	-30
296.678	489
296.734	1742
296.791	-519
296.848	465
296.904	-831
296.961	-115
297.018	326
297.074	-289
297.131	-247
297.187	-224
297.244	-237
297.301	284
297.357	2071
297.414	302
297.470	151
297.527	-571
297.583	-139
297.640	-680
297.696	-728
297.753	-267
297.809	-874
297.866	-122
297.922	-764
297.979	-382
298.035	-976
298.092	-136
298.148	58
298.204	182
298.261	-834
298.317	-94
298.374	1395
298.430	228
298.486	-237
298.543	-913
298.599	-584
298.656	-839
298.712	-810
298.768	-44
298.824	-802
298.881	-831
298.937	108
298.993	-244
299.050	-665
299.106	-52
299.162	304
299.218	-54
299.275	-67
299.331	-556
299.387	-613
299.443	1704
299.500	6091
299.556	4806
299.612	1336
299.668	1332
299.724	3664
299.780	6742
299.837	2029
299.893	970
299.949	2738
300.005	6014
300.061	3786
300.117	8221
300.173	3799
300.229	546
300.285	189
300.341	520
300.397	181
300.453	-119
300.510	-704
300.566	-8
300.622	784
300.678	6653
300.734	11296
300.790	4693
300.845	3183
300.901	2895
300.957	6987
301.013	3128
301.069	558
301.125	410
301.181	-57
301.237	175
301.293	-739
301.349	379
301.405	-508
301.461	-124
301.516	-1033
301.572	133
301.628	-488
301.684	-1624
301.740	-889
301.796	157
301.851	-456
301.907	175
301.963	353
302.019	-253
302.074	4211
302.130	4497
302.186	1427
302.242	855
302.297	-290
302.353	185
302.409	142
302.464	-1237
302.520	-580
302.576	702
302.631	962
302.687	-731
302.743	-1109
302.798	-447
302.854	-83
302.910	129
302.965	-291
303.021	-727
303.076	-185
303.132	-888
303.187	-455
303.243	-715
303.299	-661
303.354	-304
303.410	-83
303.465	-306
303.521	-1130
303.576	-468
303.632	-506
303.687	289
303.743	842
303.798	1072
303.853	-852
303.909	273
303.964	-300
304.020	-867
304.075	-605
304.130	-574
304.186	-877
304.241	1296
304.297	-207
304.352	-1013
304.358	-960
304.407	-533
304.449	-942
304.463	-1078
304.518	-535
304.539	-409
304.573	-232
304.629	-307
304.630	-314
304.684	-604
304.720	49
304.739	369
304.794	1522
304.811	1264
304.850	650
304.902	-111
304.905	-162
304.960	-214
304.992	-476
305.015	-672
305.071	-194
305.083	-148
305.126	18
305.173	-379
305.181	-442
305.236	-656
305.264	-198
305.292	233
305.347	-425
305.354	-341
305.402	333
305.445	66
305.457	-65
305.512	-278
305.535	-276
305.567	-141
305.622	-285
305.626	-298
305.678	-545
305.716	-26
305.733	183
305.788	850
305.807	780
305.843	694
305.897	1070
305.898	1075
305.953	803
305.988	907
306.008	974
306.063	252
306.078	256
306.118	263
306.168	-421
306.173	-477
306.228	-12
306.259	-317
306.283	-512
306.338	285
306.349	200
306.393	-342
306.440	-552
306.448	-535
306.503	130
306.530	249
306.558	292
306.613	-204
306.620	-156
306.668	235
306.711	457
306.723	438
306.778	436
306.801	371
306.833	595
306.888	182
306.892	236
306.943	468
306.982	-47
306.997	-149
307.052	-55
307.072	4
307.107	89
307.162	-432
307.163	-428
307.217	319
307.253	377
307.272	300
307.327	-295
307.343	-129
307.381	345
307.434	332
307.436	341
307.491	250
307.524	346
307.546	469
307.600	673
307.614	793
307.655	601
307.704	478
307.710	538
307.765	300
307.795	437
307.819	390
307.874	680
307.885	568
307.929	484
307.975	1070
307.984	1114
308.038	898
308.065	1081
308.093	2095
308.148	3615
308.156	4086
308.202	6488
308.246	8077
308.257	7772
308.312	3825
308.336	2337
308.366	1820
308.421	1678
308.426	1588
308.475	985
308.517	1259
308.530	1351
308.585	1194
308.607	1359
308.639	1795
308.694	1957
308.697	1982
308.748	2264
308.787	1990
308.803	1896
308.857	2318
308.877	2449
308.912	3072
308.967	3743
308.967	3752
309.021	6676
309.058	8991
309.076	10255
309.130	14417
309.148	15490
309.185	20648
309.238	28653
309.239	28843
309.293	37230
309.328	40677
309.348	37059
309.402	22402
309.418	18286
309.457	14627
309.508	11049
309.511	11163
309.566	14113
309.598	16713
309.620	22891
309.674	39793
309.688	44319
309.729	41647
309.778	33547
309.783	32581
309.837	19753
309.868	12612
309.892	10565
309.946	7176
309.959	6493
310.001	5415
310.049	4464
310.055	4400
310.109	3512
310.139	3312
310.163	2766
310.218	1438
310.229	1180
310.272	1697
310.319	1927
310.326	1825
310.381	1439
310.409	1308
310.435	1480
310.489	1672
310.499	1663
310.543	1392
310.589	1440
310.598	1458
310.652	1266
310.679	1220
310.706	1290
310.760	1421
310.769	1437
310.814	1499
310.859	1446
310.868	1412
310.923	1230
310.948	1155
310.977	1378
311.031	1858
311.038	1920
311.085	1201
311.128	377
311.139	504
311.193	1194
311.218	1473
311.247	1441
311.301	1519
311.308	1518
311.356	1506
311.398	1457
311.410	1452
311.464	1368
311.488	1322
311.518	1201
311.572	1040
311.578	1009
311.626	1009
311.668	1024
311.680	1094
311.734	1407
311.758	1527
311.788	1594
311.842	1741
311.847	1747
311.896	1281
311.937	875
311.950	864
312.004	821
312.027	796
312.058	1278
312.112	2154
312.117	2236
312.165	1781
312.207	1388
312.297	382
312.386	666
312.476	1574
312.566	910
312.656	1685
312.745	285
312.835	1361
312.925	1553
313.015	1261
313.104	968
313.194	1667
313.284	1593
313.374	1219
313.463	1679
313.553	2032
313.643	1371
313.732	1782
313.822	1271
313.912	2242
314.001	2326
314.091	2963
314.180	2462
314.270	2913
314.360	1321
314.449	1829
314.539	1492
314.628	2546
314.718	2287
314.808	2088
314.897	2012
314.987	3031
315.076	3343
315.166	3333
315.255	2738
315.345	3024
315.434	1272
315.524	3250
315.613	2892
315.703	5572
315.792	13043
315.881	48934
315.971	13080
316.060	4557
316.150	2694
316.239	1850
316.328	1556
316.418	2138
316.507	1995
316.597	3220
316.686	3198
316.775	2813
316.865	2606
316.954	2219
317.043	1571
317.133	2496
317.222	1373
317.311	2380
317.400	1239
317.490	2673
317.579	2532
317.668	3571
317.757	6189
317.847	22393
317.936	73504
318.025	19417
318.114	17310
318.203	7221
318.293	2445
318.382	3759
318.471	3763
318.560	3423
318.649	2978
318.738	1947
318.828	932
318.917	1314
319.006	752
319.095	1525
319.184	2518
319.273	1956
319.362	1467
319.451	1609
319.540	1238
319.629	1685
319.718	1486
319.807	1860
319.896	995
319.985	4261
320.074	1197
320.163	1626
320.252	984
320.341	1750
320.430	2222
320.519	2105
320.608	1789
320.697	2745
320.786	2199
320.875	3151
320.964	3483
321.053	3580
321.142	3706
321.230	4827
321.319	3802
321.408	6094
321.497	5558
321.586	4761
321.675	3047
321.764	3801
321.852	3708
321.941	3842
322.030	3077
322.119	4366
322.207	5163
322.296	5746
322.385	6034
322.474	7724
322.562	8405
322.651	6610
322.740	4458
322.829	4457
322.917	2766
323.006	2126
323.095	2207
323.183	2127
323.272	1244
323.361	2217
323.449	3687
323.538	2970
323.626	1815
323.715	2080
323.804	1059
323.892	2662
323.981	1400
324.069	1933
324.158	1455
324.246	2150
324.335	2012
324.424	2420
324.512	1245
324.601	1971
324.689	1400
324.778	1565
324.866	2020
324.954	2011
325.043	904
325.131	244
325.220	2520
325.308	2047
325.397	1574
325.485	2013
325.574	1464
325.662	1202
325.750	381
325.839	1264
325.927	864
326.015	2197
326.104	717
326.192	1141
326.280	563
326.369	1590
326.457	1099
326.545	720
326.634	952
326.722	1621
326.810	1197
326.898	1842
326.987	1619
327.075	1087
327.163	1745
327.251	1694
327.340	1344
327.428	2938
327.516	2975
327.604	2377
327.692	1490
327.781	1397
327.869	358
327.957	1517
328.045	941
328.133	2200
328.221	1368
328.309	1744
328.397	944
328.485	1476
328.574	3218
328.662	4017
328.750	1609
328.838	2273
328.926	1388
329.014	2013
329.102	1249
329.190	1198
329.278	1349
329.366	1426
329.454	821
329.542	752
329.630	512
329.718	1849
329.806	1105
329.893	1494
329.981	482
330.069	447
330.157	1617
330.245	1876
330.333	1658
330.421	1507
330.509	1048
330.597	1504
330.684	651
330.772	1350
330.860	1265
330.948	1837
331.036	758
331.123	879
331.211	968
331.299	1302
331.387	1051
331.475	1562
331.562	1342
331.650	1219
331.738	1075
331.825	1411
331.913	1203
332.001	1273
332.089	953
332.176	1239
332.264	1505
332.352	1745
332.439	968
332.527	1417
332.614	1074
332.702	1135
332.790	467
332.877	2145
332.965	5836
333.052	5233
333.140	5895
333.228	16093
333.315	3630
333.403	2409
333.490	3272
333.578	6867
333.665	23883
333.753	9432
333.840	1534
333.928	1355
334.015	2548
334.103	4125
334.190	4762
334.278	6069
334.365	8669
334.452	10077
334.540	5899
334.627	5560
334.715	6350
334.802	8856
334.889	16049
334.977	24405
335.064	15272
335.151	6532
335.239	4273
335.326	3627
335.413	4377
335.501	4012
335.588	3570
335.675	3497
335.762	5029
335.850	6607
335.937	10308
336.024	18400
336.111	32933
336.199	31298
336.286	13868
336.373	6656
336.460	3922
336.547	3350
336.635	2837
336.722	2758
336.809	2035
336.896	2768
336.983	2356
337.070	2590
337.157	3962
337.245	2156
337.332	1953
337.419	2316
337.506	1445
337.593	2095
337.680	1597
337.767	2876
337.854	1755
337.941	2078
338.028	1398
338.115	777
338.202	1566
338.289	946
338.376	1670
338.463	1775
338.550	1545
338.637	1867
338.724	1641
338.811	2092
338.898	1202
338.984	1546
339.071	758
339.158	1553
339.245	1203
339.332	1771
339.419	1227
339.506	1463
339.593	605
339.679	1718
339.766	268
339.853	964
339.940	1396
340.027	1163
340.113	1038
340.200	1241
340.287	751
340.374	774
340.460	1311
340.547	62
340.634	1942
340.720	3198
340.807	753
340.894	740
340.980	1064
341.067	878
341.154	1729
341.240	1540
341.327	1602
341.414	1587
341.500	740
341.587	2544
341.674	663
341.760	2506
341.847	1214
341.933	1422
342.020	694
342.106	1356
342.193	860
342.279	1293
342.366	1022
342.452	1616
342.539	1216
342.625	1538
342.712	1435
342.798	1333
342.885	1138
342.971	1084
343.058	59
343.144	1207
343.230	1334
343.317	1567
343.403	668
343.490	987
343.576	254
343.662	1159
343.749	590
343.835	1034
343.921	1314
344.008	5765
344.094	10866
344.180	2808
344.267	2026
344.353	2727
344.439	1381
344.525	2135
344.612	1147
344.698	1078
344.784	856
344.870	1468
344.957	220
345.043	2252
345.129	368
345.215	1351
345.301	1371
345.387	916
345.474	171
345.560	558
345.646	537
345.732	2381
345.818	517
345.904	818
345.990	1094
346.076	971
346.162	117
346.249	1782
346.335	393
346.421	1106
346.507	1206
346.593	2994
346.679	-115
346.765	1778
346.851	2750
346.937	1447
347.023	2110
347.108	1314
347.194	971
347.280	1797
347.366	1576
347.452	6080
347.538	6983
347.624	5273
347.710	1979
347.796	1800
347.882	661
347.967	1193
348.053	301
348.139	1741
348.225	922
348.311	64
348.397	432
348.482	1890
348.568	1331
348.654	2871
348.740	8960
348.825	7461
348.911	3522
348.997	2445
349.083	4114
349.168	1098
349.254	434
349.340	1770
349.425	1050
349.511	1176
349.597	477
349.682	1106
349.768	2304
349.854	1199
349.939	1459
350.025	869
350.110	1285
350.196	1318
350.282	373
350.367	883
350.453	1017
350.538	1590
350.624	1136
350.709	1893
350.795	1005
350.880	420
350.966	1607
351.051	1181
351.137	601
351.222	1483
351.308	1544
351.393	1461
351.479	67
351.564	1331
351.649	1464
351.735	1331
351.820	971
351.906	420
351.991	154
352.076	1166
352.162	1806
352.247	1101
352.332	1155
352.418	56
352.503	113
352.588	2793
352.673	1235
352.759	1059
352.844	328
352.929	801
353.014	747
353.100	1327
353.185	931
353.270	1215
353.355	1564
353.441	2120
353.526	103
353.611	1283
353.696	110
353.781	1841
353.866	-101
353.952	1748
354.037	98
354.122	2262
354.207	731
354.292	355
354.377	1254
354.462	1255
354.547	905
354.632	1141
354.717	2127
354.802	475
354.887	1336
354.972	570
355.057	274
355.142	555
355.227	1335
355.312	1768
355.397	688
355.482	1600
355.567	228
355.652	1957
355.737	738
355.822	2213
355.907	669
355.991	2580
356.076	479
356.161	1680
356.246	1476
356.331	953
356.416	316
356.501	5586
356.585	3636
356.670	407
356.755	2645
356.840	2250
356.924	3507
357.009	11822
357.094	4331
357.179	1251
357.263	1101
357.348	1908
357.433	1306
357.517	1050
357.602	-40
357.687	2006
357.771	1154
357.856	2313
357.941	1462
358.025	4398
358.110	16374
358.195	7435
358.279	1670
358.364	1445
358.448	2061
358.533	3896
358.617	2419
358.702	3153
358.787	1458
358.871	1578
358.956	991
359.040	1961
359.125	1831
359.209	2086
359.294	1123
359.378	2670
359.462	1870
359.547	1673
359.631	756
359.716	274
359.800	664
359.885	2013
359.969	249
360.053	2204
360.138	1466
360.222	1448
360.306	1060
360.391	1081
360.475	1568
360.559	1259
360.644	754
360.728	-96
360.812	3390
360.896	7132
360.981	2171
361.065	1870
361.149	1534
361.233	1556
361.318	298
361.402	1869
361.486	1990
361.570	1425
361.654	1333
361.739	1950
361.823	4059
361.907	9151
361.991	2755
362.075	3176
362.159	3416
362.243	8470
362.327	20738
362.411	36372
362.495	13073
362.580	5241
362.664	5063
362.748	4565
362.832	8707
362.916	18319
363.000	58430
363.084	89888
363.168	33924
363.252	9006
363.336	5882
363.420	4950
363.503	3880
363.587	3631
363.671	2934
363.755	3389
363.839	4863
363.923	3504
364.007	5193
364.091	6498
364.175	9736
364.258	25279
364.342	63097
364.426	132174
364.510	67453
364.594	19379
364.677	9096
364.761	8135
364.845	5947
364.929	2996
365.013	2003
365.096	2755
365.180	1258
365.264	2919
365.347	4158
365.431	2832
365.515	738
365.598	820
365.682	2852
365.766	903
365.849	1544
365.933	1080
366.017	2600
366.100	721
366.184	421
366.267	3461
366.351	1462
366.435	643
366.518	564
366.602	1749
366.685	1510
366.769	1761
366.852	1232
366.936	1673
367.019	1754
367.103	831
367.186	3263
367.270	2515
367.353	1109
367.436	3225
367.520	1666
367.603	1878
367.687	1126
367.770	2027
367.853	2635
367.937	3722
368.020	2611
368.104	1342
368.187	2231
368.270	1335
368.353	1209
368.437	1934
368.520	1947
368.603	2018
368.687	409
368.770	2342
368.853	1105
368.936	1934
369.020	1472
369.103	812
369.186	-54
369.269	1213
369.352	1473
369.436	1368
369.519	1657
369.602	-304
369.685	2321
369.768	619
369.851	1172
369.934	1162
370.018	183
370.101	967
370.184	3253
370.267	1990
370.350	1320
370.433	1602
370.516	7159
370.599	25350
370.682	9455
370.765	3032
370.848	4032
370.931	3992
371.014	3072
371.097	722
371.180	2361
371.263	2773
371.346	436
371.429	2804
371.511	1091
371.594	1879
371.677	2554
371.760	4072
371.843	2640
371.926	8240
372.009	15349
372.091	8920
372.174	3529
372.257	6510
372.340	3153
372.423	4029
372.505	4389
372.588	2192
372.671	3126
372.754	3474
372.836	2874
372.919	3639
373.002	4093
373.085	2706
373.167	2902
373.250	3104
373.332	3978
373.415	10040
373.498	15754
373.580	10848
373.663	37073
373.746	35867
373.828	5359
373.911	4491
373.993	1513
374.076	3396
374.159	2127
374.241	2599
374.324	3977
374.406	4630
374.489	4951
374.571	11352
374.654	4194
374.736	4060
374.819	6953
374.901	12667
374.983	11223
375.066	4510
375.148	3062
375.231	3921
375.313	4568
375.395	2705
375.478	2567
375.560	3476
375.643	3109
375.725	4019
375.807	7176
375.890	7436
375.972	1522
376.054	2453
376.136	2647
376.219	2014
376.301	3746
376.383	5732
376.465	2368
376.548	2238
376.630	2053
376.712	5086
376.794	2515
376.877	1594
376.959	933
377.041	3061
377.123	782
377.205	2468
377.287	902
377.369	2385
377.452	1560
377.534	1655
377.616	1778
377.698	1788
377.780	513
377.862	1942
377.944	2499
378.026	203
378.108	2335
378.190	1460
378.272	2506
378.354	2161
378.436	689
378.518	1207
378.600	961
378.682	766
378.764	2303
378.846	1593
378.928	150
379.010	418
379.091	1779
379.173	1178
379.255	602
379.337	864
379.419	1839
379.501	4159
379.583	1490
379.664	1309
379.746	565
379.828	4285
379.910	1767
379.991	3796
380.073	1223
380.155	2031
380.237	1535
380.318	1254
380.400	1202
380.482	2812
380.564	1510
380.645	2257
380.727	1460
380.809	3852
380.890	1474
380.972	999
381.053	1980
381.135	3084
381.217	1735
381.298	4664
381.380	2116
381.461	2775
381.543	5360
381.624	6720
381.706	3744
381.787	3428
381.869	3742
381.951	5409
382.032	10657
382.113	11356
382.195	3095
382.276	6572
382.358	3868
382.439	7482
382.521	10870
382.602	15413
382.684	12495
382.765	21918
382.846	67002
382.928	163063
383.009	89862
383.090	64941
383.172	200848
383.253	269163
383.334	82016
383.416	30227
383.497	22437
383.578	27263
383.659	54444
383.741	171232
383.822	351641
383.903	180971
383.984	44642
384.066	24388
384.147	13648
384.228	11036
384.309	8476
384.390	8664
384.471	6403
384.553	6275
384.634	5421
384.715	6787
384.796	5150
384.877	5230
384.958	6311
385.039	4840
385.120	4251
385.201	5020
385.282	4480
385.363	5946
385.444	6479
385.525	7170
385.606	6800
385.687	6538
385.768	4916
385.849	4016
385.930	9283
386.011	13911
386.092	5054
386.173	4239
386.254	3785
386.335	5368
386.416	2887
386.496	3841
386.577	4635
386.658	3924
386.739	2870
386.820	4537
386.901	2965
386.981	5066
387.062	5644
387.143	5118
387.224	6617
387.304	7809
387.385	6850
387.466	4398
387.547	6218
387.627	6111
387.708	6867
387.789	9078
387.869	7330
387.950	6415
388.031	3978
388.111	2249
388.192	4734
388.273	6371
388.353	4269
388.434	3392
388.514	2993
388.595	5221
388.676	5729
388.756	3185
388.837	3813
388.917	3674
388.998	1007
389.078	3216
389.159	2900
389.239	726
389.320	3159
389.400	708
389.480	2963
389.561	2267
389.641	3635
389.722	2171
389.802	1394
389.883	3106
389.963	4493
390.043	2962
390.124	1074
390.204	2801
390.284	2650
390.365	877
390.445	3165
390.525	3269
390.605	3370
390.686	2468
390.766	3004
390.846	3624
390.927	1820
391.007	2128
391.087	3283
391.167	2297
391.247	1405
391.328	3479
391.408	3421
391.488	3633
391.568	1963
391.648	2808
391.728	3956
391.808	4417
391.888	3234
391.969	3973
392.049	4124
392.129	5338
392.209	4726
392.289	7692
392.369	6693
392.449	7116
392.529	6685
392.609	10141
392.689	10060
392.769	13467
392.849	16281
392.929	21714
393.009	29385
393.089	42579
393.169	82542
393.248	203909
393.328	436896
393.408	428656
393.488	197277
393.568	78957
393.648	39912
393.728	24884
393.807	16065
393.887	14327
393.967	11385
394.047	9339
394.127	6633
394.206	7773
394.286	8337
394.366	21709
394.446	22460
394.525	7625
394.605	5124
394.685	5445
394.764	5730
394.844	9895
394.924	11160
395.003	5609
395.083	3763
395.163	4107
395.242	3156
395.322	4046
395.402	2132
395.481	5746
395.561	3334
395.640	15600
395.720	29887
395.799	13873
395.879	5782
395.958	5057
396.038	8540
396.117	32979
396.197	33275
396.276	12747
396.356	9627
396.435	12760
396.515	18143
396.594	28898
396.673	62315
396.753	186140
396.832	389852
396.912	282704
396.991	90095
397.070	37376
397.150	19639
397.229	16733
397.308	27988
397.388	47375
397.467	21377
397.546	8822
397.625	3806
397.705	6629
397.784	3813
397.863	3658
397.942	2852
398.022	3494
398.101	2570
398.180	4278
398.259	2036
398.338	4000
398.417	1817
398.497	1744
398.576	2996
398.655	1638
398.734	2195
398.813	1553
398.892	1559
398.971	3983
399.050	1188
399.129	989
399.208	1894
399.287	2443
399.366	1077
399.445	2021
399.524	1551
399.603	317
399.682	1667
399.761	1440
399.840	2988
399.919	2449
399.998	1160
400.077	-95
400.156	-169
400.235	3629
400.313	394
400.392	380
400.471	1597
400.550	2392
400.629	153
400.708	1045
400.786	-335
400.865	807
400.944	-155
401.023	2496
401.102	688
401.180	1426
401.259	902
401.338	827
401.416	1034
401.495	46
401.574	1481
401.652	-213
401.731	1250
401.810	-458
401.888	-320
401.967	52
402.046	185
402.124	1658
402.203	-1008
402.281	1167
402.360	-441
402.438	1743
402.517	-505
402.596	1189
402.674	-138
402.753	948
402.831	779
402.910	1484
402.988	820
403.066	2396
403.145	2404
403.223	2683
403.302	1972
403.380	2812
403.459	2112
403.537	1074
403.615	1245
403.694	-123
403.772	1261
403.850	1235
403.929	88
404.007	215
404.085	1585
404.164	404
404.242	210
404.320	2125
404.398	935
404.477	940
404.555	5588
404.633	3957
404.711	1978
404.789	1792
404.868	588
404.946	-492
405.024	296
405.102	1105
405.180	-635
405.258	-79
405.336	667
405.415	96
405.493	1565
405.571	1341
405.649	-185
405.727	-129
405.805	1910
405.883	1929
405.961	1389
406.039	711
406.117	-701
406.195	1507
406.273	-265
406.351	4039
406.429	2518
406.507	553
406.585	-265
406.663	1187
406.740	572
406.818	-342
406.896	-373
406.974	1098
407.052	-718
407.130	2478
407.208	2328
407.285	1205
407.363	-945
407.441	459
407.519	123
407.596	729
407.674	1074
407.752	4522
407.830	3058
407.907	1057
407.985	-1162
408.063	1373
408.141	-613
408.218	1477
408.296	-1086
408.373	394
408.451	713
408.529	-226
408.606	88
408.684	1369
408.762	474
408.839	1000
408.917	1732
408.994	2132
409.072	763
409.149	1684
409.227	5240
409.304	8313
409.382	7993
409.459	9284
409.537	12651
409.614	10954
409.692	7144
409.769	7126
409.846	12664
409.924	17014
410.001	8271
410.079	6052
410.156	4810
410.233	2681
410.311	1956
410.388	2479
410.465	2154
410.543	1715
410.620	1795
410.697	2263
410.775	1421
410.852	263
410.929	2692
411.006	2841
411.083	977
411.161	1763
411.238	1550
411.315	1178
411.392	1414
411.469	1592
411.547	934
411.624	-669
411.701	215
411.778	1605
411.855	488
411.932	771
412.009	352
412.086	1076
412.163	549
412.240	72
412.317	1024
412.394	708
412.471	4
412.548	783
412.625	-511
412.702	415
412.779	-414
412.856	466
412.933	-105
413.010	818
413.087	-25
413.164	631
413.241	654
413.318	-970
413.395	381
413.471	-10
413.548	331
413.625	1105
413.702	-841
413.779	435
413.855	594
413.932	379
414.009	-1140
414.086	564
414.162	612
414.239	1036
414.316	611
414.393	2366
414.469	-777
414.546	-70
414.623	-110
414.699	-239
414.776	-333
414.853	-139
414.929	464
415.006	408
415.082	8
415.159	449
415.236	259
415.312	909
415.389	383
415.465	-403
415.542	-1087
415.618	-559
415.695	-247
415.771	-491
415.848	-335
415.924	-229
416.000	-675
416.077	1689
416.153	-1221
416.230	-754
416.306	48
416.383	-617
416.459	677
416.535	-430
416.612	-55
416.688	454
416.764	-189
416.841	-370
416.917	-333
416.993	752
417.069	216
417.146	-489
417.222	-800
417.298	299
417.374	-820
417.451	-13
417.527	-898
417.603	-199
417.679	-50
417.755	275
417.831	28
417.908	1194
417.984	-259
418.060	-575
418.136	-249
418.212	93
418.288	60
418.364	-264
418.440	-913
418.516	354
418.592	-35
418.668	668
418.744	-598
418.820	17
418.896	-318
418.972	-712
419.048	-373
419.124	1540
419.200	-753
419.276	0
419.352	-317
419.428	630
419.504	-213
419.579	371
419.655	12
419.731	-672
419.807	-15
419.883	-263
419.959	109
420.034	444
420.110	-52
420.186	347
420.262	1419
420.337	916
420.413	572
420.489	849
420.565	1892
420.640	401
420.716	1048
420.792	623
420.867	1737
420.943	742
421.019	1079
421.094	1616
421.170	1937
421.245	1645
421.321	1826
421.397	2926
421.472	4184
421.548	4610
421.623	4205
421.699	3946
421.774	4839
421.850	4843
421.925	6515
422.001	8707
422.076	10437
422.152	12923
422.227	17236
422.302	25100
422.378	38631
422.453	65222
422.529	116030
422.604	170073
422.679	158502
422.755	162772
422.830	118225
422.905	66923
422.981	41848
423.056	28296
423.131	21283
423.207	14319
423.282	11075
423.357	9755
423.432	7711
423.508	6475
423.583	5317
423.658	5459
423.733	4298
423.808	3453
423.883	5015
423.959	4416
424.034	5600
424.109	5939
424.184	3130
424.259	2381
424.334	1322
424.409	2511
424.484	1264
424.559	872
424.634	988
424.709	816
424.784	614
424.859	1104
424.934	281
425.009	1453
425.084	1270
425.159	1105
425.234	796
425.309	25
425.384	1167
425.459	-73
425.534	714
425.609	799
425.683	-235
425.758	-117
425.833	416
425.908	1274
425.983	-463
426.058	1152
426.132	445
426.207	473
426.282	777
426.357	-663
426.431	-738
426.506	433
426.581	349
426.655	-374
426.730	824
426.805	151
426.879	-539
426.954	734
427.029	232
427.103	594
427.178	1713
427.253	401
427.327	66
427.402	-566
427.476	-359
427.551	-60
427.625	-662
427.700	-15
427.774	-509
427.849	1033
427.923	-731
427.998	-401
428.072	453
428.147	2651
428.221	19836
428.296	64475
428.370	32407
428.444	3091
428.519	443
428.593	405
428.667	647
428.742	1874
428.816	6335
428.890	38618
428.965	56054
429.039	12264
429.113	1354
429.188	519
429.262	356
429.336	667
429.410	155
429.485	500
429.559	544
429.633	797
429.707	796
429.781	5355
429.855	35341
429.930	51293
430.004	10932
430.078	5486
430.152	21642
430.226	85471
430.300	78216
430.374	14234
430.448	3740
430.522	2344
430.596	2130
430.670	10686
430.744	48404
430.818	51326
430.892	7970
430.966	918
431.040	1122
431.114	-495
431.188	-195
431.262	-237
431.336	-386
431.410	446
431.484	-552
431.557	476
431.631	113
431.705	3004
431.779	15257
431.853	62856
431.927	37794
432.000	5193
432.074	525
432.148	211
432.222	-318
432.295	579
432.369	-290
432.443	5
432.516	188
432.590	2089
432.664	56
432.737	-1220
432.811	-1297
432.885	-954
432.958	-187
433.032	-922
433.106	-1091
433.179	-887
433.253	-891
433.326	-305
433.400	-763
433.473	624
433.547	-1236
433.620	-217
433.694	-1325
433.767	-530
433.841	-1765
433.914	-113
433.988	-697
434.061	-920
434.134	-499
434.208	-24
434.281	-939
434.355	-1239
434.428	-946
434.501	-921
434.575	-869
434.648	-1130
434.721	-1305
434.795	-539
434.868	-1619
434.941	-755
435.014	-368
435.088	46
435.161	315
435.234	1575
435.307	1257
435.381	2049
435.454	3146
435.527	6769
435.600	7351
435.673	4640
435.746	2292
435.819	1498
435.892	257
435.966	293
436.039	-828
436.112	89
436.185	-1022
436.258	-571
436.331	-1398
436.404	-319
436.477	-1377
436.550	-357
436.623	-951
436.696	-354
436.769	-496
436.842	-732
436.915	-1273
436.987	-609
437.060	-797
437.133	-459
437.206	-1756
437.279	-39
437.352	-581
437.425	-170
437.498	-1197
437.570	-1326
437.643	-1376
437.716	-321
437.789	-1305
437.861	-886
437.934	-987
438.007	-440
438.080	-1282
438.152	-342
438.225	-976
438.298	1140
438.370	3479
438.443	1244
438.516	-731
438.588	-850
438.661	-869
438.734	131
438.806	-1077
438.879	-885
438.951	-1132
439.024	-543
439.096	-1176
439.169	-1646
439.241	-1228
439.314	-857
439.386	-1199
439.459	-87
439.531	-888
439.604	-478
439.676	-766
439.749	-220
439.821	-960
439.893	-9
439.966	-1155
440.038	-801
440.110	-1345
440.183	-888
440.255	-1069
440.327	-235
440.400	-533
440.472	1131
440.544	521
440.617	-383
440.689	225
440.761	-533
440.833	-723
440.905	-310
440.978	-1379
441.050	-996
441.122	-151
441.194	-1802
441.266	-1017
441.338	-1245
441.411	-1084
441.483	14
441.555	385
441.627	-672
441.699	-364
441.771	-864
441.843	-1062
441.915	-617
441.987	-453
442.059	267
442.131	-298
442.203	747
442.275	478
442.347	2427
442.419	8318
442.491	47650
442.563	97340
442.635	34322
442.706	4861
442.778	2084
442.850	1079
442.922	1049
442.994	162
443.066	742
443.137	1112
443.209	2553
443.281	5086
443.353	13108
443.425	52110
443.496	155290
443.568	151485
443.640	57302
443.711	10941
443.783	4137
443.855	2199
443.926	1470
443.998	399
444.070	1273
444.141	9
444.213	273
444.285	681
444.356	363
444.428	-45
444.499	943
444.571	-598
444.642	592
444.714	-123
444.785	748
444.857	1666
444.928	49
445.000	651
445.071	2219
445.143	2777
445.214	4617
445.285	9403
445.357	28249
445.428	102359
445.500	186674
445.571	135048
445.642	87103
445.714	25833
445.785	8293
445.856	2420
445.928	1491
445.999	710
446.070	961
446.141	791
446.213	514
446.284	-300
446.355	677
446.426	-854
446.497	-143
446.569	-495
446.640	-968
446.711	-714
446.782	-293
446.853	-478
446.924	-99
446.995	-606
447.066	-40
447.138	-889
447.209	-417
447.280	-1839
447.351	-750
447.422	-1579
447.493	-137
447.564	-767
447.635	-1552
447.706	-1580
447.777	-539
447.847	-721
447.918	-871
447.989	-902
448.060	-124
448.131	-1124
448.202	-1053
448.273	-1749
448.344	-477
448.414	-1304
448.485	-78
448.556	-773
448.627	-1643
448.698	-110
448.768	-418
448.839	-1167
448.910	-1244
448.981	-986
449.051	-653
449.122	-1429
449.193	-1274
449.263	-1293
449.334	-987
449.405	-877
449.475	-906
449.546	-353
449.616	-520
449.687	-559
449.758	-10
449.828	-1453
449.899	-1104
449.969	-965
450.040	-852
450.110	-230
450.181	-886
450.251	-1618
450.322	-724
450.392	-1550
450.463	-333
450.533	-1622
450.604	109
450.674	-1443
450.744	211
450.815	-544
450.885	-109
450.955	-651
451.026	-752
451.096	-1140
451.166	-688
451.237	-685
451.307	246
451.377	-291
451.447	-842
451.518	-1255
451.588	-562
451.658	-1128
451.728	-856
451.799	-1082
451.869	-389
451.939	-1196
452.009	-1242
452.079	-706
452.149	342
452.219	-1076
452.289	-110
452.360	-617
452.430	-583
452.500	-976
452.570	1247
452.640	5343
452.710	16044
452.780	14727
452.850	6243
452.920	1427
452.990	1314
453.060	195
453.129	-1732
453.199	-1004
453.269	-168
453.339	87
453.409	336
453.479	692
453.549	365
453.619	1001
453.688	-929
453.758	-1714
453.828	-797
453.898	-1261
453.968	-1322
454.037	-1462
454.087	-749
454.107	-467
454.168	-1275
454.177	-1406
454.247	-925
454.249	-929
454.316	-1482
454.330	-1356
454.386	-889
454.411	-1155
454.456	-1676
454.492	-1181
454.525	-764
454.574	-603
454.595	-551
454.655	-656
454.665	-677
454.734	-649
454.736	-638
454.804	-834
454.817	-609
454.873	265
454.898	271
454.943	353
454.979	-222
455.013	-836
455.060	-371
455.082	-176
455.141	-691
455.152	-796
455.221	-596
455.222	-586
455.291	-801
455.303	-832
455.360	-1022
455.384	-938
455.430	-861
455.465	-355
455.499	99
455.546	-483
455.569	-756
455.627	365
455.638	562
455.707	-591
455.708	-576
455.777	-47
455.789	-177
455.846	-747
455.869	-549
455.916	-406
455.950	-528
455.985	-528
456.031	-211
456.054	-137
456.112	-490
456.124	-535
456.193	-437
456.193	-451
456.262	883
456.274	869
456.332	525
456.355	153
456.401	-401
456.436	11
456.470	199
456.516	-429
456.540	-593
456.597	353
456.609	475
456.678	-233
456.678	-248
456.747	346
456.759	287
456.817	89
456.840	234
456.886	291
456.920	199
456.955	292
457.001	261
457.024	104
457.082	780
457.093	922
457.162	603
457.163	615
457.232	-69
457.243	0
457.301	753
457.324	614
457.370	74
457.405	683
457.439	1381
457.485	1513
457.508	1564
457.566	1944
457.577	2070
457.646	2594
457.647	2625
457.715	7407
457.727	8597
457.784	16047
457.808	22230
457.853	29230
457.889	32499
457.922	32095
457.969	19931
457.991	19104
458.050	24064
458.060	24945
458.129	48451
458.130	49004
458.198	47935
458.211	41878
458.267	20179
458.292	13629
458.336	7953
458.372	7768
458.405	11599
458.453	18790
458.474	23872
458.533	45636
458.543	47221
458.611	76619
458.614	76650
458.680	43964
458.694	33963
458.749	13090
458.775	9128
458.818	4880
458.855	4095
458.887	3529
458.936	2728
458.955	2458
459.016	1660
459.024	1595
459.093	2086
459.097	2096
459.162	1888
459.177	1912
459.230	2174
459.257	2047
459.299	1448
459.338	1341
459.368	1474
459.418	1408
459.437	1328
459.499	1823
459.505	1890
459.574	1610
459.579	1609
459.643	1215
459.659	1222
459.711	1605
459.740	1916
459.780	2082
459.820	1892
459.849	1851
459.900	1635
459.917	1525
459.981	1755
459.986	1730
460.054	1298
460.061	1186
460.123	949
460.141	1287
460.191	1958
460.222	1865
460.260	1525
460.302	1587
460.328	1834
460.382	1643
460.397	1528
460.462	1948
460.465	1975
460.534	2234
460.543	2251
460.602	5105
460.623	6348
460.671	9346
460.703	12360
460.739	11524
460.783	8398
460.808	6906
460.864	2623
460.876	2370
460.944	1965
460.945	1953
461.013	2072
461.024	2004
461.081	1728
461.104	1861
461.150	2144
461.184	2201
461.218	2150
461.264	1726
461.286	1581
461.345	1689
461.355	1735
461.423	2254
461.425	2249
461.491	1834
461.505	1854
461.559	1807
461.585	1749
461.628	1645
461.665	1889
461.696	2292
461.745	2466
461.764	2312
461.825	1727
461.832	1809
461.901	2657
461.905	2726
461.969	1408
461.985	1073
462.037	2471
462.065	3200
462.105	2640
462.145	2072
462.173	2021
462.225	2073
462.241	2167
462.305	2555
462.310	2544
462.378	2272
462.385	2204
462.446	2273
462.465	2321
462.514	2268
462.545	2350
462.582	2199
462.625	1964
462.650	1985
462.705	1928
462.718	1866
462.785	1881
462.786	1881
462.854	1240
462.865	1207
462.922	1569
462.945	1765
462.990	2313
463.025	2528
463.058	2298
463.104	2051
463.126	2126
463.184	2398
463.194	2382
463.262	2054
463.264	2050
463.330	2466
463.344	2514
463.398	3254
463.424	3595
463.466	2673
463.504	1904
463.533	2276
463.583	2815
463.601	2646
463.663	2060
463.669	2114
463.737	2855
463.743	2909
463.805	3351
463.823	3425
463.873	3038
463.903	2907
463.940	2859
463.982	2775
464.008	2715
464.062	2442
464.076	2452
464.142	2617
464.144	2629
464.211	2890
464.221	2923
464.279	2525
464.301	2262
464.347	1905
464.381	1928
464.414	2248
464.461	2416
464.482	2377
464.540	2466
464.550	2541
464.617	2679
464.620	2695
464.685	3187
464.699	3216
464.753	3179
464.779	3176
464.820	2651
464.859	2082
464.888	2129
464.938	2362
464.956	2662
465.018	3604
465.023	3571
465.091	3131
465.098	3065
465.158	2485
465.177	2386
465.226	2886
465.257	3089
465.293	2912
465.336	2727
465.361	2793
465.416	2815
465.428	2770
465.495	2824
465.496	2831
465.563	2904
465.575	2951
465.631	3497
465.654	3695
465.698	3405
465.734	3158
465.765	2916
465.813	2417
465.833	2558
465.893	3142
465.900	3137
465.968	3031
465.972	3011
466.035	2775
466.052	2716
466.102	3045
466.131	3208
466.170	2689
466.210	2130
466.237	2734
466.290	3918
466.304	3766
466.369	3018
466.372	3034
466.439	3371
466.449	3399
466.506	3356
466.528	3349
466.573	3516
466.607	3626
466.641	3711
466.687	3841
466.708	3986
466.766	4253
466.775	4146
466.842	3396
466.845	3348
466.909	3400
466.925	3420
466.977	3913
467.004	4158
467.044	4409
467.083	4642
467.111	4171
467.163	3244
467.178	3494
467.242	4518
467.245	4495
467.312	3845
467.321	3753
467.379	3643
467.400	3589
467.446	4277
467.480	4763
467.559	3859
467.638	3969
467.717	2793
467.796	4109
467.875	3663
467.955	3942
468.034	3952
468.113	4304
468.192	6621
468.271	6741
468.350	9654
468.429	14832
468.508	16309
468.588	9892
468.667	5685
468.746	5638
468.825	4436
468.904	4861
468.983	4974
469.062	4320
469.141	4480
469.220	3270
469.299	4588
469.378	3361
469.456	5185
469.535	4524
469.614	3485
469.693	3915
469.772	4682
469.851	4607
469.930	5098
470.009	4285
470.088	5011
470.166	7491
470.245	11367
470.324	12930
470.403	7372
470.482	5733
470.560	5075
470.639	4040
470.718	4767
470.797	4320
470.875	4658
470.954	3692
471.033	3783
471.111	3491
471.190	4360
471.269	3980
471.347	3367
471.426	3542
471.505	4319
471.583	4360
471.662	3462
471.740	4283
471.819	4365
471.898	2945
471.976	3895
472.055	4137
472.133	5046
472.212	3980
472.290	3676
472.369	3342
472.447	4161
472.526	2929
472.604	4281
472.683	4751
472.761	3834
472.839	4729
472.918	3955
472.996	3943
473.075	4909
473.153	4100
473.231	4386
473.310	4217
473.388	5043
473.466	4088
473.545	3390
473.623	4073
473.701	3439
473.780	5100
473.858	3258
473.936	5435
474.014	4664
474.093	4760
474.171	4140
474.249	4775
474.327	4090
474.405	3818
474.484	4436
474.562	3636
474.640	4325
474.718	3799
474.796	4021
474.874	4803
474.952	3600
475.030	3210
475.108	4064
475.187	4114
475.265	4490
475.343	4732
475.421	4404
475.499	4066
475.577	4084
475.655	4354
475.733	4475
475.811	4530
475.889	3868
475.966	3297
476.044	4705
476.122	3732
476.200	4272
476.278	3428
476.356	3418
476.434	3687
476.512	3954
476.590	3792
476.667	5344
476.745	3681
476.823	4174
476.901	3822
476.979	3981
477.056	3766
477.134	4357
477.212	3514
477.290	3785
477.367	3938
477.445	4402
477.523	3388
477.601	3869
477.678	4606
477.756	4032
477.834	4146
477.911	4000
477.989	3981
478.066	4011
478.144	3857
478.222	2987
478.299	3098
478.377	3142
478.454	3881
478.532	3293
478.609	2906
478.687	4661
478.764	3812
478.842	3984
478.919	2631
478.997	3818
479.074	4073
479.152	3761
479.229	3677
479.307	2932
479.384	3670
479.461	3537
479.539	3207
479.616	3971
479.694	3223
479.771	3802
479.848	3569
479.926	2345
480.003	4379
480.080	4166
480.157	3394
480.235	3444
480.312	3126
480.389	3427
480.467	4145
480.544	3705
480.621	3344
480.698	4377
480.775	4315
480.853	3999
480.930	3883
481.007	4022
481.084	2815
481.161	4359
481.238	4091
481.315	4026
481.392	4006
481.470	4254
481.547	3374
481.624	3227
481.701	4305
481.778	3284
481.855	4083
481.932	4558
482.009	4134
482.086	4250
482.163	4925
482.240	5622
482.317	6289
482.393	5289
482.470	4318
482.547	5024
482.624	3914
482.701	4508
482.778	3242
482.855	4005
482.932	3813
483.009	4658
483.085	5689
483.162	4044
483.239	6144
483.316	5322
483.393	6315
483.469	4569
483.546	4586
483.623	4390
483.699	3074
483.776	4210
483.853	3749
483.930	4109
484.006	2825
484.083	5333
484.160	4094
484.236	5082
484.313	4419
484.389	3635
484.466	5628
484.543	5310
484.619	7415
484.696	9925
484.772	6444
484.849	5422
484.925	4392
485.002	4628
485.078	3803
485.155	3310
485.231	3752
485.308	4234
485.384	4125
485.461	4343
485.537	3507
485.614	4846
485.690	4285
485.766	4387
485.843	3797
485.919	3120
485.995	3754
486.072	4544
486.148	4382
486.224	3462
486.301	3198
486.377	4322
486.453	2246
486.530	4810
486.606	5477
486.682	4075
486.758	4309
486.835	4079
486.911	2964
486.987	5718
487.063	5891
487.139	5492
487.215	5355
487.292	7312
487.368	7158
487.444	8673
487.520	11937
487.596	17524
487.672	45909
487.748	155204
487.824	218162
487.900	57723
487.976	15490
488.052	9625
488.128	7304
488.204	5103
488.280	5971
488.356	5148
488.432	5541
488.508	4973
488.584	3605
488.660	4330
488.736	4632
488.812	3707
488.888	4477
488.964	3902
489.039	3384
489.115	4931
489.191	4663
489.267	4551
489.343	4002
489.418	4732
489.494	4110
489.570	2689
489.646	5456
489.722	4488
489.797	4223
489.873	3594
489.949	4822
490.024	4615
490.100	4100
490.176	3389
490.251	4153
490.327	4500
490.403	3789
490.478	4763
490.554	3959
490.629	3961
490.705	3897
490.781	4983
490.856	3799
490.932	3820
491.007	4445
491.083	3466
491.158	3889
491.234	4080
491.309	4578
491.385	3425
491.460	3424
491.536	5469
491.611	3226
491.686	4873
491.762	4290
491.837	4248
491.913	4614
491.988	5077
492.063	4264
492.139	4835
492.214	4125
492.289	4297
492.365	3114
492.440	4489
492.515	3898
492.590	3386
492.666	3246
492.741	3992
492.816	3963
492.891	3646
492.967	4308
493.042	4797
493.117	3556
493.192	5002
493.267	4821
493.342	4384
493.418	5053
493.493	3619
493.568	4579
493.643	3980
493.718	4080
493.793	3872
493.868	3830
493.943	4042
494.018	4909
494.093	3819
494.168	4385
494.243	4301
494.318	3951
494.393	5487
494.468	4211
494.543	4199
494.618	4806
494.693	4565
494.768	4976
494.842	4319
494.917	5544
494.992	4413
495.067	4355
495.142	4145
495.217	3441
495.292	5234
495.366	4821
495.441	3634
495.516	4808
495.591	5011
495.665	5539
495.740	6860
495.815	5093
495.890	4045
495.964	2870
496.039	7155
496.114	5490
496.188	5905
496.263	5331
496.338	4827
496.412	3583
496.487	4696
496.561	5269
496.636	4694
496.710	4480
496.785	4838
496.860	3738
496.934	5424
497.009	4636
497.083	4080
497.158	5158
497.232	5913
497.307	5991
497.381	6581
497.455	6798
497.530	4849
497.604	5042
497.679	5097
497.753	4517
497.827	3780
497.902	3680
497.976	5618
498.050	6558
498.125	10848
498.199	9768
498.273	6424
498.348	6098
498.422	5984
498.496	7618
498.570	8085
498.645	4260
498.719	2669
498.793	4342
498.867	4542
498.941	4035
499.016	5336
499.090	8217
499.164	6269
499.238	5793
499.312	5108
499.386	5980
499.460	6969
499.534	7273
499.609	9300
499.683	5722
499.757	3293
499.831	3554
499.905	5865
499.979	4906
500.053	4029
500.127	3120
500.201	3612
500.275	5148
500.349	5116
500.422	6541
500.496	7463
500.570	7166
500.644	12401
500.718	12033
500.792	3693
500.866	3527
500.940	3504
501.013	3845
501.087	3201
501.161	3157
501.235	943
501.309	5723
501.382	4399
501.456	6302
501.530	2770
501.603	2701
501.677	2888
501.751	2115
501.825	4185
501.898	2979
501.972	3895
502.046	2865
502.119	2152
502.193	3172
502.266	3047
502.340	4156
502.413	2808
502.487	3502
502.561	2664
502.634	3160
502.708	3187
502.781	2005
502.855	3969
502.928	1772
503.002	2639
503.075	1845
503.149	2496
503.222	3250
503.295	2469
503.369	3601
503.442	1991
503.516	5067
503.589	5425
503.662	4394
503.736	6586
503.809	7841
503.882	8265
503.956	12814
504.029	26969
504.102	87025
504.175	124937
504.249	38118
504.322	12296
504.395	6925
504.468	5690
504.542	4283
504.615	2573
504.688	3640
504.761	1113
504.834	4409
504.907	2919
504.980	3589
505.053	2004
505.127	-250
505.200	5289
505.273	1415
505.346	2254
505.419	782
505.492	3194
505.565	1556
505.638	3417
505.711	1552
505.784	1234
505.857	2245
505.930	3754
506.003	94
506.076	5161
506.149	1819
506.221	267
506.294	3012
506.367	623
506.440	2768
506.513	3332
506.586	2008
506.659	1626
506.731	2469
506.804	1065
506.877	1183
506.950	3043
507.022	3517
507.095	420
507.168	2406
507.241	3750
507.313	2020
507.386	1569
507.459	3114
507.531	2571
507.604	1098
507.677	3453
507.749	539
507.822	3732
507.894	1565
507.967	3057
508.040	1033
508.112	2833
508.185	2365
508.257	1153
508.330	3865
508.402	2072
508.475	1335
508.547	2541
508.620	1686
508.692	2296
508.765	3091
508.837	1600
508.909	2502
508.982	2000
509.054	2566
509.127	2242
509.199	2783
509.271	1640
509.344	1810
509.416	2621
509.488	2046
509.560	3207
509.633	1545
509.705	1171
509.777	1632
509.849	2537
509.922	786
509.994	2588
510.066	2874
510.138	125
510.210	4334
510.283	2124
510.355	2784
510.427	2673
510.499	1908
510.571	2644
510.643	1554
510.715	4311
510.787	873
510.859	3305
510.931	2162
511.003	2173
511.076	3012
511.148	1170
511.219	620
511.291	2760
511.363	2803
511.435	1653
511.507	1209
511.579	3207
511.651	3195
511.723	1790
511.795	1668
511.867	2611
511.939	1491
512.010	1548
512.082	3180
512.154	845
512.226	1253
512.298	3262
512.369	1869
512.441	2310
512.513	1991
512.585	1403
512.656	3225
512.728	1649
512.800	1433
512.871	2709
512.943	2415
513.015	1276
513.086	2703
513.158	1825
513.230	868
513.301	1614
513.373	3667
513.444	2219
513.516	1969
513.588	1215
513.659	2639
513.731	1579
513.802	1573
513.874	3397
513.945	1748
514.016	1558
514.088	2501
514.159	285
514.231	2159
514.302	2515
514.374	1702
514.445	627
514.516	3704
514.588	1096
514.659	1924
514.730	1595
514.802	2848
514.873	184
514.944	4454
515.016	2842
515.087	1009
515.158	2121
515.229	2954
515.301	1151
515.372	2638
515.443	1527
515.514	2233
515.585	708
515.656	2626
515.728	3544
515.799	1253
515.870	3411
515.941	3339
516.012	2041
516.083	4103
516.154	2937
516.225	4907
516.296	7038
516.367	6022
516.438	6493
516.509	8687
516.580	14455
516.651	62187
516.722	191760
516.793	70510
516.864	12475
516.935	12047
517.006	14990
517.077	19356
517.148	48411
517.219	238631
517.289	339442
517.360	45875
517.431	12354
517.502	6257
517.573	7041
517.643	5772
517.714	5469
517.785	6632
517.856	7232
517.926	11077
517.997	12855
518.068	14933
518.138	24188
518.209	38062
518.280	156434
518.350	506673
518.421	193075
518.492	29251
518.562	17247
518.633	17851
518.703	21967
518.774	55101
518.845	157953
518.915	142644
518.986	32988
519.056	13595
519.127	9857
519.197	6572
519.268	5467
519.338	6683
519.408	4111
519.479	2982
519.549	2498
519.620	5273
519.690	2276
519.760	2705
519.831	3034
519.901	2873
519.971	3430
520.042	2599
520.112	1251
520.182	3502
520.253	3563
520.323	1774
520.393	1325
520.463	4267
520.534	-1136
520.604	4540
520.674	2788
520.744	1546
520.814	841
520.885	3256
520.955	2438
521.025	2883
521.095	2746
521.165	3352
521.235	2109
521.305	993
521.375	2830
521.445	2835
521.515	1540
521.585	2863
521.655	695
521.725	3634
521.795	3517
521.865	417
521.935	4994
522.005	1686
522.075	1715
522.145	3123
522.215	1400
522.285	2892
522.355	1842
522.424	2572
522.494	1467
522.564	2770
522.634	2641
522.704	4492
522.774	1933
522.843	2707
522.913	2725
522.983	1910
523.053	1700
523.122	2379
523.192	2497
523.262	1590
523.331	2379
523.401	2946
523.471	2289
523.540	2833
523.610	2543
523.680	2849
523.749	3619
523.819	3851
523.888	2056
523.958	2988
524.027	2376
524.097	2752
524.166	2990
524.236	1613
524.305	5752
524.375	2258
524.444	1788
524.514	3743
524.583	2430
524.653	1586
524.722	2512
524.791	1828
524.861	4873
524.930	2609
524.999	2712
525.069	3160
525.138	2774
525.207	2366
525.277	3611
525.346	2840
525.415	5450
525.484	3863
525.554	4988
525.623	6910
525.692	8225
525.761	8985
525.830	12677
525.900	14008
525.969	23938
526.038	46063
526.107	102065
526.176	290020
526.245	210672
526.314	57246
526.383	144096
526.452	181033
526.522	277603
526.591	237031
526.660	34266
526.729	20924
526.797	24370
526.867	32146
526.935	108671
527.004	418024
527.073	241693
527.142	28364
527.211	11889
527.280	8937
527.349	6934
527.418	4157
527.487	6324
527.555	3556
527.624	3386
527.693	2354
527.762	4664
527.831	2659
527.899	4581
527.968	3645
528.037	1876
528.106	4011
528.174	2758
528.243	3667
528.312	3418
528.380	2706
528.449	2004
528.518	4408
528.586	1742
528.655	3329
528.723	1930
528.792	2470
528.861	1339
528.929	1696
528.998	3752
529.066	2962
529.135	3150
529.203	2430
529.272	1871
529.340	2703
529.409	4880
529.477	2107
529.545	1868
529.614	5542
529.682	1260
529.751	2929
529.819	6240
529.887	3206
529.956	2524
530.024	3740
530.092	2087
530.161	3699
530.229	3417
530.297	2812
530.365	4447
530.434	3914
530.502	2247
530.570	3511
530.638	1993
530.707	3184
530.775	4660
530.843	2273
530.911	2937
530.979	4660
531.047	3144
531.115	4932
531.183	3366
531.252	3757
531.320	3339
531.388	3626
531.456	3866
531.524	2500
531.592	4768
531.660	6639
531.728	2380
531.796	3299
531.864	3981
531.932	3365
532.000	3394
532.067	4152
532.135	4290
532.203	3993
532.271	3984
532.339	5398
532.407	4986
532.475	5394
532.542	5780
532.610	4969
532.678	4225
532.746	7159
532.814	8394
532.881	5062
532.949	4884
533.017	4853
533.084	4661
533.152	3861
533.220	4161
533.287	3281
533.355	5527
533.423	5809
533.490	4372
533.558	5195
533.625	5460
533.693	4401
533.761	5157
533.828	5252
533.896	2770
533.963	5796
534.031	6539
534.098	7451
534.166	8306
534.233	7961
534.300	9396
534.368	9155
534.435	8026
534.503	10539
534.570	9320
534.637	10087
534.705	11443
534.772	14128
534.840	28261
534.907	128946
534.974	148578
535.041	19460
535.109	10430
535.176	7619
535.243	9733
535.310	8386
535.378	6980
535.445	8557
535.512	7638
535.579	8685
535.646	7297
535.714	8016
535.781	8824
535.848	9349
535.915	8422
535.982	7549
536.049	7462
536.116	9425
536.183	7587
536.250	7510
536.317	7839
536.384	8481
536.451	8161
536.518	9539
536.585	6127
536.652	10623
536.719	9320
536.786	7110
536.853	7918
536.920	8994
536.987	8923
537.053	7103
537.120	10911
537.187	10968
537.254	9310
537.321	8468
537.388	11375
537.454	8691
537.521	9490
537.588	9187
537.654	10107
537.721	10554
537.788	10417
537.855	8838
537.921	9468
537.988	8416
538.055	8739
538.121	7748
538.188	8274
538.254	7179
538.321	8012
538.388	9208
538.454	10934
538.521	10331
538.587	9602
538.654	9083
538.720	9014
538.787	10063
538.853	10732
538.920	9191
538.986	8475
539.053	7552
539.119	9125
539.185	8418
539.252	9375
539.318	9393
539.385	12419
539.451	8733
539.517	10132
539.583	9704
539.650	9913
539.716	9010
539.782	8755
539.849	8588
539.915	9028
539.981	8265
540.047	8705
540.114	8063
540.180	10456
540.246	9183
540.312	9986
540.378	10435
540.444	11289
540.510	9896
540.576	11225
540.643	8927
540.709	8252
540.775	9104
540.841	9242
540.907	9160
540.973	9648
541.039	8965
541.105	9789
541.171	9034
541.237	9530
541.303	11053
541.369	12223
541.435	10066
541.500	8792
541.566	8529
541.632	9436
541.698	8948
541.764	9894
541.830	8639
541.896	8453
541.961	9600
542.027	9779
542.093	10206
542.159	10775
542.224	8787
542.290	10240
542.356	7918
542.421	9009
542.487	8931
542.553	8642
542.618	9254
542.684	9216
542.750	9724
542.815	9158
542.881	8462
542.947	10622
543.012	10540
543.078	8853
543.143	8664
543.209	10256
543.274	8805
543.340	8606
543.405	9542
543.471	9223
543.536	9801
543.602	9740
543.667	7980
543.732	10823
543.798	9491
543.863	10017
543.928	9279
543.994	9705
544.059	10813
544.124	10474
544.190	9608
544.255	10753
544.320	10368
544.386	10139
544.451	11024
544.516	10242
544.581	10152
544.646	10315
544.712	11488
544.777	11315
544.842	10538
544.907	10935
544.972	11475
545.037	11065
545.102	12057
545.168	10745
545.233	12077
545.298	12776
545.363	11806
545.428	13003
545.493	13074
545.558	11718
545.623	13061
545.688	12691
545.753	13950
545.818	14708
545.883	15935
545.947	14039
546.012	16737
546.077	17240
546.142	18274
546.207	17378
546.272	19399
546.337	19320
546.401	20956
546.466	21114
546.531	21818
546.596	23965
546.661	24952
546.725	27120
546.790	28079
546.855	31457
546.919	34314
546.984	38055
547.049	41032
547.113	47000
547.178	51956
547.243	58956
547.307	69170
547.372	75028
547.436	73667
547.501	80312
547.565	85045
547.630	77366
547.695	75063
547.759	75227
547.823	76042
547.888	78976
547.952	80614
548.017	82744
548.081	84372
548.146	83907
548.210	87136
548.274	94860
548.339	89810
548.403	83099
548.468	78079
548.532	77797
548.596	78945
548.660	80993
548.725	88692
548.789	95735
548.853	90763
548.917	87795
548.982	84645
549.046	75730
549.110	69953
549.174	72339
549.238	84712
549.303	93266
549.367	95959
549.431	89173
549.495	83280
549.559	84538
549.623	100540
549.687	108109
549.751	106399
549.815	126170
549.879	126479
549.943	122714
550.007	128964
550.071	124741
550.135	112917
550.199	109149
550.263	106134
550.327	100926
550.391	103110
550.455	115342
550.519	120518
550.582	127723
550.646	143614
550.710	142886
550.774	142910
550.838	145290
550.901	149626
550.965	155124
551.029	159097
551.093	168178
551.156	177113
551.220	189087
551.284	204744
551.347	170936
551.411	152138
551.475	147533
551.538	153903
551.602	145214
551.666	140825
551.729	133402
551.793	129003
551.856	126979
551.920	125002
551.983	126194
552.047	123036
552.110	125961
552.174	125035
552.237	127659
552.301	119252
552.364	116035
552.428	113373
552.491	114803
552.554	117073
552.618	117901
552.681	119002
552.745	117704
552.808	127949
552.871	139982
552.934	127685
552.998	119219
553.061	116652
553.124	111796
553.187	111741
553.251	114903
553.314	115082
553.377	117558
553.440	123295
553.503	126568
553.567	125165
553.630	125848
553.693	125447
553.756	127855
553.819	125538
553.882	119328
553.945	119500
554.008	120919
554.071	121641
554.134	123312
554.197	116670
554.260	115513
554.323	116867
554.386	117325
554.449	122744
554.512	120968
554.575	115330
554.638	115786
554.701	113452
554.764	112828
554.827	110890
554.889	106107
554.952	100829
555.015	98150
555.078	100655
555.141	100747
555.203	98964
555.266	97908
555.329	98037
555.391	94408
555.454	92309
555.517	89341
555.580	84845
555.642	83957
555.705	81437
555.768	81198
555.830	77501
555.893	75552
555.955	72293
556.018	71423
556.080	70886
556.143	72403
556.206	71994
556.268	68696
556.330	69275
556.393	67559
556.455	64996
556.518	63343
556.580	61740
556.643	57706
556.705	57170
556.767	56271
556.830	56161
556.892	54451
556.955	53307
557.017	52249
557.079	51134
557.142	50754
557.204	49118
557.266	48384
557.328	45831
557.391	42855
557.453	41432
557.515	41651
557.577	42057
557.639	42449
557.701	41146
557.764	40834
557.826	41270
557.888	42591
557.950	44173
558.012	45973
558.074	55211
558.136	108458
558.198	218781
558.260	83446
558.322	42364
558.384	42979
558.446	44595
558.508	47374
558.570	51053
558.632	57377
558.694	69723
558.756	110940
558.818	294604
558.880	583023
558.942	230340
559.003	231454
559.065	109637
559.127	51160
559.189	48383
559.251	54078
559.312	74289
559.374	163448
559.436	442794
559.498	209924
559.559	53586
559.621	46178
559.683	53450
559.744	84719
559.806	247799
559.868	325813
559.929	73946
559.991	52201
560.052	82569
560.114	214614
560.176	127301
560.237	129147
560.299	187508
560.360	42259
560.422	21936
560.483	19861
560.545	19485
560.606	16640
560.667	17355
560.729	17296
560.790	16298
560.852	14852
560.913	14614
560.974	15383
561.036	14442
561.097	15602
561.158	14587
561.220	14936
561.281	13609
561.342	13749
561.403	13202
561.465	12991
561.526	13480
561.587	14237
561.648	12024
561.709	12123
561.771	13015
561.832	10904
561.893	12144
561.954	11181
562.015	11186
562.076	11470
562.137	10560
562.198	10404
562.259	11782
562.320	10552
562.381	12124
562.442	11755
562.503	11628
562.564	11203
562.625	10809
562.686	10093
562.747	10336
562.808	10513
562.869	9621
562.930	10568
562.991	8489
563.051	10138
563.112	9696
563.173	9475
563.234	8337
563.294	9351
563.355	8624
563.416	8781
563.477	9369
563.537	9405
563.598	8596
563.659	9393
563.720	8026
563.780	9046
563.841	8898
563.901	8806
563.962	8538
564.023	8716
564.083	8859
564.144	8583
564.204	8358
564.265	7743
564.325	8388
564.386	8820
564.446	8566
564.507	8157
564.567	8485
564.628	7692
564.688	8289
564.749	6749
564.809	8000
564.869	9156
564.930	7667
564.990	9183
565.050	8007
565.111	8167
565.171	7313
565.231	7419
565.292	8702
565.352	7789
565.412	8843
565.472	8248
565.532	8432
565.593	7405
565.653	6881
565.713	8221
565.773	8629
565.833	7882
565.893	8897
565.953	7279
566.013	7268
566.074	7917
566.134	7262
566.194	7456
566.254	7992
566.314	6990
566.374	6777
566.434	7607
566.494	7848
566.554	7563
566.614	7003
566.673	8303
566.733	7762
566.793	8217
566.853	7853
566.913	8017
566.973	8551
567.033	8212
567.092	7974
567.152	7346
567.212	7592
567.272	8419
567.331	7924
567.391	8479
567.451	9005
567.511	8739
567.570	8325
567.630	8533
567.690	8149
567.749	7428
567.809	7988
567.868	7679
567.928	6908
567.988	7512
568.047	7875
568.107	7975
568.166	7732
568.226	7832
568.285	7746
568.345	8412
568.404	8533
568.464	8362
568.523	8416
568.582	8738
568.642	8216
568.701	7668
568.761	7436
568.820	7582
568.879	7302
568.939	7911
568.998	8030
569.057	7270
569.116	7869
569.176	7849
569.235	7740
569.294	7541
569.353	7190
569.413	6914
569.472	7030
569.531	7198
569.590	6319
569.649	7461
569.708	7401
569.767	7805
569.827	7194
569.886	7268
569.945	8140
570.004	7629
570.063	7842
570.122	8167
570.181	8276
570.240	7460
570.299	7908
570.358	8259
570.417	7734
570.475	8364
570.534	9116
570.593	8447
570.652	8069
570.711	8777
570.770	7727
570.829	7847
570.887	7651
570.946	8130
571.005	8311
571.064	8847
571.122	9599
571.181	7736
571.240	7209
571.299	7056
571.357	6842
571.416	7236
571.475	7157
571.533	8863
571.592	8855
571.650	8066
571.709	8958
571.768	9835
571.826	10223
571.885	9044
571.943	8363
572.002	7724
572.060	8052
572.119	7993
572.177	8442
572.236	8378
572.294	8022
572.352	9209
572.411	8795
572.469	8466
572.528	6740
572.586	7774
572.644	6862
572.703	7682
572.761	7241
572.819	8058
572.877	7089
572.936	7594
572.994	6969
573.052	7049
573.110	7153
573.169	7807
573.227	6696
573.285	8300
573.343	7744
573.401	7269
573.459	7122
573.517	6959
573.576	7623
573.634	7286
573.692	6981
573.750	7447
573.808	6637
573.866	6552
573.924	6834
573.982	6803
574.040	6511
574.098	6133
574.155	6171
574.213	6824
574.271	5553
574.329	7519
574.387	5401
574.445	5459
574.503	6073
574.560	5000
574.618	5457
574.676	6354
574.734	5504
574.792	6106
574.849	6350
574.907	5261
574.965	4942
575.022	4631
575.080	4051
575.138	5546
575.195	4389
575.253	3947
575.311	4937
575.368	5158
575.426	3868
575.483	5888
575.541	5642
575.598	4785
575.656	4643
575.713	4791
575.771	4742
575.828	3932
575.886	4802
575.943	5962
576.001	3558
576.058	4430
576.115	4030
576.173	5268
576.230	4620
576.287	5298
576.345	5896
576.402	5165
576.459	5146
576.517	3941
576.574	4265
576.631	4682
576.688	3651
576.746	4192
576.803	3034
576.860	4550
576.917	5087
576.974	4940
577.031	4597
577.089	4864
577.146	4107
577.203	4327
577.260	4446
577.317	3709
577.374	4228
577.431	3255
577.488	4238
577.545	3715
577.602	4120
577.659	4034
577.716	4666
577.773	4786
577.830	4070
577.886	4179
577.943	3436
578.000	3662
578.057	3996
578.114	4588
578.171	3765
578.227	3363
578.284	3203
578.341	3982
578.398	4185
578.454	4721
578.511	4082
578.568	4101
578.625	4023
578.681	3674
578.738	4423
578.794	4672
578.851	4529
578.908	3673
578.964	4071
579.021	4895
579.077	4270
579.134	4236
579.190	4802
579.247	4815
579.303	3915
579.360	4813
579.416	3485
579.473	3942
579.529	4789
579.586	4572
579.642	4038
579.698	4563
579.755	4520
579.811	4071
579.867	5626
579.924	4397
579.980	4370
580.036	5070
580.093	5443
580.149	5079
580.205	4083
580.261	4723
580.317	5169
580.374	5392
580.430	4405
580.486	5272
580.542	4211
580.598	4190
580.619	4820
580.654	5920
580.692	5599
580.710	5450
580.765	4812
580.767	4797
580.823	6037
580.838	5931
580.879	5660
580.911	5490
580.935	5380
580.984	4328
580.991	4186
581.047	5605
581.057	5405
581.103	4543
581.130	4691
581.159	4840
581.203	4652
581.215	4605
581.270	5131
581.276	5072
581.326	4680
581.349	4859
581.382	5046
581.422	5393
581.438	5557
581.494	5528
581.494	5506
581.550	3524
581.567	3919
581.606	4826
581.640	4608
581.661	4446
581.713	5449
581.717	5530
581.773	5033
581.786	4978
581.829	4822
581.859	4943
581.885	5126
581.932	4851
581.940	4772
581.996	4824
582.004	4778
582.052	4591
582.077	4712
582.107	4849
582.150	5054
582.163	5118
582.219	4172
582.223	4189
582.274	4448
582.296	4527
582.330	4712
582.368	4625
582.386	4597
582.441	5218
582.441	5218
582.497	4455
582.514	4451
582.552	4823
582.587	4816
582.608	4707
582.659	4893
582.663	4912
582.719	5170
582.732	5205
582.774	5303
582.805	5019
582.830	4825
582.877	5043
582.885	5087
582.941	5001
582.950	5055
582.996	4977
583.023	4989
583.052	5424
583.095	5267
583.107	5054
583.162	5251
583.168	5191
583.218	4965
583.240	4767
583.273	4451
583.313	4895
583.328	5129
583.384	4608
583.385	4608
583.439	4229
583.458	4541
583.494	5200
583.531	4600
583.549	4360
583.603	5155
583.605	5177
583.660	5080
583.676	5145
583.715	5233
583.748	4823
583.770	4584
583.820	4881
583.825	4892
583.881	4885
583.893	4786
583.936	4740
583.965	4624
583.991	4427
584.038	4967
584.046	5032
584.101	4250
584.110	4312
584.156	4865
584.183	4933
584.211	4939
584.255	5101
584.266	5147
584.321	5079
584.328	5075
584.376	5200
584.400	5247
584.431	5266
584.472	5339
584.486	5266
584.541	5760
584.545	5744
584.596	5870
584.617	5710
584.651	5541
584.689	6360
584.706	6464
584.761	6081
584.762	6079
584.816	6838
584.834	7307
584.871	7571
584.906	6973
584.926	6830
584.978	7760
584.980	7796
585.035	8582
585.051	8829
585.090	9648
585.123	10658
585.145	11208
585.195	12115
585.200	12287
585.254	14833
585.267	15528
585.309	17742
585.340	19614
585.364	21104
585.412	25385
585.419	26165
585.473	33112
585.484	35131
585.528	46777
585.556	58792
585.583	83284
585.628	139476
585.637	158894
585.692	324244
585.700	350423
585.747	426787
585.772	358833
585.801	218937
585.845	72943
585.856	56240
585.910	28204
585.917	25403
585.965	18447
585.989	16395
586.019	14903
586.061	12975
586.074	12589
586.128	10690
586.133	10673
586.183	11146
586.205	11119
586.237	10987
586.277	10415
586.292	10203
586.346	10386
586.349	10375
586.401	10386
586.421	10466
586.455	10457
586.493	10383
586.509	10477
586.564	10279
586.565	10312
586.618	12027
586.637	12379
586.672	14358
586.709	16887
586.727	17467
586.781	18147
586.781	18145
586.835	13525
586.853	12521
586.889	11333
586.925	10494
586.944	10387
586.996	10719
586.998	10730
587.052	10311
587.068	10336
587.106	10652
587.140	10918
587.161	10804
587.212	10385
587.215	10399
587.269	10451
587.284	10678
587.323	11010
587.356	10750
587.377	10750
587.427	11398
587.431	11408
587.485	11461
587.499	11443
587.539	11971
587.571	12624
587.593	12962
587.643	13413
587.648	13448
587.702	13485
587.715	13491
587.755	13506
587.786	13795
587.810	13866
587.858	13446
587.864	13419
587.917	13596
587.930	13536
587.971	13602
588.001	13958
588.025	13958
588.073	13719
588.079	13789
588.133	13819
588.145	14042
588.187	14303
588.217	14320
588.241	14367
588.288	14617
588.295	14760
588.348	15726
588.360	15946
588.402	16024
588.431	15886
588.456	15823
588.503	16407
588.510	16590
588.564	17987
588.575	18297
588.617	18677
588.646	18984
588.671	20018
588.718	22033
588.725	22383
588.778	26397
588.789	27570
588.832	40301
588.861	51058
588.886	74822
588.932	128599
588.939	133301
588.993	164554
589.004	161680
589.047	81381
589.075	38573
589.100	29889
589.147	21026
589.154	20667
589.207	18790
589.218	18463
589.261	19529
589.290	20382
589.314	20780
589.361	22260
589.368	22999
589.421	30177
589.433	32102
589.475	54320
589.504	72648
589.528	96132
589.576	145946
589.582	141231
589.635	65537
589.647	51401
589.689	29394
589.718	18236
589.742	17683
589.790	15994
589.795	15916
589.849	15742
589.861	15735
589.902	15428
589.932	15203
589.955	15043
590.004	14492
590.009	14484
590.062	14885
590.075	14895
590.115	15178
590.146	15461
590.168	15391
590.218	14976
590.222	14962
590.275	15117
590.289	15108
590.328	15593
590.360	15914
590.381	15917
590.431	16109
590.435	16123
590.488	16231
590.503	16236
590.541	16724
590.574	17129
590.594	17322
590.645	17883
590.647	17894
590.700	17798
590.716	17843
590.753	18069
590.787	18292
590.806	18634
590.859	19477
590.859	19485
590.912	19709
590.930	19895
590.965	20084
591.001	20178
591.018	20036
591.071	19472
591.072	19465
591.124	19139
591.143	19072
591.177	19313
591.214	19630
591.230	19832
591.283	20514
591.285	20526
591.336	20558
591.356	20649
591.389	20917
591.427	21193
591.442	21039
591.495	20315
591.498	20258
591.547	20345
591.569	20420
591.600	20351
591.640	20186
591.653	20398
591.706	21285
591.711	21376
591.759	21160
591.782	21070
591.811	21833
591.853	22920
591.864	22942
591.917	22968
591.924	22965
591.969	22407
591.995	22097
592.022	22165
592.066	22229
592.075	22415
592.127	23693
592.137	23907
592.180	23935
592.208	23967
592.233	24629
592.279	25885
592.285	25952
592.338	26472
592.350	26575
592.390	26340
592.421	26181
592.443	26425
592.491	26938
592.495	26970
592.548	27377
592.562	27485
592.600	27304
592.633	27153
592.653	27229
592.704	27276
592.705	27433
592.775	27529
592.846	29180
592.916	28427
592.987	29208
593.058	29795
593.128	30064
593.199	29417
593.270	29351
593.341	30784
593.411	32021
593.482	32164
593.553	34759
593.623	35013
593.694	34882
593.764	36126
593.835	35242
593.906	35565
593.976	37521
594.047	36974
594.117	40423
594.188	40389
594.258	40874
594.329	40194
594.399	42172
594.470	42446
594.540	43432
594.611	45337
594.681	44812
594.751	44685
594.822	47213
594.892	49720
594.963	49987
595.033	51317
595.103	53538
595.174	52586
595.244	55757
595.314	56687
595.384	58814
595.455	60831
595.525	62048
595.595	63702
595.665	64835
595.736	63294
595.806	64883
595.876	66021
595.946	64170
596.016	68888
596.087	70235
596.157	69793
596.227	70259
596.297	76515
596.367	81323
596.437	84842
596.507	85045
596.577	83582
596.647	88291
596.717	91377
596.787	93251
596.857	92929
596.927	93421
596.997	93434
597.067	96698
597.137	97762
597.207	99175
597.277	97690
597.347	94310
597.417	91146
597.487	91253
597.557	93629
597.626	97211
597.696	97381
597.766	95724
597.836	89238
597.906	84525
597.975	84451
598.045	84873
598.115	89811
598.185	97154
598.254	107996
598.324	118586
598.394	118546
598.464	115611
598.533	112521
598.603	104902
598.672	101015
598.742	104598
598.812	105314
598.881	108495
598.951	107161
599.020	110190
599.090	114499
599.159	115286
599.229	109752
599.299	108354
599.368	111703
599.437	108775
599.507	99869
599.576	97196
599.646	96136
599.715	93998
599.785	92215
599.854	89452
599.924	88360
599.993	88696
600.062	89469
600.132	92519
600.201	99196
600.270	116546
600.340	120534
600.409	118151
600.478	117555
600.547	120963
600.617	106656
600.686	84320
600.755	75814
600.824	72244
600.894	69929
600.963	71532
601.032	71049
601.101	67340
601.170	63323
601.239	61802
601.308	61419
601.378	62825
601.447	61596
601.516	62450
601.585	63319
601.654	63890
601.723	64526
601.792	66338
601.861	68229
601.930	70500
601.999	70179
602.068	70616
602.137	71491
602.206	71842
602.275	73629
602.343	74855
602.412	75157
602.481	76559
602.550	77055
602.619	78294
602.688	80349
602.756	80586
602.825	81963
602.894	85381
602.963	85092
603.032	86400
603.100	87074
603.169	87991
603.238	85922
603.307	88400
603.375	89215
603.444	92833
603.513	93225
603.581	95708
603.650	96043
603.719	94326
603.787	97993
603.856	101545
603.924	103261
603.993	106499
604.061	111102
604.130	116348
604.198	118750
604.267	121238
604.335	122643
604.404	125101
604.472	126962
604.541	128518
604.609	128305
604.678	127954
604.746	129114
604.815	133217
604.883	133854
604.951	135500
605.020	139497
605.088	142012
605.156	145562
605.225	146810
605.293	147801
605.361	147497
605.429	149261
605.498	152497
605.566	157041
605.634	165998
605.702	169451
605.771	174977
605.839	176501
605.907	172992
605.975	164156
606.043	162540
606.111	164404
606.180	163321
606.248	160944
606.316	159109
606.384	159072
606.452	160851
606.520	166882
606.588	171911
606.656	172750
606.724	168958
606.792	159943
606.860	143830
606.928	130587
606.996	126891
607.064	123972
607.132	128984
607.200	135816
607.267	139721
607.335	143855
607.403	146248
607.471	139745
607.539	136122
607.607	135744
607.674	120094
607.742	120026
607.810	119934
607.878	119961
607.946	122750
608.013	130153
608.081	130660
608.149	131617
608.216	137305
608.284	140528
608.352	143569
608.419	139327
608.487	137237
608.555	133462
608.622	139874
608.690	149763
608.757	162960
608.825	167499
608.893	163329
608.960	152988
609.028	145886
609.095	145762
609.163	146302
609.230	129156
609.298	118805
609.365	126791
609.432	137067
609.500	148737
609.567	172588
609.635	195683
609.702	202419
609.769	193536
609.837	148643
609.904	129050
609.971	134624
610.039	147295
610.106	190602
610.173	343386
610.241	692889
610.308	365407
610.375	160637
610.442	140270
610.509	135956
610.577	136485
610.644	138267
610.711	140862
610.778	144814
610.845	153805
610.912	159866
610.980	167090
611.047	167556
611.114	163450
611.181	158773
611.248	159970
611.315	168695
611.382	172185
611.449	179099
611.516	181576
611.583	179555
611.650	178906
611.717	181299
611.784	184541
611.851	192270
611.918	202033
611.984	230878
612.051	307886
612.118	544478
612.185	1072756
612.252	666038
612.319	275720
612.386	235761
612.452	214462
612.519	204104
612.586	198968
612.653	204372
612.719	211736
612.786	200332
612.853	187330
612.919	185350
612.986	189201
613.053	177181
613.120	165381
613.186	160498
613.253	163370
613.319	160477
613.386	162346
613.453	164760
613.519	166128
613.586	162890
613.652	164960
613.719	164735
613.785	166322
613.852	168186
613.918	166140
613.985	169541
614.051	175307
614.118	172901
614.184	164592
614.250	167329
614.317	170812
614.383	169165
614.449	171591
614.516	171644
614.582	171143
614.648	167174
614.715	166895
614.781	162137
614.847	162034
614.914	160387
614.980	156467
615.046	159835
615.112	162100
615.179	163514
615.245	164912
615.311	164055
615.377	165869
615.443	167438
615.509	169849
615.575	176064
615.642	172767
615.708	178853
615.774	185611
615.840	193994
615.906	205296
615.972	242149
616.038	344072
616.104	643172
616.170	1185875
616.236	925309
616.302	373054
616.368	303681
616.434	224732
616.500	210026
616.565	236777
616.631	292240
616.697	236745
616.763	247962
616.829	377143
616.895	636909
616.961	554010
617.026	250686
617.092	187099
617.158	178181
617.224	170395
617.289	158978
617.355	151889
617.421	149945
617.487	148896
617.552	142801
617.618	142080
617.684	141812
617.749	143520
617.815	135551
617.880	133917
617.946	134661
618.012	136674
618.077	138927
618.143	132571
618.208	135138
618.274	144533
618.339	145219
618.405	118946
618.470	121414
618.536	118250
618.601	117248
618.667	108521
618.732	103740
618.798	102408
618.863	102729
618.928	100692
618.994	102969
619.059	102181
619.124	103939
619.190	102065
619.255	101788
619.320	102593
619.386	102432
619.451	100013
619.516	98263
619.581	100430
619.647	103367
619.712	102232
619.777	98973
619.842	99012
619.907	101220
619.972	102475
620.038	101991
620.103	99363
620.168	99621
620.233	101216
620.298	101671
620.363	101858
620.428	106936
620.493	107944
620.558	110736
620.623	111742
620.688	110638
620.753	110634
620.818	111428
620.883	112703
620.948	112419
621.013	109174
621.078	108397
621.143	108143
621.207	112050
621.272	108827
621.337	105361
621.402	105332
621.467	104870
621.532	105157
621.596	104791
621.661	101139
621.726	101497
621.791	101897
621.855	102491
621.920	100255
621.985	102623
622.049	104830
622.114	103997
622.179	105292
622.243	108363
622.308	113003
622.373	116944
622.437	111740
622.502	106021
622.566	105696
622.631	106135
622.695	108964
622.760	107591
622.824	107004
622.889	106992
622.953	106606
623.018	115330
623.082	115419
623.147	113505
623.211	111848
623.276	109221
623.340	106300
623.404	104505
623.469	103615
623.533	106287
623.597	102149
623.662	101676
623.726	94300
623.790	88653
623.854	86461
623.919	91017
623.983	89762
624.047	90832
624.111	92169
624.176	93328
624.240	93265
624.304	97131
624.368	92843
624.432	94485
624.496	96089
624.560	101278
624.625	100658
624.689	102255
624.753	105821
624.817	100848
624.881	97920
624.945	88540
625.009	86988
625.073	89012
625.137	89701
625.201	95547
625.265	94251
625.329	90858
625.393	91193
625.456	92680
625.520	95552
625.584	95017
625.648	99137
625.712	102173
625.776	100133
625.839	95063
625.903	80740
625.967	74662
626.031	82261
626.095	95405
626.158	85503
626.222	67929
626.286	66501
626.349	61426
626.413	57468
626.477	58017
626.540	58737
626.604	57670
626.668	58457
626.731	57486
626.795	55806
626.858	56934
626.922	55070
626.986	55187
627.049	53433
627.113	58394
627.176	56104
627.240	54531
627.303	53925
627.366	53068
627.430	55088
627.493	52970
627.557	50763
627.620	53301
627.684	55650
627.747	56136
627.810	50091
627.874	46065
627.937	43191
628.000	47459
628.064	44194
628.127	38606
628.190	39774
628.253	39134
628.317	36628
628.380	34432
628.443	34229
628.506	33463
628.569	32047
628.632	30569
628.696	30979
628.759	30117
628.822	28803
628.885	29452
628.948	27645
629.011	28318
629.074	26098
629.137	26004
629.200	24088
629.263	27064
629.326	24395
629.389	24927
629.452	23945
629.515	23372
629.578	22965
629.641	24915
629.704	22948
629.767	22683
629.830	22689
629.892	23096
629.955	21407
630.018	24275
630.081	21176
630.144	24239
630.207	20548
630.269	23608
630.332	20190
630.395	21184
630.458	21020
630.520	19376
630.583	20414
630.646	21993
630.708	20865
630.771	20820
630.834	23599
630.896	21302
630.959	20834
631.021	20655
631.084	21898
631.146	20947
631.209	21470
631.272	20489
631.334	22126
631.397	22417
631.459	21678
631.522	24929
631.584	25509
631.646	27683
631.709	28535
631.771	27495
631.834	26882
631.896	25921
631.958	22572
632.021	23094
632.083	20203
632.145	21031
632.208	20368
632.270	22014
632.332	18920
632.395	19487
632.457	21254
632.519	19608
632.581	20641
632.643	18918
632.706	20225
632.768	18074
632.830	19521
632.892	19878
632.954	20152
633.016	20938
633.078	19786
633.141	20499
633.203	19913
633.265	19745
633.327	19467
633.389	19685
633.451	20538
633.513	19254
633.575	20946
633.637	19384
633.698	20065
633.760	22298
633.822	22382
633.884	23943
633.946	24864
634.008	25401
634.070	26931
634.132	29214
634.193	32401
634.255	35784
634.317	35996
634.379	35368
634.441	30224
634.502	26156
634.564	24905
634.626	22420
634.687	20628
634.749	20151
634.811	19969
634.873	18808
634.934	19985
634.996	21529
635.057	19611
635.119	19267
635.181	20416
635.242	21495
635.304	18182
635.365	23358
635.427	21046
635.488	20501
635.550	20288
635.611	21618
635.673	18950
635.734	23278
635.796	24524
635.857	28591
635.918	29329
635.980	35463
636.041	35900
636.102	39057
636.164	40025
636.225	37153
636.286	29498
636.348	27819
636.409	23491
636.470	21213
636.531	20975
636.593	18903
636.654	19309
636.715	18993
636.776	18543
636.838	17308
636.899	18058
636.960	17359
637.021	15651
637.082	16771
637.143	16814
637.204	15512
637.265	15997
637.326	16988
637.387	17697
637.448	15511
637.509	15698
637.570	16052
637.631	16867
637.692	15733
637.753	14150
637.814	14944
637.875	15132
637.936	15679
637.997	13580
638.058	14529
638.119	15058
638.179	15072
638.240	14111
638.301	14749
638.362	13239
638.423	13208
638.483	14171
638.544	12450
638.605	14204
638.666	13429
638.726	13241
638.787	15005
638.848	12726
638.908	13680
638.969	12696
639.030	13332
639.090	11448
639.151	12168
639.211	14337
639.272	13788
639.332	12874
639.393	13948
639.453	14343
639.514	15773
639.574	12980
639.635	11640
639.695	12621
639.756	11236
639.816	11900
639.877	11378
639.937	12180
639.997	12489
640.058	10801
640.118	11000
640.178	13461
640.239	12784
640.299	11229
640.359	12477
640.420	12888
640.480	16249
640.540	18595
640.600	18201
640.661	15874
640.721	14006
640.781	14321
640.841	11346
640.901	13644
640.961	13030
641.021	12722
641.082	13195
641.142	12084
641.202	13606
641.262	10250
641.322	13638
641.382	10055
641.442	12215
641.502	11324
641.562	12186
641.622	12041
641.682	13709
641.742	15982
641.802	13331
641.861	12414
641.921	10606
641.981	10481
642.041	10076
642.101	9728
642.161	9475
642.221	9922
642.280	10690
642.340	9802
642.400	9752
642.460	11920
642.519	11207
642.579	10563
642.639	11473
642.698	9505
642.758	13620
642.818	11120
642.877	10440
642.937	11204
642.997	11962
643.056	11242
643.116	10659
643.175	12631
643.235	11171
643.294	11336
643.354	12855
643.414	14142
643.473	17031
643.532	20010
643.592	28271
643.651	45233
643.711	79169
643.770	155828
643.830	373206
643.889	621729
643.948	155520
644.008	37970
644.067	23622
644.126	17619
644.186	15486
644.245	13494
644.304	11401
644.363	14642
644.423	10162
644.482	12661
644.541	13480
644.600	11847
644.659	17693
644.719	21731
644.778	35292
644.837	64771
644.896	137704
644.955	279878
645.014	75848
645.073	20195
645.132	15152
645.191	14136
645.250	12781
645.309	14116
645.368	16198
645.427	24115
645.486	43533
645.545	69336
645.604	17931
645.663	12674
645.722	12055
645.781	12712
645.840	15163
645.898	19157
645.957	27923
646.016	41603
646.075	77754
646.134	150912
646.192	400072
646.251	465488
646.310	79740
646.369	27391
646.427	23383
646.486	16916
646.545	13595
646.603	12220
646.662	11371
646.721	10744
646.779	10472
646.838	10904
646.896	15481
646.955	22053
647.014	37076
647.072	77301
647.131	200154
647.189	75342
647.248	13578
647.306	10150
647.365	9884
647.423	7509
647.481	8752
647.540	6986
647.598	7339
647.657	7727
647.715	7822
647.773	7472
647.832	7917
647.890	5745
647.948	5624
648.007	6347
648.065	5071
648.123	5205
648.181	6318
648.240	6295
648.298	4875
648.356	5168
648.414	6756
648.472	5272
648.531	6562
648.589	5214
648.647	5467
648.705	5437
648.763	5717
648.821	6128
648.879	6351
648.937	7509
648.995	9617
649.053	12907
649.111	20881
649.169	35063
649.227	67735
649.285	145948
649.343	375929
649.401	141575
649.459	21482
649.516	12820
649.574	8323
649.632	10606
649.690	12588
649.748	17067
649.806	24325
649.863	52022
649.921	150148
649.979	76163
650.037	9606
650.094	5017
650.152	6567
650.210	4568
650.268	5882
650.325	4604
650.383	4241
650.440	2980
650.498	3277
650.556	4255
650.613	3731
650.671	4170
650.728	4909
650.786	4111
650.843	7915
650.901	3608
650.958	3951
651.016	2326
651.073	3088
651.131	3010
651.188	2010
651.246	2416
651.303	2083
651.360	2907
651.418	2951
651.475	2580
651.532	2178
651.590	2881
651.647	2512
651.704	2800
651.762	2604
651.819	2828
651.876	2292
651.933	1709
651.990	2905
652.048	758
652.105	2224
652.162	2507
652.219	2085
652.276	1809
652.333	2101
652.390	1059
652.448	2451
652.505	2472
652.562	1862
652.619	1419
652.676	1670
652.733	2375
652.790	1658
652.847	1200
652.904	2413
652.961	92
653.017	966
653.074	2010
653.131	3083
653.188	1173
653.245	780
653.302	1768
653.359	1418
653.415	2156
653.472	1260
653.529	2039
653.586	895
653.642	424
653.699	2305
653.756	1153
653.813	1560
653.869	2178
653.926	1185
653.983	1101
654.039	2274
654.096	1164
654.152	2775
654.209	174
654.266	1977
654.322	601
654.379	1852
654.435	2145
654.492	1105
654.548	937
654.605	744
654.661	1376
654.717	1819
654.774	1405
654.830	1124
654.887	838
654.943	1771
655.000	1208
655.056	2289
655.112	815
655.168	747
655.225	1797
655.281	1671
655.337	909
655.394	947
655.450	656
655.506	916
655.562	954
655.618	2237
655.675	1470
655.731	1769
655.787	63
655.843	2270
655.899	515
655.955	1525
656.011	2401
656.067	1731
656.123	2235
656.179	2521
656.235	2950
656.291	1088
656.347	2564
656.403	1032
656.459	2046
656.515	2401
656.571	1460
656.627	947
656.683	1183
656.739	1686
656.795	1297
656.850	2126
656.906	2260
656.962	2596
657.018	608
657.074	3269
657.129	4202
657.185	8087
657.241	19373
657.297	8605
657.352	1988
657.408	1135
657.464	1665
657.519	854
657.575	33
657.630	601
657.686	842
657.742	290
657.797	70
657.853	116
657.908	1070
657.964	-129
658.019	242
658.075	524
658.130	994
658.186	290
658.241	1510
658.297	568
658.352	182
658.407	1504
658.463	-244
658.518	536
658.573	395
658.629	331
658.684	444
658.739	1155
658.795	450
658.850	815
658.905	256
658.960	-382
659.016	107
659.071	35
659.126	342
659.181	578
659.236	1402
659.291	1291
659.346	19
659.401	407
659.457	1280
659.512	-581
659.567	1290
659.622	395
659.677	236
659.732	1
659.787	39
659.842	24
659.897	584
659.952	1199
660.007	-509
660.061	574
660.116	-145
660.171	-45
660.226	-226
660.281	1480
660.336	162
660.391	1068
660.445	-61
660.500	320
660.555	-49
660.610	326
660.664	475
660.719	-53
660.774	721
660.828	184
660.883	-145
660.938	1630
660.992	-282
661.047	1233
661.101	-649
661.156	355
661.211	-809
661.265	587
661.320	-350
661.374	407
661.429	-236
661.483	1298
661.538	-1321
661.592	815
661.647	-159
661.701	-387
661.755	-235
661.810	940
661.864	-761
661.919	-453
661.973	679
662.027	96
662.081	-524
662.136	630
662.190	118
662.244	923
662.299	-511
662.353	496
662.407	-46
662.461	721
662.515	-43
662.569	-279
662.624	521
662.678	-37
662.732	216
662.786	242
662.840	737
662.894	491
662.948	-422
663.002	1010
663.056	-1184
663.110	-195
663.164	-137
663.218	260
663.272	537
663.326	526
663.380	156
663.434	184
663.488	-539
663.542	123
663.595	103
663.649	471
663.703	45
663.757	222
663.811	-224
663.864	-161
663.918	-211
663.972	-48
664.026	-86
664.079	282
664.133	146
664.187	350
664.240	231
664.294	-224
664.348	449
664.401	531
664.455	396
664.508	-394
664.562	-350
664.615	102
664.669	-795
664.722	44
664.776	-717
664.829	-461
664.883	-86
664.936	-1202
664.990	45
665.043	461
665.097	-327
665.150	973
665.203	-151
665.257	336
665.310	30
665.363	307
665.417	-509
665.470	-79
665.523	-601
665.576	239
665.630	-132
665.683	770
665.736	475
665.789	497
665.842	-59
665.895	709
665.949	351
666.002	111
666.055	168
666.108	788
666.161	-44
666.214	502
666.267	-279
666.320	621
666.373	278
666.426	498
666.479	137
666.532	77
666.585	-355
666.638	992
666.691	-158
666.744	421
666.796	-293
666.849	742
666.902	466
666.955	204
667.008	-191
667.060	583
667.113	226
667.166	1515
667.219	755
667.271	1384
667.324	505
667.377	805
667.430	-75
667.482	718
667.535	42
667.587	592
667.640	172
667.693	368
667.745	29
667.798	1028
667.850	-57
667.903	883
667.955	281
668.008	501
668.060	-171
668.113	444
668.165	283
668.218	270
668.270	724
668.322	881
668.375	1118
668.427	689
668.479	172
668.532	1533
668.584	-199
668.636	134
668.689	453
668.741	-72
668.793	264
668.845	683
668.898	137
668.950	429
669.002	-21
669.054	933
669.106	-671
669.158	455
669.211	-616
669.263	-90
669.315	-478
669.367	712
669.419	38
669.471	43
669.523	-30
669.575	-58
669.627	-505
669.679	704
669.731	776
669.783	-109
669.835	46
669.886	-502
669.938	-524
669.990	-105
670.042	-1041
670.094	644
670.146	-1068
670.197	205
670.249	-148
670.301	163
670.353	59
670.404	532
670.456	-1419
670.508	-273
670.560	758
670.611	2056
670.663	1950
670.715	8075
670.766	10064
670.818	1897
670.869	274
670.921	1271
670.972	806
671.024	397
671.075	-65
671.127	130
671.178	37
671.230	989
671.281	575
671.333	2039
671.384	962
671.436	3912
671.487	4864
671.538	10585
671.590	17314
671.641	32017
671.692	60794
671.744	108816
671.795	58643
671.846	17764
671.897	7412
671.949	4492
672.000	3075
672.051	1462
672.102	1437
672.153	394
672.204	204
672.256	1109
672.307	204
672.358	139
672.409	-311
672.460	181
672.511	-97
672.562	-116
672.613	-501
672.664	344
672.715	206
672.766	324
672.817	79
672.868	-273
672.919	-730
672.970	-1001
673.021	-1234
673.071	-614
673.122	-475
673.173	75
673.224	-399
673.275	-242
673.326	-168
673.376	441
673.427	-354
673.478	-388
673.528	-294
673.579	-226
673.630	58
673.680	866
673.731	106
673.782	-272
673.832	-1150
673.883	-580
673.934	-937
673.984	-804
674.035	-282
674.085	-367
674.136	-727
674.186	-617
674.237	-1256
674.287	-182
674.338	-441
674.388	-170
674.438	-569
674.489	57
674.539	-306
674.589	17
674.640	-753
674.690	-673
674.740	-86
674.791	393
674.841	-762
674.891	305
674.942	-440
674.992	-281
675.042	-1101
675.092	-437
675.142	-1048
675.193	-63
675.243	-1177
675.293	444
675.343	-795
675.393	-70
675.443	-284
675.493	-505
675.543	-521
675.593	-1199
675.643	-824
675.693	323
675.743	-1050
675.793	-486
675.843	-811
675.893	-1111
675.943	-849
675.993	-186
676.043	-841
676.093	-802
676.142	-1430
676.192	-820
676.242	-1251
676.292	-741
676.341	-1386
676.391	-789
676.441	-1440
676.491	-830
676.540	-1506
676.590	-447
676.640	-1447
676.689	-764
676.739	-1501
676.789	-629
676.838	-681
676.888	-473
676.937	-1918
676.987	-640
677.037	-447
677.086	-1120
677.136	-1174
677.185	-868
677.235	-1104
677.284	-774
677.333	-1131
677.383	-1142
677.432	-762
677.482	-1279
677.531	-1591
677.580	-915
677.630	-595
677.679	-798
677.728	-811
677.778	-461
677.827	-1432
677.876	-593
677.925	-1303
677.975	-707
678.024	-731
678.073	-790
678.122	-566
678.171	-499
678.220	-1176
678.269	72
678.319	-194
678.368	283
678.417	-753
678.466	-15
678.515	-212
678.564	-1503
678.613	-905
678.662	-1056
678.711	-1122
678.760	-1208
678.809	-1122
678.857	-741
678.906	-1782
678.955	-1023
679.004	-1106
679.053	-620
679.102	-1030
679.151	-1064
679.199	-1427
679.248	-395
679.297	-1568
679.346	-1415
679.394	-1751
679.443	-800
679.492	-935
679.540	-598
679.589	-1215
679.638	-883
679.686	-1212
679.735	-345
679.784	-1261
679.832	48
679.881	-1444
679.929	-836
679.978	-2002
680.026	-1424
680.075	-1009
680.123	-577
680.172	-2149
680.220	-1245
680.268	-515
680.317	-1234
680.365	-1770
680.414	-1319
680.462	-1078
680.510	-411
680.559	-1514
680.607	-930
680.655	-1035
680.703	-673
680.752	-446
680.800	-999
680.848	-1146
680.896	-867
680.945	-1133
680.993	-774
681.041	-1750
681.089	-885
681.137	-977
681.185	-982
681.233	-1517
681.258	-1437
681.281	-1379
681.329	-978
681.377	-1183
681.380	-1168
681.425	-1244
681.473	-852
681.502	-597
681.521	-461
681.569	-262
681.617	-829
681.624	-737
681.665	-297
681.713	-634
681.745	-283
681.761	-143
681.809	-1119
681.857	149
681.867	148
681.904	58
681.952	-29
681.989	-336
682.000	-447
682.048	-686
682.096	-600
682.111	-342
682.143	116
682.191	-1370
682.233	207
682.239	432
682.286	-667
682.334	-585
682.354	-720
682.382	-980
682.430	514
682.476	-389
682.477	-425
682.525	-475
682.572	-793
682.598	-426
682.620	-131
682.667	136
682.715	276
682.720	248
682.763	-160
682.810	154
682.841	-13
682.857	-137
682.905	-1
682.952	284
682.963	414
683.000	791
683.047	134
683.085	1309
683.095	1598
683.142	248
683.190	1149
683.206	841
683.237	294
683.284	1091
683.328	4
683.332	-108
683.379	568
683.426	382
683.449	505
683.473	647
683.521	70
683.568	1026
683.571	986
683.615	227
683.662	1341
683.693	987
683.709	746
683.757	730
683.804	828
683.814	772
683.851	551
683.898	1571
683.936	1218
683.945	1126
683.992	664
684.039	1018
684.057	1181
684.086	1370
684.133	1486
684.179	897
684.180	869
684.227	1611
684.274	1596
684.300	1668
684.321	1676
684.368	725
684.415	1858
684.422	1816
684.462	1572
684.509	1373
684.543	1353
684.556	1341
684.603	1868
684.649	1521
684.665	1744
684.696	2139
684.743	1944
684.786	1756
684.790	1722
684.837	1387
684.883	2224
684.908	2100
684.930	2028
684.977	2218
685.023	1982
685.029	2005
685.070	2073
685.117	1808
685.150	2142
685.164	2244
685.210	1959
685.257	2357
685.272	2264
685.303	2096
685.350	2258
685.393	2058
685.396	2026
685.443	2124
685.490	1856
685.514	2059
685.536	2269
685.583	1672
685.629	2404
685.636	2358
685.675	2107
685.722	2210
685.757	2266
685.768	2242
685.815	2135
685.861	2419
685.878	2450
685.908	2621
685.954	2311
686.000	2516
686.000	2511
686.047	2318
686.093	2577
686.121	2646
686.139	2711
686.185	3157
686.232	3065
686.242	3059
686.278	2991
686.324	2784
686.363	2666
686.370	2652
686.416	3140
686.463	3014
686.484	2830
686.509	2559
686.555	3226
686.601	2534
686.606	2576
686.647	2947
686.693	3012
686.727	2914
686.739	2890
686.785	3667
686.831	3123
686.848	3091
686.877	3057
686.923	3368
686.969	2896
686.969	2893
687.015	3950
687.061	3748
687.090	3578
687.107	3409
687.153	3651
687.199	4136
687.211	3886
687.245	3211
687.291	3525
687.332	3143
687.336	3127
687.382	3858
687.428	3512
687.453	3956
687.474	4229
687.520	3352
687.565	3924
687.574	3877
687.611	3937
687.657	4513
687.695	4620
687.702	4583
687.748	4638
687.794	3964
687.816	4079
687.839	4295
687.885	3834
687.931	4493
687.937	4464
687.976	4195
688.022	4275
688.058	4169
688.067	4181
688.113	4518
688.158	4066
688.179	4371
688.204	4630
688.249	4402
688.295	4577
688.300	4547
688.340	4401
688.386	4786
688.421	4131
688.431	3953
688.477	4186
688.522	4146
688.542	4079
688.567	4223
688.613	4551
688.658	5405
688.663	5388
688.703	4877
688.749	4593
688.784	4789
688.794	4887
688.839	5171
688.884	4433
688.905	4632
688.930	4916
688.975	5082
689.020	5368
689.026	5378
689.065	5249
689.110	4944
689.146	4610
689.155	4575
689.201	4901
689.246	4709
689.267	4799
689.291	4939
689.336	5122
689.381	5039
689.388	5036
689.426	5114
689.471	5277
689.509	5289
689.516	5270
689.561	5266
689.606	4964
689.630	5211
689.651	5491
689.696	5041
689.741	4969
689.750	5073
689.785	5467
689.830	5165
689.871	5032
689.875	5026
689.920	5606
689.965	4853
689.992	5203
690.010	5443
690.054	5035
690.099	5374
690.112	5297
690.144	5164
690.189	4972
690.233	4949
690.233	4959
690.278	5284
690.323	5133
690.354	5426
690.367	5523
690.412	5501
690.457	5192
690.474	5114
690.501	5053
690.546	5426
690.590	5716
690.595	5691
690.635	5465
690.680	4829
690.716	4842
690.724	4902
690.769	4891
690.813	5794
690.836	5642
690.857	5604
690.902	6117
690.946	5871
690.957	6043
690.991	6635
691.035	6432
691.077	7136
691.080	7165
691.124	6710
691.168	6674
691.198	6204
691.213	6042
691.257	6629
691.301	5798
691.318	6008
691.346	6321
691.390	5873
691.434	5828
691.439	5796
691.478	5851
691.522	6008
691.559	6238
691.567	6321
691.611	6570
691.655	6615
691.680	6545
691.699	6435
691.743	6734
691.787	6682
691.800	6660
691.831	6532
691.875	6460
691.919	6286
691.921	6267
691.964	6366
692.008	6383
692.041	6452
692.052	6489
692.096	6284
692.139	6909
692.162	6778
692.183	6626
692.227	6762
692.271	6521
692.282	6478
692.315	6494
692.359	6771
692.402	6689
692.403	6705
692.447	6571
692.490	6953
692.523	6603
692.534	6472
692.578	6648
692.622	6339
692.643	6384
692.666	6578
692.709	6552
692.753	6740
692.763	6770
692.797	6899
692.840	6867
692.884	6762
692.884	6778
692.928	6692
692.971	6377
693.004	6655
693.015	6771
693.059	6514
693.102	6626
693.124	6526
693.146	6557
693.189	6841
693.233	6901
693.245	6962
693.276	7005
693.320	6927
693.363	6844
693.365	6818
693.407	6944
693.450	7318
693.485	7385
693.493	7311
693.537	7013
693.580	6587
693.605	6519
693.624	6771
693.667	6593
693.710	7201
693.725	7287
693.753	7745
693.797	8629
693.840	9260
693.845	9309
693.883	8725
693.926	8120
693.966	7644
693.970	7675
694.013	7657
694.056	7719
694.086	7695
694.099	7667
694.142	7603
694.185	7365
694.206	7260
694.229	7419
694.272	7652
694.315	8122
694.326	8137
694.358	7970
694.401	8344
694.444	7926
694.446	7897
694.487	7706
694.530	7434
694.566	7486
694.573	7557
694.616	7350
694.659	7575
694.686	7513
694.702	7503
694.745	7800
694.787	7640
694.806	7583
694.830	7471
694.873	7595
694.916	7422
694.926	7338
694.959	7544
695.002	7959
695.044	8307
695.046	8303
695.087	8685
695.130	8891
695.166	9316
695.172	9363
695.215	8911
695.258	8861
695.286	8874
695.301	9050
695.343	9339
695.386	9757
695.406	9856
695.428	10198
695.471	10573
695.514	11461
695.526	11571
695.556	12180
695.599	13248
695.641	14152
695.646	14230
695.684	13781
695.726	13055
695.766	12437
695.769	12427
695.811	11785
695.854	11214
695.886	10701
695.896	10832
695.938	11284
695.981	11460
696.005	11730
696.023	12087
696.065	12747
696.108	13593
696.125	13742
696.150	13734
696.192	14073
696.235	14038
696.245	14084
696.277	14377
696.319	14376
696.361	14519
696.365	14489
696.404	14169
696.446	13828
696.485	13418
696.488	13476
696.530	13874
696.572	14075
696.604	14198
696.614	14164
696.656	13807
696.698	13786
696.724	13504
696.740	13694
696.783	14226
696.825	14797
696.844	15024
696.867	15010
696.909	14794
696.951	14558
696.964	14530
696.992	14807
697.034	14919
697.076	15002
697.083	14982
697.118	15359
697.160	15812
697.202	16195
697.203	16162
697.244	16228
697.286	16278
697.323	16163
697.327	16199
697.369	16159
697.411	16136
697.442	16121
697.453	16250
697.494	16526
697.536	16743
697.562	16932
697.578	17002
697.620	16969
697.661	16836
697.682	16783
697.703	16982
697.744	17279
697.786	17656
697.801	17662
697.828	17644
697.869	17678
697.911	17699
697.921	17643
697.952	17360
697.994	17020
698.035	16594
698.040	16495
698.077	16708
698.118	16953
698.160	17184
698.160	17137
698.201	17770
698.243	18309
698.279	18829
698.284	18945
698.325	19456
698.367	20087
698.399	20402
698.408	20485
698.449	20679
698.491	20863
698.518	20935
698.532	20980
698.573	20922
698.614	20895
698.638	20783
698.656	20688
698.697	20400
698.738	20057
698.757	19860
698.779	19947
698.820	19988
698.862	20039
698.877	19997
698.903	20268
698.944	20631
698.985	20977
698.996	21019
699.026	20750
699.067	20292
699.116	19692
699.235	20295
699.354	20207
699.474	18864
699.593	19323
699.713	18881
699.832	18870
699.951	19596
700.070	19465
700.190	17772
700.309	17595
700.428	16992
700.547	16116
700.667	16528
700.786	16630
700.905	16729
701.024	16755
701.143	15841
701.262	17327
701.381	17412
701.500	17090
701.619	18052
701.738	17727
701.857	17590
701.976	16157
702.095	17001
702.214	17328
702.333	17001
702.452	17192
702.571	18390
702.690	16820
702.809	17327
702.928	15763
703.047	15192
703.165	15582
703.284	15560
703.403	16174
703.522	15024
703.640	15203
703.759	14534
703.878	14922
703.997	14494
704.115	14665
704.234	14878
704.353	15259
704.471	14009
704.590	13765
704.708	13999
704.827	13332
704.946	12797
705.064	12731
705.183	12531
705.301	13375
705.420	13792
705.538	12427
705.656	11695
705.775	11181
705.893	13144
706.012	12050
706.130	11471
706.249	13081
706.367	12283
706.485	12168
706.604	11464
706.722	11463
706.840	12435
706.958	13383
707.077	11831
707.195	11555
707.313	11863
707.431	10405
707.549	10209
707.668	9506
707.786	12506
707.904	10548
708.022	11386
708.140	10340
708.258	10413
708.376	12191
708.494	9786
708.612	11177
708.730	12089
708.848	10579
708.966	11016
709.084	10971
709.202	10886
709.320	9830
709.438	9668
709.556	10291
709.674	9073
709.791	10178
709.909	8731
710.027	9634
710.145	9333
710.263	9567
710.380	10010
710.498	9417
710.616	9127
710.733	7694
710.851	8988
710.969	9025
711.086	8751
711.204	8318
711.322	9789
711.439	8459
711.557	7730
711.674	7914
711.792	8542
711.909	8244
712.027	7268
712.144	7803
712.262	8370
712.379	8532
712.497	8061
712.614	7797
712.732	8700
712.849	8698
712.966	9459
713.084	9372
713.201	7525
713.318	8056
713.436	9562
713.553	9170
713.670	9556
713.787	9256
713.905	8347
714.022	9792
714.139	9967
714.256	12507
714.373	21448
714.490	42340
714.608	125849
714.725	504317
714.842	377261
714.959	34204
715.076	15055
715.193	12385
715.310	10787
715.427	8343
715.544	9369
715.661	8652
715.778	7500
715.895	8279
716.011	8129
716.128	7051
716.245	8013
716.362	6778
716.479	6528
716.596	7010
716.713	7714
716.829	6622
716.946	5801
717.063	6355
717.180	6109
717.296	6265
717.413	5796
717.530	6581
717.646	4957
717.763	5692
717.880	5510
717.996	5722
718.113	5377
718.229	5923
718.346	5904
718.462	5874
718.579	6144
718.695	5957
718.812	6007
718.928	5775
719.045	5852
719.161	5419
719.277	5725
719.394	6736
719.510	6586
719.626	7849
719.743	10050
719.859	18278
719.975	41234
720.092	186732
720.208	336747
720.324	30770
720.440	10494
720.557	7605
720.673	7472
720.789	6077
720.905	5909
721.021	4955
721.137	5218
721.253	4787
721.369	5326
721.486	5279
721.602	4874
721.718	5050
721.834	5347
721.950	4998
722.066	4628
722.181	4734
722.297	5081
722.413	4692
722.529	5364
722.645	4516
722.761	5278
722.877	4228
722.993	5923
723.108	7592
723.224	5529
723.340	4615
723.456	4847
723.571	4379
723.687	4502
723.803	4336
723.918	4188
724.034	3293
724.150	4534
724.265	4304
724.381	4031
724.497	3926
724.612	5189
724.728	4469
724.843	3826
724.959	3810
725.074	4773
725.190	4427
725.305	3943
725.421	3450
725.536	4230
725.651	4658
725.767	4004
725.882	4454
725.997	3868
726.113	4510
726.228	3528
726.343	3591
726.459	3448
726.574	3535
726.689	3627
726.804	3978
726.920	3841
727.035	3652
727.150	4690
727.265	2852
727.380	3485
727.495	4235
727.610	3623
727.725	3313
727.841	4108
727.956	4377
728.071	4156
728.186	3225
728.301	3125
728.416	3118
728.531	4513
728.645	2266
728.760	4361
728.875	3611
728.990	3999
729.105	2823
729.220	4147
729.335	3138
729.449	4151
729.564	3049
729.679	3403
729.794	4015
729.908	3524
730.023	4305
730.138	3396
730.253	4368
730.367	3594
730.482	3774
730.596	3652
730.711	4699
730.826	6517
730.940	4752
731.055	4983
731.169	5041
731.284	4904
731.398	5606
731.513	5726
731.627	7122
731.742	8053
731.856	10549
731.970	10087
732.085	13716
732.199	19890
732.313	37952
732.428	109040
732.542	331336
732.656	151784
732.771	26434
732.885	16078
732.999	14722
733.113	14733
733.227	13571
733.342	13270
733.456	11462
733.570	11897
733.684	11350
733.798	11345
733.912	10601
734.026	11170
734.140	10246
734.254	10618
734.368	10549
734.482	10430
734.596	10793
734.710	10562
734.824	9655
734.938	8707
735.052	9570
735.166	9639
735.280	9612
735.393	9451
735.507	9788
735.621	8698
735.735	8035
735.849	9697
735.962	8757
736.076	9511
736.190	8082
736.303	9290
736.417	9368
736.531	7587
736.644	8879
736.758	8444
736.872	8885
736.985	8819
737.099	6909
737.212	8740
737.326	8015
737.439	8591
737.553	7134
737.666	7841
737.780	7549
737.893	8854
738.007	6835
738.120	7749
738.233	7368
738.347	8294
738.460	6829
738.573	8405
738.687	6831
738.800	7894
738.913	7909
739.026	6730
739.140	7407
739.253	6833
739.366	6608
739.479	7859
739.592	7469
739.705	6838
739.818	8516
739.932	6593
740.045	6870
740.158	7731
740.271	6804
740.384	6887
740.497	6014
740.610	7237
740.723	7048
740.836	6368
740.949	7086
741.062	7666
741.174	5991
741.287	6910
741.400	6934
741.513	5036
741.626	6857
741.739	6135
741.851	5470
741.964	6245
742.077	5440
742.189	4637
742.302	7293
742.415	6523
742.527	5420
742.640	6338
742.753	4261
742.865	6166
742.978	5359
743.090	5950
743.203	5465
743.316	5407
743.428	4379
743.541	5935
743.653	4493
743.766	6461
743.878	5064
743.990	4720
744.103	6293
744.215	5774
744.327	4306
744.440	6941
744.552	4945
744.664	4324
744.777	5400
744.889	4978
745.001	5143
745.113	5722
745.226	5412
745.338	4743
745.450	5771
745.562	5256
745.674	4215
745.786	5461
745.898	5121
746.010	4881
746.122	4040
746.234	5353
746.347	4583
746.459	4478
746.570	3942
746.682	6521
746.794	7626
746.906	5075
747.018	4367
747.130	4553
747.242	3159
747.354	4370
747.466	5111
747.577	4185
747.689	4806
747.801	4627
747.913	4797
748.024	4161
748.136	3588
748.248	4463
748.359	3847
748.471	5169
748.583	3629
748.694	3279
748.806	4494
748.918	3705
749.029	3983
749.141	4679
749.252	4696
749.364	3770
749.475	2936
749.587	3664
749.698	3738
749.809	4302
749.921	4066
750.032	3755
750.144	3298
750.255	3643
750.366	3360
750.478	2860
750.589	3597
750.700	3245
750.811	3530
750.923	4110
751.034	3132
751.145	3935
751.256	2017
751.367	3315
751.479	4014
751.590	3152
751.701	2979
751.812	3166
751.923	3647
752.034	4137
752.145	3740
752.256	4187
752.367	2946
752.478	3704
752.589	4188
752.700	2688
752.811	2861
752.922	3273
753.032	3506
753.143	4596
753.254	3396
753.365	4434
753.476	3605
753.586	3678
753.697	3263
753.808	3276
753.919	3247
754.029	3494
754.140	2658
754.251	2005
754.361	3503
754.472	3297
754.582	2290
754.693	3205
754.804	3429
754.914	2983
755.025	2191
755.135	3043
755.246	3295
755.356	2122
755.466	2686
755.577	2790
755.687	3623
755.798	3417
755.908	2791
756.018	3379
756.129	2713
756.239	3144
756.349	3837
756.460	3586
756.570	2884
756.680	3005
756.790	2497
756.900	3560
757.011	2157
757.121	2929
757.231	2726
757.341	2148
757.451	2782
757.561	2299
757.671	2636
757.781	2348
757.891	3237
758.001	2094
758.111	2905
758.221	3444
758.331	3115
758.441	3627
758.551	2796
758.661	3266
758.771	3724
758.880	3034
758.990	2512
759.100	3005
759.210	2491
759.320	3399
759.429	2946
759.539	3245
759.649	3162
759.758	5520
759.868	4843
759.978	4704
760.087	4888
760.197	6247
760.307	5052
760.416	4029
760.526	2877
760.635	4276
760.745	5099
760.854	5859
760.964	6192
761.073	6962
761.182	4585
761.292	4201
761.401	3920
761.511	3176
761.620	2493
761.729	2880
761.839	2573
761.948	2897
762.057	2085
762.166	3347
762.276	1948
762.385	3795
762.494	2602
762.603	2345
762.712	2300
762.822	1894
762.931	2306
763.040	2123
763.149	2208
763.258	2625
763.367	2036
763.476	2592
763.585	2580
763.694	1826
763.803	2012
763.912	2544
764.021	1966
764.130	1671
764.238	2819
764.347	2615
764.456	3157
764.565	3187
764.674	2809
764.783	2363
764.891	1371
765.000	3244
765.109	2543
765.217	2397
765.326	3843
765.435	2952
765.543	3728
765.652	2732
765.761	3627
765.869	5991
765.978	6595
766.086	11609
766.195	22718
766.303	61973
766.412	166012
766.520	120262
766.629	31129
766.737	13646
766.846	7676
766.954	4359
767.062	4992
767.171	3475
767.279	4266
767.387	3590
767.496	2700
767.604	2947
767.712	1191
767.820	2748
767.928	2481
768.037	1596
768.145	1949
768.253	3042
768.361	1683
768.469	3023
768.577	1243
768.685	2729
768.793	2095
768.901	2819
769.009	2544
769.117	2601
769.225	2746
769.333	4315
769.441	5282
769.549	9940
769.657	22205
769.765	73539
769.873	131935
769.981	40720
770.088	10043
770.196	6167
770.304	5960
770.412	4494
770.519	2913
770.627	3866
770.735	2809
770.842	3189
770.950	2533
771.058	3325
771.165	4790
771.273	4583
771.380	4855
771.488	6963
771.595	6993
771.703	5626
771.810	6131
771.918	6299
772.025	7004
772.133	8986
772.240	7863
772.348	9620
772.455	8532
772.562	8195
772.670	7082
772.777	8842
772.884	7788
772.991	8435
773.099	7487
773.206	7711
773.313	7487
773.420	6217
773.528	7261
773.635	6697
773.742	7456
773.849	7432
773.956	6964
774.063	6450
774.170	7064
774.277	7927
774.384	6530
774.491	5644
774.598	6716
774.705	6311
774.812	6380
774.919	7025
775.026	6806
775.133	7253
775.239	6247
775.346	6136
775.453	6097
775.560	5474
775.667	5714
775.773	5891
775.880	6678
775.987	6389
776.093	5793
776.200	6070
776.307	4321
776.413	5393
776.520	6892
776.627	5436
776.733	5652
776.840	4113
776.946	8803
777.053	7902
777.159	8520
777.266	6332
777.372	8129
777.478	7766
777.585	5978
777.691	4169
777.798	6216
777.904	5602
778.010	4768
778.117	6163
778.223	5158
778.329	4812
778.435	4876
778.542	6545
778.648	4834
778.754	3797
778.860	5124
778.966	5410
779.072	4105
779.178	4732
779.284	4197
779.391	4003
779.497	3747
779.603	6726
779.708	2901
779.815	4529
779.920	5150
780.026	4565
780.132	4896
780.238	3851
780.344	4215
780.450	6584
780.556	2632
780.661	3593
780.767	4941
780.873	3012
780.979	3854
781.085	3470
781.190	3635
781.296	3517
781.402	4248
781.507	3911
781.613	3093
781.719	3909
781.824	5051
781.930	4576
782.035	4268
782.141	3777
782.246	2016
782.352	3153
782.457	2971
782.563	3512
782.668	4674
782.773	4135
782.879	1447
782.984	4329
783.090	3753
783.195	3805
783.300	3811
783.405	3726
783.511	2705
783.616	3342
783.721	3330
783.826	3201
783.932	3524
784.037	3682
784.142	3086
784.247	2768
784.352	3681
784.457	1947
784.562	3914
784.667	3696
784.772	1348
784.877	2185
784.982	3031
785.087	3337
785.192	3145
785.297	2508
785.402	3580
785.507	3643
785.611	2344
785.716	2130
785.821	2486
785.926	2250
786.031	2230
786.135	2415
786.240	2632
786.345	1965
786.450	2781
786.554	3579
786.659	1939
786.763	1040
786.868	2634
786.973	3320
787.077	1461
787.182	2044
787.286	2231
787.391	2734
787.495	856
787.600	1502
787.704	2007
787.809	3093
787.913	1886
788.017	3027
788.122	3241
788.226	2545
788.330	2106
788.435	2156
788.539	2756
788.643	2530
788.747	910
788.852	1686
788.956	1708
789.060	2596
789.164	1591
789.268	1342
789.372	2691
789.476	2145
789.580	1241
789.684	1534
789.788	3156
789.892	1740
789.996	1709
790.100	1644
790.204	1832
790.308	2959
790.412	944
790.516	1340
790.620	1513
790.724	2820
790.828	1211
790.931	-335
791.035	2984
791.139	979
791.242	1112
791.346	2865
791.450	2309
791.554	1175
791.657	1015
791.761	2043
791.864	2551
791.968	2480
792.072	2075
792.175	1312
792.279	1507
792.382	2253
792.486	1120
792.589	1289
792.693	2088
792.796	589
792.899	2660
793.003	2989
793.106	-65
793.209	1201
793.313	1758
793.416	209
793.519	2167
793.623	2946
793.726	1906
793.829	948
793.932	-4
794.035	597
794.138	2394
794.242	3084
794.345	328
794.448	1250
794.551	-383
794.654	2985
794.757	2678
794.860	2159
794.963	1981
795.066	138
795.169	1215
795.272	588
795.375	1800
795.477	1090
795.580	1365
795.683	171
795.786	1446
795.889	669
795.991	1509
796.094	1422
796.197	-374
796.300	2576
796.402	1624
796.505	639
796.608	591
796.710	1869
796.813	1551
796.915	1186
797.018	1622
797.120	1575
797.223	320
797.326	1897
797.428	868
797.530	432
797.633	204
797.735	2342
797.838	1145
797.940	2478
798.042	684
798.145	639
798.247	1468
798.349	-117
798.452	2189
798.554	988
798.656	948
798.758	3420
798.860	527
798.962	386
799.065	-174
799.167	-74
799.269	1507
799.371	2201
799.473	2338
799.575	1204
799.677	1191
799.779	1617
799.881	-583
799.983	2099
800.085	755
800.187	969
800.289	38
800.390	783
800.492	1720
800.594	1286
800.696	416
800.798	2111
800.899	1231
801.001	1534
801.103	1179
801.205	645
801.306	2058
801.408	358
801.509	1641
801.611	1906
801.713	1200
801.814	700
801.916	590
802.017	566
802.119	447
802.220	1399
802.322	-220
802.423	2857
802.525	-785
802.626	647
802.727	487
802.829	1185
802.930	-1697
803.031	1844
803.133	659
803.234	625
803.335	1168
803.436	-121
803.538	760
803.639	-14
803.740	1610
803.841	-141
803.942	1124
804.043	1502
804.144	144
804.245	863
804.346	281
804.447	344
804.548	790
804.649	1867
804.750	468
804.851	504
804.952	34
805.053	337
805.154	-268
805.255	1470
805.355	1080
805.456	467
805.557	46
805.658	1
805.758	903
805.859	1169
805.960	417
806.061	148
806.161	-156
806.262	97
806.362	355
806.463	332
806.564	647
806.664	543
806.765	-351
806.865	-539
806.966	-180
807.066	-229
807.166	1425
807.267	1438
807.367	88
807.468	59
807.568	-1131
807.668	1576
807.769	1090
807.869	518
807.969	764
808.069	656
808.170	1238
808.270	-48
808.370	555
808.470	1245
808.570	-841
808.670	285
808.770	166
808.870	-63
808.970	603
809.070	-3
809.170	-79
809.271	937
809.370	-12
809.470	589
809.570	-685
809.670	559
809.770	349
809.870	859
809.970	-57
810.070	28
810.169	834
810.269	-801
810.369	778
810.469	413
810.568	389
810.668	-232
810.768	-277
810.867	75
810.967	-301
811.066	547
811.166	262
811.265	1990
811.365	-678
811.464	43
811.564	587
811.663	907
811.763	-778
811.862	438
811.962	1410
812.061	565
812.160	-1276
812.260	276
812.359	299
812.458	-315
812.557	894
812.657	-218
812.756	1138
812.855	707
812.954	-676
813.053	853
813.153	237
813.252	-975
813.351	113
813.450	828
813.549	-89
813.648	1050
813.747	-65
813.846	1278
813.945	-353
814.044	612
814.143	843
814.242	1150
814.341	-274
814.439	1567
814.538	1144
814.637	868
814.736	266
814.835	982
814.933	89
815.032	2208
815.131	1762
815.229	4476
815.328	6852
815.427	4806
815.525	4202
815.624	4160
815.722	3402
815.821	4476
815.919	4163
816.018	3636
816.116	4495
816.215	3594
816.313	4333
816.412	5456
816.510	5358
816.609	7193
816.707	7448
816.805	6339
816.904	4443
817.002	5759
817.100	7177
817.198	6561
817.296	4918
817.395	6024
817.493	6200
817.591	4539
817.689	5016
817.787	5633
817.885	4268
817.983	4533
818.081	5021
818.179	5511
818.277	8209
818.375	6876
818.473	5375
818.571	4412
818.669	5440
818.767	6997
818.865	4400
818.963	4088
819.061	5354
819.158	4410
819.256	6696
819.354	5447
819.452	9817
819.549	5836
819.647	5883
819.745	3484
819.842	4488
819.940	4754
820.038	3851
820.135	3462
820.233	4724
820.330	3558
820.428	4002
820.525	5078
820.623	3632
820.720	3150
820.818	5402
820.915	4343
821.012	4470
821.110	3453
821.207	4547
821.304	3349
821.402	4822
821.499	4926
821.596	4377
821.693	3867
821.791	3946
821.888	3528
821.985	3938
822.082	2860
822.179	5327
822.276	4445
822.373	2912
822.470	3966
822.567	3430
822.664	2089
822.761	3830
822.858	3003
822.955	3224
823.052	2620
823.149	2256
823.246	3310
823.343	2238
823.440	4010
823.536	3745
823.633	3116
823.730	2712
823.827	3214
823.923	2784
824.020	3046
824.117	3897
824.213	3117
824.310	3063
824.407	2122
824.503	3954
824.600	2716
824.696	2197
824.793	4454
824.889	2836
824.986	1964
825.082	1595
825.179	2927
825.275	3061
825.371	3879
825.468	2594
825.564	1217
825.660	3691
825.757	4267
825.853	3170
825.949	1742
826.045	2098
826.142	2429
826.238	2719
826.334	3518
826.430	2055
826.526	2212
826.622	481
826.718	3226
826.814	2573
826.910	2959
827.006	856
827.102	1966
827.198	3355
827.294	2988
827.390	2711
827.486	2359
827.582	373
827.678	1213
827.774	3760
827.869	1296
827.965	2655
828.061	1160
828.157	3347
828.252	2860
828.348	1569
828.444	2647
828.539	1732
828.635	1554
828.731	3005
828.826	1682
828.922	2699
829.017	2943
829.113	2594
829.208	1442
829.304	2084
829.399	3379
829.495	2473
829.590	2715
829.685	1571
829.781	3069
829.876	2381
829.971	1054
830.066	1012
830.162	2187
830.257	2849
830.352	1514
830.447	1035
830.543	1541
830.638	1078
830.733	2670
830.828	1326
830.923	2695
831.018	2251
831.113	3445
831.208	716
831.303	690
831.398	1441
831.493	1860
831.588	2097
831.683	978
831.778	1106
831.873	867
831.967	2844
832.062	1362
832.157	1453
832.252	2299
832.346	681
832.441	2411
832.536	1676
832.631	2083
832.725	720
832.820	1290
832.914	1141
833.009	650
833.104	377
833.198	1600
833.293	943
833.387	1826
833.482	1018
833.576	1569
833.670	2147
833.765	2674
833.859	1110
833.954	1989
834.048	998
834.142	1681
834.237	252
834.331	1250
834.425	443
834.519	1519
834.613	1517
834.708	569
834.802	1081
834.896	1597
834.990	1544
835.084	1047
835.178	-199
835.272	828
835.366	1437
835.460	2428
835.554	870
835.648	139
835.742	-409
835.836	685
835.930	287
836.024	2125
836.117	1638
836.211	640
836.305	739
836.399	67
836.493	-70
836.586	2204
836.680	-37
836.774	459
836.867	956
836.961	57
837.055	369
837.148	811
837.242	588
837.335	1251
837.429	358
837.522	616
837.616	256
837.709	887
837.803	-95
837.896	1032
837.989	592
838.083	123
838.176	-549
838.269	-1150
838.363	1512
838.456	676
838.549	1522
838.642	328
838.735	276
838.829	1624
838.922	478
839.015	131
839.108	-844
839.201	1432
839.294	1207
839.387	1235
839.480	-513
839.573	505
839.666	-307
839.759	432
839.852	43
839.945	951
840.038	-59
840.131	-37
840.223	-39
840.316	1471
840.409	1271
840.502	564
840.594	1340
840.687	-221
840.780	-280
840.873	199
840.965	420
841.058	976
841.150	848
841.243	-133
841.336	1018
841.428	-6
841.521	-141
841.613	245
841.706	884
841.798	378
841.890	652
841.983	-501
842.075	899
842.167	-573
842.260	310
842.352	1213
842.444	-212
842.537	184
842.629	-223
842.721	155
842.813	222
842.905	-72
842.997	137
843.090	241
843.182	269
843.274	-766
843.366	824
843.458	989
843.550	1988
843.642	180
843.734	-116
843.826	-286
843.918	-23
844.009	470
844.101	-257
844.193	722
844.285	843
844.377	421
844.469	803
844.560	-177
844.652	192
844.744	176
844.835	-404
844.927	1006
845.019	146
845.110	-302
845.202	487
845.293	-380
845.385	211
845.476	-167
845.568	546
845.659	185
845.751	1181
845.842	-297
845.934	503
846.025	-333
846.116	463
846.208	120
846.299	557
846.390	443
846.482	131
846.573	771
846.664	419
846.755	-304
846.846	253
846.937	-777
847.029	210
847.120	-1323
847.211	-611
847.302	1645
847.393	-589
847.484	1043
847.575	-650
847.666	-583
847.757	-508
847.847	830
847.938	1348
848.029	293
848.120	-398
848.211	32
848.302	-186
848.392	-187
848.483	401
848.574	153
848.664	-450
848.755	552
848.846	-260
848.936	-385
849.027	486
849.118	539
849.208	866
849.299	2166
849.389	3648
849.480	8953
849.570	17645
849.661	35663
849.751	54813
849.841	16561
849.932	1233
850.022	386
850.112	538
850.203	-389
850.293	-19
850.383	342
850.474	259
850.564	302
850.654	257
850.744	-588
850.834	387
850.924	238
851.014	1024
851.104	422
851.194	-597
851.284	-547
851.374	69
851.464	-582
851.554	347
851.644	520
851.734	108
851.824	679
851.914	758
852.004	1366
852.094	-1237
852.183	27
852.273	-537
852.363	491
852.452	368
852.542	-336
852.632	-213
852.721	486
852.811	-35
852.901	922
852.990	742
853.080	824
853.169	427
853.259	378
853.348	953
853.438	2156
853.527	2890
853.617	3612
853.706	9032
853.795	16979
853.885	36636
853.974	68593
854.063	124634
854.152	157226
854.242	58101
854.331	14649
854.420	5769
854.509	4624
854.598	3560
854.687	2161
854.777	2103
854.866	290
854.955	382
855.044	32
855.133	175
855.222	-11
855.311	-197
855.400	406
855.488	68
855.577	-14
855.666	142
855.755	558
855.844	214
855.933	244
856.021	361
856.110	541
856.199	-1488
856.288	-410
856.376	-419
856.465	536
856.554	-421
856.642	673
856.731	265
856.819	-263
856.908	-425
856.996	-20
857.085	-35
857.173	-592
857.262	-835
857.350	-566
857.438	-631
857.527	-28
857.615	-1036
857.703	415
857.792	-384
857.880	51
857.968	-425
858.056	-134
858.145	-948
858.233	-174
858.321	-280
858.409	-273
858.497	-603
858.585	-725
858.673	-367
858.761	-1207
858.849	-830
858.937	144
859.025	-694
859.113	316
859.201	-569
859.289	1698
859.377	-625
859.465	-580
859.552	-190
859.640	-727
859.728	220
859.816	-548
859.903	538
859.991	-703
860.079	-471
860.166	16
860.254	-604
860.342	-312
860.429	-469
860.517	-786
860.604	8
860.692	-349
860.779	-1227
860.867	-56
860.954	-1007
861.042	153
861.129	-175
861.216	-25
861.304	-133
861.391	230
861.478	-176
861.565	499
861.653	256
861.740	-717
861.827	9
861.914	-402
862.001	-523
862.089	1415
862.176	281
862.263	-238
862.350	-257
862.437	-799
862.524	-276
862.611	13
862.698	-83
862.785	389
862.871	724
862.958	223
863.045	587
863.132	-187
863.219	404
863.306	-684
863.392	457
863.479	813
863.566	-494
863.652	752
863.739	252
863.826	277
863.912	400
863.999	-309
864.086	-17
864.172	186
864.259	734
864.345	415
864.432	552
864.518	469
864.604	296
864.691	242
864.777	749
864.863	2379
864.950	2844
865.036	4226
865.122	6625
865.209	6950
865.295	6288
865.381	5432
865.467	6774
865.553	7148
865.639	8445
865.726	12646
865.812	23458
865.898	39878
865.984	58340
866.070	105199
866.156	93361
866.242	29003
866.328	10454
866.414	7244
866.499	6171
866.585	6011
866.671	5474
866.757	6098
866.843	5480
866.928	4682
867.014	4090
867.100	5111
867.186	4460
867.271	4740
867.357	4204
867.442	4207
867.528	4341
867.614	4079
867.699	4958
867.785	5084
867.870	4448
867.956	4656
868.041	4625
868.127	3724
868.212	3707
868.297	3816
868.383	4002
868.468	3756
868.553	4158
868.639	4620
868.724	3959
868.809	4797
868.894	3600
868.979	3716
869.065	4384
869.150	2929
869.235	2835
869.320	3566
869.405	2845
869.490	3568
869.575	3135
869.660	2262
869.745	4631
869.830	4183
869.915	2741
870.000	3833
870.085	2925
870.169	4328
870.254	4258
870.339	1964
870.424	2950
870.509	3597
870.593	4177
870.678	3900
870.763	2340
870.847	1680
870.932	3143
871.016	2872
871.101	1425
871.186	3595
871.270	3776
871.355	2670
871.439	2655
871.523	3348
871.608	2653
871.692	2573
871.777	4251
871.861	2783
871.945	2840
872.030	3780
872.114	2537
872.198	2144
872.282	1874
872.367	2890
872.451	2013
872.535	1473
872.619	2581
872.703	2548
872.787	3083
872.871	2523
872.955	2265
873.039	1471
873.123	3178
873.207	2664
873.291	958
873.375	2543
873.459	3507
873.543	2873
873.627	1789
873.711	2415
873.794	2223
873.878	2406
873.962	1074
874.045	1145
874.129	1288
874.137	1358
874.213	2051
874.245	2004
874.296	1936
874.352	1456
874.380	1214
874.460	1405
874.464	1415
874.547	812
874.568	1252
874.631	2515
874.676	2262
874.714	2049
874.784	2547
874.798	2653
874.881	2742
874.892	2459
874.965	520
874.999	1035
875.048	1692
875.107	1330
875.131	1201
875.215	1281
875.215	1280
875.298	834
875.323	1306
875.381	2445
875.430	2301
875.465	2180
875.538	2135
875.548	2131
875.631	815
875.646	768
875.714	611
875.753	751
875.798	899
875.861	1967
875.881	2272
875.964	1612
875.968	1628
876.047	2012
876.076	1954
876.130	1849
876.183	1840
876.213	1859
876.291	2015
876.296	2013
876.379	1377
876.398	1280
876.462	1067
876.506	767
876.545	469
876.613	756
876.628	827
876.711	1642
876.721	1753
876.794	2630
876.828	2265
876.877	1568
876.935	816
876.960	611
877.043	1806
877.043	1805
877.125	1534
877.150	1767
877.208	2155
877.258	1651
877.291	1367
877.365	1374
877.374	1385
877.456	972
877.472	1056
877.539	1285
877.579	1336
877.622	1407
877.687	1295
877.704	1278
877.787	1266
877.794	1305
877.869	1873
877.901	1792
877.952	1444
878.008	1136
878.034	1004
878.115	667
878.117	668
878.199	721
878.222	1079
878.282	1892
878.329	2025
878.364	2054
878.437	1500
878.447	1438
878.529	805
878.544	889
878.611	1132
878.651	1096
878.694	1263
878.758	1570
878.776	1621
878.858	1784
878.865	1778
878.941	1293
878.972	1091
879.023	1112
879.078	940
879.105	930
879.185	2014
879.187	2026
879.269	1717
879.292	1775
879.351	2128
879.399	1650
879.433	1295
879.506	1530
879.516	1574
879.598	1242
879.613	1251
879.680	1270
879.720	1559
879.762	1795
879.827	1502
879.844	1415
879.926	1536
879.933	1551
880.007	1881
880.040	1734
880.089	1435
880.147	2150
880.171	2605
880.253	4477
880.254	4481
880.335	4166
880.360	4844
880.417	7186
880.467	10264
880.499	12010
880.574	11542
880.580	11342
880.662	4384
880.680	3486
880.744	1037
880.787	879
880.825	1020
880.893	1744
880.907	1881
880.989	1614
881.000	1642
881.070	1820
881.106	1934
881.152	1942
881.213	1529
881.233	1338
881.315	999
881.319	983
881.396	1149
881.426	1123
881.478	1340
881.532	2117
881.559	2382
881.639	1848
881.641	1820
881.722	1053
881.745	991
881.803	1799
881.852	1928
881.885	1587
881.958	1393
881.966	1408
882.047	1168
882.064	1008
882.129	537
882.171	892
882.210	1067
882.277	726
882.291	782
882.372	1502
882.383	1507
882.454	1299
882.489	1522
882.535	1609
882.596	1701
882.616	1874
882.697	2242
882.702	2243
882.778	1556
882.808	1297
882.859	986
882.914	880
882.940	901
883.020	1207
883.021	1215
883.102	1681
883.127	1780
883.183	1800
883.233	1866
883.264	1654
883.339	978
883.345	922
883.426	433
883.445	336
883.507	1229
883.551	1791
883.587	1794
883.657	1912
883.668	2010
883.749	2301
883.763	2324
883.830	1263
883.869	852
883.910	913
883.975	908
883.991	984
884.072	1795
884.081	1781
884.152	1813
884.187	2130
884.233	2364
884.292	2241
884.314	2000
884.394	1106
884.398	1068
884.475	369
884.504	130
884.555	602
884.610	1000
884.636	998
884.716	1514
884.716	1522
884.797	2086
884.821	2191
884.877	1779
884.927	1432
884.958	1318
885.033	1192
885.038	1186
885.118	863
885.139	806
885.199	408
885.244	203
885.279	757
885.350	2083
885.359	2148
885.439	2129
885.456	2106
885.520	1374
885.561	987
885.600	986
885.667	1321
885.680	1386
885.760	1089
885.773	1117
885.840	1679
885.878	1952
885.920	1847
885.984	1414
886.000	1419
886.080	1935
886.089	1948
886.160	1699
886.195	1572
886.240	1517
886.300	1389
886.320	1400
886.400	1767
886.406	1757
886.480	1274
886.511	1169
886.560	1129
886.616	1010
886.640	1187
886.720	1994
886.722	2000
886.800	1303
886.827	1162
886.879	1421
886.932	1624
886.959	1868
887.038	2454
887.039	2451
887.119	1660
887.143	1436
887.198	1444
887.248	1461
887.278	1589
887.354	1846
887.358	1837
887.437	1546
887.459	1476
887.517	1639
887.564	1714
887.596	1687
887.669	1557
887.676	1512
887.755	1008
887.774	881
887.835	1302
887.880	1645
887.914	1606
887.985	1438
887.994	1467
888.073	1791
888.090	1808
888.153	2236
888.195	2579
888.232	2125
888.300	1261
888.311	1173
888.391	605
888.405	480
888.470	558
888.510	630
888.549	698
888.615	861
888.628	1047
888.708	2098
888.720	2261
888.787	2133
888.825	2010
888.866	1256
888.930	96
888.945	308
889.024	1506
889.035	1660
889.103	2080
889.140	2259
889.182	1761
889.245	1082
889.261	1196
889.340	1701
889.349	1757
889.419	1501
889.454	1350
889.498	978
889.559	498
889.577	687
889.656	1502
889.664	1584
889.735	2193
889.768	2476
889.814	2058
889.873	1494
889.978	1941
890.083	1900
890.187	1814
890.292	2333
890.397	1707
890.501	1521
890.606	1287
890.710	1630
890.815	2249
890.919	1913
891.024	1840
891.128	2353
891.233	219
891.337	2584
891.442	1852
891.546	1886
891.650	1678
891.755	973
891.859	2483
891.963	2291
892.068	1657
892.172	1467
892.276	-70
892.380	949
892.484	1602
892.589	1873
892.693	1635
892.797	628
892.901	988
893.005	1894
893.109	2734
893.213	1961
893.317	1446
893.421	1301
893.525	1086
893.629	1617
893.733	1787
893.837	772
893.941	1012
894.045	1072
894.148	683
894.252	774
894.356	2116
894.460	2537
894.564	211
894.667	883
894.771	1193
894.875	538
894.978	1018
895.082	953
895.186	2089
895.289	2182
895.393	1050
895.496	2022
895.600	1654
895.703	616
895.807	1595
895.910	1232
896.014	664
896.117	1473
896.221	1449
896.324	1538
896.427	677
896.531	1079
896.634	1150
896.737	1483
896.840	2057
896.944	1732
897.047	1464
897.150	1566
897.253	919
897.356	1351
897.460	865
897.563	1261
897.666	1177
897.769	2024
897.872	906
897.975	1283
898.078	1451
898.181	1409
898.284	1428
898.387	1263
898.490	1425
898.593	1267
898.695	1336
898.798	2077
898.901	2084
899.004	1277
899.107	1724
899.209	1231
899.312	1489
899.415	1342
899.518	281
899.620	1572
899.723	1493
899.826	2229
899.928	778
900.031	1306
900.133	2169
900.236	1119
900.338	891
900.441	930
900.543	581
900.646	1409
900.748	1180
900.851	2346
900.953	1173
901.055	677
901.158	1773
901.260	1188
901.362	1855
901.465	134
901.567	2008
901.669	1465
901.771	776
901.873	444
901.976	965
902.078	1087
902.180	606
902.282	752
902.384	734
902.486	1976
902.588	1237
902.690	1004
902.792	1026
902.894	1403
902.996	1658
903.098	976
903.200	1536
903.302	884
903.404	773
903.505	1820
903.607	714
903.709	1454
903.811	1128
903.913	1233
904.014	656
904.116	1005
904.218	754
904.319	1040
904.421	2134
904.523	1532
904.624	1505
904.726	723
904.827	907
904.929	679
905.030	984
905.132	1805
905.233	1854
905.335	475
905.436	1581
905.537	1023
905.639	979
905.740	1817
905.841	2138
905.943	1362
906.044	1404
906.145	1260
906.247	740
906.348	926
906.449	1165
906.550	1595
906.651	1147
906.752	415
906.854	719
906.955	790
907.056	89
907.157	1209
907.258	2109
907.359	985
907.460	415
907.561	-140
907.662	200
907.762	752
907.863	808
907.964	1625
908.065	1345
908.166	582
908.267	-263
908.367	651
908.468	540
908.569	1081
908.670	1345
908.770	1742
908.871	1113
908.971	1461
909.072	850
909.173	248
909.273	352
909.374	1543
909.474	799
909.575	883
909.675	436
909.776	1434
909.876	507
909.977	896
910.077	1420
910.177	1320
910.278	1715
910.378	887
910.478	792
910.579	617
910.679	1560
910.779	1633
910.879	922
910.980	1245
911.080	302
911.180	1103
911.280	758
911.380	84
911.480	259
911.580	318
911.680	289
911.780	986
911.880	1399
911.980	496
912.080	1090
912.180	1035
912.280	1068
912.380	1316
912.480	-129
912.580	476
912.679	994
912.779	2243
912.879	1085
912.979	666
913.078	1469
913.178	794
913.278	1135
913.377	1152
913.477	3
913.577	715
913.676	1766
913.776	1329
913.875	1369
913.975	656
914.074	917
914.174	1264
914.273	-254
914.373	1273
914.472	338
914.572	9
914.671	708
914.770	477
914.870	304
914.969	459
915.068	1067
915.167	2087
915.267	954
915.366	-78
915.465	391
915.564	1592
915.663	829
915.763	1913
915.862	330
915.961	1371
916.060	436
916.159	539
916.258	-14
916.357	604
916.456	640
916.555	497
916.654	666
916.752	1564
916.851	849
916.950	1068
917.049	517
917.148	1004
917.247	902
917.345	608
917.444	709
917.543	588
917.642	1404
917.740	1081
917.839	1837
917.937	1747
918.036	2414
918.135	565
918.233	571
918.332	730
918.430	937
918.529	141
918.627	723
918.726	688
918.824	1248
918.923	795
919.021	188
919.119	769
919.218	667
919.316	1314
919.414	216
919.512	1764
919.611	903
919.709	1657
919.807	1986
919.905	2209
920.003	1453
920.102	1438
920.200	1913
920.298	1875
920.396	1210
920.494	1375
920.592	1824
920.690	1751
920.788	1005
920.886	1974
920.984	2689
921.082	853
921.180	1872
921.277	2030
921.375	2858
921.473	3521
921.571	3075
921.669	2740
921.766	2927
921.864	2908
921.962	3280
922.060	1931
922.157	3076
922.255	4029
922.352	2780
922.450	3355
922.548	3094
922.645	4115
922.743	4409
922.840	8196
922.938	9944
923.035	7417
923.133	7670
923.230	9119
923.327	11208
923.425	10398
923.522	10477
923.619	9942
923.717	8435
923.814	8573
923.911	8846
924.008	9530
924.106	7282
924.203	7831
924.300	8378
924.397	7646
924.494	7955
924.591	8380
924.688	7063
924.786	8570
924.883	8712
924.979	7793
925.077	7735
925.173	7401
925.270	7944
925.367	7566
925.464	7985
925.561	8407
925.658	8134
925.755	6377
925.852	7909
925.948	7147
926.045	8282
926.142	7326
926.239	8347
926.335	6780
926.432	8010
926.529	8433
926.625	8956
926.722	7127
926.818	7085
926.915	7190
927.011	7322
927.108	6871
927.204	7197
927.301	6252
927.397	7089
927.494	8662
927.590	6202
927.687	5766
927.783	7898
927.879	8089
927.976	6362
928.072	5826
928.168	6911
928.264	7276
928.361	5756
928.457	7467
928.553	5682
928.649	5939
928.745	7306
928.841	6576
928.937	6872
929.033	7065
929.129	5895
929.225	6889
929.321	6231
929.417	5913
929.513	7480
929.609	5998
929.705	5496
929.801	7120
929.897	4810
929.993	6402
930.089	6618
930.184	4893
930.280	5696
930.376	8105
930.471	5246
930.567	4797
930.663	6348
930.758	5346
930.854	5309
930.950	5893
931.045	4199
931.141	4476
931.236	6763
931.332	5560
931.427	4308
931.523	6851
931.618	6521
931.714	3806
931.809	4579
931.905	5767
932.000	4892
932.095	3359
932.191	6302
932.286	7562
932.381	5734
932.476	4156
932.572	5679
932.667	4620
932.762	4703
932.857	5463
932.952	6344
933.047	5782
933.142	3987
933.237	4036
933.332	5678
933.427	5494
933.522	5356
933.617	4633
933.712	4929
933.807	5169
933.902	5468
933.997	6497
934.092	4094
934.187	4867
934.282	5261
934.376	4713
934.471	5469
934.566	4517
934.661	4213
934.755	4789
934.850	5065
934.945	4461
935.039	3714
935.134	3448
935.228	4132
935.323	7411
935.417	3890
935.512	3538
935.606	3352
935.701	4782
935.795	5581
935.890	4722
935.984	4243
936.079	2947
936.173	4615
936.267	4478
936.362	3038
936.456	4424
936.550	6480
936.644	4493
936.738	3262
936.833	4051
936.927	2790
937.021	3095
937.115	4073
937.209	4296
937.303	4761
937.397	3434
937.491	3234
937.585	5063
937.679	4927
937.773	3429
937.867	3277
937.961	3473
938.055	4803
938.149	4943
938.243	2499
938.337	2832
938.430	2493
938.524	6660
938.618	5330
938.712	3268
938.805	3792
938.899	4092
938.993	5689
939.086	3950
939.180	3026
939.274	4281
939.367	4174
939.461	5732
939.554	3376
939.648	3109
939.741	3843
939.835	3750
939.928	5206
940.022	4833
940.115	3046
940.208	5049
940.302	5196
940.395	5652
940.488	3524
940.582	3700
940.675	1900
940.768	3204
940.861	4458
940.954	5369
941.048	2759
941.141	2189
941.234	2662
941.327	3589
941.420	3044
941.513	3595
941.606	3503
941.699	3702
941.792	3857
941.885	3725
941.978	3651
942.071	4109
942.164	2144
942.257	2606
942.349	2977
942.442	3761
942.535	2017
942.628	2201
942.721	3128
942.813	2947
942.906	3944
942.999	3162
943.091	2837
943.184	2238
943.277	2381
943.369	2991
943.462	1987
943.554	2736
943.647	2954
943.739	3293
943.832	4346
943.924	1597
944.017	2649
944.109	1663
944.201	2385
944.294	3480
944.386	2774
944.478	2942
944.571	2859
944.663	1765
944.755	2883
944.847	3217
944.940	2811
945.032	1653
945.124	1796
945.216	3255
945.308	2287
945.400	3403
945.492	2687
945.584	3386
945.676	3165
945.768	2847
945.860	3444
945.952	3786
946.044	2738
946.136	1970
946.228	2276
946.320	2196
946.412	2727
946.503	3770
946.595	4379
946.687	2510
946.779	1745
946.870	2275
946.962	2116
947.054	2377
947.145	3127
947.237	1975
947.329	2804
947.420	2578
947.512	2058
947.603	1974
947.695	1894
947.786	1801
947.878	1734
947.969	3156
948.061	1841
948.152	2123
948.243	1516
948.335	1273
948.426	1785
948.517	1859
948.609	1969
948.700	2378
948.791	2675
948.882	1699
948.973	1098
949.065	2051
949.156	2912
949.247	1158
949.338	3201
949.429	1814
949.520	1705
949.611	2161
949.702	3566
949.793	2114
949.884	2784
949.975	1757
950.066	1352
950.157	778
950.247	1426
950.338	1461
950.429	1170
950.520	2726
950.611	1730
950.701	1494
950.792	2306
950.883	2963
950.973	1904
951.064	2569
951.155	1911
951.245	3039
951.336	1958
951.427	1939
951.517	3059
951.608	2013
951.698	2378
951.788	1458
951.879	1421
951.969	970
952.060	1666
952.150	2529
952.240	2485
952.331	1320
952.421	3278
952.511	1401
952.602	859
952.692	1511
952.782	1176
952.872	2004
952.962	2038
953.052	1938
953.143	536
953.233	2044
953.323	2189
953.413	1705
953.503	2360
953.593	2416
953.683	2341
953.773	1538
953.863	1084
953.953	839
954.042	1014
954.132	2289
954.222	2279
954.312	641
954.402	923
954.492	1889
954.581	1757
954.671	2126
954.761	675
954.850	2736
954.940	343
955.030	1019
955.119	726
955.209	837
955.298	1507
955.388	2544
955.477	3798
955.567	742
955.656	1292
955.746	2263
955.835	1272
955.925	1093
956.014	1516
956.103	2334
956.193	2508
956.282	1856
956.371	1402
956.461	2341
956.550	1190
956.639	1100
956.728	1550
956.817	1374
956.906	1295
956.995	2219
957.085	1340
957.174	2505
957.263	1100
957.352	1495
957.441	1697
957.530	1256
957.619	886
957.708	1064
957.796	1070
957.885	776
957.974	937
958.063	2175
958.152	641
958.241	1053
958.329	700
958.418	1538
958.507	516
958.596	2231
958.684	1181
958.773	2055
958.861	1955
958.950	1066
959.039	758
959.127	1007
959.216	1763
959.304	842
959.393	1830
959.481	1999
959.570	629
959.658	668
959.746	1018
959.835	1061
959.923	445
960.011	-148
960.100	1533
960.188	1413
960.276	911
960.365	1206
960.453	723
960.541	136
960.629	1251
960.717	242
960.805	-424
960.893	810
960.981	747
961.069	2411
961.158	1649
961.245	3005
961.333	2351
961.421	1283
961.509	821
961.597	2111
961.685	955
961.773	639
961.861	1393
961.949	2055
962.036	284
962.124	1829
962.212	1321
962.299	1492
962.387	1046
962.475	1810
962.562	383
962.650	2006
962.738	1116
962.825	998
962.913	1379
963.000	778
963.088	1817
963.175	1341
963.263	852
963.350	1395
963.438	776
963.525	107
963.612	1380
963.700	167
963.787	2046
963.874	697
963.962	675
964.049	905
964.136	434
964.223	507
964.310	927
964.398	1500
964.485	471
964.572	437
964.659	986
964.746	768
964.833	755
964.920	745
965.007	629
965.094	1263
965.181	448
965.268	1629
965.355	1721
965.441	888
965.528	37
965.615	2464
965.702	901
965.789	976
965.875	1078
965.962	1306
966.049	543
966.136	1777
966.222	958
966.309	1787
966.395	744
966.482	1893
966.569	346
966.655	1238
966.742	1194
966.828	2018
966.915	867
967.001	943
967.087	119
967.174	879
967.260	608
967.347	1401
967.433	912
967.519	1174
967.605	597
967.692	880
967.778	1286
967.864	670
967.950	1227
968.036	552
968.123	1494
968.209	651
968.295	-441
968.381	2220
968.467	465
968.553	-889
968.639	1655
968.725	913
968.811	917
968.897	1110
968.983	1031
969.069	961
969.154	1067
969.240	1341
969.326	-207
969.412	607
969.497	300
969.583	-149
969.669	1328
969.755	1948
969.840	775
969.926	1895
970.012	2750
970.097	2455
970.183	1133
970.268	1639
970.354	546
970.439	349
970.525	1319
970.610	41
970.696	1620
970.781	576
970.866	-980
970.952	1167
971.037	1211
971.122	645
971.208	1322
971.293	589
971.378	43
971.463	1121
971.549	801
971.634	637
971.719	1436
971.804	-162
971.889	1358
971.974	875
972.059	510
972.144	1316
972.229	781
972.314	841
972.399	1230
972.484	-86
972.569	975
972.654	-574
972.739	1551
972.824	312
972.908	-171
972.993	420
973.078	1101
973.163	311
973.247	598
973.332	-882
973.417	1666
973.501	-303
973.586	281
973.671	710
973.755	-205
973.840	1532
973.924	1276
974.009	491
974.093	1066
974.178	2692
974.262	824
974.346	904
974.431	102
974.515	899
974.600	893
974.684	1548
974.768	363
974.852	1060
974.937	-651
975.021	1395
975.105	488
975.189	220
975.273	905
975.358	344
975.442	-423
975.526	1735
975.610	454
975.694	150
975.778	1070
975.862	615
975.946	-1018
976.030	1859
976.114	405
976.198	1399
976.281	822
976.365	1602
976.449	23
976.533	1331
976.617	-250
976.700	572
976.784	1009
976.868	137
976.951	242
977.035	350
977.119	1244
977.202	475
977.286	1051
977.369	735
977.453	2934
977.536	1726
977.620	1011
977.703	1060
977.787	154
977.870	1332
977.953	1430
978.037	-436
978.120	757
978.203	34
978.287	566
978.370	848
978.453	-32
978.536	572
978.620	630
978.703	574
978.786	-20
978.869	440
978.952	-401
979.035	1488
979.118	1779
979.201	690
979.284	1459
979.367	722
979.450	1540
979.533	-223
979.616	358
979.699	466
979.782	1338
979.865	1145
979.948	145
980.030	-245
980.113	-100
980.196	384
980.279	810
980.361	673
980.444	-120
980.526	1683
980.609	2024
980.692	1197
980.774	1957
980.857	311
980.939	1803
981.022	692
981.104	487
981.187	716
981.269	968
981.352	913
981.434	-128
981.516	1245
981.599	1221
981.681	616
981.763	857
981.846	1412
981.928	1533
982.010	574
982.092	-99
982.174	1458
982.256	-298
982.339	312
982.421	943
982.503	1302
982.585	-612
982.667	884
982.749	1482
982.831	704
982.913	-388
982.995	1530
983.077	-30
983.158	2049
983.240	512
983.322	1418
983.404	2478
983.486	2075
983.568	2664
983.649	1890
983.731	2477
983.813	856
983.894	1511
983.976	826
984.058	1600
984.139	1914
984.221	113
984.302	2071
984.384	846
984.465	452
984.547	1204
984.628	627
984.710	1560
984.791	461
984.872	1238
984.954	718
985.035	1526
985.116	685
985.198	869
985.279	2250
985.360	1198
985.441	827
985.522	1350
985.604	339
985.685	-637
985.766	1268
985.847	2766
985.928	1172
986.009	1537
986.090	510
986.171	1352
986.252	1316
986.333	1209
986.414	108
986.495	1386
986.576	1396
986.656	1027
986.737	1135
986.818	1473
986.899	1378
986.980	1111
987.060	1765
987.141	707
987.222	1617
987.302	2586
987.383	3660
987.464	2490
987.544	1859
987.625	1569
987.705	2434
987.786	3115
987.866	1729
987.947	1860
988.027	2334
988.108	1841
988.188	2245
988.268	1584
988.349	3196
988.429	1383
988.509	2228
988.589	411
988.670	1156
988.750	2442
988.830	1067
988.910	2681
988.990	2141
989.070	1505
989.151	934
989.231	1275
989.311	2628
989.391	665
989.471	1465
989.551	622
989.631	1313
989.711	1762
989.791	1606
989.870	710
989.950	1570
990.030	816
990.110	1374
990.190	926
990.269	825
990.349	619
990.429	1164
990.509	1706
990.588	989
990.668	1675
990.747	806
990.827	378
990.907	2052
990.986	746
991.066	1194
991.145	509
991.225	1749
991.304	1050
991.383	2221
991.463	723
991.542	2365
991.622	249
991.701	163
991.780	800
991.859	637
991.939	196
992.018	1330
992.097	405
992.176	659
992.256	483
992.335	-109
992.414	799
992.493	-123
992.572	189
992.651	1462
992.730	-38
992.809	609
992.888	33
992.967	1366
993.046	490
993.125	9
993.203	38
993.282	356
993.361	692
993.440	901
993.519	-77
993.597	1413
993.676	755
993.755	1507
993.834	322
993.912	-646
993.991	1215
994.069	-755
994.148	254
994.226	423
994.305	1006
994.384	160
994.462	1845
994.540	-501
994.619	-613
994.697	1043
994.776	427
994.854	775
994.932	-370
995.011	57
995.089	237
995.167	310
995.245	883
995.324	-8
995.402	1546
995.480	337
995.558	-89
995.636	-416
995.714	-1200
995.792	1976
995.870	-634
995.948	-147
996.026	173
996.104	-943
996.182	132
996.260	-944
996.338	97
996.416	-661
996.494	44
996.572	1875
996.649	-973
996.727	-43
996.805	598
996.883	371
996.960	-414
997.038	202
997.116	314
997.193	-95
997.271	-327
997.348	227
997.426	-769
997.504	148
997.581	50
997.658	704
997.736	-2317
997.813	-742
997.891	773
997.968	-638
998.046	-122
998.123	-704
998.200	548
998.277	-317
998.355	438
998.432	-1488
998.509	-41
998.586	65
998.663	-1037
998.741	723
998.818	-747
998.895	-1272
998.972	917
999.049	-196
999.126	-398
999.203	-358
999.280	-767
999.357	-400
999.434	-431
999.511	41
999.587	-535
999.664	-742
999.741	-54
999.818	124
999.895	-1062
999.971	-234
1000.048	-66
1000.125	289
1000.202	-1236
1000.278	-668
1000.355	-547
1000.431	-195
1000.508	-474
1000.584	-962
1000.661	-704
1000.738	-1200
1000.814	-608
1000.890	170
1000.967	-597
1001.043	-215
1001.120	-1641
1001.196	-171
1001.272	-1447
1001.349	120
1001.425	547
1001.501	-1366
1001.577	-194
1001.654	-169
1001.730	-1364
1001.806	-708
1001.882	-1484
1001.958	-391
1002.034	450
1002.110	-590
1002.186	-760
1002.262	-934
1002.338	-1819
1002.414	-907
1002.490	-494
1002.566	-897
1002.642	-701
1002.718	158
1002.794	-1177
1002.870	-1357
1002.945	-940
1003.021	-746
1003.097	-978
1003.173	170
1003.248	-1176
1003.324	-169
1003.400	-612
1003.475	-1139
1003.551	-1419
1003.626	-1112
1003.702	-1314
1003.777	-1277
1003.853	-2059
1003.928	-1313
1004.004	-575
1004.079	-238
1004.155	-870
1004.230	-1477
1004.305	488
1004.381	-713
1004.456	-880
1004.531	-485
1004.607	-708
1004.682	-1738
1004.757	-1193
1004.832	-815
1004.907	-1408
1004.982	-1106
1005.057	-1258
1005.133	-1552
1005.208	-1006
1005.283	-1147
1005.358	-687
1005.433	-2119
1005.508	-1517
1005.583	-1492
1005.657	-2242
1005.732	-32
1005.807	-1539
1005.882	-825
1005.957	-1372
1006.032	-1464
1006.106	-989
1006.181	-530
1006.256	-333
1006.331	-1749
1006.405	-1126
1006.480	-264
1006.554	-1240
1006.629	-866
1006.704	-1661
1006.778	-797
1006.853	-1514
1006.927	-1634
1007.002	-1535
1007.076	-864
1007.150	-1534
1007.225	-616
1007.299	-943
1007.373	-1122
1007.448	-1165
1007.522	-1252
1007.596	-1980
1007.671	-2264
1007.745	-540
1007.819	-1621
1007.893	-1529
1007.967	-707
1008.041	-2284
1008.115	-854
1008.190	-1763
1008.264	-1373
1008.338	-1697
1008.412	-1880
1008.486	-1382
1008.560	-1506
1008.633	-2198
1008.707	-1151
1008.781	-1206
1008.855	-1214
1008.929	-1077
1009.003	-1817
1009.076	-1493
1009.150	-822
1009.224	-1624
1009.298	-1046
1009.371	-1612
1009.445	-640
1009.519	-1527
1009.592	-2296
1009.666	-2059
1009.739	-1574
1009.813	-1950
1009.886	-518
1009.960	-2333
1010.033	-1170
1010.107	-1209
1010.180	-2060
1010.253	-1832
1010.327	-2308
1010.400	-1898
1010.473	-1363
1010.547	-1244
1010.620	-1990
1010.693	-1405
1010.766	-2066
1010.840	-1603
1010.913	-494
1010.986	-2044
1011.059	-1329
1011.132	-2355
1011.205	-1293
1011.278	-2227
1011.351	-1974
1011.424	-1522
1011.497	-2020
1011.570	-1821
1011.643	-1107
1011.716	-1981
1011.789	-1020
1011.862	-1270
1011.934	-668
1012.007	-2640
1012.080	-1758
1012.153	-1466
1012.225	-977
1012.298	-2390
1012.371	-1899
1012.443	-753
1012.516	-2054
1012.588	-1914
1012.661	-1861
1012.733	-2329
1012.806	-1304
1012.879	-2198
1012.951	-1144
1013.023	-2173
1013.096	-1408
1013.168	-1901
1013.241	-698
1013.313	-2169
1013.385	-1798
1013.458	-1787
1013.530	-882
1013.602	-2744
1013.674	-1227
1013.746	-2626
1013.819	-1550
1013.891	-1560
1013.963	-1896
1014.035	-1750
1014.107	-1545
1014.179	-1949
1014.251	-2723
1014.323	-2197
1014.395	-1911
1014.467	-2219
1014.539	-1246
1014.611	-2763
1014.683	-1719
1014.754	-1963
1014.826	-2056
1014.898	-1389
1014.970	-1818
1015.042	-1295
1015.113	-2540
1015.185	-2104
1015.257	-1891
1015.328	-1876
1015.400	-2239
1015.471	-2679
1015.543	-2519
1015.615	-2062
1015.686	-1318
1015.757	-1853
1015.829	-1784
1015.901	-2190
1015.972	-1645
1016.043	-1866
1016.115	-1736
1016.186	-1592
1016.257	-2753
1016.328	-961
1016.400	-240
1016.471	-3144
1016.542	-2002
1016.613	-1819
1016.685	-1610
1016.756	-2086
1016.827	-1697
1016.898	-2430
1016.969	-1396
1017.040	-2634
1017.111	-1860
1017.182	-2341
1017.253	-1338
1017.324	-2478
1017.395	-1745
1017.466	-1910
1017.537	-2443
1017.608	-2366
1017.678	-2179
1017.749	-2409
1017.820	-2676
1017.891	-1881
1017.961	-1835
1018.032	-1929
1018.103	-1584
1018.173	-2477
1018.244	-2747
1018.315	-2240
1018.385	-1397
1018.456	-2036
1018.526	-1851
1018.597	-2031
1018.667	-2389
1018.738	-2285
1018.808	-2629
1018.878	-2958
1018.949	-2199
1019.019	-1868
1019.089	-1896
1019.160	-1931
1019.230	-2050
1019.300	-2394
1019.371	-2937
1019.441	-1912
1019.511	-2007
1019.581	-2655
1019.651	-2408
1019.721	-1772
1019.791	-2453
1019.861	-1652
1019.931	-2461
1020.001	-3075
1020.071	-1560
1020.141	-2126
1020.211	-2014
1020.281	-3046
1020.351	-1851
1020.421	-2039
1020.491	-1795
1020.560	-2457
1020.630	-1313
1020.700	-1834
1020.770	-1999
1020.839	-2266
1020.909	-1967
1020.979	-2526
1021.048	-2348
1021.118	-2484
1021.187	-1927
1021.257	-2157
1021.326	-1871
1021.396	-1782
1021.465	-2148
1021.535	-2212
1021.604	-2937
1021.674	-2045
1021.743	-2578
1021.812	-2096
1021.882	-1666
1021.951	-2487
1022.020	-1870
1022.089	-1388
1022.159	-2203
1022.228	-2185
1022.297	-2463
1022.366	-2477
1022.435	-1926
1022.504	-2477
1022.573	-1841
1022.642	-1889
1022.711	-2424
1022.781	-1991
1022.849	-1928
1022.918	-2907
1022.987	-1492
1023.056	-2929
1023.125	-2122
1023.194	-2355
1023.263	-1449
1023.331	-2649
1023.400	-3212
1023.469	-1895
1023.538	-1485
1023.606	-2430
1023.675	-2277
1023.744	-2021
1023.812	-2468
1023.881	-2636
1023.949	-1756
1024.018	-2544
1024.086	-2987
1024.155	-3425
1024.223	-2828
1024.292	-2470
1024.360	-1906
1024.429	-2623
1024.497	-2278
1024.565	-2477
1024.634	-2694
1024.702	-1489
1024.770	-2343
1024.838	-2173
1024.907	-1374
1024.975	-1972
1025.043	-1977
1025.111	-2524
1025.179	-2311
1025.247	-1988
1025.315	-2333
1025.383	-2361
1025.451	-2294
1025.519	-2414
1025.587	-1918
1025.655	-1667
1025.723	-1813
1025.791	-1719
1025.859	-2394
1025.927	-2261
1025.995	-2517
1026.062	-2713
1026.130	-2168
1026.198	-2431
1026.266	-2171
1026.333	-1383
1026.401	-2048
1026.469	-2277
1026.536	-2653
1026.604	-2010
1026.671	-2140
1026.739	-1803
1026.806	-2284
1026.874	-2444
1026.941	-2551
1027.009	-2683
1027.076	-1558
1027.144	-1797
1027.211	-2476
1027.278	-2467
1027.345	-1988
1027.413	-1944
1027.480	-2149
1027.547	-2033
1027.614	-2738
1027.682	-2460
1027.749	-1759
1027.816	-2481
1027.883	-1358
1027.950	-2820
1028.017	-2703
1028.084	-1678
1028.151	-1878
1028.218	-1552
1028.285	-2077
1028.352	-2532
1028.419	-2223
1028.486	-2321
1028.553	-2007
1028.619	-1570
1028.686	-1882
1028.753	-2161
1028.820	-2664
1028.886	-1930
1028.953	-1403
1029.020	-2067
1029.086	-2579
1029.153	-2383
1029.220	-2611
1029.286	-1847
1029.353	-2553
1029.419	-2961
1029.486	-1991
1029.552	-2262
1029.619	-2283
1029.685	-2631
1029.751	-2800
1029.818	-1064
1029.884	-2336
1029.951	-1504
1030.017	-2822
1030.083	-2215
1030.149	-1716
1030.216	-2878
1030.282	-2149
1030.348	-2748
1030.414	-3039
1030.480	-3219
1030.546	-2270
1030.612	-1786
1030.678	-2073
1030.744	-3266
1030.810	-2713
1030.876	-1946
1030.942	-2691
1031.008	-2107
1031.074	-2431
1031.140	-2296
1031.206	-2407
1031.272	-2171
1031.337	-2200
1031.403	-1604
1031.469	-2327
1031.534	-3231
1031.600	-2117
1031.666	-3178
1031.731	-2207
1031.797	-1254
1031.863	-1316
1031.928	-2352
1031.994	-1825
1032.059	-2093
1032.125	-2519
1032.190	-1600
1032.256	-2040
1032.321	-2527
1032.386	-2516
1032.452	-2004
1032.517	-2340
1032.582	-2095
1032.647	-2099
1032.713	-2552
1032.778	-2589
1032.843	-2855
1032.908	-2597
1032.974	-2621
1033.039	-1732
1033.104	-2643
1033.169	-2825
1033.234	-3443
1033.299	-2235
1033.364	-1953
1033.429	-2726
1033.494	-1021
1033.559	-2566
1033.624	-2455
1033.688	-1634
1033.753	-3088
1033.818	-1855
1033.883	-2432
1033.948	-1964
1034.013	-2203
1034.077	-2200
1034.142	-1624
1034.207	-1345
1034.271	-808
1034.336	-908
1034.400	-1532
1034.465	-1558
1034.530	-1168
1034.594	-1401
1034.658	-2571
1034.723	-2197
1034.787	-2224
1034.852	-1818
1034.916	-2246
1034.981	-2600
1035.045	-1821
1035.109	-2150
1035.173	-2468
1035.238	-2739
1035.302	-2552
1035.366	-2609
1035.430	-2378
1035.495	-2129
1035.559	-2074
1035.623	-2479
1035.687	-2358
1035.751	-2375
1035.815	-2783
1035.879	-1759
1035.943	-1648
1036.007	-2216
1036.071	-2707
1036.135	-1290
1036.198	-1739
1036.262	-2702
1036.326	-2003
1036.390	-1905
1036.454	-2287
1036.517	-2447
1036.581	-2446
1036.645	-1605
1036.709	-2766
1036.772	-2610
1036.836	-2789
1036.900	-2706
1036.963	-2705
1037.026	-2110
1037.090	-2709
1037.154	-2344
1037.217	-2542
1037.280	-2626
1037.344	-2547
1037.407	-2730
1037.471	-3110
1037.534	-2415
1037.597	-2823
1037.661	-2538
1037.724	-2317
1037.787	-2801
1037.850	-1891
1037.913	-2475
1037.977	-1549
1038.040	-2683
1038.103	-2545
1038.166	-2473
1038.229	-2570
1038.292	-2225
1038.355	-2355
1038.418	-1794
1038.481	-2495
1038.544	-2602
1038.607	-2214
1038.670	-2398
1038.732	-2367
1038.795	-2045
1038.858	-2664
1038.921	-1959
1038.984	-1487
1039.046	-2497
1039.109	-2064
1039.172	-2575
1039.234	-2929
1039.297	-2251
1039.360	-2518
1039.422	-2651
1039.485	-2900
1039.547	-2861
1039.610	-1783
1039.672	-2067
1039.734	-2778
1039.797	-1927
1039.859	-2138
1039.922	-2440
1039.984	-2414
1040.046	-2324
1040.109	-1937
1040.171	-2656
1040.233	-2448
1040.295	-2661
1040.358	-2866
1040.420	-2592
1040.482	-1785
1040.544	-2149
1040.606	-2560
1040.668	-3666
1040.730	-2747
1040.792	-2781
1040.854	-2319
1040.916	-2398
1040.978	-2550
1041.040	-1596
1041.102	-2551
1041.164	-2467
1041.225	-3105
1041.287	-3083
1041.349	-2947
1041.411	-3725
1041.472	-2939
1041.534	-2739
1041.596	-3044
1041.657	-2831
1041.719	-2362
1041.781	-2225
1041.842	-2316
1041.904	-2434
1041.965	-3072
1042.027	-2524
1042.088	-2936
1042.150	-2174
1042.211	-2301
1042.272	-2510
1042.334	-2277
1042.395	-1960
1042.456	-2767
1042.518	-2790
1042.579	-2043
1042.640	-1817
1042.701	-1608
1042.763	-2927
1042.824	-2324
1042.885	-2419
1042.946	-2603
1043.007	-2205
1043.068	-3149
1043.129	-1738
1043.190	-2767
1043.251	-1939
1043.312	-2323
1043.373	-1141
1043.434	-2230
1043.495	-1891
1043.556	-2867
1043.616	-2595
1043.677	-2319
1043.738	-2582
1043.799	-2637
1043.859	-2918
1043.920	-2453
1043.981	-2867
1044.041	-2126
1044.102	-1609
1044.162	-2381
1044.223	-2546
1044.284	-2362
1044.344	-2862
1044.405	-2514
1044.465	-2126
1044.525	-2918
1044.586	-2821
1044.646	-1553
1044.707	-1403
1044.767	-2177
1044.827	-2625
1044.887	-1978
1044.948	-2176
1045.008	-2678
1045.068	-1128
1045.128	-2296
1045.188	-1550
1045.249	-2731
1045.309	-2157
1045.369	-2620
1045.429	-2025
1045.489	-2364
1045.549	-1999
1045.609	-2417
1045.669	-2020
1045.729	-2388
1045.789	-2183
1045.848	-2666
1045.908	-2080
1045.968	-2003
1046.028	-1574
1046.088	-1008
1046.147	-1393
1046.207	-1205
1046.267	-1428
1046.326	-2141
1046.386	-1947
1046.446	-562
1046.505	-1269
1046.565	-2553
1046.624	-850
1046.684	-1390
1046.743	-1501
1046.803	-661
1046.862	-1452
1046.922	0
