'Start Wavelength	183.907
'End Wavelength	1046.922
'Gate Delay	5.000
'Gate Width (ms)	1.050
'Laser Output Level	0.000
'X Position	0.000
'Y Position	0.000
'Z Position	0.000
'Grid Point Number	1.000
'Shot Number	100.000
183.907	1002.000
183.977	-253.000
184.047	597
184.116	316
184.186	618
184.256	-236
184.325	253
184.395	-17
184.465	1660
184.534	1081
184.604	489
184.674	51
184.743	433
184.813	367
184.883	403
184.952	376
185.022	510
185.092	-150
185.161	263
185.231	258
185.301	205
185.370	383
185.440	-186
185.509	-651
185.579	-408
185.649	730
185.718	730
185.788	963
185.857	-256
185.927	351
185.996	175
186.066	1286
186.136	-107
186.205	265
186.275	595
186.344	-70
186.414	-421
186.483	505
186.553	1274
186.622	1657
186.692	898
186.761	100
186.831	1200
186.900	320
186.970	463
187.039	998
187.109	454
187.178	302
187.248	1264
187.317	829
187.387	-11
187.456	45
187.526	471
187.595	1044
187.664	-27
187.734	1042
187.803	368
187.873	267
187.942	297
188.012	482
188.081	751
188.150	696
188.220	654
188.289	2064
188.358	1246
188.428	1294
188.497	614
188.567	1128
188.636	913
188.705	1083
188.775	993
188.844	-701
188.913	1814
188.983	117
189.052	197
189.121	-71
189.191	129
189.260	495
189.329	219
189.399	-28
189.468	452
189.537	280
189.606	591
189.676	387
189.745	881
189.814	643
189.883	285
189.953	362
190.022	3
190.091	732
190.161	92
190.230	387
190.299	266
190.368	-132
190.437	274
190.507	418
190.576	365
190.645	389
190.714	1215
190.783	-254
190.853	1321
190.922	149
190.991	232
191.060	1291
191.129	-340
191.198	323
191.268	606
191.337	-60
191.406	677
191.475	175
191.544	765
191.613	113
191.682	121
191.752	792
191.821	67
191.890	438
191.959	1198
192.028	1110
192.097	368
192.166	865
192.235	462
192.304	1061
192.373	445
192.442	402
192.511	387
192.580	738
192.650	600
192.719	593
192.788	654
192.857	414
192.926	31
192.995	829
193.064	1332
193.133	1286
193.202	377
193.271	739
193.340	1433
193.409	273
193.478	-117
193.547	597
193.615	1453
193.684	781
193.753	773
193.822	525
193.891	159
193.960	1164
194.029	843
194.098	815
194.167	-127
194.236	892
194.305	647
194.374	436
194.443	103
194.512	17
194.580	1061
194.649	79
194.718	591
194.787	737
194.856	610
194.925	784
194.994	467
195.062	1302
195.131	1359
195.200	-102
195.269	757
195.338	884
195.407	523
195.475	-49
195.544	1225
195.613	374
195.682	466
195.751	1453
195.819	203
195.888	251
195.957	1034
196.026	340
196.094	864
196.163	428
196.232	567
196.301	502
196.369	926
196.438	315
196.507	669
196.576	-88
196.644	676
196.713	335
196.782	212
196.850	775
196.919	724
196.988	86
197.056	52
197.125	667
197.194	438
197.262	284
197.331	-230
197.400	275
197.468	-286
197.537	257
197.606	1064
197.674	940
197.743	1372
197.812	604
197.880	941
197.949	198
198.017	1228
198.086	540
198.155	1150
198.223	1222
198.292	639
198.360	601
198.429	952
198.497	184
198.566	-244
198.635	1983
198.703	767
198.772	912
198.840	1184
198.909	1507
198.977	-329
199.046	553
199.114	108
199.183	432
199.251	586
199.320	512
199.388	388
199.457	274
199.525	441
199.594	325
199.662	995
199.731	-58
199.799	416
199.867	1315
199.936	925
200.004	791
200.073	1212
200.141	171
200.210	726
200.278	250
200.346	1254
200.415	1642
200.483	1148
200.552	1147
200.620	1210
200.688	795
200.757	540
200.825	1082
200.893	1125
200.962	846
201.030	450
201.098	581
201.167	1206
201.235	1543
201.303	126
201.372	1618
201.440	1130
201.508	1511
201.577	1134
201.645	1312
201.713	960
201.781	902
201.850	1650
201.918	1728
201.986	1089
202.055	1141
202.123	513
202.191	1195
202.259	936
202.327	568
202.396	445
202.464	1042
202.532	1503
202.600	4320
202.669	3751
202.737	1631
202.805	368
202.873	822
202.941	734
203.009	255
203.078	209
203.146	1762
203.214	618
203.282	-506
203.350	-125
203.418	210
203.487	1392
203.555	283
203.623	540
203.691	1014
203.759	688
203.827	437
203.895	409
203.963	608
204.031	326
204.099	1071
204.168	-22
204.236	992
204.304	801
204.372	881
204.440	732
204.508	311
204.576	320
204.644	194
204.712	-2
204.780	139
204.848	1152
204.916	128
204.984	129
205.052	426
205.120	361
205.188	790
205.256	-358
205.324	747
205.392	-106
205.460	336
205.528	-36
205.596	624
205.664	463
205.732	176
205.799	897
205.867	1671
205.935	687
206.003	1360
206.071	820
206.139	124
206.207	342
206.275	947
206.343	437
206.411	1206
206.478	999
206.546	-224
206.614	1062
206.682	429
206.750	913
206.818	1650
206.885	1625
206.953	1000
207.021	1122
207.089	626
207.157	488
207.225	108
207.292	416
207.360	610
207.428	736
207.496	91
207.563	-2
207.631	547
207.699	375
207.767	517
207.834	110
207.902	758
207.970	581
208.038	875
208.105	509
208.173	836
208.241	888
208.309	556
208.376	773
208.444	1181
208.512	737
208.579	-617
208.647	1021
208.715	1864
208.782	615
208.850	1084
208.918	1381
208.985	1191
209.053	41
209.120	869
209.188	37
209.256	663
209.323	306
209.391	-159
209.459	1859
209.526	413
209.594	282
209.661	691
209.729	702
209.796	783
209.864	1036
209.932	123
209.999	1484
210.067	562
210.134	277
210.202	493
210.269	925
210.337	2679
210.404	862
210.472	756
210.539	1164
210.607	662
210.674	913
210.742	1208
210.809	530
210.877	780
210.944	839
211.012	49
211.079	1344
211.146	974
211.214	1200
211.281	2825
211.349	3228
211.416	1913
211.484	820
211.551	426
211.618	85
211.686	543
211.753	718
211.821	1344
211.888	388
211.955	875
212.023	818
212.090	332
212.157	1028
212.225	486
212.292	1323
212.359	1317
212.427	5104
212.494	2473
212.561	1253
212.629	311
212.696	330
212.763	1207
212.831	-127
212.898	825
212.965	134
213.032	422
213.100	523
213.167	607
213.234	1175
213.301	801
213.369	72
213.436	171
213.503	481
213.570	1338
213.638	160
213.705	338
213.772	-264
213.839	161
213.906	1265
213.973	598
214.041	-33
214.108	757
214.175	1436
214.242	650
214.309	-105
214.376	443
214.444	104
214.511	669
214.578	-147
214.645	1231
214.712	966
214.779	1310
214.846	1102
214.913	1244
214.980	1985
215.048	3308
215.115	3458
215.182	2469
215.249	1641
215.316	1253
215.383	1506
215.450	1092
215.517	519
215.584	842
215.651	393
215.718	1333
215.785	1291
215.852	413
215.919	1359
215.986	624
216.053	711
216.120	7
216.187	578
216.254	1077
216.321	318
216.388	686
216.455	780
216.522	1016
216.589	693
216.656	894
216.722	1364
216.789	951
216.856	494
216.923	371
216.990	797
217.057	468
217.124	1370
217.191	-156
217.258	814
217.324	1046
217.391	1571
217.458	571
217.525	841
217.592	772
217.659	-615
217.725	1344
217.792	94
217.859	1416
217.926	-150
217.993	774
218.059	84
218.126	764
218.193	861
218.260	920
218.327	213
218.393	709
218.460	433
218.527	-86
218.594	436
218.660	1
218.727	1421
218.794	-914
218.860	918
218.927	955
218.994	528
219.061	-99
219.127	85
219.194	1091
219.261	253
219.327	809
219.394	1543
219.461	-386
219.527	733
219.594	1864
219.661	736
219.727	-138
219.794	1644
219.860	1064
219.927	1596
219.994	3379
220.060	6952
220.127	7822
220.193	3374
220.260	1830
220.326	2012
220.393	1628
220.460	2011
220.526	1209
220.593	689
220.659	2457
220.726	1067
220.792	3324
220.859	2459
220.925	3043
220.992	3959
221.058	3927
221.125	5079
221.191	3075
221.258	1353
221.324	1782
221.391	225
221.457	1121
221.524	719
221.590	1436
221.657	4236
221.723	2826
221.789	2187
221.856	2972
221.922	278
221.989	1225
222.055	786
222.121	1100
222.188	3619
222.254	1617
222.321	1355
222.387	356
222.453	602
222.520	504
222.586	29
222.652	732
222.719	-271
222.785	1015
222.851	291
222.918	578
222.984	-98
223.050	855
223.116	-1312
223.183	1443
223.249	24
223.315	310
223.382	-109
223.448	260
223.514	1119
223.580	28
223.647	495
223.713	385
223.779	358
223.845	-15
223.911	378
223.978	-275
224.044	602
224.110	-790
224.176	732
224.242	558
224.309	-176
224.375	439
224.441	628
224.507	-226
224.573	-433
224.639	1209
224.705	492
224.772	516
224.838	-611
224.904	654
224.970	446
225.036	85
225.102	242
225.168	1224
225.234	1381
225.300	558
225.366	-328
225.432	1471
225.499	464
225.565	1434
225.631	-144
225.697	1494
225.763	1059
225.829	1081
225.895	669
225.961	1004
226.027	2033
226.093	87
226.159	1747
226.225	3097
226.291	3111
226.357	6740
226.423	3235
226.489	2356
226.554	1477
226.620	2126
226.686	1569
226.752	2234
226.818	3651
226.884	10174
226.950	9527
227.016	3440
227.082	3568
227.148	1122
227.214	1970
227.279	1729
227.345	2224
227.411	2905
227.477	6645
227.543	12830
227.609	14532
227.674	8618
227.740	4753
227.806	3019
227.872	1027
227.938	1163
228.003	1778
228.069	1247
228.135	482
228.201	1619
228.267	762
228.332	735
228.398	30
228.464	1269
228.530	381
228.595	573
228.661	651
228.727	79
228.792	1579
228.858	863
228.924	-431
228.990	2350
229.055	-538
229.121	655
229.187	10
229.252	5
229.318	232
229.384	508
229.449	372
229.515	-610
229.581	-512
229.646	2401
229.712	418
229.777	1089
229.843	622
229.909	1291
229.974	1331
230.040	1281
230.105	583
230.171	474
230.236	1061
230.302	1388
230.368	-43
230.433	-319
230.499	560
230.564	1198
230.630	103
230.695	589
230.761	1430
230.826	-236
230.892	1622
230.957	-312
231.023	337
231.088	145
231.154	561
231.219	1465
231.284	244
231.350	1409
231.415	471
231.481	1057
231.546	745
231.612	195
231.677	309
231.742	73
231.808	1748
231.873	420
231.939	-883
232.004	1297
232.069	1989
232.135	127
232.200	-267
232.265	687
232.331	378
232.396	684
232.461	396
232.527	-99
232.592	-422
232.657	1636
232.723	852
232.788	244
232.853	1249
232.918	575
232.984	461
233.049	-216
233.114	467
233.179	2122
233.245	1692
233.310	671
233.375	-887
233.440	1529
233.506	480
233.571	466
233.636	1363
233.701	878
233.766	684
233.832	783
233.897	466
233.962	-1181
234.027	2033
234.092	1164
234.157	310
234.222	1050
234.288	1340
234.353	1327
234.418	2098
234.483	1849
234.548	1659
234.613	689
234.678	1211
234.743	-80
234.808	1948
234.873	335
234.938	1348
235.004	1581
235.069	1027
235.134	402
235.199	745
235.264	1088
235.329	-995
235.394	813
235.459	1701
235.524	-64
235.589	1084
235.654	905
235.719	-465
235.784	1215
235.849	1803
235.913	583
235.978	675
236.043	673
236.108	995
236.173	747
236.238	1802
236.303	304
236.368	891
236.433	1515
236.498	435
236.563	1218
236.627	2707
236.692	14027
236.757	12738
236.822	3684
236.887	1732
236.952	2665
237.017	662
237.081	2292
237.146	1776
237.211	5129
237.276	12891
237.341	28360
237.405	9709
237.470	3072
237.535	2297
237.600	1764
237.664	1442
237.729	805
237.794	309
237.859	2501
237.923	1530
237.988	709
238.053	1565
238.118	1442
238.182	2875
238.247	4129
238.312	638
238.376	2017
238.441	-627
238.506	1572
238.570	-370
238.635	1601
238.700	612
238.764	-72
238.829	1441
238.893	1085
238.958	1976
239.023	1371
239.087	1229
239.152	1954
239.216	962
239.281	1915
239.346	1574
239.410	1604
239.475	1163
239.539	3220
239.604	1915
239.668	3070
239.733	4175
239.797	12038
239.862	27889
239.926	20594
239.991	8512
240.055	4396
240.120	2907
240.184	3102
240.249	1645
240.313	1197
240.378	1023
240.442	1992
240.507	2693
240.571	1436
240.635	314
240.700	1378
240.764	1653
240.829	948
240.893	389
240.957	1250
241.022	1812
241.086	2231
241.151	1134
241.215	301
241.279	1564
241.344	571
241.408	2041
241.472	443
241.537	2612
241.601	1372
241.665	-104
241.730	1018
241.794	2234
241.858	917
241.922	1041
241.987	1591
242.051	519
242.115	-117
242.179	1896
242.244	486
242.308	1688
242.372	717
242.436	1135
242.501	1102
242.565	697
242.629	751
242.693	1540
242.757	119
242.822	865
242.886	1189
242.950	1042
243.014	-89
243.078	1054
243.142	386
243.206	731
243.271	415
243.335	328
243.399	2363
243.463	4885
243.527	17296
243.591	5136
243.655	1577
243.719	22
243.783	2111
243.847	1900
243.911	1812
243.975	695
244.040	140
244.104	3311
244.168	832
244.232	163
244.296	1417
244.360	1654
244.424	140
244.488	2482
244.552	1470
244.615	-577
244.679	1439
244.743	1343
244.807	352
244.871	841
244.935	1398
244.999	236
245.063	1216
245.127	2035
245.191	1573
245.255	1256
245.319	1566
245.383	289
245.446	2662
245.510	-14
245.574	1103
245.638	1078
245.702	-908
245.766	2157
245.829	2967
245.893	442
245.957	630
246.021	2030
246.085	1459
246.149	936
246.212	2865
246.276	3919
246.340	1707
246.404	1223
246.467	1969
246.531	-606
246.595	1979
246.659	2261
246.722	-25
246.786	1217
246.850	1452
246.913	1361
246.977	502
247.041	951
247.104	1342
247.168	1627
247.232	2045
247.295	6011
247.359	3161
247.423	950
247.486	1941
247.550	2459
247.614	623
247.677	1991
247.741	1137
247.804	1719
247.868	4816
247.932	2418
247.995	7064
248.059	2261
248.122	1519
248.186	2687
248.249	2323
248.313	9871
248.376	9619
248.440	5912
248.503	1591
248.567	3146
248.630	782
248.694	2716
248.757	3576
248.821	11088
248.884	6786
248.948	3903
249.011	7291
249.075	11725
249.138	10456
249.202	3269
249.265	1337
249.328	3062
249.392	1839
249.455	2270
249.519	2157
249.582	2100
249.645	3310
249.709	2569
249.772	1496
249.835	1864
249.899	1470
249.962	2912
250.025	2002
250.089	4194
250.152	5424
250.215	2185
250.279	1164
250.342	2638
250.405	2187
250.468	1564
250.532	2799
250.595	4369
250.658	15622
250.721	34875
250.785	8000
250.848	4844
250.911	2655
250.974	2896
251.038	2456
251.101	7173
251.164	3500
251.227	3305
251.290	3147
251.354	5035
251.417	25698
251.480	28135
251.543	13292
251.606	49722
251.669	36220
251.732	10413
251.795	9100
251.859	10679
251.922	31239
251.985	18117
252.048	6786
252.111	3841
252.174	2735
252.237	5429
252.300	14862
252.363	12359
252.426	42000
252.489	14229
252.552	4966
252.615	3540
252.678	4376
252.741	10602
252.804	14015
252.867	42977
252.930	19055
252.993	7437
253.056	5579
253.119	3700
253.182	3170
253.245	3992
253.308	4152
253.371	1904
253.434	2753
253.497	2281
253.559	5970
253.622	3368
253.685	3083
253.748	2429
253.811	2455
253.874	2406
253.937	1807
254.000	2557
254.062	3695
254.125	6013
254.188	5713
254.251	3202
254.314	1657
254.376	2629
254.439	3666
254.502	3358
254.565	3355
254.628	7152
254.690	2582
254.753	2503
254.816	1787
254.878	1790
254.941	4740
255.004	5048
255.067	2916
255.129	1968
255.192	2095
255.255	442
255.317	2376
255.380	1987
255.443	1811
255.505	1571
255.568	1608
255.631	1356
255.693	2496
255.756	1997
255.819	3396
255.881	2772
255.944	2240
256.006	2115
256.069	2070
256.132	1855
256.194	2121
256.257	2753
256.319	2505
256.382	4010
256.444	6022
256.507	4271
256.569	3059
256.632	2557
256.694	2926
256.757	7077
256.819	24713
256.882	8710
256.944	3921
257.007	3666
257.069	2221
257.132	2296
257.194	3012
257.257	1557
257.319	2291
257.381	1996
257.444	5912
257.506	27002
257.569	29646
257.631	9968
257.693	6044
257.756	3276
257.818	2037
257.880	2537
257.943	3637
258.005	2290
258.067	1913
258.130	2591
258.192	2208
258.254	2313
258.317	2710
258.379	2404
258.441	3065
258.503	3712
258.566	2858
258.628	4097
258.690	1691
258.753	2757
258.815	3181
258.877	2236
258.939	1952
259.001	2301
259.064	1676
259.126	2087
259.188	2391
259.250	3032
259.312	2843
259.375	3480
259.437	3746
259.499	2399
259.561	2448
259.623	2789
259.685	1859
259.747	2639
259.809	3872
259.872	5087
259.934	7510
259.996	8423
260.058	4145
260.120	2406
260.182	2448
260.244	2634
260.306	1757
260.368	2843
260.430	1360
260.492	4238
260.554	5000
260.616	2693
260.678	4152
260.740	5336
260.802	2186
260.864	2001
260.926	1790
260.988	2734
261.050	2784
261.112	3976
261.174	7723
261.236	5139
261.298	2833
261.359	3606
261.421	4470
261.483	2925
261.545	3265
261.607	1506
261.669	1985
261.731	2416
261.793	4836
261.854	2222
261.916	2787
261.978	2562
262.040	2916
262.102	2539
262.164	2461
262.225	2532
262.287	2898
262.349	2997
262.411	2955
262.472	3797
262.534	2751
262.596	3640
262.658	3911
262.719	2290
262.781	3357
262.843	3919
262.904	3325
262.966	3573
263.028	3932
263.090	6494
263.151	17128
263.213	7988
263.275	5317
263.336	3809
263.398	4068
263.459	2789
263.521	2975
263.583	3699
263.644	3751
263.706	3355
263.767	2065
263.829	3154
263.891	2348
263.952	2018
264.014	1862
264.075	2616
264.137	5009
264.198	3871
264.260	2673
264.321	2505
264.383	3175
264.444	7914
264.506	3407
264.567	2955
264.629	4349
264.690	6514
264.752	4432
264.813	2923
264.875	2956
264.936	3068
264.998	2484
265.059	3627
265.120	4196
265.182	2824
265.243	10235
265.305	12382
265.366	4524
265.427	3079
265.489	4061
265.550	2122
265.611	2545
265.673	2759
265.734	3374
265.795	3532
265.857	2632
265.918	3057
265.979	4883
266.040	17762
266.102	17223
266.163	6039
266.224	4100
266.286	4075
266.347	3803
266.408	3552
266.469	3456
266.530	3885
266.592	3846
266.653	4369
266.714	4188
266.775	3741
266.836	3789
266.898	4389
266.959	5222
267.020	4597
267.081	5190
267.142	4798
267.203	4603
267.264	3894
267.326	5475
267.387	3845
267.448	3832
267.509	5149
267.570	4512
267.631	3711
267.692	3776
267.753	4029
267.814	2817
267.875	3473
267.936	4072
267.997	3564
268.058	3835
268.119	1964
268.180	2922
268.241	2170
268.302	2441
268.363	2217
268.424	2609
268.485	3207
268.546	2806
268.607	2469
268.668	1735
268.729	1533
268.790	2698
268.851	2085
268.912	3023
268.972	3840
269.033	1121
269.094	2652
269.155	2862
269.216	1568
269.277	2717
269.338	1732
269.398	2286
269.459	2657
269.520	2938
269.581	2748
269.642	2301
269.702	2252
269.763	2515
269.824	2357
269.885	2821
269.945	3207
270.006	2992
270.067	1188
270.128	1693
270.188	2245
270.249	2002
270.310	1287
270.370	2620
270.431	2552
270.492	1576
270.553	2284
270.613	1969
270.674	3355
270.734	1412
270.795	2253
270.856	1712
270.916	1701
270.977	2414
271.038	3221
271.098	2453
271.159	2031
271.219	3025
271.280	2541
271.340	2859
271.401	3276
271.462	2834
271.522	2720
271.583	2790
271.643	2501
271.704	2473
271.764	3207
271.825	3657
271.885	10019
271.946	14897
272.006	7442
272.066	7054
272.127	14433
272.187	15779
272.248	9460
272.308	5023
272.369	8146
272.429	7480
272.489	5284
272.550	5506
272.610	6185
272.671	4968
272.731	4852
272.791	5097
272.852	5170
272.912	5586
272.972	5586
273.033	5731
273.093	5512
273.153	7172
273.214	6747
273.274	7080
273.334	10252
273.394	13685
273.455	10795
273.515	10721
273.575	13169
273.635	11458
273.696	12554
273.756	17358
273.816	12608
273.876	11018
273.936	9816
273.997	10474
274.057	8461
274.117	7630
274.177	6195
274.237	12504
274.297	12090
274.358	5655
274.418	7265
274.478	7040
274.538	5311
274.598	4350
274.658	5535
274.718	5902
274.778	4226
274.838	3793
274.898	4105
274.958	7121
275.018	9962
275.078	9269
275.138	4667
275.198	4196
275.258	4355
275.318	3576
275.378	3808
275.438	3844
275.498	4172
275.558	4657
275.618	7913
275.678	5692
275.738	5758
275.798	4592
275.858	4439
275.918	3511
275.978	3860
276.038	4569
276.098	4257
276.157	5016
276.217	5320
276.277	4657
276.337	3314
276.397	4240
276.457	4735
276.517	4722
276.576	5199
276.636	4587
276.696	4451
276.756	4895
276.815	4945
276.875	5327
276.935	5446
276.995	6170
277.055	6430
277.114	6239
277.174	5862
277.234	6441
277.293	5325
277.353	4066
277.413	5077
277.472	5428
277.532	6744
277.592	8958
277.651	30003
277.711	60122
277.771	24281
277.830	57466
277.890	53404
277.950	39918
278.009	103284
278.069	48656
278.128	45121
278.188	64982
278.248	33896
278.307	70385
278.367	46538
278.426	15995
278.486	10933
278.545	9903
278.605	8699
278.664	7962
278.724	8037
278.783	9517
278.843	14757
278.902	10053
278.962	9420
279.021	10438
279.081	21636
279.140	23461
279.199	14743
279.259	16521
279.318	20715
279.378	28094
279.437	40980
279.496	94370
279.556	253279
279.615	226822
279.675	92563
279.734	49135
279.793	48325
279.853	56745
279.912	28811
279.971	22137
280.031	21355
280.090	25692
280.149	36894
280.208	55218
280.268	181370
280.327	197147
280.386	70254
280.445	34617
280.505	22996
280.564	17557
280.623	15069
280.682	13133
280.742	12812
280.801	9519
280.860	9730
280.919	8658
280.978	9414
281.037	10286
281.097	8132
281.156	10756
281.215	8503
281.274	7686
281.333	10049
281.392	9197
281.451	6318
281.510	6893
281.569	6483
281.628	7409
281.688	7185
281.747	6633
281.806	6000
281.865	6733
281.924	5781
281.983	5879
282.042	6364
282.101	5776
282.160	6438
282.219	6060
282.278	6218
282.337	6448
282.396	6451
282.454	6724
282.513	6016
282.572	7478
282.631	6906
282.690	6612
282.749	6207
282.808	6822
282.867	7487
282.926	7105
282.985	8397
283.043	7342
283.102	7786
283.161	8010
283.220	9395
283.279	10345
283.338	8390
283.396	7971
283.455	8284
283.514	9034
283.573	9471
283.631	9122
283.690	9152
283.749	10008
283.808	10413
283.866	10935
283.925	11683
283.984	12794
284.043	12562
284.101	13020
284.160	13958
284.219	15864
284.277	17212
284.336	17907
284.395	21352
284.453	23155
284.512	24614
284.570	27367
284.629	32117
284.688	37432
284.746	46338
284.805	55522
284.863	69529
284.922	87032
284.981	106251
285.039	138387
285.098	178856
285.156	213971
285.215	158242
285.273	148097
285.332	193204
285.390	188311
285.449	150855
285.507	118142
285.566	91741
285.624	72793
285.683	59895
285.741	49099
285.799	41602
285.858	36433
285.916	30109
285.975	27490
286.033	24186
286.091	21199
286.150	19286
286.208	19492
286.267	16498
286.325	15496
286.383	14983
286.442	14162
286.500	12074
286.558	13135
286.616	11614
286.675	11535
286.733	10549
286.791	9252
286.850	10269
286.908	9800
286.966	9702
287.024	9344
287.083	8620
287.141	8400
287.199	8685
287.257	8380
287.315	7776
287.374	7580
287.432	8161
287.490	7776
287.548	6942
287.606	6948
287.664	7694
287.723	7588
287.781	7883
287.839	7374
287.897	7215
287.955	7081
288.013	9051
288.071	11954
288.129	32985
288.187	105007
288.245	48153
288.303	16835
288.361	10637
288.419	8908
288.477	7840
288.535	7340
288.593	6465
288.651	6437
288.709	5978
288.767	6426
288.825	5459
288.883	5913
288.941	5491
288.999	5528
289.057	5254
289.115	5178
289.173	4580
289.231	5094
289.289	4978
289.346	4797
289.404	5741
289.462	5952
289.520	4968
289.578	4970
289.636	5103
289.694	4383
289.751	4268
289.809	5537
289.867	4158
289.925	5127
289.983	4921
290.040	4763
290.098	4757
290.156	4837
290.214	4048
290.271	4743
290.329	5740
290.387	5201
290.444	5179
290.502	4198
290.560	4885
290.617	4271
290.675	4200
290.733	3382
290.790	5566
290.848	4315
290.906	3938
290.963	5251
291.021	5035
291.078	4716
291.136	4586
291.194	5405
291.251	7457
291.309	5113
291.366	4595
291.424	4420
291.481	4742
291.539	6874
291.596	9758
291.654	5811
291.711	4785
291.769	4522
291.826	4811
291.884	4764
291.941	4013
291.999	3523
292.056	3862
292.114	4357
292.171	4501
292.228	5419
292.286	5405
292.343	4832
292.401	4638
292.458	4238
292.515	3504
292.573	5323
292.630	4735
292.687	3601
292.745	5090
292.802	4985
292.859	8723
292.917	11401
292.974	6050
293.031	5932
293.089	4289
293.146	4733
293.203	4782
293.260	4268
293.318	3585
293.375	5330
293.432	4563
293.489	5363
293.546	5499
293.604	6487
293.661	13672
293.718	20063
293.775	12609
293.832	10743
293.889	14664
293.947	11481
294.004	7250
294.061	6960
294.118	6717
294.175	12249
294.232	21524
294.289	16297
294.346	9101
294.403	7501
294.460	5303
294.517	5381
294.574	4757
294.631	5868
294.688	5616
294.745	5960
294.802	13212
294.859	16700
294.916	7592
294.973	4724
295.030	4207
295.087	4337
295.144	4474
295.201	4410
295.258	3660
295.315	4188
295.372	6293
295.429	10095
295.486	6567
295.542	5464
295.599	9397
295.656	13481
295.713	8503
295.770	8572
295.827	5387
295.883	4415
295.940	4066
295.997	4325
296.054	4067
296.111	5000
296.167	3989
296.224	2696
296.281	4824
296.338	3851
296.394	3301
296.451	4375
296.508	5322
296.564	6980
296.621	6466
296.678	10657
296.734	16264
296.791	8011
296.848	6219
296.904	4738
296.961	5508
297.018	8617
297.074	7889
297.131	5732
297.187	5309
297.244	5748
297.301	9721
297.357	17342
297.414	9281
297.470	4845
297.527	4649
297.583	4112
297.640	4338
297.696	4179
297.753	4562
297.809	3909
297.866	3532
297.922	4517
297.979	3015
298.035	3325
298.092	3771
298.148	6370
298.204	7004
298.261	5002
298.317	6610
298.374	13800
298.430	9965
298.486	5427
298.543	4704
298.599	4831
298.656	4558
298.712	5626
298.768	7836
298.824	8251
298.881	5420
298.937	4736
298.993	4277
299.050	4131
299.106	4946
299.162	4485
299.218	5043
299.275	5581
299.331	5323
299.387	6941
299.443	16886
299.500	36751
299.556	32001
299.612	14060
299.668	11986
299.724	29633
299.780	38719
299.837	17024
299.893	11990
299.949	23804
300.005	38240
300.061	29263
300.117	45841
300.173	23530
300.229	10877
300.285	9079
300.341	8459
300.397	6890
300.453	6973
300.510	7177
300.566	9711
300.622	14430
300.678	43540
300.734	60652
300.790	29249
300.845	21468
300.901	26102
300.957	40630
301.013	21434
301.069	10414
301.125	7846
301.181	6943
301.237	6713
301.293	5397
301.349	5562
301.405	5054
301.461	5615
301.516	5024
301.572	4604
301.628	4115
301.684	4421
301.740	5474
301.796	6682
301.851	6197
301.907	6582
301.963	7549
302.019	10796
302.074	28608
302.130	31141
302.186	15735
302.242	7591
302.297	5986
302.353	6043
302.409	6619
302.464	6746
302.520	5319
302.576	9846
302.631	10615
302.687	6713
302.743	4896
302.798	4617
302.854	4426
302.910	4586
302.965	4476
303.021	5040
303.076	4936
303.132	4679
303.187	4889
303.243	3996
303.299	5158
303.354	3989
303.410	4121
303.465	3918
303.521	4323
303.576	4385
303.632	4062
303.687	5303
303.743	10784
303.798	10316
303.853	6453
303.909	5075
303.964	4702
304.020	4685
304.075	4609
304.130	4783
304.186	5131
304.241	6983
304.297	5096
304.352	4846
304.358	4809
304.407	4512
304.449	4344
304.463	4288
304.518	4044
304.539	4079
304.573	4136
304.629	4709
304.630	4728
304.684	5657
304.720	7501
304.739	8424
304.794	12770
304.811	11481
304.850	8340
304.902	5800
304.905	5645
304.960	5472
304.992	4805
305.015	4281
305.071	4710
305.083	4750
305.126	4937
305.173	4340
305.181	4233
305.236	4566
305.264	4130
305.292	3705
305.347	4476
305.354	4485
305.402	4594
305.445	4502
305.457	4470
305.512	4570
305.535	4415
305.567	4201
305.622	4380
305.626	4415
305.678	5350
305.716	7261
305.733	7883
305.788	9359
305.807	8606
305.843	7679
305.897	10461
305.898	10486
305.953	10905
305.988	8213
306.008	6808
306.063	5302
306.078	5035
306.118	4369
306.168	4027
306.173	4010
306.228	4290
306.259	3902
306.283	3562
306.338	4174
306.349	4191
306.393	4302
306.440	4480
306.448	4500
306.503	5463
306.530	4765
306.558	4386
306.613	6014
306.620	6240
306.668	7051
306.711	6969
306.723	6886
306.778	6056
306.801	5709
306.833	5332
306.888	4230
306.892	4255
306.943	4821
306.982	4294
306.997	4030
307.052	4282
307.072	4366
307.107	4907
307.162	5027
307.163	5038
307.217	5768
307.253	6230
307.272	6473
307.327	6558
307.343	6510
307.381	6106
307.434	6111
307.436	6166
307.491	7080
307.524	8517
307.546	8817
307.600	8132
307.614	7501
307.655	6075
307.704	5815
307.710	5832
307.765	6493
307.795	7072
307.819	7789
307.874	9676
307.885	9928
307.929	9906
307.975	10222
307.984	10682
308.038	13201
308.065	15130
308.093	24857
308.148	49111
308.156	55421
308.202	83879
308.246	103400
308.257	101384
308.312	51502
308.336	33130
308.366	23774
308.421	15762
308.426	15277
308.475	12782
308.517	12199
308.530	12156
308.585	12230
308.607	12564
308.639	13272
308.694	13723
308.697	13786
308.748	16341
308.787	18981
308.803	19153
308.857	18434
308.877	18301
308.912	20737
308.967	24905
308.967	24993
309.021	37904
309.058	48813
309.076	56285
309.130	81705
309.148	89722
309.185	129514
309.238	194777
309.239	195419
309.293	225919
309.328	223118
309.348	202132
309.402	126210
309.418	105560
309.457	84620
309.508	63777
309.511	63992
309.566	76838
309.598	87771
309.620	107645
309.674	167536
309.688	183321
309.729	176768
309.778	150306
309.783	146787
309.837	97183
309.868	70237
309.892	60231
309.946	41595
309.959	38231
310.001	32297
310.049	26138
310.055	25344
310.109	20056
310.139	17107
310.163	15504
310.218	12533
310.229	12103
310.272	10974
310.319	9668
310.326	9450
310.381	8210
310.409	7677
310.435	7532
310.489	7382
310.499	7356
310.543	7202
310.589	7323
310.598	7298
310.652	7006
310.679	6876
310.706	6760
310.760	6478
310.769	6457
310.814	6320
310.859	6063
310.868	6069
310.923	6363
310.948	6410
310.977	6129
311.031	5888
311.038	5814
311.085	5616
311.128	5463
311.139	5412
311.193	5287
311.218	5235
311.247	5455
311.301	5892
311.308	5925
311.356	5850
311.398	5962
311.410	5885
311.464	5399
311.488	5166
311.518	4981
311.572	4726
311.578	4692
311.626	4831
311.668	4993
311.680	5195
311.734	6142
311.758	6522
311.788	6323
311.842	5940
311.847	5902
311.896	5572
311.937	5273
311.950	5230
312.004	5040
312.027	4967
312.058	4892
312.112	4767
312.117	4753
312.165	5242
312.207	5661
312.297	5248
312.386	6161
312.476	4812
312.566	5540
312.656	5075
312.745	4999
312.835	4300
312.925	6069
313.015	4874
313.104	6019
313.194	6237
313.284	6273
313.374	6245
313.463	7045
313.553	7451
313.643	7020
313.732	6960
313.822	8477
313.912	8642
314.001	9414
314.091	9616
314.180	9357
314.270	9404
314.360	9523
314.449	8435
314.539	8766
314.628	9270
314.718	9087
314.808	10094
314.897	10642
314.987	10913
315.076	12081
315.166	11048
315.255	11095
315.345	10212
315.434	9552
315.524	10458
315.613	12471
315.703	18809
315.792	55332
315.881	173286
315.971	50680
316.060	14725
316.150	13043
316.239	11090
316.328	10035
316.418	10462
316.507	10638
316.597	11271
316.686	13336
316.775	13120
316.865	12662
316.954	10066
317.043	10033
317.133	8128
317.222	7784
317.311	6819
317.400	7026
317.490	10101
317.579	10573
317.668	13429
317.757	26530
317.847	94187
317.936	250825
318.025	72483
318.114	69495
318.203	28108
318.293	12288
318.382	17333
318.471	18198
318.560	17770
318.649	25086
318.738	10344
318.828	8057
318.917	7294
319.006	7525
319.095	10698
319.184	24620
319.273	11514
319.362	8234
319.451	5851
319.540	6104
319.629	6521
319.718	8225
319.807	8160
319.896	11658
319.985	30041
320.074	11104
320.163	7531
320.252	9513
320.341	7846
320.430	9158
320.519	8970
320.608	9313
320.697	10816
320.786	11697
320.875	12810
320.964	15319
321.053	15239
321.142	17030
321.230	18905
321.319	21278
321.408	25819
321.497	24218
321.586	19241
321.675	17062
321.764	16894
321.852	16437
321.941	16558
322.030	16220
322.119	18195
322.207	22346
322.296	26820
322.385	28801
322.474	32771
322.562	35245
322.651	25444
322.740	20205
322.829	18445
322.917	16775
323.006	13526
323.095	13154
323.183	10570
323.272	12575
323.361	14917
323.449	26791
323.538	12959
323.626	19765
323.715	14108
323.804	9684
323.892	16830
323.981	10388
324.069	8136
324.158	12384
324.246	11312
324.335	7926
324.424	7457
324.512	7155
324.601	6837
324.689	7226
324.778	8096
324.866	8523
324.954	6221
325.043	6525
325.131	6907
325.220	10075
325.308	9303
325.397	8633
325.485	6284
325.574	6108
325.662	5751
325.750	6173
325.839	6735
325.927	6428
326.015	5222
326.104	7384
326.192	6668
326.280	5410
326.369	5871
326.457	5879
326.545	6033
326.634	5585
326.722	5823
326.810	5742
326.898	8127
326.987	8083
327.075	6216
327.163	8200
327.251	6602
327.340	8248
327.428	10807
327.516	13695
327.604	9260
327.692	7595
327.781	6257
327.869	6739
327.957	5685
328.045	5989
328.133	4576
328.221	5962
328.309	5029
328.397	5479
328.485	7099
328.574	12854
328.662	16204
328.750	10839
328.838	7790
328.926	7218
329.014	5736
329.102	6365
329.190	8051
329.278	6076
329.366	5063
329.454	4977
329.542	5360
329.630	5080
329.718	5692
329.806	5595
329.893	6108
329.981	5672
330.069	5335
330.157	6051
330.245	7596
330.333	6687
330.421	5669
330.509	6321
330.597	7423
330.684	6700
330.772	5978
330.860	7194
330.948	6567
331.036	6845
331.123	4929
331.211	6264
331.299	5618
331.387	7212
331.475	8398
331.562	6473
331.650	6215
331.738	5625
331.825	6488
331.913	5680
332.001	5604
332.089	6361
332.176	6738
332.264	10672
332.352	8928
332.439	7313
332.527	6490
332.614	6241
332.702	6829
332.790	7191
332.877	11541
332.965	27673
333.052	22427
333.140	29157
333.228	66157
333.315	19079
333.403	10496
333.490	15763
333.578	32123
333.665	98669
333.753	37741
333.840	12045
333.928	10823
334.015	14385
334.103	21486
334.190	42276
334.278	28907
334.365	37163
334.452	35794
334.540	23291
334.627	23112
334.715	28105
334.802	44260
334.889	87958
334.977	105290
335.064	55758
335.151	28434
335.239	20060
335.326	18331
335.413	29958
335.501	30720
335.588	19659
335.675	20038
335.762	25272
335.850	34212
335.937	49956
336.024	83649
336.111	143905
336.199	112890
336.286	51129
336.373	28478
336.460	20348
336.547	14801
336.635	14035
336.722	11305
336.809	10876
336.896	11435
336.983	15514
337.070	26386
337.157	35594
337.245	24783
337.332	18346
337.419	9836
337.506	9788
337.593	8486
337.680	13768
337.767	21603
337.854	10342
337.941	9483
338.028	10555
338.115	7942
338.202	10206
338.289	10875
338.376	19242
338.463	10348
338.550	16915
338.637	15253
338.724	9197
338.811	9658
338.898	7219
338.984	6624
339.071	6545
339.158	6627
339.245	7498
339.332	6968
339.419	8177
339.506	8212
339.593	6392
339.679	7267
339.766	6824
339.853	6915
339.940	6622
340.027	5700
340.113	5891
340.200	5974
340.287	6286
340.374	4788
340.460	6412
340.547	5147
340.634	6765
340.720	7553
340.807	7150
340.894	6065
340.980	6545
341.067	5652
341.154	7498
341.240	5517
341.327	7124
341.414	6852
341.500	6368
341.587	7164
341.674	7202
341.760	6013
341.847	6815
341.933	5566
342.020	5230
342.106	5944
342.193	6216
342.279	5899
342.366	6544
342.452	5829
342.539	5459
342.625	6819
342.712	7237
342.798	6252
342.885	5612
342.971	5248
343.058	6195
343.144	5368
343.230	6402
343.317	6196
343.403	5079
343.490	5932
343.576	5710
343.662	5917
343.749	5747
343.835	6512
343.921	8921
344.008	21967
344.094	34264
344.180	9405
344.267	7044
344.353	10121
344.439	9758
344.525	6631
344.612	7270
344.698	6499
344.784	5795
344.870	5549
344.957	5999
345.043	6902
345.129	5678
345.215	6101
345.301	6307
345.387	5384
345.474	5498
345.560	4642
345.646	5687
345.732	6216
345.818	5750
345.904	5644
345.990	5792
346.076	5866
346.162	6757
346.249	6671
346.335	5725
346.421	6537
346.507	8067
346.593	12327
346.679	6954
346.765	8745
346.851	13564
346.937	9699
347.023	7783
347.108	6190
347.194	5393
347.280	6110
347.366	10067
347.452	26393
347.538	33011
347.624	16890
347.710	11272
347.796	6517
347.882	6646
347.967	6526
348.053	6399
348.139	6367
348.225	6825
348.311	5502
348.397	6884
348.482	7442
348.568	8119
348.654	12734
348.740	38097
348.825	33559
348.911	14830
348.997	13030
349.083	16416
349.168	6849
349.254	6817
349.340	6318
349.425	6031
349.511	6491
349.597	7249
349.682	7274
349.768	10016
349.854	7596
349.939	7016
350.025	6179
350.110	6549
350.196	6605
350.282	5419
350.367	7637
350.453	6909
350.538	6628
350.624	6323
350.709	6950
350.795	5128
350.880	5915
350.966	7537
351.051	6145
351.137	6995
351.222	6508
351.308	7746
351.393	7732
351.479	5535
351.564	5571
351.649	6357
351.735	6593
351.820	6452
351.906	6207
351.991	6133
352.076	7175
352.162	8838
352.247	6930
352.332	6716
352.418	5239
352.503	6792
352.588	9797
352.673	7416
352.759	6828
352.844	6461
352.929	5717
353.014	5964
353.100	6521
353.185	6785
353.270	5819
353.355	6355
353.441	6823
353.526	5885
353.611	5960
353.696	6243
353.781	7068
353.866	5004
353.952	6717
354.037	5823
354.122	7327
354.207	6969
354.292	6499
354.377	6198
354.462	5955
354.547	6139
354.632	6468
354.717	6776
354.802	6235
354.887	6664
354.972	5748
355.057	6004
355.142	5961
355.227	6894
355.312	5788
355.397	6094
355.482	7695
355.567	6878
355.652	7543
355.737	7604
355.822	9970
355.907	8295
355.991	7247
356.076	5774
356.161	6866
356.246	6711
356.331	7172
356.416	8670
356.501	19566
356.585	16235
356.670	7292
356.755	8776
356.840	7896
356.924	17441
357.009	38235
357.094	16580
357.179	7844
357.263	7593
357.348	8115
357.433	8178
357.517	8271
357.602	7151
357.687	6736
357.771	8808
357.856	9197
357.941	10564
358.025	18257
358.110	54746
358.195	23250
358.279	8722
358.364	8625
358.448	11339
358.533	15520
358.617	12264
358.702	12201
358.787	9393
358.871	8131
358.956	8210
359.040	8197
359.125	8094
359.209	7743
359.294	10338
359.378	15168
359.462	12280
359.547	8290
359.631	8085
359.716	6138
359.800	8208
359.885	8315
359.969	6961
360.053	7190
360.138	7149
360.222	7401
360.306	7019
360.391	8168
360.475	8511
360.559	9252
360.644	10065
360.728	8221
360.812	15279
360.896	24184
360.981	12861
361.065	8821
361.149	8841
361.233	7964
361.318	7389
361.402	9002
361.486	10123
361.570	8868
361.654	10208
361.739	10720
361.823	22843
361.907	28534
361.991	15052
362.075	15374
362.159	22095
362.243	41083
362.327	100518
362.411	135525
362.495	52531
362.580	26142
362.664	24079
362.748	28807
362.832	45050
362.916	94464
363.000	254655
363.084	316233
363.168	127154
363.252	42373
363.336	25367
363.420	22933
363.503	36648
363.587	34231
363.671	17389
363.755	15972
363.839	19554
363.923	19657
364.007	25991
364.091	33875
364.175	59068
364.258	143606
364.342	301772
364.426	467790
364.510	235296
364.594	74676
364.677	38994
364.761	36619
364.845	26114
364.929	16105
365.013	13474
365.096	11544
365.180	12506
365.264	21439
365.347	45255
365.431	20722
365.515	10176
365.598	8764
365.682	10489
365.766	9864
365.849	11463
365.933	9955
366.017	11483
366.100	9539
366.184	9099
366.267	10406
366.351	9944
366.435	8820
366.518	9704
366.602	9095
366.685	9816
366.769	8311
366.852	9593
366.936	10208
367.019	9493
367.103	9009
367.186	12919
367.270	9338
367.353	9891
367.436	11859
367.520	10829
367.603	11336
367.687	10119
367.770	10878
367.853	11573
367.937	12726
368.020	13642
368.104	8113
368.187	9961
368.270	9263
368.353	8736
368.437	10199
368.520	15762
368.603	9803
368.687	10266
368.770	13098
368.853	8756
368.936	10038
369.020	9659
369.103	8351
369.186	8386
369.269	7080
369.352	8999
369.436	8023
369.519	8478
369.602	6463
369.685	8999
369.768	7179
369.851	9168
369.934	8418
370.018	7679
370.101	7545
370.184	10635
370.267	9552
370.350	9667
370.433	12583
370.516	38445
370.599	97962
370.682	41549
370.765	16706
370.848	15619
370.931	17425
371.014	14204
371.097	9529
371.180	10254
371.263	11261
371.346	9316
371.429	10958
371.511	11064
371.594	11769
371.677	13989
371.760	15733
371.843	16834
371.926	34489
372.009	55527
372.091	29769
372.174	22288
372.257	26512
372.340	19975
372.423	21507
372.505	21216
372.588	14573
372.671	16247
372.754	18250
372.836	16148
372.919	21222
373.002	28111
373.085	16625
373.167	15089
373.250	15670
373.332	22179
373.415	36701
373.498	60375
373.580	47807
373.663	151199
373.746	130058
373.828	26052
373.911	15555
373.993	14637
374.076	27259
374.159	23034
374.241	13347
374.324	17670
374.406	16500
374.489	24126
374.571	40214
374.654	19537
374.736	17145
374.819	29315
374.901	42295
374.983	40247
375.066	17633
375.148	15950
375.231	27634
375.313	38663
375.395	20162
375.478	14848
375.560	14811
375.643	15359
375.725	18472
375.807	34609
375.890	28037
375.972	17467
376.054	15456
376.136	16347
376.219	11802
376.301	15597
376.383	22602
376.465	13787
376.548	10397
376.630	12771
376.712	19318
376.794	12380
376.877	9310
376.959	8335
377.041	9495
377.123	10298
377.205	10576
377.287	8398
377.369	9858
377.452	10159
377.534	9242
377.616	9094
377.698	8422
377.780	8599
377.862	8573
377.944	9868
378.026	9245
378.108	9557
378.190	9203
378.272	9451
378.354	8584
378.436	8939
378.518	8121
378.600	12265
378.682	10557
378.764	11885
378.846	11609
378.928	9710
379.010	8557
379.091	9779
379.173	9798
379.255	8267
379.337	8378
379.419	10880
379.501	14635
379.583	10953
379.664	9277
379.746	9732
379.828	13108
379.910	13794
379.991	13857
380.073	9200
380.155	9795
380.237	10176
380.318	10134
380.400	10147
380.482	11004
380.564	11452
380.645	11680
380.727	11477
380.809	11656
380.890	10814
380.972	10682
381.053	11936
381.135	12789
381.217	12988
381.298	16812
381.380	14677
381.461	15289
381.543	25429
381.624	25929
381.706	15519
381.787	16593
381.869	18264
381.951	26173
382.032	50719
382.113	36416
382.195	20484
382.276	24326
382.358	27526
382.439	38467
382.521	47413
382.602	63050
382.684	59930
382.765	109359
382.846	316704
382.928	608673
383.009	341930
383.090	325120
383.172	788806
383.253	842371
383.334	306473
383.416	138966
383.497	110078
383.578	138986
383.659	280723
383.741	736440
383.822	1106714
383.903	577334
383.984	195829
384.066	104627
384.147	66518
384.228	48421
384.309	42029
384.390	37778
384.471	34103
384.553	30802
384.634	29562
384.715	28551
384.796	27075
384.877	27860
384.958	31557
385.039	27133
385.120	23317
385.201	21796
385.282	23183
385.363	29357
385.444	33821
385.525	33348
385.606	36332
385.687	30291
385.768	23955
385.849	23607
385.930	39248
386.011	48036
386.092	25834
386.173	21300
386.254	19440
386.335	19083
386.416	18352
386.496	19368
386.577	21205
386.658	18886
386.739	17880
386.820	19186
386.901	19399
386.981	22297
387.062	25102
387.143	26970
387.224	28657
387.304	30489
387.385	29095
387.466	27170
387.547	30161
387.627	30811
387.708	32155
387.789	35873
387.869	33367
387.950	25748
388.031	21700
388.111	19113
388.192	24882
388.273	27334
388.353	21604
388.434	15068
388.514	16098
388.595	27359
388.676	24267
388.756	16205
388.837	16544
388.917	14391
388.998	11374
389.078	13757
389.159	14207
389.239	11243
389.320	15348
389.400	11594
389.480	14919
389.561	17036
389.641	15408
389.722	13357
389.802	12051
389.883	14344
389.963	19576
390.043	14784
390.124	12977
390.204	13734
390.284	16164
390.365	13593
390.445	22221
390.525	32497
390.605	27045
390.686	14358
390.766	14757
390.846	15099
390.927	13384
391.007	12987
391.087	14837
391.167	13449
391.247	14018
391.328	16400
391.408	18190
391.488	17056
391.568	15113
391.648	16720
391.728	18713
391.808	20285
391.888	20191
391.969	22838
392.049	24062
392.129	26152
392.209	28243
392.289	33159
392.369	33940
392.449	36379
392.529	37346
392.609	41486
392.689	47760
392.769	59946
392.849	71996
392.929	93529
393.009	130589
393.089	194601
393.169	366369
393.248	810800
393.328	1333425
393.408	1197808
393.488	655533
393.568	302566
393.648	167487
393.728	107645
393.807	75889
393.887	60871
393.967	50309
394.047	42429
394.127	37178
394.206	37338
394.286	72339
394.366	223626
394.446	198381
394.525	49906
394.605	27128
394.685	26441
394.764	32093
394.844	55963
394.924	58878
395.003	27247
395.083	20126
395.163	19007
395.242	18889
395.322	18635
395.402	18941
395.481	21942
395.561	32415
395.640	80018
395.720	127640
395.799	75990
395.879	40607
395.958	34181
396.038	87280
396.117	284148
396.197	259833
396.276	78737
396.356	53564
396.435	62718
396.515	81147
396.594	130297
396.673	283751
396.753	731552
396.832	1175581
396.912	830297
396.991	327998
397.070	145457
397.150	86202
397.229	73209
397.308	121760
397.388	186505
397.467	85712
397.546	37209
397.625	25423
397.705	25559
397.784	22744
397.863	20095
397.942	18822
398.022	17607
398.101	22746
398.180	31403
398.259	20662
398.338	15423
398.417	13657
398.497	13361
398.576	13740
398.655	11314
398.734	11908
398.813	11442
398.892	17479
398.971	31519
399.050	17173
399.129	8871
399.208	10637
399.287	10415
399.366	8850
399.445	8813
399.524	9573
399.603	7160
399.682	10331
399.761	15407
399.840	32149
399.919	23467
399.998	9447
400.077	7459
400.156	7266
400.235	10217
400.313	7525
400.392	7043
400.471	9447
400.550	9268
400.629	6637
400.708	7687
400.786	6627
400.865	9444
400.944	8282
401.023	8776
401.102	6555
401.180	6306
401.259	6872
401.338	6804
401.416	6926
401.495	5572
401.574	8093
401.652	5898
401.731	7748
401.810	5694
401.888	5661
401.967	5552
402.046	5478
402.124	5847
402.203	5296
402.281	6411
402.360	6516
402.438	10116
402.517	6893
402.596	6043
402.674	6441
402.753	6057
402.831	6915
402.910	7106
402.988	9370
403.066	15909
403.145	11900
403.223	10502
403.302	14251
403.380	12420
403.459	12526
403.537	8623
403.615	8169
403.694	6204
403.772	8384
403.850	6496
403.929	6214
404.007	6115
404.085	8271
404.164	6482
404.242	7256
404.320	10707
404.398	19767
404.477	17126
404.555	24848
404.633	19963
404.711	15247
404.789	10124
404.868	6476
404.946	6064
405.024	5978
405.102	5438
405.180	4930
405.258	3990
405.336	5867
405.415	4728
405.493	7065
405.571	6227
405.649	6354
405.727	6059
405.805	8873
405.883	8362
405.961	8327
406.039	6796
406.117	6043
406.195	5566
406.273	6749
406.351	16024
406.429	11435
406.507	5668
406.585	4955
406.663	4585
406.740	4456
406.818	3822
406.896	4320
406.974	5542
407.052	4579
407.130	10682
407.208	11777
407.285	7158
407.363	4328
407.441	5380
407.519	4730
407.596	6838
407.674	10998
407.752	28157
407.830	20207
407.907	8013
407.985	5295
408.063	5061
408.141	5205
408.218	5403
408.296	5027
408.373	4952
408.451	6730
408.529	6801
408.606	6529
408.684	7196
408.762	8189
408.839	8468
408.917	8103
408.994	9869
409.072	10098
409.149	14313
409.227	25422
409.304	34110
409.382	36618
409.459	44731
409.537	54757
409.614	47379
409.692	36846
409.769	39598
409.846	57802
409.924	66240
410.001	45652
410.079	32329
410.156	23729
410.233	17346
410.311	14895
410.388	13056
410.465	13694
410.543	10911
410.620	11973
410.697	11322
410.775	11068
410.852	10772
410.929	13883
411.006	12602
411.083	11791
411.161	10997
411.238	11009
411.315	10387
411.392	9749
411.469	8897
411.547	9267
411.624	5090
411.701	6476
411.778	7949
411.855	6241
411.932	5596
412.009	6686
412.086	7077
412.163	6774
412.240	6212
412.317	7041
412.394	5984
412.471	6291
412.548	4797
412.625	5791
412.702	4890
412.779	6755
412.856	5410
412.933	5205
413.010	5392
413.087	5262
413.164	5242
413.241	7746
413.318	4693
413.395	5807
413.471	4258
413.548	5431
413.625	6020
413.702	4299
413.779	5292
413.855	5336
413.932	3568
414.009	3976
414.086	4592
414.162	5147
414.239	4810
414.316	7097
414.393	7815
414.469	4242
414.546	2993
414.623	5309
414.699	3407
414.776	4780
414.853	3997
414.929	3956
415.006	3467
415.082	4809
415.159	4168
415.236	4458
415.312	4737
415.389	4585
415.465	3531
415.542	4468
415.618	3075
415.695	5004
415.771	3284
415.848	3885
415.924	3854
416.000	4695
416.077	5200
416.153	3720
416.230	3212
416.306	4378
416.383	3525
416.459	4641
416.535	4422
416.612	5421
416.688	5473
416.764	6230
416.841	6480
416.917	5763
416.993	5686
417.069	5267
417.146	4475
417.222	4341
417.298	4068
417.374	3783
417.451	4414
417.527	3886
417.603	3414
417.679	4001
417.755	3711
417.831	3852
417.908	4495
417.984	4454
418.060	3499
418.136	4895
418.212	4250
418.288	4964
418.364	4732
418.440	3024
418.516	5011
418.592	4848
418.668	5690
418.744	5195
418.820	4068
418.896	5299
418.972	4195
419.048	4314
419.124	5091
419.200	4160
419.276	5411
419.352	4329
419.428	4887
419.504	5158
419.579	5004
419.655	5397
419.731	5479
419.807	7122
419.883	6436
419.959	5969
420.034	6913
420.110	6824
420.186	7309
420.262	8632
420.337	6964
420.413	7950
420.489	8098
420.565	9903
420.640	8040
420.716	9762
420.792	8460
420.867	12147
420.943	10161
421.019	11578
421.094	11319
421.170	13751
421.245	14303
421.321	15626
421.397	16291
421.472	23036
421.548	30949
421.623	27502
421.699	24853
421.774	28746
421.850	30362
421.925	37967
422.001	44290
422.076	53229
422.152	66766
422.227	89129
422.302	124682
422.378	183436
422.453	296441
422.529	468803
422.604	523779
422.679	417688
422.755	486608
422.830	422524
422.905	279987
422.981	187197
423.056	132210
423.131	99269
423.207	75833
423.282	61035
423.357	50861
423.432	41063
423.508	37614
423.583	31706
423.658	28258
423.733	25541
423.808	23461
423.883	24405
423.959	26637
424.034	32378
424.109	28610
424.184	20303
424.259	16559
424.334	15723
424.409	13019
424.484	11933
424.559	10349
424.634	10961
424.709	10144
424.784	9784
424.859	8734
424.934	8137
425.009	9704
425.084	9860
425.159	7577
425.234	7597
425.309	7113
425.384	7995
425.459	7709
425.534	7971
425.609	6158
425.683	6653
425.758	6291
425.833	6356
425.908	6681
425.983	6717
426.058	7872
426.132	7188
426.207	5592
426.282	7324
426.357	5731
426.431	5799
426.506	5545
426.581	5657
426.655	5760
426.730	5776
426.805	4644
426.879	5809
426.954	4909
427.029	5254
427.103	7894
427.178	12844
427.253	7795
427.327	5288
427.402	4780
427.476	6150
427.551	5256
427.625	4952
427.700	5552
427.774	5097
427.849	6005
427.923	5852
427.998	7057
428.072	8535
428.147	19873
428.221	93996
428.296	230285
428.370	105601
428.444	18881
428.519	10419
428.593	9823
428.667	9812
428.742	13219
428.816	37813
428.890	156949
428.965	193242
429.039	45362
429.113	13861
429.188	7282
429.262	6894
429.336	5986
429.410	6999
429.485	6443
429.559	8672
429.633	7912
429.707	11562
429.781	34853
429.855	150595
429.930	173632
430.004	49180
430.078	42985
430.152	114610
430.226	321848
430.300	257797
430.374	58142
430.448	19852
430.522	18701
430.596	30323
430.670	58385
430.744	192028
430.818	163282
430.892	30224
430.966	9387
431.040	6425
431.114	4973
431.188	4914
431.262	4397
431.336	4429
431.410	5545
431.484	7327
431.557	6876
431.631	6799
431.705	14908
431.779	78608
431.853	225928
431.927	123906
432.000	20594
432.074	7514
432.148	4622
432.222	3733
432.295	3057
432.369	2333
432.443	2783
432.516	6151
432.590	11113
432.664	5427
432.737	2249
432.811	2303
432.885	2392
432.958	2354
433.032	2055
433.106	1788
433.179	2367
433.253	1984
433.326	1505
433.400	2012
433.473	2485
433.547	2366
433.620	2350
433.694	2298
433.767	2576
433.841	2985
433.914	2267
433.988	3011
434.061	2792
434.134	3380
434.208	2744
434.281	2098
434.355	2648
434.428	2796
434.501	3015
434.575	2865
434.648	2644
434.721	3362
434.795	2587
434.868	3017
434.941	4045
435.014	4469
435.088	4989
435.161	8835
435.234	12042
435.307	12479
435.381	13380
435.454	19045
435.527	29689
435.600	32121
435.673	24949
435.746	18379
435.819	13537
435.892	10206
435.966	7686
436.039	6580
436.112	5181
436.185	4239
436.258	3598
436.331	3519
436.404	2620
436.477	2837
436.550	2459
436.623	3500
436.696	2568
436.769	2874
436.842	2245
436.915	2794
436.987	2047
437.060	2259
437.133	2598
437.206	1875
437.279	3284
437.352	2288
437.425	1916
437.498	2379
437.570	2037
437.643	989
437.716	1707
437.789	1731
437.861	2462
437.934	2226
438.007	1945
438.080	1959
438.152	1924
438.225	2898
438.298	9467
438.370	18093
438.443	7331
438.516	2428
438.588	1389
438.661	1898
438.734	3030
438.806	1790
438.879	1927
438.951	2532
439.024	2607
439.096	2559
439.169	2265
439.241	1891
439.314	1612
439.386	1840
439.459	2519
439.531	2559
439.604	2386
439.676	2701
439.749	2042
439.821	2169
439.893	1606
439.966	2155
440.038	1361
440.110	2061
440.183	1628
440.255	1961
440.327	2756
440.400	4415
440.472	9059
440.544	7488
440.617	3363
440.689	4104
440.761	2773
440.833	2980
440.905	2297
440.978	2245
441.050	2986
441.122	2841
441.194	2696
441.266	2822
441.338	1947
441.411	3223
441.483	4991
441.555	5207
441.627	3248
441.699	5159
441.771	3873
441.843	3554
441.915	4231
441.987	4609
442.059	4550
442.131	6126
442.203	8236
442.275	9781
442.347	17233
442.419	47043
442.491	202859
442.563	342654
442.635	121310
442.706	30996
442.778	15697
442.850	11318
442.922	8612
442.994	9179
443.066	9893
443.137	13036
443.209	17037
443.281	29102
443.353	66464
443.425	236522
443.496	555844
443.568	507746
443.640	199770
443.711	52117
443.783	23819
443.855	15127
443.926	10551
443.998	10195
444.070	7626
444.141	8195
444.213	6313
444.285	6099
444.356	5853
444.428	6252
444.499	6336
444.571	6294
444.642	7085
444.714	6918
444.785	7098
444.857	8871
444.928	10760
445.000	11559
445.071	14428
445.143	18704
445.214	27926
445.285	49221
445.357	133015
445.428	416887
445.500	607710
445.571	482232
445.642	304459
445.714	107210
445.785	39150
445.856	19117
445.928	13296
445.999	10889
446.070	7617
446.141	6911
446.213	6393
446.284	5016
446.355	4082
446.426	4714
446.497	4424
446.569	3873
446.640	4147
446.711	3650
446.782	3425
446.853	3047
446.924	2649
446.995	1887
447.066	2557
447.138	3015
447.209	2118
447.280	2070
447.351	1652
447.422	1950
447.493	2066
447.564	2235
447.635	1700
447.706	1837
447.777	1632
447.847	2165
447.918	1091
447.989	2353
448.060	2518
448.131	3539
448.202	1957
448.273	1714
448.344	1802
448.414	1962
448.485	1421
448.556	1686
448.627	1210
448.698	2990
448.768	853
448.839	1757
448.910	1529
448.981	2252
449.051	1124
449.122	1165
449.193	1454
449.263	2107
449.334	963
449.405	2413
449.475	1920
449.546	2601
449.616	3291
449.687	3522
449.758	2460
449.828	1748
449.899	1371
449.969	1031
450.040	1339
450.110	2220
450.181	1098
450.251	1419
450.322	733
450.392	2795
450.463	1397
450.533	1615
450.604	1859
450.674	2432
450.744	3014
450.815	3599
450.885	3042
450.955	4737
451.026	3855
451.096	3496
451.166	3204
451.237	5452
451.307	7815
451.377	4959
451.447	2581
451.518	2323
451.588	2383
451.658	2481
451.728	1883
451.799	4858
451.869	4467
451.939	2229
452.009	1590
452.079	2036
452.149	1962
452.219	3411
452.289	5629
452.360	4104
452.430	4350
452.500	5323
452.570	10132
452.640	26576
452.710	62983
452.780	61259
452.850	30095
452.920	14025
452.990	8559
453.060	6384
453.129	3730
453.199	3840
453.269	8200
453.339	10530
453.409	12902
453.479	15116
453.549	18834
453.619	18785
453.688	5791
453.758	3035
453.828	1187
453.898	1448
453.968	2051
454.037	1862
454.087	1271
454.107	1003
454.168	1525
454.177	1573
454.247	1329
454.249	1362
454.316	1492
454.330	1390
454.386	855
454.411	1436
454.456	2264
454.492	2685
454.525	3032
454.574	2582
454.595	2367
454.655	1492
454.665	1320
454.734	2765
454.736	2808
454.804	2994
454.817	3400
454.873	4817
454.898	4612
454.943	4068
454.979	3111
455.013	2301
455.060	2374
455.082	2398
455.141	2708
455.152	2726
455.221	4330
455.222	4394
455.291	6021
455.303	6251
455.360	6812
455.384	8752
455.430	11536
455.465	8888
455.499	6490
455.546	5444
455.569	4921
455.627	3576
455.638	3301
455.707	2950
455.708	2973
455.777	2447
455.789	2546
455.846	2728
455.869	2649
455.916	2433
455.950	2702
455.985	2903
456.031	2815
456.054	2759
456.112	3070
456.124	3122
456.193	3264
456.193	3232
456.262	3464
456.274	3561
456.332	3963
456.355	4063
456.401	4026
456.436	3762
456.470	3586
456.516	4261
456.540	4465
456.597	3819
456.609	3687
456.678	4457
456.678	4428
456.747	3510
456.759	3477
456.817	3789
456.840	3890
456.886	3880
456.920	4495
456.955	5144
457.001	5488
457.024	5591
457.082	6233
457.093	6245
457.162	7246
457.163	7280
457.232	6198
457.243	6172
457.301	6299
457.324	6463
457.370	6849
457.405	7200
457.439	7570
457.485	8687
457.508	9390
457.566	11293
457.577	12191
457.646	18202
457.647	18354
457.715	44078
457.727	50335
457.784	91052
457.808	119172
457.853	149498
457.889	165135
457.922	155084
457.969	103330
457.991	106586
458.050	139536
458.060	146216
458.129	250896
458.130	253664
458.198	227024
458.211	203485
458.267	107816
458.292	73260
458.336	51667
458.372	48695
458.405	69232
458.453	108748
458.474	139111
458.533	251349
458.543	258868
458.611	377980
458.614	379217
458.680	210370
458.694	164591
458.749	76028
458.775	51778
458.818	31381
458.855	24387
458.887	20578
458.936	16995
458.955	15879
459.016	13478
459.024	13246
459.093	11980
459.097	11926
459.162	9894
459.177	9692
459.230	9863
459.257	9904
459.299	9662
459.338	9484
459.368	9331
459.418	8839
459.437	8683
459.499	8349
459.505	8283
459.574	8041
459.579	8049
459.643	7761
459.659	7851
459.711	8459
459.740	8427
459.780	8093
459.820	8200
459.849	8401
459.900	8434
459.917	8360
459.981	7894
459.986	7837
460.054	7709
460.061	7723
460.123	7893
460.141	7854
460.191	8013
460.222	8107
460.260	8029
460.302	8107
460.328	8144
460.382	8618
460.397	8744
460.462	8267
460.465	8377
460.534	12121
460.543	12626
460.602	26558
460.623	31952
460.671	47191
460.703	60750
460.739	53700
460.783	38876
460.808	32398
460.864	11887
460.876	10352
460.944	8216
460.945	8189
461.013	7552
461.024	7573
461.081	8159
461.104	8253
461.150	8259
461.184	8284
461.218	8146
461.264	8232
461.286	8334
461.345	8442
461.355	8362
461.423	7489
461.425	7480
461.491	8224
461.505	8329
461.559	8371
461.585	8577
461.628	10149
461.665	11648
461.696	11994
461.745	12670
461.764	12062
461.825	8883
461.832	8810
461.901	8479
461.905	8483
461.969	7946
461.985	7881
462.037	8824
462.065	9154
462.105	9130
462.145	9278
462.173	9491
462.225	9530
462.241	9732
462.305	11479
462.310	11465
462.378	10487
462.385	10372
462.446	9817
462.465	9567
462.514	8919
462.545	8686
462.582	8649
462.625	8601
462.650	8503
462.705	8188
462.718	8411
462.785	9344
462.786	9331
462.854	8881
462.865	8686
462.922	9042
462.945	9506
462.990	9475
463.025	8917
463.058	8849
463.104	9086
463.126	9000
463.184	8708
463.194	8724
463.262	8630
463.264	8628
463.330	8780
463.344	8820
463.398	9632
463.424	9869
463.466	8973
463.504	8443
463.533	9051
463.583	9674
463.601	9577
463.663	9519
463.669	9506
463.737	9114
463.743	9078
463.805	10426
463.823	10833
463.873	12375
463.903	13326
463.940	13307
463.982	13133
464.008	12104
464.062	9750
464.076	9635
464.142	9085
464.144	9083
464.211	8718
464.221	8665
464.279	9025
464.301	9101
464.347	8998
464.381	8926
464.414	9108
464.461	9531
464.482	9687
464.540	9978
464.550	9935
464.617	9322
464.620	9291
464.685	9541
464.699	9611
464.753	9897
464.779	9995
464.820	10504
464.859	10954
464.888	10558
464.938	9715
464.956	10191
465.018	12127
465.023	12023
465.091	10084
465.098	9895
465.158	10571
465.177	10780
465.226	10863
465.257	10782
465.293	10540
465.336	10307
465.361	10405
465.416	10649
465.428	10893
465.495	11965
465.496	11993
465.563	13483
465.575	13744
465.631	15277
465.654	15933
465.698	13524
465.734	11343
465.765	11138
465.813	10715
465.833	10736
465.893	10888
465.900	10861
465.968	10551
465.972	10500
466.035	10042
466.052	9933
466.102	10432
466.131	10645
466.170	10578
466.210	10514
466.237	10709
466.290	10959
466.304	10998
466.369	11074
466.372	11098
466.439	11260
466.449	11255
466.506	11159
466.528	11079
466.573	12193
466.607	13041
466.641	14695
466.687	16891
466.708	17788
466.766	20263
466.775	19403
466.842	12544
466.845	12195
466.909	12149
466.925	12132
466.977	11804
467.004	11621
467.044	12418
467.083	13144
467.111	13165
467.163	13155
467.178	13438
467.242	14461
467.245	14470
467.312	14109
467.321	14034
467.379	13904
467.400	13818
467.446	14683
467.480	15260
467.559	15194
467.638	15000
467.717	14745
467.796	16560
467.875	18398
467.955	18253
468.034	22117
468.113	29310
468.192	38410
468.271	36749
468.350	52991
468.429	74097
468.508	78904
468.588	47890
468.667	29633
468.746	22677
468.825	20376
468.904	17257
468.983	17867
469.062	16885
469.141	18025
469.220	14981
469.299	15302
469.378	13833
469.456	16609
469.535	15569
469.614	15066
469.693	14837
469.772	17425
469.851	17111
469.930	18457
470.009	17739
470.088	22621
470.166	34364
470.245	62341
470.324	82072
470.403	55584
470.482	30432
470.560	23030
470.639	19047
470.718	17450
470.797	16232
470.875	15036
470.954	15203
471.033	16359
471.111	13455
471.190	13198
471.269	14288
471.347	13497
471.426	13571
471.505	13552
471.583	13596
471.662	14416
471.740	13419
471.819	14380
471.898	13242
471.976	13744
472.055	12526
472.133	12722
472.212	14760
472.290	14060
472.369	12580
472.447	14484
472.526	12757
472.604	14037
472.683	14048
472.761	14219
472.839	14048
472.918	15055
472.996	13836
473.075	15552
473.153	15414
473.231	15644
473.310	15514
473.388	15553
473.466	15024
473.545	14416
473.623	15463
473.701	15401
473.780	15117
473.858	14144
473.936	16305
474.014	14534
474.093	15455
474.171	17380
474.249	17200
474.327	15317
474.405	13515
474.484	15384
474.562	13134
474.640	14537
474.718	14044
474.796	13658
474.874	13414
474.952	13072
475.030	13189
475.108	13437
475.187	13255
475.265	14544
475.343	14733
475.421	14597
475.499	11648
475.577	13923
475.655	15043
475.733	16617
475.811	19306
475.889	18529
475.966	15903
476.044	13640
476.122	12356
476.200	14582
476.278	12936
476.356	14252
476.434	13429
476.512	14174
476.590	13386
476.667	14862
476.745	13134
476.823	13999
476.901	13524
476.979	13375
477.056	12693
477.134	13954
477.212	11819
477.290	13078
477.367	12439
477.445	13691
477.523	11686
477.601	12488
477.678	11997
477.756	12978
477.834	12708
477.911	13029
477.989	12829
478.066	12586
478.144	12984
478.222	14352
478.299	13905
478.377	14847
478.454	12705
478.532	12437
478.609	11943
478.687	14089
478.764	12185
478.842	12824
478.919	11983
478.997	12253
479.074	12552
479.152	12786
479.229	13773
479.307	12301
479.384	12601
479.461	11940
479.539	12507
479.616	13818
479.694	12092
479.771	13314
479.848	11918
479.926	12121
480.003	14756
480.080	12579
480.157	12910
480.235	13672
480.312	13227
480.389	12912
480.467	13767
480.544	16635
480.621	16263
480.698	17266
480.775	15735
480.853	16017
480.930	14363
481.007	14785
481.084	14316
481.161	17019
481.238	15437
481.315	14637
481.392	14353
481.470	15679
481.547	15717
481.624	14683
481.701	14079
481.778	15635
481.855	15826
481.932	19074
482.009	21605
482.086	21534
482.163	23510
482.240	27030
482.317	27634
482.393	23281
482.470	21267
482.547	20974
482.624	19496
482.701	19422
482.778	18778
482.855	18036
482.932	18529
483.009	20347
483.085	22751
483.162	26188
483.239	28741
483.316	28350
483.393	29559
483.469	24586
483.546	21904
483.623	20139
483.699	16441
483.776	16188
483.853	15287
483.930	17307
484.006	20999
484.083	27081
484.160	23046
484.236	26318
484.313	23102
484.389	22955
484.466	25883
484.543	32546
484.619	41200
484.696	45925
484.772	30636
484.849	24099
484.925	21477
485.002	21549
485.078	19532
485.155	17839
485.231	16733
485.308	16768
485.384	17614
485.461	18256
485.537	20227
485.614	21986
485.690	15840
485.766	16820
485.843	15828
485.919	16219
485.995	17226
486.072	17053
486.148	15236
486.224	15994
486.301	15640
486.377	17064
486.453	16735
486.530	17569
486.606	19199
486.682	19371
486.758	21026
486.835	22036
486.911	21191
486.987	26730
487.063	27094
487.139	27849
487.215	31056
487.292	35388
487.368	42423
487.444	52791
487.520	71433
487.596	110161
487.672	274641
487.748	864047
487.824	1291910
487.900	436426
487.976	117260
488.052	61666
488.128	43494
488.204	32261
488.280	28872
488.356	26024
488.432	28272
488.508	32071
488.584	20731
488.660	19990
488.736	18155
488.812	17164
488.888	18649
488.964	17346
489.039	19025
489.115	21211
489.191	18220
489.267	17218
489.343	15661
489.418	15720
489.494	15680
489.570	15005
489.646	17376
489.722	16464
489.797	15881
489.873	18549
489.949	23901
490.024	21998
490.100	15960
490.176	16589
490.251	16824
490.327	17012
490.403	15455
490.478	17697
490.554	15102
490.629	16161
490.705	15280
490.781	16484
490.856	15119
490.932	16025
491.007	15435
491.083	15576
491.158	14995
491.234	16856
491.309	19981
491.385	19920
491.460	14435
491.536	15067
491.611	13736
491.686	14233
491.762	14176
491.837	15806
491.913	17281
491.988	19658
492.063	19041
492.139	17625
492.214	15565
492.289	14612
492.365	13250
492.440	15184
492.515	12911
492.590	14673
492.666	13272
492.741	14553
492.816	15941
492.891	14531
492.967	14228
493.042	14249
493.117	13384
493.192	14922
493.267	18113
493.342	31456
493.418	37780
493.493	17208
493.568	14131
493.643	13664
493.718	13832
493.793	14182
493.868	14390
493.943	13791
494.018	13518
494.093	13497
494.168	13540
494.243	13251
494.318	14087
494.393	14694
494.468	13147
494.543	14829
494.618	15192
494.693	14438
494.768	14806
494.842	15394
494.917	15201
494.992	15176
495.067	13643
495.142	14605
495.217	14376
495.292	13668
495.366	15011
495.441	13653
495.516	15817
495.591	16153
495.665	20079
495.740	28287
495.815	19094
495.890	15245
495.964	14337
496.039	18830
496.114	17787
496.188	19496
496.263	18175
496.338	16515
496.412	15138
496.487	16980
496.561	15860
496.636	15842
496.710	15002
496.785	15358
496.860	15887
496.934	15651
497.009	16777
497.083	15761
497.158	16502
497.232	16806
497.307	20071
497.381	21470
497.455	20742
497.530	18528
497.604	15413
497.679	16494
497.753	17355
497.827	17447
497.902	16792
497.976	20556
498.050	34921
498.125	104513
498.199	104236
498.273	23220
498.348	18457
498.422	19558
498.496	23110
498.570	24609
498.645	15864
498.719	13352
498.793	16004
498.867	18449
498.941	20793
499.016	47700
499.090	106019
499.164	46669
499.238	17466
499.312	17370
499.386	18948
499.460	20964
499.534	22925
499.609	29497
499.683	23169
499.757	16625
499.831	23287
499.905	68869
499.979	64365
500.053	18310
500.127	17651
500.201	15714
500.275	17253
500.349	18162
500.422	19576
500.496	21997
500.570	29480
500.644	56180
500.718	80531
500.792	24272
500.866	14001
500.940	13881
501.013	12588
501.087	12730
501.161	13776
501.235	15367
501.309	27130
501.382	56230
501.456	51401
501.530	18018
501.603	22541
501.677	15029
501.751	10141
501.825	13705
501.898	15556
501.972	26419
502.046	19821
502.119	11500
502.193	16123
502.266	26254
502.340	17225
502.413	17828
502.487	25614
502.561	17628
502.634	12269
502.708	13071
502.781	11864
502.855	13127
502.928	10577
503.002	11466
503.075	10087
503.149	12084
503.222	13354
503.295	13018
503.369	14336
503.442	17274
503.516	28058
503.589	50342
503.662	41365
503.736	32998
503.809	48307
503.882	59145
503.956	90954
504.029	179257
504.102	485195
504.175	696673
504.249	269826
504.322	94539
504.395	50643
504.468	33724
504.542	23783
504.615	19846
504.688	17399
504.761	14615
504.834	14325
504.907	13029
504.980	12955
505.053	12200
505.127	8795
505.200	13976
505.273	10994
505.346	10812
505.419	8732
505.492	11630
505.565	10565
505.638	10018
505.711	9637
505.784	7663
505.857	7966
505.930	11266
506.003	7959
506.076	9726
506.149	8741
506.221	8409
506.294	11180
506.367	13734
506.440	30358
506.513	20226
506.586	8943
506.659	8569
506.731	7905
506.804	8285
506.877	7821
506.950	9449
507.022	9055
507.095	7152
507.168	8450
507.241	10222
507.313	7024
507.386	7200
507.459	8195
507.531	8285
507.604	6931
507.677	9468
507.749	6076
507.822	8808
507.894	8627
507.967	11805
508.040	8184
508.112	8550
508.185	8882
508.257	7781
508.330	10142
508.402	8388
508.475	8681
508.547	9414
508.620	7599
508.692	9717
508.765	8934
508.837	7597
508.909	8485
508.982	7530
509.054	9314
509.127	8441
509.199	7574
509.271	7709
509.344	7660
509.416	8277
509.488	7214
509.560	9611
509.633	7293
509.705	8623
509.777	8390
509.849	9409
509.922	7191
509.994	8026
510.066	9063
510.138	7222
510.210	12086
510.283	9720
510.355	8857
510.427	10168
510.499	8795
510.571	8922
510.643	7724
510.715	10274
510.787	8209
510.859	9659
510.931	9110
511.003	9883
511.076	9482
511.148	8427
511.219	8397
511.291	10675
511.363	10444
511.435	9722
511.507	8855
511.579	9560
511.651	8949
511.723	8651
511.795	8053
511.867	9485
511.939	8564
512.010	10986
512.082	11240
512.154	8293
512.226	7977
512.298	11507
512.369	10274
512.441	10705
512.513	10637
512.585	8392
512.656	10396
512.728	9117
512.800	7921
512.871	10075
512.943	10002
513.015	7719
513.086	9293
513.158	9188
513.230	8458
513.301	9034
513.373	10380
513.444	9624
513.516	8620
513.588	9015
513.659	8848
513.731	9677
513.802	8036
513.874	11615
513.945	10992
514.016	8388
514.088	9433
514.159	8438
514.231	10826
514.302	11556
514.374	11648
514.445	9763
514.516	15274
514.588	12300
514.659	11457
514.730	12488
514.802	11428
514.873	8669
514.944	12275
515.016	10392
515.087	9215
515.158	11991
515.229	13515
515.301	9853
515.372	10614
515.443	10419
515.514	10502
515.585	10530
515.656	12365
515.728	13280
515.799	11363
515.870	13779
515.941	14553
516.012	14667
516.083	18869
516.154	20534
516.225	25463
516.296	30850
516.367	33725
516.438	43042
516.509	54746
516.580	94576
516.651	355631
516.722	1149180
516.793	438588
516.864	85608
516.935	73408
517.006	86788
517.077	117068
517.148	293324
517.219	1297781
517.289	1777771
517.360	322564
517.431	86032
517.502	48122
517.573	40588
517.643	37249
517.714	37457
517.785	41915
517.856	48447
517.926	61150
517.997	74641
518.068	95805
518.138	133837
518.209	241986
518.280	874388
518.350	2375869
518.421	1075421
518.492	204781
518.562	124770
518.633	124843
518.703	168966
518.774	360986
518.845	898914
518.915	799575
518.986	233697
519.056	97875
519.127	63974
519.197	51518
519.268	55455
519.338	43060
519.408	24414
519.479	21278
519.549	18456
519.620	18791
519.690	16323
519.760	15876
519.831	14223
519.901	14019
519.971	14477
520.042	12058
520.112	12295
520.182	12465
520.253	12873
520.323	11525
520.393	11119
520.463	14544
520.534	9839
520.604	15042
520.674	13829
520.744	11602
520.814	12214
520.885	13821
520.955	17160
521.025	40732
521.095	22406
521.165	11226
521.235	10609
521.305	9835
521.375	10904
521.445	10251
521.515	9505
521.585	11588
521.655	9230
521.725	10751
521.795	11441
521.865	8209
521.935	14846
522.005	10426
522.075	10404
522.145	11900
522.215	9761
522.285	11998
522.355	12570
522.424	15413
522.494	14228
522.564	10469
522.634	11865
522.704	15741
522.774	10989
522.843	11216
522.913	10702
522.983	10169
523.053	10560
523.122	11241
523.192	10821
523.262	11981
523.331	12609
523.401	12052
523.471	10661
523.540	11350
523.610	9971
523.680	11553
523.749	12173
523.819	12847
523.888	12524
523.958	11213
524.027	11950
524.097	11872
524.166	11350
524.236	11162
524.305	14448
524.375	10450
524.444	10289
524.514	14909
524.583	12174
524.653	11394
524.722	13950
524.791	11448
524.861	14728
524.930	12252
524.999	13162
525.069	14000
525.138	15093
525.207	15657
525.277	17055
525.346	18179
525.415	20255
525.484	23335
525.554	26529
525.623	33285
525.692	41963
525.761	50961
525.830	65786
525.900	85167
525.969	138675
526.038	272368
526.107	582144
526.176	1565822
526.245	1168529
526.314	355033
526.383	791482
526.452	1030777
526.522	1418736
526.591	1219901
526.660	218331
526.729	126194
526.797	133571
526.867	198817
526.935	585524
527.004	1972333
527.073	1215716
527.142	183275
527.211	74660
527.280	48919
527.349	36835
527.418	27829
527.487	25120
527.555	20263
527.624	18587
527.693	17676
527.762	18447
527.831	15572
527.899	15660
527.968	13829
528.037	12007
528.106	14384
528.174	14538
528.243	13777
528.312	14598
528.380	13449
528.449	11728
528.518	13571
528.586	10985
528.655	13564
528.723	12133
528.792	11428
528.861	11500
528.929	10148
528.998	11639
529.066	12471
529.135	13592
529.203	12637
529.272	13580
529.340	15610
529.409	16872
529.477	13379
529.545	14557
529.614	17439
529.682	15807
529.751	17563
529.819	21094
529.887	19340
529.956	17787
530.024	17538
530.092	15508
530.161	16967
530.229	18094
530.297	18002
530.365	18814
530.434	18240
530.502	16935
530.570	17756
530.638	15314
530.707	16381
530.775	18193
530.843	17127
530.911	17495
530.979	16846
531.047	18373
531.115	19130
531.183	16672
531.252	16889
531.320	16883
531.388	15666
531.456	18820
531.524	16485
531.592	19504
531.660	21507
531.728	18050
531.796	17235
531.864	18361
531.932	17629
532.000	18789
532.067	19971
532.135	21446
532.203	22303
532.271	22365
532.339	24880
532.407	24886
532.475	23782
532.542	22520
532.610	21024
532.678	21740
532.746	27997
532.814	35839
532.881	26223
532.949	24213
533.017	21813
533.084	20850
533.152	19800
533.220	20081
533.287	19480
533.355	20958
533.423	22448
533.490	22764
533.558	21867
533.625	22483
533.693	20777
533.761	22488
533.828	22759
533.896	20677
533.963	25280
534.031	26156
534.098	31137
534.166	33156
534.233	31358
534.300	36997
534.368	35972
534.435	37328
534.503	38955
534.570	43931
534.637	48716
534.705	56728
534.772	73703
534.840	154558
534.907	685098
534.974	786204
535.041	103324
535.109	44997
535.176	34980
535.243	32971
535.310	31063
535.378	30394
535.445	29505
535.512	31077
535.579	29189
535.646	28280
535.714	29035
535.781	32282
535.848	31195
535.915	31310
535.982	29901
536.049	29343
536.116	30371
536.183	28631
536.250	26669
536.317	29174
536.384	30407
536.451	30519
536.518	30231
536.585	29339
536.652	33523
536.719	33225
536.786	28415
536.853	28870
536.920	31079
536.987	30802
537.053	29232
537.120	35685
537.187	35847
537.254	33091
537.321	32190
537.388	33047
537.454	31490
537.521	31812
537.588	31316
537.654	32546
537.721	33885
537.788	33527
537.855	32585
537.921	33240
537.988	30712
538.055	31242
538.121	27425
538.188	28212
538.254	27981
538.321	28927
538.388	30441
538.454	35069
538.521	34411
538.587	34436
538.654	33556
538.720	31961
538.787	32848
538.853	32996
538.920	30866
538.986	28172
539.053	28342
539.119	30134
539.185	29528
539.252	31961
539.318	32738
539.385	37319
539.451	32932
539.517	32811
539.583	32642
539.650	33896
539.716	33366
539.782	30578
539.849	28824
539.915	30382
539.981	30059
540.047	30365
540.114	29876
540.180	33032
540.246	33381
540.312	35706
540.378	33780
540.444	34630
540.510	34435
540.576	37500
540.643	31515
540.709	30673
540.775	30617
540.841	30371
540.907	30870
540.973	31923
541.039	32178
541.105	32858
541.171	34328
541.237	35274
541.303	34415
541.369	34214
541.435	33898
541.500	32861
541.566	29773
541.632	30635
541.698	30951
541.764	34824
541.830	31221
541.896	30715
541.961	32316
542.027	30686
542.093	35006
542.159	35524
542.224	31282
542.290	33612
542.356	31632
542.421	32728
542.487	30346
542.553	29682
542.618	29928
542.684	30408
542.750	30618
542.815	33834
542.881	31681
542.947	36600
543.012	35302
543.078	30167
543.143	29569
543.209	30591
543.274	29419
543.340	31094
543.405	33657
543.471	33527
543.536	33492
543.602	32940
543.667	31249
543.732	34340
543.798	31483
543.863	33502
543.928	33005
543.994	33670
544.059	34375
544.124	34782
544.190	34313
544.255	36060
544.320	34664
544.386	35074
544.451	37143
544.516	35618
544.581	35998
544.646	38349
544.712	41319
544.777	38333
544.842	37635
544.907	37248
544.972	36173
545.037	39263
545.102	39471
545.168	40482
545.233	41772
545.298	42731
545.363	41660
545.428	44075
545.493	45612
545.558	45479
545.623	43800
545.688	45151
545.753	46217
545.818	47939
545.883	50490
545.947	52094
546.012	53433
546.077	54294
546.142	58832
546.207	58949
546.272	62151
546.337	63923
546.401	66305
546.466	70196
546.531	71394
546.596	78497
546.661	80450
546.725	87218
546.790	89457
546.855	100121
546.919	108360
546.984	120775
547.049	130728
547.113	149017
547.178	165239
547.243	186601
547.307	215852
547.372	237831
547.436	239423
547.501	252270
547.565	268831
547.630	245022
547.695	238212
547.759	241133
547.823	243283
547.888	245015
547.952	250806
548.017	262004
548.081	268683
548.146	263742
548.210	273583
548.274	296209
548.339	288041
548.403	260166
548.468	247656
548.532	246443
548.596	249687
548.660	250241
548.725	273978
548.789	298058
548.853	288027
548.917	275142
548.982	267835
549.046	242175
549.110	218479
549.174	226498
549.238	265344
549.303	290241
549.367	296776
549.431	283125
549.495	263433
549.559	268708
549.623	307896
549.687	335188
549.751	327332
549.815	389619
549.879	393480
549.943	380342
550.007	396522
550.071	392741
550.135	352504
550.199	334631
550.263	330149
550.327	311530
550.391	319422
550.455	356312
550.519	375506
550.582	397517
550.646	448298
550.710	453928
550.774	449003
550.838	456045
550.901	469905
550.965	495354
551.029	520164
551.093	556205
551.156	613355
551.220	699161
551.284	757297
551.347	589334
551.411	501920
551.475	471987
551.538	484341
551.602	450737
551.666	425259
551.729	398548
551.793	391992
551.856	383993
551.920	376767
551.983	377939
552.047	371621
552.110	374280
552.174	376347
552.237	391049
552.301	361972
552.364	344031
552.428	336008
552.491	350756
552.554	356086
552.618	354343
552.681	366529
552.745	363147
552.808	415928
552.871	481730
552.934	411496
552.998	367349
553.061	350057
553.124	332755
553.187	329398
553.251	341022
553.314	339930
553.377	344551
553.440	365255
553.503	381649
553.567	384961
553.630	366760
553.693	361813
553.756	364796
553.819	355394
553.882	342612
553.945	342506
554.008	344151
554.071	348932
554.134	348465
554.197	330128
554.260	321967
554.323	329338
554.386	332795
554.449	347914
554.512	346947
554.575	332218
554.638	329345
554.701	326018
554.764	325171
554.827	312598
554.889	302029
554.952	281217
555.015	277623
555.078	283529
555.141	285697
555.203	280447
555.266	278367
555.329	276907
555.391	265687
555.454	262305
555.517	254531
555.580	246986
555.642	239143
555.705	232916
555.768	231401
555.830	226346
555.893	213371
555.955	207728
556.018	205427
556.080	205350
556.143	214007
556.206	211162
556.268	205071
556.330	200647
556.393	194337
556.455	189773
556.518	185626
556.580	179835
556.643	172534
556.705	170139
556.767	167684
556.830	163499
556.892	162842
556.955	159638
557.017	154118
557.079	155206
557.142	150341
557.204	148786
557.266	149257
557.328	138290
557.391	130379
557.453	128528
557.515	128251
557.577	130024
557.639	132277
557.701	130435
557.764	133041
557.826	134609
557.888	140629
557.950	146195
558.012	161383
558.074	211580
558.136	463881
558.198	1002654
558.260	360205
558.322	154557
558.384	151365
558.446	157513
558.508	170565
558.570	189433
558.632	219741
558.694	282714
558.756	476667
558.818	1241848
558.880	2271181
558.942	1059416
559.003	1077413
559.065	508463
559.127	204635
559.189	191943
559.251	214376
559.312	310837
559.374	706802
559.436	1804972
559.498	922872
559.559	241170
559.621	195413
559.683	225085
559.744	367593
559.806	1058329
559.868	1401004
559.929	346759
559.991	224884
560.052	368486
560.114	979896
560.176	606966
560.237	589633
560.299	868004
560.360	194933
560.422	84297
560.483	70535
560.545	64917
560.606	62565
560.667	58975
560.729	56825
560.790	53009
560.852	52411
560.913	50579
560.974	48509
561.036	49080
561.097	50229
561.158	48017
561.220	48405
561.281	45901
561.342	44295
561.403	44431
561.465	44291
561.526	44779
561.587	46173
561.648	40689
561.709	41219
561.771	40081
561.832	39317
561.893	37805
561.954	39432
562.015	37491
562.076	37698
562.137	36871
562.198	37914
562.259	36243
562.320	37992
562.381	37194
562.442	37666
562.503	36383
562.564	35537
562.625	34095
562.686	34746
562.747	33443
562.808	34130
562.869	33733
562.930	33654
562.991	32441
563.051	32832
563.112	31859
563.173	32240
563.234	30583
563.294	31549
563.355	30475
563.416	30729
563.477	30982
563.537	31369
563.598	30694
563.659	30097
563.720	28929
563.780	29267
563.841	30326
563.901	30191
563.962	29876
564.023	28361
564.083	29941
564.144	28221
564.204	28158
564.265	29133
564.325	28586
564.386	31161
564.446	30086
564.507	26929
564.567	26786
564.628	27160
564.688	25880
564.749	26254
564.809	27958
564.869	28624
564.930	25614
564.990	26721
565.050	25889
565.111	26869
565.171	27296
565.231	26604
565.292	27256
565.352	26615
565.412	26599
565.472	26915
565.532	26720
565.593	26186
565.653	26042
565.713	26255
565.773	26652
565.833	27285
565.893	28224
565.953	25914
566.013	24646
566.074	24738
566.134	24319
566.194	25630
566.254	26917
566.314	25867
566.374	23792
566.434	23891
566.494	23998
566.554	24895
566.614	25748
566.673	26143
566.733	26638
566.793	26179
566.853	26224
566.913	26381
566.973	25968
567.033	26751
567.092	24761
567.152	26537
567.212	26070
567.272	26886
567.331	27102
567.391	27906
567.451	28874
567.511	28876
567.570	28440
567.630	28508
567.690	24735
567.749	25984
567.809	26532
567.868	26197
567.928	25030
567.988	26293
568.047	27266
568.107	26871
568.166	26014
568.226	27091
568.285	27926
568.345	28633
568.404	27673
568.464	26701
568.523	25776
568.582	27453
568.642	27080
568.701	26182
568.761	23827
568.820	25602
568.879	25541
568.939	26720
568.998	27414
569.057	25940
569.116	26101
569.176	26378
569.235	25253
569.294	25955
569.353	24420
569.413	24651
569.472	23934
569.531	23655
569.590	24744
569.649	25007
569.708	23677
569.767	24835
569.827	24634
569.886	24982
569.945	24266
570.004	25792
570.063	25305
570.122	26024
570.181	25566
570.240	26867
570.299	26157
570.358	26559
570.417	25974
570.475	26930
570.534	27770
570.593	26608
570.652	26545
570.711	26186
570.770	26448
570.829	27165
570.887	26212
570.946	27365
571.005	28241
571.064	30769
571.122	34672
571.181	29543
571.240	26808
571.299	26350
571.357	24752
571.416	25348
571.475	26117
571.533	27976
571.592	28488
571.650	28111
571.709	30052
571.768	34595
571.826	34108
571.885	32152
571.943	27658
572.002	26354
572.060	25791
572.119	26788
572.177	25647
572.236	26425
572.294	26915
572.352	28109
572.411	28982
572.469	26368
572.528	25196
572.586	25024
572.644	24562
572.703	25502
572.761	24104
572.819	23442
572.877	22725
572.936	23512
572.994	23409
573.052	23347
573.110	23638
573.169	25576
573.227	24336
573.285	24726
573.343	23502
573.401	24674
573.459	24316
573.517	25440
573.576	26804
573.634	26420
573.692	25890
573.750	27397
573.808	24922
573.866	24240
573.924	23383
573.982	24620
574.040	23977
574.098	23768
574.155	23274
574.213	23696
574.271	24596
574.329	27532
574.387	24535
574.445	22445
574.503	21792
574.560	22494
574.618	20889
574.676	21940
574.734	22541
574.792	22026
574.849	20279
574.907	19728
574.965	17649
575.022	17863
575.080	17201
575.138	17774
575.195	17211
575.253	17278
575.311	18296
575.368	18557
575.426	17011
575.483	18353
575.541	18643
575.598	18522
575.656	18430
575.713	20097
575.771	20627
575.828	19527
575.886	18543
575.943	19912
576.001	16290
576.058	17095
576.115	17120
576.173	18787
576.230	19504
576.287	18306
576.345	17976
576.402	18623
576.459	19991
576.517	16821
576.574	17107
576.631	16878
576.688	17316
576.746	16113
576.803	16185
576.860	15891
576.917	16454
576.974	16804
577.031	16490
577.089	16257
577.146	15289
577.203	15779
577.260	15508
577.317	15170
577.374	15351
577.431	16469
577.488	15658
577.545	16408
577.602	15824
577.659	15997
577.716	16122
577.773	16749
577.830	15811
577.886	16439
577.943	15194
578.000	15064
578.057	15066
578.114	15407
578.171	16586
578.227	16675
578.284	15894
578.341	16633
578.398	15836
578.454	16251
578.511	16418
578.568	16449
578.625	14979
578.681	16111
578.738	15729
578.794	15083
578.851	15220
578.908	15589
578.964	14969
579.021	16079
579.077	15663
579.134	16553
579.190	16284
579.247	15983
579.303	14858
579.360	15085
579.416	14777
579.473	16367
579.529	15746
579.586	15203
579.642	15942
579.698	16309
579.755	15760
579.811	16153
579.867	16803
579.924	16881
579.980	16343
580.036	16778
580.093	17500
580.149	20146
580.205	20223
580.261	18691
580.317	18457
580.374	18778
580.430	18432
580.486	18530
580.542	17922
580.598	17695
580.619	18100
580.654	18822
580.692	18261
580.710	18015
580.765	17035
580.767	17019
580.823	19057
580.838	19056
580.879	19145
580.911	19586
580.935	19936
580.984	18517
580.991	18347
581.047	18188
581.057	18170
581.103	18150
581.130	18579
581.159	19070
581.203	18519
581.215	18387
581.270	17782
581.276	17721
581.326	17252
581.349	17223
581.382	17229
581.422	17286
581.438	17331
581.494	17575
581.494	17558
581.550	16988
581.567	17041
581.606	17165
581.640	16927
581.661	16782
581.713	17560
581.717	17642
581.773	17462
581.786	17665
581.829	18244
581.859	17481
581.885	16887
581.932	18066
581.940	18295
581.996	17377
582.004	17566
582.052	18635
582.077	18163
582.107	17572
582.150	17793
582.163	17884
582.219	17172
582.223	17156
582.274	17023
582.296	16849
582.330	16672
582.368	17559
582.386	17929
582.441	17541
582.441	17544
582.497	18033
582.514	17736
582.552	17130
582.587	16916
582.608	16847
582.659	18121
582.663	18210
582.719	18018
582.732	18002
582.774	18097
582.805	18051
582.830	18020
582.877	18713
582.885	18822
582.941	19502
582.950	19542
582.996	19740
583.023	19982
583.052	20339
583.095	20500
583.107	20508
583.162	21259
583.168	21161
583.218	20059
583.240	19442
583.273	18727
583.313	18199
583.328	17979
583.384	18563
583.385	18531
583.439	17576
583.458	17958
583.494	18717
583.531	18201
583.549	17942
583.603	18551
583.605	18564
583.660	18895
583.676	18692
583.715	18379
583.748	18178
583.770	17953
583.820	18458
583.825	18500
583.881	17887
583.893	17730
583.936	17536
583.965	18042
583.991	18276
584.038	18335
584.046	18374
584.101	18443
584.110	18509
584.156	18770
584.183	18719
584.211	18696
584.255	18879
584.266	18925
584.321	19271
584.328	19288
584.376	19471
584.400	19904
584.431	20537
584.472	20863
584.486	20901
584.541	21231
584.545	21293
584.596	22202
584.617	21966
584.651	22114
584.689	23570
584.706	23948
584.761	23778
584.762	23790
584.816	25217
584.834	25866
584.871	27231
584.906	27771
584.926	28066
584.978	29865
584.980	29944
585.035	33156
585.051	34068
585.090	36708
585.123	40078
585.145	42482
585.195	46402
585.200	46878
585.254	55521
585.267	57855
585.309	65515
585.340	71772
585.364	77702
585.412	92139
585.419	94460
585.473	118546
585.484	126134
585.528	167956
585.556	211459
585.583	285534
585.628	463857
585.637	523335
585.692	1052576
585.700	1136573
585.747	1415834
585.772	1199758
585.801	774804
585.845	301278
585.856	233831
585.910	113729
585.917	103379
585.965	75892
585.989	66160
586.019	58216
586.061	50939
586.074	49439
586.128	44749
586.133	44397
586.183	41179
586.205	40199
586.237	39119
586.277	38126
586.292	37913
586.346	37167
586.349	37144
586.401	36846
586.421	36643
586.455	36483
586.493	36896
586.509	37283
586.564	38091
586.565	38158
586.618	42960
586.637	44402
586.672	48940
586.709	56344
586.727	59321
586.781	65260
586.781	65251
586.835	49301
586.853	45763
586.889	40843
586.925	37186
586.944	36307
586.996	35306
586.998	35298
587.052	34754
587.068	34731
587.106	35163
587.140	35305
587.161	35299
587.212	35837
587.215	35887
587.269	35872
587.284	36183
587.323	37140
587.356	37695
587.377	37971
587.427	38122
587.431	38154
587.485	38810
587.499	39089
587.539	40050
587.571	40725
587.593	41726
587.643	44456
587.648	44647
587.702	44232
587.715	44523
587.755	44608
587.786	44755
587.810	45197
587.858	45722
587.864	45765
587.917	45280
587.930	45264
587.971	45640
588.001	46044
588.025	45897
588.073	45347
588.079	45481
588.133	46548
588.145	46805
588.187	47526
588.217	48056
588.241	48746
588.288	50280
588.295	50520
588.348	52221
588.360	52479
588.402	53062
588.431	53524
588.456	54282
588.503	56948
588.510	57539
588.564	61282
588.575	62323
588.617	66903
588.646	69703
588.671	71874
588.718	77431
588.725	79247
588.778	96138
588.789	100974
588.832	149239
588.861	188071
588.886	268414
588.932	451166
588.939	467144
588.993	572296
589.004	563641
589.047	301946
589.075	157789
589.100	120042
589.147	77565
589.154	76405
589.207	69940
589.218	68961
589.261	69704
589.290	70621
589.314	72928
589.361	79672
589.368	82561
589.421	108986
589.433	116047
589.475	195867
589.504	260905
589.528	340558
589.576	511718
589.582	497012
589.635	250968
589.647	203869
589.689	115209
589.718	67689
589.742	63382
589.790	56110
589.795	55892
589.849	54452
589.861	54154
589.902	54051
589.932	53630
589.955	52846
590.004	51334
590.009	51273
590.062	50298
590.075	50053
590.115	49918
590.146	49679
590.168	49401
590.218	48652
590.222	48813
590.275	50893
590.289	51358
590.328	52286
590.360	52855
590.381	53067
590.431	53333
590.435	53400
590.488	53821
590.503	53981
590.541	54608
590.574	55035
590.594	55685
590.645	57073
590.647	57204
590.700	59528
590.716	60232
590.753	61281
590.787	61958
590.806	62696
590.859	64824
590.859	64889
590.912	64835
590.930	64858
590.965	65421
591.001	65683
591.018	65459
591.071	64610
591.072	64543
591.124	64309
591.143	64211
591.177	64401
591.214	64510
591.230	64977
591.283	66517
591.285	66502
591.336	65305
591.356	64801
591.389	65037
591.427	65165
591.442	64846
591.495	63569
591.498	63412
591.547	65618
591.569	66636
591.600	66983
591.640	67143
591.653	67403
591.706	68333
591.711	68368
591.759	70551
591.782	71633
591.811	73020
591.853	74758
591.864	74848
591.917	74819
591.924	74740
591.969	74648
591.995	74547
592.022	75257
592.066	76204
592.075	76744
592.127	79602
592.137	80056
592.180	81117
592.208	81686
592.233	82573
592.279	83930
592.285	84215
592.338	85891
592.350	86170
592.390	85100
592.421	84153
592.443	84909
592.491	86291
592.495	86547
592.548	88839
592.562	89373
592.600	88646
592.633	87852
592.653	87967
592.704	87557
592.705	88085
592.775	89486
592.846	93362
592.916	94648
592.987	94082
593.058	95750
593.128	96214
593.199	96091
593.270	98671
593.341	98819
593.411	104704
593.482	108675
593.553	109795
593.623	111961
593.694	115716
593.764	116183
593.835	114976
593.906	115416
593.976	118921
594.047	123322
594.117	128278
594.188	131937
594.258	131587
594.329	129999
594.399	133043
594.470	138596
594.540	143406
594.611	146382
594.681	144822
594.751	144205
594.822	149885
594.892	157933
594.963	161307
595.033	164332
595.103	170170
595.174	171489
595.244	176665
595.314	181490
595.384	186251
595.455	190498
595.525	195796
595.595	204882
595.665	205376
595.736	200342
595.806	205523
595.876	206013
595.946	206830
596.016	216895
596.087	225097
596.157	224241
596.227	225806
596.297	237931
596.367	253851
596.437	269429
596.507	264642
596.577	264843
596.647	275421
596.717	288700
596.787	294903
596.857	292520
596.927	294724
596.997	294129
597.067	299552
597.137	302593
597.207	306156
597.277	308172
597.347	293669
597.417	284759
597.487	286540
597.557	293556
597.626	301084
597.696	303743
597.766	300153
597.836	284882
597.906	269048
597.975	264389
598.045	271751
598.115	280762
598.185	304440
598.254	339232
598.324	365956
598.394	370225
598.464	357146
598.533	353202
598.603	329298
598.672	319763
598.742	327305
598.812	328236
598.881	338220
598.951	336121
599.020	342858
599.090	353315
599.159	360489
599.229	344261
599.299	340659
599.368	347576
599.437	342195
599.507	314898
599.576	304211
599.646	300992
599.715	297121
599.785	293509
599.854	284008
599.924	280677
599.993	279620
600.062	287692
600.132	295267
600.201	314159
600.270	363425
600.340	378794
600.409	371435
600.478	370366
600.547	376736
600.617	337031
600.686	269396
600.755	247281
600.824	234492
600.894	229107
600.963	232938
601.032	227979
601.101	219729
601.170	208415
601.239	204725
601.308	204216
601.378	204118
601.447	205378
601.516	210399
601.585	208754
601.654	211610
601.723	215011
601.792	221031
601.861	227961
601.930	235974
601.999	235987
602.068	235390
602.137	240364
602.206	245648
602.275	248535
602.343	249297
602.412	252633
602.481	254493
602.550	256419
602.619	265796
602.688	266511
602.756	269782
602.825	270699
602.894	279087
602.963	283687
603.032	290727
603.100	292048
603.169	289266
603.238	292556
603.307	291373
603.375	295315
603.444	304383
603.513	306612
603.581	310373
603.650	315742
603.719	307917
603.787	315689
603.856	323263
603.924	330699
603.993	343802
604.061	358510
604.130	370695
604.198	378640
604.267	386221
604.335	389443
604.404	397788
604.472	403859
604.541	406266
604.609	410877
604.678	411711
604.746	414821
604.815	428083
604.883	433505
604.951	432659
605.020	440245
605.088	445820
605.156	454643
605.225	463145
605.293	458968
605.361	463785
605.429	469056
605.498	480377
605.566	487737
605.634	511838
605.702	529176
605.771	541617
605.839	542116
605.907	533196
605.975	514438
606.043	507905
606.111	504509
606.180	506960
606.248	497753
606.316	493590
606.384	495516
606.452	493356
606.520	503588
606.588	521051
606.656	527030
606.724	513366
606.792	483458
606.860	438768
606.928	399191
606.996	386927
607.064	381452
607.132	390280
607.200	416017
607.267	429454
607.335	437344
607.403	446218
607.471	426755
607.539	416215
607.607	416909
607.674	369736
607.742	368480
607.810	366487
607.878	366978
607.946	378697
608.013	395382
608.081	403043
608.149	404156
608.216	421142
608.284	430801
608.352	432558
608.419	428295
608.487	420333
608.555	410492
608.622	424463
608.690	452696
608.757	496056
608.825	503276
608.893	490767
608.960	461479
609.028	444185
609.095	446171
609.163	442075
609.230	393869
609.298	365330
609.365	385410
609.432	416029
609.500	451993
609.567	517577
609.635	582117
609.702	608462
609.769	571744
609.837	446844
609.904	397551
609.971	414586
610.039	453750
610.106	562848
610.173	944981
610.241	1776790
610.308	1057079
610.375	505427
610.442	434799
610.509	412613
610.577	412476
610.644	416650
610.711	431836
610.778	440277
610.845	461941
610.912	486210
610.980	504663
611.047	505525
611.114	492830
611.181	479785
611.248	479677
611.315	504961
611.382	519805
611.449	535414
611.516	542014
611.583	535265
611.650	541373
611.717	545998
611.784	558573
611.851	583414
611.918	613153
611.984	700990
612.051	896039
612.118	1441793
612.185	2499678
612.252	1781807
612.319	843993
612.386	710094
612.452	645630
612.519	611542
612.586	599810
612.653	609644
612.719	625438
612.786	603237
612.853	559294
612.919	552427
612.986	558241
613.053	526376
613.120	495985
613.186	485094
613.253	484588
613.319	484881
613.386	488269
613.453	497481
613.519	497163
613.586	487780
613.652	493055
613.719	488940
613.785	496470
613.852	503149
613.918	498953
613.985	500927
614.051	523912
614.118	519760
614.184	496558
614.250	499935
614.317	509436
614.383	503123
614.449	512628
614.516	510952
614.582	510286
614.648	501583
614.715	497398
614.781	487640
614.847	487143
614.914	479835
614.980	469586
615.046	471267
615.112	486364
615.179	487125
615.245	494274
615.311	486240
615.377	496391
615.443	502021
615.509	504811
615.575	526513
615.642	519605
615.708	529965
615.774	556142
615.840	589619
615.906	620233
615.972	725686
616.038	990355
616.104	1682949
616.170	2688861
616.236	2304543
616.302	1119404
616.368	917607
616.434	687864
616.500	634066
616.565	704711
616.631	865851
616.697	718559
616.763	733732
616.829	1057844
616.895	1719875
616.961	1557127
617.026	778406
617.092	567670
617.158	525098
617.224	510379
617.289	473346
617.355	450802
617.421	445932
617.487	440610
617.552	423606
617.618	420594
617.684	421973
617.749	422817
617.815	401227
617.880	396938
617.946	395998
618.012	402170
618.077	412195
618.143	390587
618.208	396325
618.274	426883
618.339	422954
618.405	351199
618.470	354044
618.536	348877
618.601	347227
618.667	321701
618.732	307512
618.798	302788
618.863	301141
618.928	299342
618.994	302388
619.059	301012
619.124	304257
619.190	298565
619.255	300217
619.320	299009
619.386	300053
619.451	298243
619.516	287379
619.581	293261
619.647	299983
619.712	302140
619.777	285675
619.842	287622
619.907	295033
619.972	299665
620.038	296794
620.103	287869
620.168	289919
620.233	294731
620.298	294438
620.363	301954
620.428	310232
620.493	317991
620.558	320751
620.623	322031
620.688	320737
620.753	318866
620.818	327500
620.883	327944
620.948	324138
621.013	321190
621.078	316380
621.143	321427
621.207	324108
621.272	312701
621.337	309057
621.402	304858
621.467	303392
621.532	301850
621.596	302154
621.661	292195
621.726	289957
621.791	293763
621.855	294291
621.920	290065
621.985	297167
622.049	302103
622.114	301498
622.179	305429
622.243	313195
622.308	325479
622.373	333646
622.437	326210
622.502	311632
622.566	305423
622.631	305704
622.695	313197
622.760	307012
622.824	308498
622.889	311551
622.953	309807
623.018	329534
623.082	331511
623.147	330033
623.211	319867
623.276	320504
623.340	306096
623.404	301032
623.469	300476
623.533	306365
623.597	295044
623.662	294970
623.726	271489
623.790	256007
623.854	250903
623.919	255447
623.983	261009
624.047	264048
624.111	266357
624.176	270397
624.240	273380
624.304	281394
624.368	270739
624.432	272338
624.496	280410
624.560	294386
624.625	294719
624.689	291059
624.753	304355
624.817	290789
624.881	285572
624.945	254955
625.009	250162
625.073	255294
625.137	263408
625.201	273203
625.265	273449
625.329	262584
625.393	265802
625.456	269763
625.520	278362
625.584	280850
625.648	288848
625.712	296195
625.776	296096
625.839	278972
625.903	234392
625.967	220973
626.031	238339
626.095	282085
626.158	253313
626.222	201766
626.286	188037
626.349	181634
626.413	168449
626.477	168626
626.540	170947
626.604	170165
626.668	167145
626.731	164286
626.795	166287
626.858	166080
626.922	162506
626.986	161232
627.049	162429
627.113	169757
627.176	162248
627.240	159080
627.303	160475
627.366	158355
627.430	160201
627.493	158989
627.557	153858
627.620	158559
627.684	166166
627.747	167689
627.810	150699
627.874	137577
627.937	132429
628.000	138674
628.064	133469
628.127	119729
628.190	117248
628.253	114809
628.317	109150
628.380	103973
628.443	101269
628.506	101781
628.569	96690
628.632	93553
628.696	92308
628.759	93033
628.822	88669
628.885	87100
628.948	85509
629.011	84220
629.074	80845
629.137	78551
629.200	76026
629.263	77185
629.326	74240
629.389	75381
629.452	74234
629.515	73530
629.578	73194
629.641	74410
629.704	75055
629.767	72647
629.830	70350
629.892	70411
629.955	68035
630.018	71804
630.081	69695
630.144	70617
630.207	66680
630.269	70988
630.332	66272
630.395	67977
630.458	65599
630.520	63156
630.583	65822
630.646	66750
630.708	65187
630.771	68285
630.834	71481
630.896	69632
630.959	68487
631.021	67904
631.084	67513
631.146	69111
631.209	69820
631.272	68056
631.334	71418
631.397	71458
631.459	72896
631.522	76532
631.584	78658
631.646	84969
631.709	87213
631.771	87913
631.834	83869
631.896	80890
631.958	73231
632.021	71771
632.083	68131
632.145	67765
632.208	66179
632.270	65691
632.332	63558
632.395	64411
632.457	65717
632.519	62626
632.581	64186
632.643	62533
632.706	63087
632.768	60738
632.830	64188
632.892	65794
632.954	65462
633.016	66903
633.078	65189
633.141	64817
633.203	64306
633.265	64657
633.327	63844
633.389	64178
633.451	66571
633.513	65186
633.575	67158
633.637	66748
633.698	68001
633.760	72480
633.822	74482
633.884	76766
633.946	79227
634.008	81810
634.070	84339
634.132	92578
634.193	99051
634.255	107983
634.317	111194
634.379	107625
634.441	96071
634.502	86221
634.564	77849
634.626	72430
634.687	68299
634.749	66510
634.811	65280
634.873	63774
634.934	64672
634.996	64797
635.057	62211
635.119	65776
635.181	67242
635.242	69255
635.304	65003
635.365	69684
635.427	65541
635.488	66669
635.550	66033
635.611	68524
635.673	68346
635.734	74854
635.796	77768
635.857	86273
635.918	93036
635.980	104855
636.041	110798
636.102	119309
636.164	119102
636.225	114709
636.286	95750
636.348	85837
636.409	77067
636.470	70582
636.531	69017
636.593	65058
636.654	63221
636.715	59332
636.776	59184
636.838	57784
636.899	56593
636.960	55121
637.021	54019
637.082	52691
637.143	52132
637.204	51179
637.265	52230
637.326	53959
637.387	54243
637.448	52265
637.509	52539
637.570	52029
637.631	51837
637.692	48599
637.753	48376
637.814	49828
637.875	48116
637.936	48901
637.997	47945
638.058	46307
638.119	47246
638.179	47561
638.240	47099
638.301	48155
638.362	45401
638.423	45304
638.483	44923
638.544	43182
638.605	43525
638.666	43321
638.726	44418
638.787	44775
638.848	44302
638.908	43456
638.969	43080
639.030	42946
639.090	41191
639.151	42151
639.211	43303
639.272	43507
639.332	44739
639.393	46671
639.453	49159
639.514	50310
639.574	43568
639.635	41015
639.695	40354
639.756	38457
639.816	39474
639.877	38981
639.937	40543
639.997	41292
640.058	38110
640.118	39146
640.178	40367
640.239	39876
640.299	40003
640.359	41662
640.420	44009
640.480	51141
640.540	59181
640.600	57996
640.661	50222
640.721	46482
640.781	47258
640.841	41097
640.901	40695
640.961	41982
641.021	43244
641.082	47267
641.142	40169
641.202	38949
641.262	35132
641.322	37096
641.382	36637
641.442	37739
641.502	36363
641.562	38922
641.622	38747
641.682	43595
641.742	50811
641.802	44774
641.861	38783
641.921	36203
641.981	35717
642.041	34811
642.101	33360
642.161	32067
642.221	35239
642.280	35276
642.340	34215
642.400	35398
642.460	36821
642.519	36029
642.579	35569
642.639	37929
642.698	34680
642.758	40147
642.818	38069
642.877	36779
642.937	36774
642.997	37148
643.056	37869
643.116	36121
643.175	39270
643.235	39396
643.294	41313
643.354	45508
643.414	47503
643.473	55758
643.532	68462
643.592	91722
643.651	135662
643.711	222005
643.770	405139
643.830	900970
643.889	1467165
643.948	473906
644.008	126975
644.067	78742
644.126	59028
644.186	50295
644.245	44411
644.304	40509
644.363	41614
644.423	37321
644.482	40022
644.541	43561
644.600	44124
644.659	57456
644.719	71875
644.778	105757
644.837	176062
644.896	359909
644.955	723510
645.014	236901
645.073	68001
645.132	51280
645.191	45912
645.250	44079
645.309	47833
645.368	53713
645.427	72200
645.486	129794
645.545	210193
645.604	62061
645.663	40561
645.722	41192
645.781	44977
645.840	50975
645.898	62989
645.957	86616
646.016	125908
646.075	210715
646.134	389560
646.192	937334
646.251	1150431
646.310	258661
646.369	92838
646.427	77656
646.486	55305
646.545	43562
646.603	39715
646.662	38249
646.721	36445
646.779	37575
646.838	40348
646.896	52179
646.955	67907
647.014	108089
647.072	208830
647.131	526208
647.189	233539
647.248	46813
647.306	34857
647.365	32636
647.423	27632
647.481	29316
647.540	25838
647.598	27907
647.657	26960
647.715	27251
647.773	24304
647.832	25916
647.890	22245
647.948	23314
648.007	22981
648.065	21372
648.123	21751
648.181	23464
648.240	22330
648.298	20801
648.356	20905
648.414	21635
648.472	21076
648.531	21213
648.589	20483
648.647	21055
648.705	20907
648.763	21875
648.821	22948
648.879	24553
648.937	28670
648.995	35369
649.053	45019
649.111	65934
649.169	104344
649.227	178932
649.285	370017
649.343	898161
649.401	421773
649.459	72791
649.516	42804
649.574	34836
649.632	38487
649.690	42567
649.748	52425
649.806	78282
649.863	146670
649.921	396049
649.979	237068
650.037	38808
650.094	22643
650.152	21938
650.210	18805
650.268	19547
650.325	17764
650.383	16916
650.440	14987
650.498	17155
650.556	16249
650.613	15031
650.671	15767
650.728	16326
650.786	17853
650.843	28155
650.901	19028
650.958	15599
651.016	13899
651.073	14679
651.131	13333
651.188	11968
651.246	12510
651.303	11500
651.360	13504
651.418	13082
651.475	12909
651.532	11716
651.590	12318
651.647	12455
651.704	12876
651.762	12241
651.819	12043
651.876	11692
651.933	10808
651.990	12593
652.048	9746
652.105	11230
652.162	11642
652.219	10782
652.276	10436
652.333	11671
652.390	10208
652.448	10957
652.505	10165
652.562	10855
652.619	10702
652.676	11812
652.733	11699
652.790	10670
652.847	8990
652.904	10794
652.961	8232
653.017	8763
653.074	9692
653.131	10556
653.188	8995
653.245	10374
653.302	9026
653.359	9516
653.415	10137
653.472	9346
653.529	10574
653.586	9435
653.642	9324
653.699	11463
653.756	9142
653.813	9981
653.869	11367
653.926	10547
653.983	9422
654.039	10224
654.096	9750
654.152	10729
654.209	8558
654.266	9655
654.322	8520
654.379	10072
654.435	9366
654.492	9552
654.548	9118
654.605	8845
654.661	9635
654.717	9768
654.774	8868
654.830	8607
654.887	8388
654.943	9071
655.000	9123
655.056	9799
655.112	8702
655.168	8921
655.225	9441
655.281	10405
655.337	9635
655.394	9867
655.450	9396
655.506	9625
655.562	8805
655.618	10520
655.675	7847
655.731	9334
655.787	7672
655.843	10175
655.899	9071
655.955	10348
656.011	9755
656.067	8565
656.123	8922
656.179	9989
656.235	9941
656.291	9297
656.347	10797
656.403	9864
656.459	8990
656.515	8905
656.571	8556
656.627	8912
656.683	8521
656.739	9762
656.795	8114
656.850	8058
656.906	9538
656.962	10115
657.018	10740
657.074	13000
657.129	17127
657.185	29622
657.241	66256
657.297	34498
657.352	10524
657.408	8566
657.464	9620
657.519	8567
657.575	7690
657.630	8153
657.686	6815
657.742	7194
657.797	7416
657.853	7820
657.908	9648
657.964	7722
658.019	8084
658.075	6847
658.130	7782
658.186	6681
658.241	6748
658.297	6236
658.352	6928
658.407	7624
658.463	6486
658.518	7295
658.573	6728
658.629	6748
658.684	6610
658.739	6987
658.795	6580
658.850	7945
658.905	6054
658.960	7040
659.016	6365
659.071	6295
659.126	6170
659.181	6722
659.236	6506
659.291	7147
659.346	6694
659.401	7593
659.457	7631
659.512	6926
659.567	7603
659.622	7094
659.677	6928
659.732	5803
659.787	5922
659.842	5918
659.897	6057
659.952	7575
660.007	5568
660.061	6587
660.116	5753
660.171	6514
660.226	6642
660.281	7127
660.336	5674
660.391	7135
660.445	5037
660.500	6171
660.555	6280
660.610	6015
660.664	7224
660.719	5562
660.774	5798
660.828	7187
660.883	5698
660.938	5648
660.992	4922
661.047	6234
661.101	6150
661.156	6599
661.211	5342
661.265	6000
661.320	5198
661.374	6942
661.429	5899
661.483	7414
661.538	4636
661.592	5913
661.647	6060
661.701	6511
661.755	6185
661.810	6366
661.864	4679
661.919	5664
661.973	5253
662.027	5883
662.081	5426
662.136	5778
662.190	5919
662.244	6612
662.299	5610
662.353	6665
662.407	4692
662.461	5588
662.515	5509
662.569	5740
662.624	6217
662.678	5988
662.732	5484
662.786	6268
662.840	5486
662.894	5433
662.948	5552
663.002	5678
663.056	6368
663.110	5971
663.164	5693
663.218	6290
663.272	6536
663.326	6915
663.380	5078
663.434	5822
663.488	6202
663.542	7120
663.595	5714
663.649	6422
663.703	6564
663.757	6308
663.811	5917
663.864	6167
663.918	6918
663.972	5423
664.026	5354
664.079	5855
664.133	5914
664.187	6484
664.240	5997
664.294	5423
664.348	6263
664.401	6516
664.455	6249
664.508	5074
664.562	6458
664.615	6420
664.669	5003
664.722	6534
664.776	5648
664.829	6152
664.883	6084
664.936	5578
664.990	6211
665.043	6787
665.097	5320
665.150	7390
665.203	5599
665.257	5561
665.310	7169
665.363	6894
665.417	6806
665.470	6329
665.523	5941
665.576	7401
665.630	6952
665.683	6445
665.736	7530
665.789	6743
665.842	5501
665.895	6180
665.949	5944
666.002	6105
666.055	6590
666.108	7886
666.161	6573
666.214	7487
666.267	6444
666.320	7075
666.373	6084
666.426	8031
666.479	6547
666.532	7721
666.585	7641
666.638	7336
666.691	6311
666.744	7155
666.796	6553
666.849	7894
666.902	6163
666.955	7253
667.008	6200
667.060	6756
667.113	6789
667.166	6756
667.219	8010
667.271	7748
667.324	7762
667.377	7385
667.430	6896
667.482	6756
667.535	6935
667.587	8175
667.640	6672
667.693	7245
667.745	7488
667.798	7149
667.850	6448
667.903	7012
667.955	7075
668.008	7073
668.060	7716
668.113	7012
668.165	7296
668.218	7469
668.270	6900
668.322	6844
668.375	5988
668.427	7277
668.479	6176
668.532	7455
668.584	6482
668.636	5736
668.689	6172
668.741	6943
668.793	6682
668.845	7304
668.898	6951
668.950	6919
669.002	7099
669.054	6414
669.106	6288
669.158	6751
669.211	5240
669.263	6001
669.315	6303
669.367	7327
669.419	5970
669.471	7034
669.523	6075
669.575	7167
669.627	5626
669.679	6105
669.731	6625
669.783	7176
669.835	6053
669.886	6357
669.938	5396
669.990	7256
670.042	5420
670.094	6715
670.146	6367
670.197	6821
670.249	6277
670.301	6648
670.353	8216
670.404	9703
670.456	10796
670.508	13575
670.560	20167
670.611	28781
670.663	46762
670.715	112323
670.766	158400
670.818	43952
670.869	12256
670.921	10630
670.972	9470
671.024	8664
671.075	7712
671.127	8547
671.178	7769
671.230	9731
671.281	10253
671.333	12131
671.384	14628
671.436	19935
671.487	27693
671.538	40928
671.590	61774
671.641	102715
671.692	187022
671.744	337597
671.795	233917
671.846	83580
671.897	38961
671.949	24868
672.000	17303
672.051	14096
672.102	12078
672.153	9770
672.204	8612
672.256	8725
672.307	7667
672.358	7797
672.409	7362
672.460	7098
672.511	6121
672.562	5986
672.613	5302
672.664	5786
672.715	6211
672.766	6210
672.817	5366
672.868	5733
672.919	4790
672.970	4288
673.021	5064
673.071	5165
673.122	4261
673.173	5515
673.224	4536
673.275	5513
673.326	5432
673.376	4543
673.427	4575
673.478	4569
673.528	5893
673.579	5851
673.630	4642
673.680	6772
673.731	5156
673.782	5535
673.832	4681
673.883	4988
673.934	4116
673.984	6094
674.035	4412
674.085	5166
674.136	5357
674.186	5453
674.237	5297
674.287	5761
674.338	5801
674.388	6234
674.438	6051
674.489	5871
674.539	5894
674.589	6277
674.640	6000
674.690	6166
674.740	5499
674.791	6183
674.841	4803
674.891	4961
674.942	4183
674.992	4408
675.042	3717
675.092	3761
675.142	3684
675.193	4210
675.243	3805
675.293	5441
675.343	4531
675.393	4378
675.443	4968
675.493	5545
675.543	4380
675.593	5078
675.643	4426
675.693	4760
675.743	5401
675.793	4562
675.843	3730
675.893	3603
675.943	4289
675.993	3606
676.043	3396
676.093	3601
676.142	3910
676.192	4768
676.242	3506
676.292	3619
676.341	2738
676.391	4377
676.441	2903
676.491	3925
676.540	2595
676.590	3824
676.640	2774
676.689	3300
676.739	2529
676.789	2926
676.838	2401
676.888	2844
676.937	3472
676.987	3644
677.037	2531
677.086	3750
677.136	2731
677.185	2786
677.235	2652
677.284	4234
677.333	2465
677.383	3091
677.432	2042
677.482	3267
677.531	3226
677.580	2737
677.630	2944
677.679	2783
677.728	2709
677.778	3489
677.827	2625
677.876	3204
677.925	3009
677.975	3387
678.024	3800
678.073	3125
678.122	2643
678.171	4162
678.220	4315
678.269	5277
678.319	6168
678.368	7393
678.417	5015
678.466	4751
678.515	3388
678.564	3230
678.613	2415
678.662	2007
678.711	3241
678.760	3321
678.809	3138
678.857	3423
678.906	3440
678.955	3355
679.004	3254
679.053	2934
679.102	1596
679.151	3044
679.199	2426
679.248	2536
679.297	2974
679.346	2800
679.394	2272
679.443	2584
679.492	2380
679.540	3667
679.589	2399
679.638	3135
679.686	3082
679.735	3645
679.784	4883
679.832	6440
679.881	3161
679.929	3554
679.978	2443
680.026	2431
680.075	3659
680.123	2214
680.172	1501
680.220	2518
680.268	2252
680.317	2492
680.365	1658
680.414	2226
680.462	2186
680.510	2330
680.559	2130
680.607	3161
680.655	2465
680.703	2799
680.752	2775
680.800	3018
680.848	2516
680.896	1764
680.945	2940
680.993	2807
681.041	2327
681.089	2566
681.137	2259
681.185	1859
681.233	998
681.258	1533
681.281	2008
681.329	1575
681.377	1966
681.380	2032
681.425	2662
681.473	2999
681.502	3106
681.521	3125
681.569	4416
681.617	2353
681.624	2472
681.665	2997
681.713	2413
681.745	3364
681.761	3770
681.809	3000
681.857	4086
681.867	3872
681.904	2977
681.952	4329
681.989	3185
682.000	2807
682.048	3502
682.096	2410
682.111	2883
682.143	3779
682.191	3450
682.233	4335
682.239	4436
682.286	4261
682.334	3927
682.354	3994
682.382	4014
682.430	4123
682.476	4332
682.477	4307
682.525	4246
682.572	3642
682.598	3872
682.620	4003
682.667	4553
682.715	4283
682.720	4320
682.763	4410
682.810	4405
682.841	4410
682.857	4363
682.905	4627
682.952	4717
682.963	4584
683.000	4024
683.047	3017
683.085	5478
683.095	6119
683.142	5454
683.190	4761
683.206	4676
683.237	4374
683.284	5303
683.328	4751
683.332	4688
683.379	5731
683.426	4588
683.449	4911
683.473	5204
683.521	4958
683.568	6134
683.571	6062
683.615	4752
683.662	6019
683.693	5605
683.709	5306
683.757	4826
683.804	4723
683.814	4786
683.851	5059
683.898	5136
683.936	5503
683.945	5564
683.992	5901
684.039	6062
684.057	6053
684.086	5904
684.133	5871
684.179	5497
684.180	5467
684.227	6330
684.274	6045
684.300	6299
684.321	6492
684.368	5477
684.415	6516
684.422	6493
684.462	6319
684.509	6500
684.543	6477
684.556	6401
684.603	6723
684.649	6230
684.665	6603
684.696	7407
684.743	6786
684.786	8120
684.790	8197
684.837	6505
684.883	6657
684.908	6586
684.930	6610
684.977	8021
685.023	7301
685.029	7356
685.070	7550
685.117	7634
685.150	7873
685.164	7945
685.210	7569
685.257	7970
685.272	7696
685.303	7118
685.350	8091
685.393	7329
685.396	7248
685.443	7202
685.490	7748
685.514	7682
685.536	7654
685.583	7508
685.629	8144
685.636	8050
685.675	7325
685.722	7820
685.757	7223
685.768	7071
685.815	7756
685.861	7296
685.878	7702
685.908	8340
685.954	7865
686.000	8637
686.000	8641
686.047	8618
686.093	9196
686.121	8939
686.139	8741
686.185	8328
686.232	7748
686.242	8041
686.278	9084
686.324	8439
686.363	8741
686.370	8765
686.416	8556
686.463	8859
686.484	8649
686.509	8455
686.555	9295
686.601	8910
686.606	8970
686.647	9427
686.693	8800
686.727	8582
686.739	8537
686.785	8815
686.831	9068
686.848	9065
686.877	9031
686.923	9452
686.969	8931
686.969	8928
687.015	10078
687.061	9580
687.090	10247
687.107	10483
687.153	10479
687.199	9770
687.211	9667
687.245	9322
687.291	9820
687.332	9237
687.336	9220
687.382	9534
687.428	9754
687.453	10034
687.474	10155
687.520	10003
687.565	10516
687.574	10431
687.611	10399
687.657	10878
687.695	11482
687.702	11557
687.748	11952
687.794	11165
687.816	11573
687.839	11830
687.885	11752
687.931	11103
687.937	10987
687.976	10412
688.022	10808
688.058	10626
688.067	10625
688.113	11110
688.158	10703
688.179	10851
688.204	10976
688.249	10943
688.295	11237
688.300	11195
688.340	11104
688.386	11847
688.421	11336
688.431	11185
688.477	11217
688.522	11654
688.542	11859
688.567	12417
688.613	12656
688.658	13031
688.663	13117
688.703	13047
688.749	12365
688.784	11890
688.794	11870
688.839	12649
688.884	12563
688.905	12620
688.930	12571
688.975	12337
689.020	12008
689.026	11941
689.065	11681
689.110	11949
689.146	11954
689.155	12010
689.201	11873
689.246	12619
689.267	12481
689.291	12219
689.336	12082
689.381	12269
689.388	12166
689.426	12003
689.471	12831
689.509	12786
689.516	12777
689.561	13109
689.606	13557
689.630	13624
689.651	13462
689.696	12524
689.741	12750
689.750	12590
689.785	12686
689.830	13493
689.871	13530
689.875	13488
689.920	13051
689.965	12801
689.992	12555
690.010	12560
690.054	12534
690.099	12996
690.112	12914
690.144	12802
690.189	13384
690.233	12530
690.233	12544
690.278	13767
690.323	13556
690.354	14127
690.367	14283
690.412	13237
690.457	13342
690.474	13243
690.501	13202
690.546	13179
690.590	12690
690.595	12671
690.635	12775
690.680	12724
690.716	12908
690.724	13075
690.769	13640
690.813	14440
690.836	14561
690.857	15046
690.902	16113
690.946	17534
690.957	17865
690.991	20306
691.035	23723
691.077	26899
691.080	26869
691.124	24501
691.168	22533
691.198	20898
691.213	20064
691.257	18182
691.301	16393
691.318	15374
691.346	14794
691.390	14374
691.434	14335
691.439	14229
691.478	14203
691.522	14722
691.559	14813
691.567	14826
691.611	15313
691.655	14740
691.680	14776
691.699	14796
691.743	14898
691.787	14284
691.800	14190
691.831	14340
691.875	14928
691.919	15147
691.921	15139
691.964	15245
692.008	14752
692.041	14659
692.052	14748
692.096	14465
692.139	14965
692.162	14802
692.183	14533
692.227	15168
692.271	14494
692.282	14385
692.315	14419
692.359	14326
692.402	14783
692.403	14815
692.447	14794
692.490	14976
692.523	14917
692.534	14919
692.578	15586
692.622	15089
692.643	15096
692.666	15099
692.709	14906
692.753	15041
692.763	14983
692.797	14975
692.840	15418
692.884	15009
692.884	15037
692.928	15358
692.971	15208
693.004	15341
693.015	15379
693.059	15068
693.102	15157
693.124	15026
693.146	15150
693.189	15340
693.233	15434
693.245	15554
693.276	15961
693.320	16270
693.363	16371
693.365	16341
693.407	16559
693.450	17019
693.485	17084
693.493	17231
693.537	18549
693.580	18859
693.605	19345
693.624	20474
693.667	22823
693.710	25571
693.725	26406
693.753	31250
693.797	38949
693.840	46762
693.845	47553
693.883	42688
693.926	36528
693.966	31311
693.970	30950
694.013	26628
694.056	22562
694.086	19672
694.099	19511
694.142	18643
694.185	17893
694.206	17551
694.229	17502
694.272	17157
694.315	16945
694.326	16750
694.358	16648
694.401	16970
694.444	17157
694.446	17118
694.487	16920
694.530	17016
694.566	16635
694.573	16622
694.616	16521
694.659	16773
694.686	16732
694.702	16822
694.745	16843
694.787	16920
694.806	16973
694.830	17139
694.873	17106
694.916	17475
694.926	17453
694.959	17540
695.002	17693
695.044	17805
695.046	17772
695.087	18179
695.130	18362
695.166	18490
695.172	18574
695.215	18862
695.258	19290
695.286	19444
695.301	19634
695.343	20286
695.386	20832
695.406	21009
695.428	21641
695.471	22545
695.514	24006
695.526	24280
695.556	25496
695.599	27275
695.641	28583
695.646	28721
695.684	27616
695.726	25833
695.766	24414
695.769	24440
695.811	23816
695.854	23522
695.886	22976
695.896	23100
695.938	23429
695.981	23765
696.005	24039
696.023	24828
696.065	26443
696.108	28233
696.125	28787
696.150	29079
696.192	29742
696.235	30104
696.245	30178
696.277	30181
696.319	29936
696.361	29834
696.365	29734
696.404	29563
696.446	29727
696.485	29432
696.488	29463
696.530	29217
696.572	28688
696.604	28409
696.614	28456
696.656	28184
696.698	27968
696.724	27823
696.740	28117
696.783	28623
696.825	29198
696.844	29378
696.867	29525
696.909	29675
696.951	29761
696.964	29726
696.992	30022
697.034	30380
697.076	30738
697.083	30732
697.118	31390
697.160	31927
697.202	32565
697.203	32504
697.244	31842
697.286	31141
697.323	30247
697.327	30356
697.369	30824
697.411	31233
697.442	31512
697.453	31616
697.494	31607
697.536	31665
697.562	31663
697.578	31826
697.620	31948
697.661	32093
697.682	32128
697.703	32679
697.744	33525
697.786	34502
697.801	34704
697.828	34664
697.869	34523
697.911	34404
697.921	34298
697.952	34128
697.994	33706
698.035	33374
698.040	33244
698.077	33636
698.118	34011
698.160	34335
698.160	34249
698.201	35299
698.243	36152
698.279	36951
698.284	37126
698.325	37819
698.367	38525
698.399	38974
698.408	39150
698.449	39534
698.491	39872
698.518	40017
698.532	40133
698.573	40172
698.614	40234
698.638	40139
698.656	40186
698.697	40124
698.738	39999
698.757	39864
698.779	39902
698.820	39758
698.862	39624
698.877	39470
698.903	39635
698.944	39752
698.985	39867
698.996	39801
699.026	39848
699.067	39773
699.116	39586
699.235	39845
699.354	39455
699.474	36719
699.593	37470
699.713	37861
699.832	36882
699.951	39384
700.070	37525
700.190	35735
700.309	32924
700.428	34035
700.547	33553
700.667	31767
700.786	33394
700.905	32751
701.024	33857
701.143	31141
701.262	34425
701.381	33808
701.500	34719
701.619	33761
701.738	34035
701.857	34507
701.976	32040
702.095	33925
702.214	34622
702.333	32334
702.452	34678
702.571	34514
702.690	34535
702.809	34061
702.928	31715
703.047	31578
703.165	31381
703.284	31093
703.403	30416
703.522	29062
703.640	29869
703.759	30975
703.878	29097
703.997	30223
704.115	29563
704.234	29526
704.353	31124
704.471	27860
704.590	27968
704.708	27110
704.827	28140
704.946	26094
705.064	26900
705.183	27338
705.301	27788
705.420	27087
705.538	25042
705.656	24779
705.775	24885
705.893	28706
706.012	26639
706.130	25645
706.249	27101
706.367	25551
706.485	25352
706.604	24724
706.722	24403
706.840	25803
706.958	26650
707.077	23673
707.195	23603
707.313	23366
707.431	21369
707.549	22292
707.668	22039
707.786	24980
707.904	22657
708.022	23969
708.140	22365
708.258	21661
708.376	24119
708.494	21746
708.612	23939
708.730	25230
708.848	24372
708.966	23678
709.084	23854
709.202	23341
709.320	20933
709.438	21503
709.556	21043
709.674	20246
709.791	20365
709.909	19488
710.027	19673
710.145	19661
710.263	20024
710.380	19957
710.498	19196
710.616	18850
710.733	17868
710.851	19410
710.969	20029
711.086	18295
711.204	19367
711.322	18695
711.439	18439
711.557	17321
711.674	18601
711.792	18079
711.909	16728
712.027	17687
712.144	17835
712.262	18249
712.379	18277
712.497	18599
712.614	17774
712.732	18076
712.849	17435
712.966	18978
713.084	19332
713.201	17160
713.318	18506
713.436	20646
713.553	20172
713.670	21083
713.787	20648
713.905	19710
714.022	21651
714.139	22862
714.256	31251
714.373	48526
714.490	99196
714.608	286682
714.725	1090971
714.842	760441
714.959	87867
715.076	37724
715.193	28512
715.310	24657
715.427	19141
715.544	19578
715.661	19865
715.778	17993
715.895	17215
716.011	17366
716.128	17607
716.245	17493
716.362	16729
716.479	14582
716.596	14515
716.713	15430
716.829	14134
716.946	14451
717.063	14255
717.180	13481
717.296	13814
717.413	14131
717.530	13020
717.646	12801
717.763	13964
717.880	13622
717.996	12248
718.113	13714
718.229	13617
718.346	11676
718.462	13006
718.579	13323
718.695	14201
718.812	13096
718.928	13440
719.045	12617
719.161	12891
719.277	14439
719.394	14713
719.510	15274
719.626	17156
719.743	22835
719.859	41998
719.975	101146
720.092	429852
720.208	690627
720.324	73664
720.440	23360
720.557	18012
720.673	16760
720.789	15416
720.905	16298
721.021	13787
721.137	12186
721.253	11714
721.369	12104
721.486	12854
721.602	11214
721.718	11180
721.834	11037
721.950	11037
722.066	10195
722.181	10694
722.297	11328
722.413	10773
722.529	11210
722.645	10808
722.761	11109
722.877	12105
722.993	14306
723.108	19344
723.224	15148
723.340	12583
723.456	10654
723.571	10410
723.687	9440
723.803	10059
723.918	10821
724.034	9175
724.150	9962
724.265	10317
724.381	10493
724.497	9848
724.612	10709
724.728	10204
724.843	8725
724.959	10265
725.074	10840
725.190	10833
725.305	9432
725.421	9402
725.536	9108
725.651	10318
725.767	9279
725.882	10014
725.997	9160
726.113	9733
726.228	8867
726.343	9526
726.459	9181
726.574	9184
726.689	9673
726.804	9561
726.920	9190
727.035	8653
727.150	9678
727.265	9352
727.380	9749
727.495	9327
727.610	9414
727.725	8151
727.841	8805
727.956	11315
728.071	9591
728.186	8607
728.301	8601
728.416	9395
728.531	8486
728.645	8825
728.760	9231
728.875	9095
728.990	8804
729.105	9302
729.220	8419
729.335	8777
729.449	8394
729.564	8893
729.679	8419
729.794	9243
729.908	8852
730.023	8588
730.138	9204
730.253	10183
730.367	8594
730.482	8940
730.596	9166
730.711	10801
730.826	14800
730.940	13681
731.055	12927
731.169	12997
731.284	12462
731.398	13052
731.513	14175
731.627	14802
731.742	20734
731.856	25038
731.970	25388
732.085	34593
732.199	53498
732.313	104924
732.428	295119
732.542	768856
732.656	346625
732.771	71056
732.885	40348
732.999	33567
733.113	34583
733.227	29586
733.342	28470
733.456	28582
733.570	27378
733.684	25130
733.798	24625
733.912	24338
734.026	24316
734.140	24659
734.254	22982
734.368	23172
734.482	23472
734.596	23322
734.710	22008
734.824	21301
734.938	21820
735.052	22157
735.166	21785
735.280	21496
735.393	20678
735.507	20693
735.621	20823
735.735	20617
735.849	21339
735.962	19856
736.076	20712
736.190	19429
736.303	19895
736.417	19933
736.531	19470
736.644	19787
736.758	19678
736.872	18405
736.985	19023
737.099	17913
737.212	18032
737.326	16768
737.439	18712
737.553	16706
737.666	17816
737.780	17195
737.893	17879
738.007	17079
738.120	18279
738.233	16216
738.347	17556
738.460	16358
738.573	18237
738.687	17143
738.800	17007
738.913	17184
739.026	16199
739.140	15935
739.253	16305
739.366	16050
739.479	15630
739.592	15962
739.705	15025
739.818	17694
739.932	14739
740.045	17345
740.158	15338
740.271	16690
740.384	15033
740.497	14546
740.610	16786
740.723	14870
740.836	14689
740.949	14484
741.062	17301
741.174	14264
741.287	14805
741.400	15478
741.513	13102
741.626	16259
741.739	14351
741.851	13974
741.964	14219
742.077	13446
742.189	12945
742.302	14923
742.415	12721
742.527	14227
742.640	13704
742.753	11688
742.865	13444
742.978	13057
743.090	13062
743.203	14746
743.316	12533
743.428	13325
743.541	13575
743.653	12084
743.766	13059
743.878	13304
743.990	12254
744.103	13403
744.215	12943
744.327	12281
744.440	15576
744.552	12966
744.664	11193
744.777	13373
744.889	12257
745.001	11863
745.113	13089
745.226	12924
745.338	11189
745.450	13922
745.562	11562
745.674	11479
745.786	13196
745.898	12192
746.010	10879
746.122	11670
746.234	11406
746.347	12672
746.459	11502
746.570	9863
746.682	13893
746.794	14180
746.906	9941
747.018	11190
747.130	12042
747.242	10222
747.354	10107
747.466	11125
747.577	10308
747.689	11054
747.801	11640
747.913	9370
748.024	10278
748.136	10957
748.248	9386
748.359	10067
748.471	11378
748.583	9635
748.694	9128
748.806	10126
748.918	9526
749.029	9398
749.141	10381
749.252	10885
749.364	8376
749.475	8876
749.587	8202
749.698	9358
749.809	10255
749.921	9726
750.032	9056
750.144	9738
750.255	8031
750.366	8545
750.478	8956
750.589	9924
750.700	9062
750.811	9866
750.923	8811
751.034	8436
751.145	10145
751.256	8461
751.367	8059
751.479	8399
751.590	7837
751.701	7842
751.812	8148
751.923	8456
752.034	10353
752.145	8757
752.256	8937
752.367	8949
752.478	9016
752.589	8760
752.700	8267
752.811	7262
752.922	7990
753.032	8866
753.143	9189
753.254	8137
753.365	11081
753.476	10371
753.586	8685
753.697	8117
753.808	7905
753.919	7441
754.029	7484
754.140	7952
754.251	8253
754.361	8784
754.472	8867
754.582	7576
754.693	8009
754.804	9325
754.914	7405
755.025	6336
755.135	6944
755.246	8715
755.356	8176
755.466	7404
755.577	7629
755.687	7368
755.798	7069
755.908	7389
756.018	8112
756.129	7623
756.239	8456
756.349	9903
756.460	8493
756.570	10432
756.680	7350
756.790	8039
756.900	8613
757.011	6642
757.121	6545
757.231	8015
757.341	8203
757.451	7066
757.561	6721
757.671	8099
757.781	7314
757.891	7871
758.001	6916
758.111	8897
758.221	9019
758.331	9351
758.441	9420
758.551	9203
758.661	10241
758.771	9848
758.880	9116
758.990	8405
759.100	8949
759.210	8837
759.320	9841
759.429	9469
759.539	11628
759.649	11837
759.758	13775
759.868	14484
759.978	14616
760.087	15183
760.197	14982
760.307	14613
760.416	12893
760.526	11908
760.635	13648
760.745	14666
760.854	16327
760.964	18769
761.073	17772
761.182	15625
761.292	13997
761.401	11605
761.511	10885
761.620	9440
761.729	8414
761.839	8457
761.948	8689
762.057	7821
762.166	9008
762.276	7611
762.385	10167
762.494	8387
762.603	7412
762.712	8376
762.822	8292
762.931	7717
763.040	6901
763.149	8318
763.258	8597
763.367	8936
763.476	8144
763.585	8133
763.694	8802
763.803	8962
763.912	8630
764.021	9262
764.130	8091
764.238	10151
764.347	9549
764.456	11560
764.565	10329
764.674	11517
764.783	10828
764.891	11724
765.000	12939
765.109	13806
765.217	14081
765.326	17000
765.435	19937
765.543	23863
765.652	27132
765.761	34142
765.869	48350
765.978	71043
766.086	117522
766.195	221391
766.303	454429
766.412	648977
766.520	490397
766.629	297234
766.737	149127
766.846	88676
766.954	59456
767.062	44173
767.171	34342
767.279	28226
767.387	22512
767.496	20033
767.604	17471
767.712	16274
767.820	14547
767.928	13431
768.037	12288
768.145	12764
768.253	12091
768.361	12350
768.469	11866
768.577	11714
768.685	13068
768.793	13884
768.901	14144
769.009	17362
769.117	18034
769.225	23324
769.333	32078
769.441	50071
769.549	89496
769.657	191309
769.765	450685
769.873	502022
769.981	279143
770.088	116137
770.196	60504
770.304	41551
770.412	30890
770.519	24688
770.627	19796
770.735	17475
770.842	15872
770.950	14154
771.058	14108
771.165	16247
771.273	15318
771.380	15105
771.488	19558
771.595	20481
771.703	17484
771.810	17856
771.918	16062
772.025	20130
772.133	21548
772.240	20461
772.348	23322
772.455	21897
772.562	19344
772.670	19285
772.777	19985
772.884	20285
772.991	18251
773.099	20148
773.206	17738
773.313	17815
773.420	18451
773.528	17370
773.635	17010
773.742	18352
773.849	17021
773.956	17956
774.063	16925
774.170	16157
774.277	16967
774.384	15339
774.491	14880
774.598	17224
774.705	16730
774.812	16356
774.919	15827
775.026	15056
775.133	15818
775.239	15698
775.346	14480
775.453	16142
775.560	14955
775.667	16295
775.773	14323
775.880	15793
775.987	14735
776.093	15758
776.200	16225
776.307	12235
776.413	14143
776.520	16731
776.627	13203
776.733	12965
776.840	12681
776.946	18246
777.053	14749
777.159	15709
777.266	13039
777.372	15221
777.478	15772
777.585	14156
777.691	11522
777.798	13977
777.904	12849
778.010	13148
778.117	12731
778.223	12993
778.329	11958
778.435	11454
778.542	13968
778.648	12269
778.754	11011
778.860	12269
778.966	11636
779.072	11619
779.178	11638
779.284	10248
779.391	11700
779.497	11433
779.603	13543
779.708	10967
779.815	13117
779.920	22496
780.026	27101
780.132	12156
780.238	9867
780.344	10781
780.450	13600
780.556	9445
780.661	10170
780.767	11906
780.873	7823
780.979	10390
781.085	11889
781.190	9050
781.296	9697
781.402	10131
781.507	10241
781.613	8961
781.719	10183
781.824	10622
781.930	9299
782.035	10468
782.141	11616
782.246	8150
782.352	7972
782.457	9636
782.563	9247
782.668	9215
782.773	7950
782.879	8059
782.984	9249
783.090	8965
783.195	10520
783.300	10337
783.405	8289
783.511	7426
783.616	8857
783.721	9805
783.826	7357
783.932	7581
784.037	8468
784.142	9194
784.247	7790
784.352	8394
784.457	6786
784.562	9386
784.667	8440
784.772	6449
784.877	6517
784.982	9662
785.087	7848
785.192	7483
785.297	8256
785.402	8916
785.507	7603
785.611	7909
785.716	6366
785.821	7977
785.926	7602
786.031	7647
786.135	7547
786.240	8101
786.345	5723
786.450	6304
786.554	6893
786.659	6381
786.763	6362
786.868	7071
786.973	7906
787.077	5812
787.182	6029
787.286	8029
787.391	8247
787.495	5343
787.600	5676
787.704	7353
787.809	7392
787.913	7358
788.017	6738
788.122	7347
788.226	6877
788.330	5180
788.435	7396
788.539	7364
788.643	6060
788.747	5528
788.852	6790
788.956	5901
789.060	7116
789.164	6361
789.268	5127
789.372	7797
789.476	6266
789.580	4904
789.684	5041
789.788	7857
789.892	5725
789.996	4713
790.100	4689
790.204	6675
790.308	6973
790.412	4818
790.516	4549
790.620	5027
790.724	6867
790.828	5992
790.931	3114
791.035	5823
791.139	4758
791.242	5932
791.346	6322
791.450	6906
791.554	4922
791.657	3790
791.761	7143
791.864	7026
791.968	5420
792.072	5880
792.175	4511
792.279	5015
792.382	5064
792.486	4465
792.589	5456
792.693	6134
792.796	3790
792.899	5163
793.003	6405
793.106	3306
793.209	4331
793.313	5119
793.416	2604
793.519	6397
793.623	7569
793.726	5347
793.829	3592
793.932	3811
794.035	4209
794.138	6351
794.242	6870
794.345	3534
794.448	4579
794.551	4640
794.654	10610
794.757	13381
794.860	5343
794.963	5395
795.066	3589
795.169	5874
795.272	4127
795.375	6057
795.477	3180
795.580	4213
795.683	3402
795.786	6577
795.889	3754
795.991	5254
796.094	4525
796.197	4019
796.300	6358
796.402	4916
796.505	3321
796.608	2812
796.710	4784
796.813	6133
796.915	5172
797.018	5619
797.120	5461
797.223	2770
797.326	6594
797.428	3392
797.530	3226
797.633	5577
797.735	5874
797.838	4689
797.940	5795
798.042	3434
798.145	4605
798.247	4283
798.349	2254
798.452	5412
798.554	5350
798.656	5332
798.758	7496
798.860	5137
798.962	3524
799.065	2665
799.167	2568
799.269	4922
799.371	6010
799.473	7761
799.575	4885
799.677	3516
799.779	4778
799.881	2792
799.983	4744
800.085	4376
800.187	4580
800.289	3155
800.390	3542
800.492	4959
800.594	5598
800.696	2868
800.798	3799
800.899	3759
801.001	4588
801.103	3502
801.205	4150
801.306	4250
801.408	3563
801.509	3737
801.611	3983
801.713	4176
801.814	3109
801.916	3107
802.017	2151
802.119	1850
802.220	3464
802.322	2417
802.423	4606
802.525	1924
802.626	3242
802.727	4358
802.829	4753
802.930	517
803.031	4936
803.133	3562
803.234	3172
803.335	3784
803.436	2561
803.538	2789
803.639	2185
803.740	3200
803.841	3023
803.942	4140
804.043	4384
804.144	1877
804.245	3149
804.346	2986
804.447	2265
804.548	3619
804.649	4412
804.750	2925
804.851	2781
804.952	2695
805.053	2499
805.154	1968
805.255	3952
805.355	3574
805.456	2577
805.557	2475
805.658	2745
805.758	2674
805.859	3061
805.960	3178
806.061	1788
806.161	2626
806.262	3130
806.362	2587
806.463	2167
806.564	3909
806.664	3748
806.765	2449
806.865	3028
806.966	1791
807.066	2698
807.166	3180
807.267	3126
807.367	2618
807.468	3073
807.568	1838
807.668	3585
807.769	3784
807.869	2049
807.969	2752
808.069	2388
808.170	2804
808.270	2714
808.370	3754
808.470	2738
808.570	2834
808.670	2021
808.770	2726
808.870	2531
808.970	3635
809.070	2559
809.170	2084
809.271	3675
809.370	1805
809.470	2883
809.570	1517
809.670	2463
809.770	1841
809.870	3289
809.970	2520
810.070	3181
810.169	3812
810.269	1434
810.369	3304
810.469	2906
810.568	2101
810.668	1854
810.768	2127
810.867	2097
810.967	2513
811.066	1651
811.166	2531
811.265	3463
811.365	1898
811.464	2594
811.564	3005
811.663	2409
811.763	1077
811.862	3100
811.962	2853
812.061	2752
812.160	2630
812.260	2468
812.359	2486
812.458	2658
812.557	3504
812.657	2394
812.756	2846
812.855	2420
812.954	2510
813.053	2974
813.153	2248
813.252	2138
813.351	2983
813.450	3698
813.549	2376
813.648	3451
813.747	2845
813.846	4241
813.945	2448
814.044	2371
814.143	2527
814.242	3357
814.341	2267
814.439	2671
814.538	4139
814.637	3368
814.736	3597
814.835	3952
814.933	4343
815.032	5580
815.131	7137
815.229	11948
815.328	15839
815.427	11534
815.525	12006
815.624	9746
815.722	9959
815.821	10462
815.919	10834
816.018	10251
816.116	11196
816.215	10868
816.313	12155
816.412	14027
816.510	13715
816.609	16010
816.707	16439
816.805	14333
816.904	14481
817.002	14821
817.100	15232
817.198	16263
817.296	13204
817.395	14843
817.493	14734
817.591	13647
817.689	13091
817.787	12911
817.885	12664
817.983	11820
818.081	13409
818.179	15206
818.277	23423
818.375	17354
818.473	13215
818.571	11769
818.669	13532
818.767	13859
818.865	11337
818.963	10444
819.061	13022
819.158	11624
819.256	16358
819.354	18686
819.452	30448
819.549	19763
819.647	14182
819.745	9963
819.842	10441
819.940	11561
820.038	9920
820.135	9629
820.233	12143
820.330	10220
820.428	10264
820.525	11749
820.623	10274
820.720	9048
820.818	9893
820.915	10350
821.012	10539
821.110	8876
821.207	10258
821.304	9143
821.402	11299
821.499	10544
821.596	8699
821.693	9969
821.791	10801
821.888	9525
821.985	11623
822.082	7641
822.179	10826
822.276	10780
822.373	7523
822.470	8806
822.567	9658
822.664	7520
822.761	9571
822.858	9374
822.955	8963
823.052	8090
823.149	9604
823.246	9549
823.343	7341
823.440	7268
823.536	9438
823.633	7984
823.730	7775
823.827	9826
823.923	8766
824.020	7624
824.117	9657
824.213	8410
824.310	6998
824.407	6885
824.503	9243
824.600	7288
824.696	7621
824.793	9551
824.889	9840
824.986	7702
825.082	6332
825.179	7341
825.275	9037
825.371	9014
825.468	6368
825.564	4552
825.660	9060
825.757	10147
825.853	7494
825.949	5716
826.045	6117
826.142	6707
826.238	7274
826.334	6828
826.430	6865
826.526	5046
826.622	5398
826.718	8448
826.814	8615
826.910	7608
827.006	4233
827.102	5493
827.198	7070
827.294	8035
827.390	7942
827.486	5574
827.582	4602
827.678	5583
827.774	8563
827.869	4277
827.965	6225
828.061	4570
828.157	8247
828.252	8213
828.348	5783
828.444	5983
828.539	5763
828.635	6674
828.731	6803
828.826	5627
828.922	7128
829.017	7904
829.113	7562
829.208	5354
829.304	7181
829.399	9500
829.495	6962
829.590	6636
829.685	6478
829.781	8313
829.876	6754
829.971	3965
830.066	4295
830.162	6335
830.257	8655
830.352	5500
830.447	5312
830.543	5496
830.638	7419
830.733	7817
830.828	5075
830.923	6700
831.018	6593
831.113	7569
831.208	4252
831.303	4204
831.398	4780
831.493	6028
831.588	8185
831.683	5017
831.778	4563
831.873	4871
831.967	6973
832.062	6849
832.157	5117
832.252	6223
832.346	5421
832.441	6725
832.536	4940
832.631	5829
832.725	4994
832.820	5663
832.914	4886
833.009	3739
833.104	4021
833.198	4286
833.293	5273
833.387	6769
833.482	5510
833.576	4850
833.670	5740
833.765	6059
833.859	6902
833.954	6142
834.048	5169
834.142	4956
834.237	3217
834.331	4186
834.425	5543
834.519	4464
834.613	4164
834.708	3466
834.802	4186
834.896	4021
834.990	5074
835.084	3703
835.178	3661
835.272	3072
835.366	6209
835.460	6514
835.554	4885
835.648	3459
835.742	2788
835.836	2913
835.930	3209
836.024	4828
836.117	4455
836.211	3914
836.305	3978
836.399	3307
836.493	3002
836.586	4749
836.680	4723
836.774	3515
836.867	3711
836.961	2803
837.055	2129
837.148	3591
837.242	3371
837.335	4134
837.429	2687
837.522	3175
837.616	2508
837.709	4058
837.803	3137
837.896	4456
837.989	3549
838.083	2760
838.176	1995
838.269	1455
838.363	3577
838.456	3196
838.549	3953
838.642	4341
838.735	3327
838.829	3849
838.922	2571
839.015	2856
839.108	2523
839.201	2542
839.294	3753
839.387	3001
839.480	2201
839.573	3000
839.666	2293
839.759	2641
839.852	2321
839.945	3898
840.038	2964
840.131	2781
840.223	2640
840.316	3464
840.409	3772
840.502	4167
840.594	4441
840.687	1120
840.780	2234
840.873	1486
840.965	2219
841.058	2619
841.150	4235
841.243	1319
841.336	2758
841.428	2300
841.521	2680
841.613	2085
841.706	3435
841.798	2780
841.890	3122
841.983	2015
842.075	2932
842.167	2562
842.260	3171
842.352	3452
842.444	3390
842.537	1881
842.629	2950
842.721	2148
842.813	3062
842.905	1429
842.997	3830
843.090	3149
843.182	2860
843.274	1388
843.366	3414
843.458	3473
843.550	4436
843.642	3035
843.734	2680
843.826	1654
843.918	2246
844.009	2280
844.101	2413
844.193	2342
844.285	3527
844.377	4274
844.469	2111
844.560	1756
844.652	1991
844.744	2080
844.835	3192
844.927	2453
845.019	2689
845.110	2913
845.202	2612
845.293	1714
845.385	1364
845.476	2737
845.568	3105
845.659	1869
845.751	1888
845.842	1322
845.934	2008
846.025	2634
846.116	2620
846.208	3102
846.299	2234
846.390	2283
846.482	1036
846.573	2805
846.664	2780
846.755	1235
846.846	4069
846.937	1062
847.029	2028
847.120	1621
847.211	2492
847.302	2249
847.393	2636
847.484	2849
847.575	1140
847.666	1123
847.757	1270
847.847	2223
847.938	2962
848.029	2136
848.120	1797
848.211	1886
848.302	2117
848.392	2307
848.483	2093
848.574	2089
848.664	2582
848.755	2351
848.846	2489
848.936	2162
849.027	2836
849.118	3250
849.208	3819
849.299	6805
849.389	12996
849.480	24961
849.570	47010
849.661	92427
849.751	120538
849.841	38001
849.932	7978
850.022	3692
850.112	4681
850.203	3036
850.293	3018
850.383	3070
850.474	2890
850.564	2010
850.654	1994
850.744	2024
850.834	2115
850.924	2040
851.014	3776
851.104	2593
851.194	2112
851.284	1979
851.374	2181
851.464	2838
851.554	1730
851.644	2065
851.734	2682
851.824	2935
851.914	1978
852.004	2576
852.094	1947
852.183	1208
852.273	2869
852.363	2045
852.452	2793
852.542	2268
852.632	1569
852.721	2168
852.811	2710
852.901	3916
852.990	3973
853.080	4016
853.169	5099
853.259	4555
853.348	5423
853.438	7390
853.527	10200
853.617	15576
853.706	26663
853.795	48949
853.885	99420
853.974	166074
854.063	297291
854.152	326880
854.242	130118
854.331	41190
854.420	20820
854.509	14317
854.598	10063
854.687	8041
854.777	7201
854.866	5207
854.955	4304
855.044	4052
855.133	3758
855.222	3338
855.311	2976
855.400	2467
855.488	2758
855.577	1947
855.666	2920
855.755	2323
855.844	2485
855.933	2325
856.021	2075
856.110	2030
856.199	1637
856.288	819
856.376	1389
856.465	1965
856.554	2130
856.642	2391
856.731	2801
856.819	2538
856.908	1804
856.996	2683
857.085	1016
857.173	1528
857.262	1505
857.350	1905
857.438	897
857.527	1919
857.615	1808
857.703	1903
857.792	1967
857.880	887
857.968	1005
858.056	1803
858.145	2081
858.233	1980
858.321	856
858.409	1980
858.497	1324
858.585	1186
858.673	2251
858.761	1186
858.849	1906
858.937	1462
859.025	2723
859.113	1980
859.201	2033
859.289	2717
859.377	1308
859.465	1542
859.552	1126
859.640	1340
859.728	1567
859.816	2181
859.903	1185
859.991	642
860.079	1135
860.166	1329
860.254	1932
860.342	1467
860.429	1835
860.517	1644
860.604	2220
860.692	1688
860.779	1225
860.867	1659
860.954	1936
861.042	1720
861.129	2496
861.216	2880
861.304	2275
861.391	1135
861.478	1432
861.565	2486
861.653	2726
861.740	937
861.827	1520
861.914	2703
862.001	1515
862.089	1520
862.176	1899
862.263	1512
862.350	1561
862.437	1356
862.524	1166
862.611	2203
862.698	2696
862.785	1859
862.871	2881
862.958	2283
863.045	2026
863.132	3258
863.219	1702
863.306	1359
863.392	1599
863.479	1361
863.566	2042
863.652	2323
863.739	1959
863.826	3187
863.912	2981
863.999	2642
864.086	3471
864.172	3167
864.259	3134
864.345	2167
864.432	2903
864.518	3238
864.604	2833
864.691	3079
864.777	3915
864.863	5339
864.950	7408
865.036	10041
865.122	18350
865.209	17557
865.295	15998
865.381	16073
865.467	16890
865.553	18724
865.639	24421
865.726	35601
865.812	61089
865.898	99621
865.984	144073
866.070	247318
866.156	201941
866.242	68500
866.328	29083
866.414	20130
866.499	17189
866.585	15906
866.671	14308
866.757	14324
866.843	12916
866.928	13082
867.014	12590
867.100	12175
867.186	11338
867.271	11735
867.357	11708
867.442	10978
867.528	11833
867.614	11405
867.699	10434
867.785	10678
867.870	10255
867.956	10897
868.041	10943
868.127	9053
868.212	10988
868.297	10225
868.383	10084
868.468	10379
868.553	11723
868.639	9415
868.724	10699
868.809	9944
868.894	8779
868.979	9077
869.065	9741
869.150	7943
869.235	9506
869.320	9372
869.405	8879
869.490	10331
869.575	8747
869.660	7415
869.745	10439
869.830	10035
869.915	8214
870.000	8320
870.085	8250
870.169	11328
870.254	10204
870.339	6641
870.424	7347
870.509	9573
870.593	10485
870.678	9333
870.763	8037
870.847	7222
870.932	10228
871.016	9344
871.101	6442
871.186	9051
871.270	10311
871.355	6503
871.439	7846
871.523	9218
871.608	7177
871.692	6576
871.777	9164
871.861	8423
871.945	8344
872.030	8578
872.114	7731
872.198	6843
872.282	6864
872.367	7167
872.451	7253
872.535	7826
872.619	7329
872.703	7695
872.787	7904
872.871	8233
872.955	6003
873.039	4723
873.123	8186
873.207	7687
873.291	4772
873.375	6589
873.459	8193
873.543	7296
873.627	5991
873.711	5958
873.794	7339
873.878	7372
873.962	4391
874.045	5841
874.129	5737
874.137	5893
874.213	7452
874.245	6738
874.296	5584
874.352	5309
874.380	5175
874.460	6272
874.464	6317
874.547	5785
874.568	6057
874.631	6843
874.676	6654
874.714	6483
874.784	7445
874.798	7643
874.881	6567
874.892	6382
874.965	5148
874.999	5934
875.048	6948
875.107	6603
875.131	6474
875.215	4442
875.215	4441
875.298	4264
875.323	4814
875.381	6152
875.430	7517
875.465	8403
875.538	7005
875.548	6811
875.631	4672
875.646	4608
875.714	4457
875.753	4785
875.798	5172
875.861	6292
875.881	6587
875.964	5690
875.968	5627
876.047	4715
876.076	5027
876.130	5578
876.183	6202
876.213	6560
876.291	7092
876.296	7118
876.379	5100
876.398	5064
876.462	4906
876.506	4976
876.545	5212
876.613	5109
876.628	5050
876.711	5626
876.721	5802
876.794	7291
876.828	6986
876.877	6226
876.935	4986
876.960	4647
877.043	4997
877.043	4999
877.125	5475
877.150	5995
877.208	7015
877.258	5768
877.291	4982
877.365	4106
877.374	4001
877.456	4897
877.472	4768
877.539	4542
877.579	5300
877.622	5857
877.687	5817
877.704	5821
877.787	5030
877.794	5067
877.869	5742
877.901	5674
877.952	5161
878.008	4063
878.034	3641
878.115	3600
878.117	3606
878.199	4383
878.222	4607
878.282	5354
878.329	6215
878.364	6688
878.437	5963
878.447	5778
878.529	4134
878.544	4012
878.611	4192
878.651	4751
878.694	5420
878.758	5873
878.776	5965
878.858	5756
878.865	5734
878.941	4565
878.972	3935
879.023	3601
879.078	4494
879.105	5083
879.185	6169
879.187	6174
879.269	6593
879.292	6241
879.351	5505
879.399	5449
879.433	5265
879.506	4528
879.516	4489
879.598	4536
879.613	4584
879.680	4954
879.720	5540
879.762	6138
879.827	5680
879.844	5396
879.926	5177
879.933	5219
880.007	6577
880.040	6641
880.089	6648
880.147	8573
880.171	9503
880.253	14507
880.254	14529
880.335	17450
880.360	18970
880.417	25850
880.467	36113
880.499	42064
880.574	44025
880.580	43006
880.662	18403
880.680	14811
880.744	7550
880.787	5539
880.825	5535
880.893	5639
880.907	5526
880.989	5282
881.000	5293
881.070	6393
881.106	6489
881.152	5636
881.213	4295
881.233	4203
881.315	5018
881.319	5037
881.396	5421
881.426	5552
881.478	5715
881.532	6435
881.559	6715
881.639	5834
881.641	5795
881.722	4440
881.745	4281
881.803	5104
881.852	5101
881.885	4591
881.958	4304
881.966	4386
882.047	4905
882.064	4944
882.129	4370
882.171	4012
882.210	3545
882.277	2564
882.291	2741
882.372	5449
882.383	5633
882.454	6249
882.489	6443
882.535	6102
882.596	6202
882.616	6295
882.697	5496
882.702	5462
882.778	4104
882.808	3495
882.859	3199
882.914	3258
882.940	3384
883.020	4014
883.021	4031
883.102	5018
883.127	5509
883.183	6506
883.233	6519
883.264	5484
883.339	3492
883.345	3442
883.426	2567
883.445	2555
883.507	3624
883.551	4165
883.587	4775
883.657	6151
883.668	6262
883.749	6268
883.763	6249
883.830	4651
883.869	3880
883.910	3819
883.975	4133
883.991	4364
884.072	4904
884.081	5011
884.152	6615
884.187	7102
884.233	7109
884.292	7147
884.314	6410
884.394	3014
884.398	2870
884.475	2464
884.504	2493
884.555	3163
884.610	3644
884.636	3986
884.716	5141
884.716	5159
884.797	7068
884.821	7418
884.877	6496
884.927	5687
884.958	5064
885.033	3770
885.038	3735
885.118	3086
885.139	2867
885.199	3273
885.244	3936
885.279	4508
885.350	5587
885.359	5825
885.439	7463
885.456	7689
885.520	5526
885.561	4435
885.600	4499
885.667	4555
885.680	4650
885.760	5184
885.773	5233
885.840	3882
885.878	3193
885.920	3434
885.984	3781
886.000	4015
886.080	5153
886.089	5282
886.160	6139
886.195	6348
886.240	5489
886.300	4700
886.320	4994
886.400	5558
886.406	5609
886.480	4408
886.511	3944
886.560	4502
886.616	5128
886.640	4872
886.720	3542
886.722	3511
886.800	3581
886.827	3711
886.879	4688
886.932	5359
886.959	5685
887.038	6788
887.039	6790
887.119	5701
887.143	5481
887.198	5677
887.248	5783
887.278	5517
887.354	4717
887.358	4715
887.437	4518
887.459	4491
887.517	5244
887.564	5712
887.596	4942
887.669	3229
887.676	3151
887.755	2079
887.774	1874
887.835	2764
887.880	3436
887.914	3912
887.985	4713
887.994	4971
888.073	7348
888.090	7782
888.153	8230
888.195	8489
888.232	7147
888.300	4722
888.311	4676
888.391	4324
888.405	4244
888.470	3899
888.510	3652
888.549	3687
888.615	3914
888.628	4309
888.708	6444
888.720	6764
888.787	5721
888.825	5121
888.866	4206
888.930	2826
888.945	3124
889.024	4724
889.035	4913
889.103	5879
889.140	6390
889.182	5365
889.245	3912
889.261	4256
889.340	5833
889.349	6000
889.419	4655
889.454	3995
889.498	4201
889.559	4477
889.577	4645
889.656	5358
889.664	5423
889.735	5579
889.768	5638
889.814	5322
889.873	4873
889.978	4666
890.083	4490
890.187	5647
890.292	5691
890.397	4824
890.501	4502
890.606	4232
890.710	5051
890.815	6853
890.919	4828
891.024	4580
891.128	4675
891.233	3107
891.337	6097
891.442	5418
891.546	5034
891.650	4073
891.755	4529
891.859	5573
891.963	6819
892.068	5645
892.172	3423
892.276	2509
892.380	4633
892.484	6827
892.589	6768
892.693	5539
892.797	2430
892.901	2720
893.005	4236
893.109	7980
893.213	6349
893.317	4222
893.421	2297
893.525	2432
893.629	2694
893.733	6108
893.837	4172
893.941	4201
894.045	3514
894.148	2992
894.252	3543
894.356	5629
894.460	6823
894.564	4251
894.667	3413
894.771	2329
894.875	2494
894.978	4241
895.082	4092
895.186	5371
895.289	4294
895.393	4663
895.496	5514
895.600	4127
895.703	1658
895.807	4418
895.910	4257
896.014	4486
896.117	2765
896.221	4934
896.324	4827
896.427	2827
896.531	3183
896.634	3486
896.737	3254
896.840	4019
896.944	5797
897.047	5111
897.150	3954
897.253	2365
897.356	2084
897.460	1320
897.563	3292
897.666	5358
897.769	4714
897.872	2648
897.975	2774
898.078	3105
898.181	2889
898.284	3759
898.387	6412
898.490	5372
898.593	3260
898.695	2533
898.798	3400
898.901	3254
899.004	3094
899.107	3263
899.209	4478
899.312	6274
899.415	3028
899.518	2289
899.620	360
899.723	1813
899.826	3192
899.928	2775
900.031	3529
900.133	5401
900.236	2345
900.338	2010
900.441	2662
900.543	3172
900.646	3574
900.748	4414
900.851	4138
900.953	2624
901.055	2683
901.158	2971
901.260	2646
901.362	2212
901.465	2213
901.567	4231
901.669	3852
901.771	4052
901.873	3011
901.976	3384
902.078	3470
902.180	2564
902.282	2265
902.384	2870
902.486	5071
902.588	4480
902.690	1218
902.792	2284
902.894	3367
902.996	4481
903.098	3971
903.200	1585
903.302	2184
903.404	3286
903.505	2299
903.607	3482
903.709	5997
903.811	4292
903.913	2787
904.014	1578
904.116	1223
904.218	2565
904.319	3481
904.421	5676
904.523	4838
904.624	2755
904.726	1838
904.827	2622
904.929	2215
905.030	2284
905.132	5308
905.233	3824
905.335	2468
905.436	2117
905.537	1216
905.639	2708
905.740	3085
905.841	4073
905.943	3086
906.044	3142
906.145	2566
906.247	1714
906.348	2668
906.449	3869
906.550	4120
906.651	1826
906.752	2658
906.854	2273
906.955	2579
907.056	2945
907.157	4321
907.258	3557
907.359	1605
907.460	1764
907.561	1945
907.662	2174
907.762	2317
907.863	3043
907.964	4597
908.065	2938
908.166	2949
908.267	2390
908.367	2332
908.468	2527
908.569	2537
908.670	3938
908.770	3951
908.871	3563
908.971	3688
909.072	2978
909.173	2754
909.273	3026
909.374	3803
909.474	3183
909.575	2909
909.675	2778
909.776	2893
909.876	3124
909.977	2326
910.077	2855
910.177	3588
910.278	3218
910.378	1697
910.478	2572
910.579	3833
910.679	3501
910.779	3120
910.879	3435
910.980	3457
911.080	3551
911.180	1833
911.280	1732
911.380	1814
911.480	2117
911.580	2874
911.680	3842
911.780	2986
911.880	3482
911.980	2229
912.080	2138
912.180	2987
912.280	2509
912.380	2515
912.480	1433
912.580	1969
912.679	2343
912.779	4606
912.879	3311
912.979	2373
913.078	1247
913.178	2435
913.278	1754
913.377	2171
913.477	2596
913.577	2362
913.676	4257
913.776	3931
913.875	3197
913.975	3410
914.074	3395
914.174	2920
914.273	2085
914.373	3514
914.472	2241
914.572	1790
914.671	1829
914.770	2127
914.870	2103
914.969	1834
915.068	3869
915.167	3895
915.267	2814
915.366	3221
915.465	2592
915.564	3999
915.663	3040
915.763	3511
915.862	3917
915.961	3746
916.060	3526
916.159	2578
916.258	1909
916.357	3356
916.456	3308
916.555	2954
916.654	2890
916.752	3696
916.851	4088
916.950	1919
917.049	2606
917.148	2706
917.247	2407
917.345	2087
917.444	1793
917.543	1953
917.642	2562
917.740	3696
917.839	5174
917.937	5606
918.036	4093
918.135	2317
918.233	2822
918.332	2518
918.430	2644
918.529	2881
918.627	3299
918.726	4782
918.824	2985
918.923	2805
919.021	2993
919.119	1990
919.218	2505
919.316	3273
919.414	3217
919.512	5166
919.611	3646
919.709	3073
919.807	4654
919.905	5476
920.003	5094
920.102	4487
920.200	4602
920.298	5128
920.396	5465
920.494	3274
920.592	4466
920.690	4366
920.788	4852
920.886	4669
920.984	4613
921.082	5397
921.180	6534
921.277	6318
921.375	7847
921.473	10655
921.571	10130
921.669	9182
921.766	8528
921.864	9835
921.962	9373
922.060	8205
922.157	7906
922.255	8234
922.352	8939
922.450	10529
922.548	11291
922.645	12235
922.743	15775
922.840	25584
922.938	28435
923.035	23158
923.133	22946
923.230	27744
923.327	33344
923.425	29204
923.522	30653
923.619	26472
923.717	25611
923.814	23568
923.911	23336
924.008	24988
924.106	22680
924.203	23174
924.300	24190
924.397	23292
924.494	22871
924.591	23650
924.688	22430
924.786	23157
924.883	23501
924.979	23008
925.077	21901
925.173	21578
925.270	22383
925.367	23156
925.464	23991
925.561	25005
925.658	25986
925.755	22289
925.852	25468
925.948	23226
926.045	22623
926.142	22896
926.239	23515
926.335	17889
926.432	22083
926.529	23409
926.625	25718
926.722	18997
926.818	20513
926.915	23149
927.011	20624
927.108	20343
927.204	21309
927.301	19250
927.397	23310
927.494	23482
927.590	16342
927.687	18433
927.783	24441
927.879	22787
927.976	18884
928.072	18171
928.168	20135
928.264	20099
928.361	19932
928.457	22239
928.553	16368
928.649	20351
928.745	20462
928.841	17325
928.937	18923
929.033	19668
929.129	18932
929.225	22077
929.321	18317
929.417	17069
929.513	19840
929.609	16984
929.705	17567
929.801	20102
929.897	15922
929.993	17006
930.089	18064
930.184	15683
930.280	19193
930.376	22358
930.471	15790
930.567	14691
930.663	17532
930.758	15208
930.854	17022
930.950	16968
931.045	14797
931.141	16577
931.236	21026
931.332	16777
931.427	14688
931.523	19534
931.618	16956
931.714	12374
931.809	16185
931.905	18605
932.000	12001
932.095	12810
932.191	19045
932.286	19464
932.381	15600
932.476	13023
932.572	15650
932.667	13115
932.762	13579
932.857	16469
932.952	18668
933.047	14019
933.142	12420
933.237	15424
933.332	16429
933.427	18045
933.522	13552
933.617	11827
933.712	14044
933.807	18859
933.902	18486
933.997	17728
934.092	12060
934.187	14664
934.282	15581
934.376	15400
934.471	16523
934.566	12601
934.661	11993
934.755	14774
934.850	16367
934.945	13286
935.039	11180
935.134	10471
935.228	14246
935.323	19985
935.417	11399
935.512	9886
935.606	11235
935.701	14495
935.795	15670
935.890	13426
935.984	11034
936.079	10115
936.173	12734
936.267	10495
936.362	10546
936.456	13493
936.550	16562
936.644	12079
936.738	9870
936.833	10616
936.927	9029
937.021	11548
937.115	14219
937.209	14063
937.303	11513
937.397	9088
937.491	11969
937.585	13745
937.679	12123
937.773	9673
937.867	8697
937.961	10782
938.055	16188
938.149	12122
938.243	8611
938.337	8158
938.430	11230
938.524	14628
938.618	10098
938.712	9452
938.805	11258
938.899	13031
938.993	14901
939.086	9659
939.180	7498
939.274	8551
939.367	12744
939.461	12982
939.554	9243
939.648	9295
939.741	9856
939.835	12595
939.928	14905
940.022	12514
940.115	10948
940.208	12306
940.302	15302
940.395	15139
940.488	9509
940.582	9410
940.675	8273
940.768	9001
940.861	13385
940.954	12896
941.048	7638
941.141	7146
941.234	8194
941.327	9963
941.420	11992
941.513	12345
941.606	8673
941.699	10194
941.792	12349
941.885	10517
941.978	11281
942.071	10371
942.164	7814
942.257	7704
942.349	10039
942.442	10138
942.535	7028
942.628	8515
942.721	8351
942.813	9051
942.906	10166
942.999	8482
943.091	7610
943.184	9516
943.277	8541
943.369	7460
943.462	6473
943.554	9388
943.647	8641
943.739	12081
943.832	10415
943.924	4757
944.017	5670
944.109	7077
944.201	8016
944.294	7010
944.386	7737
944.478	7071
944.571	6745
944.663	7791
944.755	8148
944.847	9482
944.940	8416
945.032	5410
945.124	6294
945.216	8253
945.308	8624
945.400	8027
945.492	7508
945.584	10272
945.676	10054
945.768	8467
945.860	9778
945.952	10387
946.044	7876
946.136	7441
946.228	7104
946.320	7545
946.412	9079
946.503	10574
946.595	9384
946.687	6347
946.779	5398
946.870	5984
946.962	5958
947.054	7395
947.145	8721
947.237	6534
947.329	7625
947.420	8242
947.512	6944
947.603	4649
947.695	5626
947.786	6860
947.878	6747
947.969	8394
948.061	8364
948.152	6760
948.243	3742
948.335	4528
948.426	6383
948.517	7807
948.609	8542
948.700	8317
948.791	6041
948.882	4387
948.973	5170
949.065	6228
949.156	6764
949.247	5695
949.338	6817
949.429	3546
949.520	4671
949.611	7281
949.702	8061
949.793	5939
949.884	7179
949.975	4931
950.066	4073
950.157	4956
950.247	5449
950.338	4309
950.429	5366
950.520	5498
950.611	4647
950.701	6383
950.792	8379
950.883	6980
950.973	5518
951.064	7284
951.155	7576
951.245	7262
951.336	7426
951.427	7817
951.517	8817
951.608	6777
951.698	5946
951.788	4469
951.879	3879
951.969	4593
952.060	5603
952.150	6112
952.240	7773
952.331	6401
952.421	7563
952.511	4396
952.602	4273
952.692	4114
952.782	3450
952.872	5488
952.962	6750
953.052	5208
953.143	4793
953.233	5263
953.323	5559
953.413	6136
953.503	6820
953.593	6198
953.683	5376
953.773	3683
953.863	3679
953.953	4406
954.042	4725
954.132	6994
954.222	5735
954.312	4241
954.402	4392
954.492	5176
954.581	6807
954.671	4892
954.761	5121
954.850	4802
954.940	3075
955.030	3731
955.119	3674
955.209	4366
955.298	5342
955.388	5490
955.477	6294
955.567	3534
955.656	5231
955.746	4864
955.835	4668
955.925	4611
956.014	5509
956.103	6094
956.193	8362
956.282	7257
956.371	5105
956.461	5692
956.550	4767
956.639	5011
956.728	4216
956.817	4998
956.906	5372
956.995	7107
957.085	3731
957.174	4920
957.263	3072
957.352	3979
957.441	4563
957.530	4431
957.619	4284
957.708	4659
957.796	4027
957.885	4287
957.974	3394
958.063	4537
958.152	3172
958.241	3485
958.329	4252
958.418	4489
958.507	4073
958.596	6733
958.684	3997
958.773	4812
958.861	2960
958.950	3610
959.039	3436
959.127	3777
959.216	4650
959.304	3817
959.393	4050
959.481	4490
959.570	2850
959.658	2341
959.746	3151
959.835	4462
959.923	3932
960.011	4033
960.100	4366
960.188	5658
960.276	3892
960.365	3594
960.453	2929
960.541	2780
960.629	3323
960.717	2348
960.805	2284
960.893	3390
960.981	4313
961.069	6666
961.158	6457
961.245	7100
961.333	5470
961.421	4445
961.509	4218
961.597	5064
961.685	4076
961.773	3681
961.861	4618
961.949	5179
962.036	3555
962.124	4325
962.212	3710
962.299	3539
962.387	2710
962.475	3603
962.562	3804
962.650	3994
962.738	3619
962.825	3770
962.913	3080
963.000	3441
963.088	4380
963.175	3664
963.263	3189
963.350	3659
963.438	3589
963.525	2493
963.612	3912
963.700	4408
963.787	5421
963.874	4686
963.962	3413
964.049	2830
964.136	3196
964.223	2701
964.310	3078
964.398	3176
964.485	2908
964.572	4373
964.659	4119
964.746	2763
964.833	2953
964.920	3003
965.007	2705
965.094	3561
965.181	2863
965.268	4606
965.355	4028
965.441	3577
965.528	3190
965.615	4600
965.702	3743
965.789	3229
965.875	4200
965.962	4292
966.049	3957
966.136	6063
966.222	4489
966.309	5675
966.395	4368
966.482	4692
966.569	3464
966.655	4096
966.742	2909
966.828	3837
966.915	3083
967.001	3023
967.087	2039
967.174	2760
967.260	3594
967.347	3907
967.433	3945
967.519	4427
967.605	2909
967.692	3858
967.778	3515
967.864	3350
967.950	3217
968.036	3042
968.123	3054
968.209	3219
968.295	1624
968.381	4122
968.467	2272
968.553	1527
968.639	4468
968.725	3920
968.811	6374
968.897	4931
968.983	3603
969.069	2112
969.154	1732
969.240	3255
969.326	2224
969.412	2958
969.497	2617
969.583	2664
969.669	4067
969.755	4508
969.840	4164
969.926	7580
970.012	8519
970.097	11215
970.183	8111
970.268	4801
970.354	4830
970.439	3338
970.525	4541
970.610	3023
970.696	4500
970.781	2614
970.866	1300
970.952	3751
971.037	2820
971.122	3389
971.208	3743
971.293	2949
971.378	3035
971.463	3851
971.549	3796
971.634	3222
971.719	3043
971.804	2250
971.889	3328
971.974	2428
972.059	3454
972.144	2247
972.229	3418
972.314	3022
972.399	3355
972.484	2102
972.569	2859
972.654	2130
972.739	3188
972.824	1634
972.908	1769
972.993	2170
973.078	2213
973.163	3068
973.247	3119
973.332	2405
973.417	4178
973.501	2296
973.586	3209
973.671	2123
973.755	3185
973.840	3184
973.924	5229
974.009	5458
974.093	5351
974.178	6167
974.262	4333
974.346	3655
974.431	3986
974.515	2726
974.600	3681
974.684	3922
974.768	3634
974.852	4353
974.937	2998
975.021	3552
975.105	3484
975.189	3707
975.273	3215
975.358	2418
975.442	1499
975.526	4126
975.610	2194
975.694	2320
975.778	3523
975.862	3584
975.946	2042
976.030	5291
976.114	2530
976.198	2491
976.281	3940
976.365	4126
976.449	2263
976.533	3209
976.617	2029
976.700	2407
976.784	2811
976.868	1755
976.951	3402
977.035	2694
977.119	3244
977.202	2923
977.286	3859
977.369	5926
977.453	7241
977.536	6350
977.620	4758
977.703	4801
977.787	4641
977.870	4559
977.953	4701
978.037	2216
978.120	4650
978.203	3061
978.287	3981
978.370	3866
978.453	3138
978.536	3445
978.620	4519
978.703	4641
978.786	2878
978.869	2778
978.952	2300
979.035	4800
979.118	4448
979.201	2543
979.284	3543
979.367	2860
979.450	4211
979.533	2501
979.616	3300
979.699	2464
979.782	3739
979.865	3882
979.948	2568
980.030	2471
980.113	3450
980.196	2123
980.279	3786
980.361	3417
980.444	3032
980.526	5696
980.609	7376
980.692	8218
980.774	6644
980.857	3833
980.939	5111
981.022	4168
981.104	3812
981.187	3349
981.269	4305
981.352	4501
981.434	3873
981.516	4950
981.599	5275
981.681	4647
981.763	4131
981.846	3417
981.928	3829
982.010	3978
982.092	3904
982.174	4508
982.256	3864
982.339	3501
982.421	3180
982.503	4025
982.585	2609
982.667	3860
982.749	4024
982.831	3169
982.913	3282
982.995	4961
983.077	4110
983.158	5534
983.240	3777
983.322	6568
983.404	8819
983.486	6251
983.568	7176
983.649	6083
983.731	6229
983.813	5128
983.894	5492
983.976	5164
984.058	5115
984.139	6548
984.221	4057
984.302	6292
984.384	6135
984.465	4447
984.547	5470
984.628	4349
984.710	5607
984.791	6260
984.872	5504
984.954	4523
985.035	5857
985.116	5477
985.198	4074
985.279	6921
985.360	4697
985.441	4519
985.522	6093
985.604	5115
985.685	3476
985.766	6336
985.847	6670
985.928	5299
986.009	4918
986.090	5638
986.171	6330
986.252	4655
986.333	5791
986.414	5171
986.495	5653
986.576	5839
986.656	6266
986.737	6421
986.818	6374
986.899	6274
986.980	5426
987.060	6469
987.141	6471
987.222	6808
987.302	7763
987.383	8395
987.464	8796
987.544	9018
987.625	7670
987.705	8616
987.786	8757
987.866	7153
987.947	7978
988.027	7728
988.108	6570
988.188	6718
988.268	6953
988.349	7305
988.429	6856
988.509	6887
988.589	6786
988.670	4965
988.750	7604
988.830	6458
988.910	7944
988.990	6815
989.070	5963
989.151	7145
989.231	5227
989.311	6450
989.391	5642
989.471	6135
989.551	5648
989.631	6476
989.711	6913
989.791	5606
989.870	5120
989.950	7209
990.030	6326
990.110	5732
990.190	4949
990.269	5083
990.349	5446
990.429	6004
990.509	5902
990.588	4417
990.668	6206
990.747	5244
990.827	4882
990.907	5724
990.986	5431
991.066	5702
991.145	4154
991.225	6271
991.304	5085
991.383	5911
991.463	5285
991.542	5559
991.622	4417
991.701	4529
991.780	4465
991.859	4507
991.939	4915
992.018	5350
992.097	4705
992.176	4398
992.256	3674
992.335	4480
992.414	6001
992.493	3461
992.572	3638
992.651	5369
992.730	4172
992.809	3467
992.888	3019
992.967	4513
993.046	4330
993.125	3174
993.203	4465
993.282	4921
993.361	4121
993.440	4407
993.519	3251
993.597	4023
993.676	3873
993.755	4130
993.834	3637
993.912	3580
993.991	3813
994.069	3416
994.148	3570
994.226	2724
994.305	3515
994.384	3509
994.462	4458
994.540	2390
994.619	2635
994.697	4084
994.776	3178
994.854	4364
994.932	3533
995.011	3536
995.089	3322
995.167	2313
995.245	3085
995.324	2471
995.402	4645
995.480	2926
995.558	2915
995.636	1792
995.714	2102
995.792	4008
995.870	2339
995.948	2172
996.026	3362
996.104	2292
996.182	3329
996.260	1726
996.338	2583
996.416	2691
996.494	2607
996.572	3584
996.649	1928
996.727	1279
996.805	2889
996.883	3161
996.960	2894
997.038	3364
997.116	2581
997.193	2034
997.271	2409
997.348	1830
997.426	2699
997.504	2470
997.581	3302
997.658	1843
997.736	911
997.813	1590
997.891	2738
997.968	1859
998.046	1690
998.123	2449
998.200	3232
998.277	1542
998.355	2680
998.432	1277
998.509	1552
998.586	3240
998.663	2168
998.741	1378
998.818	1071
998.895	1645
998.972	2966
999.049	2486
999.126	840
999.203	1700
999.280	1891
999.357	1511
999.434	1928
999.511	1273
999.587	1790
999.664	995
999.741	2109
999.818	1610
999.895	2068
999.971	975
1000.048	680
1000.125	1960
1000.202	1157
1000.278	1601
1000.355	1466
1000.431	905
1000.508	1998
1000.584	1106
1000.661	1543
1000.738	1070
1000.814	1326
1000.890	2509
1000.967	1054
1001.043	1282
1001.120	847
1001.196	1045
1001.272	510
1001.349	106
1001.425	1289
1001.501	833
1001.577	1026
1001.654	1085
1001.730	809
1001.806	813
1001.882	655
1001.958	1816
1002.034	1833
1002.110	1013
1002.186	1208
1002.262	507
1002.338	275
1002.414	827
1002.490	1533
1002.566	79
1002.642	-9
1002.718	1217
1002.794	651
1002.870	1470
1002.945	-223
1003.021	904
1003.097	941
1003.173	1600
1003.248	659
1003.324	905
1003.400	1237
1003.475	-564
1003.551	1291
1003.626	550
1003.702	147
1003.777	77
1003.853	59
1003.928	477
1004.004	283
1004.079	712
1004.155	587
1004.230	-407
1004.305	1225
1004.381	-107
1004.456	65
1004.531	472
1004.607	161
1004.682	296
1004.757	-4
1004.832	-272
1004.907	494
1004.982	913
1005.057	220
1005.133	552
1005.208	315
1005.283	-590
1005.358	406
1005.433	-919
1005.508	320
1005.583	85
1005.657	529
1005.732	740
1005.807	-585
1005.882	-171
1005.957	-364
1006.032	173
1006.106	1119
1006.181	268
1006.256	899
1006.331	-236
1006.405	-515
1006.480	-194
1006.554	-573
1006.629	96
1006.704	-1509
1006.778	-55
1006.853	307
1006.927	-17
1007.002	-287
1007.076	-83
1007.150	-725
1007.225	-56
1007.299	-37
1007.373	495
1007.448	45
1007.522	255
1007.596	743
1007.671	-405
1007.745	823
1007.819	-203
1007.893	-503
1007.967	-378
1008.041	-722
1008.115	-194
1008.190	-266
1008.264	8
1008.338	-1372
1008.412	-355
1008.486	-10
1008.560	-289
1008.633	-1393
1008.707	-1165
1008.781	481
1008.855	-498
1008.929	-49
1009.003	-641
1009.076	-1120
1009.150	-731
1009.224	-109
1009.298	223
1009.371	-729
1009.445	13
1009.519	-433
1009.592	-654
1009.666	-348
1009.739	-924
1009.813	-939
1009.886	249
1009.960	-807
1010.033	360
1010.107	553
1010.180	-1638
1010.253	-1477
1010.327	-1592
1010.400	-75
1010.473	-1542
1010.547	313
1010.620	-1507
1010.693	-371
1010.766	-1325
1010.840	-279
1010.913	-586
1010.986	-393
1011.059	-753
1011.132	-1103
1011.205	-1182
1011.278	-1060
1011.351	-1070
1011.424	-538
1011.497	-530
1011.570	-820
1011.643	-878
1011.716	-727
1011.789	-592
1011.862	-968
1011.934	-104
1012.007	-2152
1012.080	-1072
1012.153	-1048
1012.225	-63
1012.298	-1804
1012.371	-703
1012.443	-45
1012.516	-1494
1012.588	-1293
1012.661	-739
1012.733	-1448
1012.806	-1042
1012.879	-922
1012.951	-856
1013.023	-371
1013.096	-493
1013.168	-403
1013.241	-121
1013.313	-910
1013.385	-1237
1013.458	-1271
1013.530	-252
1013.602	-2435
1013.674	-1077
1013.746	-1715
1013.819	-1434
1013.891	-981
1013.963	-1220
1014.035	-433
1014.107	-1019
1014.179	-1151
1014.251	-1911
1014.323	-403
1014.395	-1590
1014.467	-928
1014.539	-569
1014.611	-334
1014.683	-672
1014.754	-1452
1014.826	-2373
1014.898	-486
1014.970	-1515
1015.042	183
1015.113	-1471
1015.185	-883
1015.257	-1065
1015.328	-492
1015.400	-1352
1015.471	-939
1015.543	-2184
1015.615	-1108
1015.686	-1007
1015.757	-934
1015.829	-2741
1015.901	-1549
1015.972	-1988
1016.043	-774
1016.115	-953
1016.186	-683
1016.257	-1685
1016.328	-1338
1016.400	-400
1016.471	-1699
1016.542	-1636
1016.613	-1339
1016.685	-1400
1016.756	-691
1016.827	-1319
1016.898	-1894
1016.969	-1194
1017.040	-1689
1017.111	-1081
1017.182	-1931
1017.253	-1291
1017.324	-1219
1017.395	-1810
1017.466	-1275
1017.537	-1703
1017.608	-1424
1017.678	-1375
1017.749	-2200
1017.820	-1406
1017.891	-2116
1017.961	-1676
1018.032	-1327
1018.103	-1089
1018.173	-1768
1018.244	-1948
1018.315	-1464
1018.385	-969
1018.456	-1787
1018.526	-1612
1018.597	-1953
1018.667	-1358
1018.738	-1956
1018.808	-1505
1018.878	-1041
1018.949	-2176
1019.019	-1679
1019.089	-1125
1019.160	-1721
1019.230	-1505
1019.300	-1182
1019.371	-2729
1019.441	-1256
1019.511	-1725
1019.581	-1262
1019.651	-2034
1019.721	-1949
1019.791	-1794
1019.861	-1902
1019.931	-942
1020.001	-1294
1020.071	-1639
1020.141	-2017
1020.211	-2016
1020.281	-1661
1020.351	-2269
1020.421	-1390
1020.491	-1567
1020.560	-2281
1020.630	-1551
1020.700	-1340
1020.770	-2001
1020.839	-2376
1020.909	-1077
1020.979	-1604
1021.048	-1500
1021.118	-2574
1021.187	-1355
1021.257	-1385
1021.326	-1219
1021.396	-1953
1021.465	-1928
1021.535	-1645
1021.604	-2236
1021.674	-1982
1021.743	-2029
1021.812	-2329
1021.882	-1339
1021.951	-1519
1022.020	-1345
1022.089	-681
1022.159	-1992
1022.228	-1802
1022.297	-1669
1022.366	-1620
1022.435	-1900
1022.504	-1576
1022.573	-2539
1022.642	-836
1022.711	-1124
1022.781	-2320
1022.849	-996
1022.918	-1983
1022.987	-1258
1023.056	-2105
1023.125	-1636
1023.194	-2385
1023.263	-1819
1023.331	-1682
1023.400	-1746
1023.469	-1731
1023.538	-1159
1023.606	-2149
1023.675	-1806
1023.744	-1944
1023.812	-2617
1023.881	-1709
1023.949	-1529
1024.018	-1996
1024.086	-2080
1024.155	-1029
1024.223	-2699
1024.292	-2166
1024.360	-1567
1024.429	-1838
1024.497	-2005
1024.565	-2130
1024.634	-1928
1024.702	-2034
1024.770	-1461
1024.838	-1839
1024.907	-2210
1024.975	-2019
1025.043	-1512
1025.111	-2058
1025.179	-1970
1025.247	-1992
1025.315	-2561
1025.383	-1874
1025.451	-1532
1025.519	-1714
1025.587	-2592
1025.655	-1721
1025.723	-1926
1025.791	-2183
1025.859	-1735
1025.927	-1328
1025.995	-1284
1026.062	-2298
1026.130	-1663
1026.198	-2344
1026.266	-2742
1026.333	-1200
1026.401	-1549
1026.469	-2033
1026.536	-1888
1026.604	-1597
1026.671	-2712
1026.739	-2051
1026.806	-1668
1026.874	-1715
1026.941	-1967
1027.009	-2078
1027.076	-1925
1027.144	-1356
1027.211	-2627
1027.278	-2816
1027.345	-2211
1027.413	-1711
1027.480	-2328
1027.547	-1986
1027.614	-2186
1027.682	-1725
1027.749	-1839
1027.816	-1874
1027.883	-1776
1027.950	-1630
1028.017	-2607
1028.084	-2027
1028.151	-2392
1028.218	-2056
1028.285	-2174
1028.352	-1826
1028.419	-2733
1028.486	-1789
1028.553	-1325
1028.619	-1814
1028.686	-1976
1028.753	-2464
1028.820	-1806
1028.886	-1991
1028.953	-1915
1029.020	-1978
1029.086	-2126
1029.153	-2532
1029.220	-2712
1029.286	-2175
1029.353	-992
1029.419	-2270
1029.486	-1694
1029.552	-2028
1029.619	-2193
1029.685	-1640
1029.751	-1826
1029.818	-1867
1029.884	-2794
1029.951	-1184
1030.017	-2610
1030.083	-1718
1030.149	-1608
1030.216	-3356
1030.282	-1273
1030.348	-1748
1030.414	-2762
1030.480	-1615
1030.546	-2068
1030.612	-2186
1030.678	-2949
1030.744	-2450
1030.810	-1947
1030.876	-2015
1030.942	-2562
1031.008	-2571
1031.074	-2672
1031.140	-2009
1031.206	-1547
1031.272	-2191
1031.337	-2665
1031.403	-2541
1031.469	-2448
1031.534	-2251
1031.600	-1537
1031.666	-2509
1031.731	-2488
1031.797	-1651
1031.863	-2539
1031.928	-2543
1031.994	-1701
1032.059	-1339
1032.125	-2179
1032.190	-2621
1032.256	-2426
1032.321	-2207
1032.386	-2501
1032.452	-1315
1032.517	-1980
1032.582	-1756
1032.647	-2245
1032.713	-1212
1032.778	-2021
1032.843	-2667
1032.908	-2698
1032.974	-2073
1033.039	-2139
1033.104	-2070
1033.169	-1952
1033.234	-2103
1033.299	-1733
1033.364	-848
1033.429	-1375
1033.494	-1711
1033.559	-1869
1033.624	-1915
1033.688	-1322
1033.753	-1945
1033.818	-1023
1033.883	-1196
1033.948	-336
1034.013	-208
1034.077	351
1034.142	1679
1034.207	3326
1034.271	5953
1034.336	6533
1034.400	3455
1034.465	591
1034.530	69
1034.594	-1032
1034.658	-1935
1034.723	-1642
1034.787	-1943
1034.852	-1895
1034.916	-2253
1034.981	-2210
1035.045	-1227
1035.109	-2220
1035.173	-2133
1035.238	-3129
1035.302	-1569
1035.366	-1808
1035.430	-2048
1035.495	-2310
1035.559	-1064
1035.623	-1825
1035.687	-2007
1035.751	-2039
1035.815	-1876
1035.879	-2471
1035.943	-1401
1036.007	-1928
1036.071	-1885
1036.135	-1506
1036.198	-2606
1036.262	-2455
1036.326	-1102
1036.390	-1536
1036.454	-1449
1036.517	-1356
1036.581	-1280
1036.645	-1191
1036.709	-848
1036.772	-2000
1036.836	-1548
1036.900	-1280
1036.963	-2631
1037.026	-2208
1037.090	-2316
1037.154	-2184
1037.217	-2252
1037.280	-2483
1037.344	-1949
1037.407	-2921
1037.471	-1581
1037.534	-2560
1037.597	-1285
1037.661	-1337
1037.724	-1637
1037.787	-1909
1037.850	-2367
1037.913	-2187
1037.977	-1707
1038.040	-1949
1038.103	-2097
1038.166	-2263
1038.229	-2298
1038.292	-2119
1038.355	-2198
1038.418	-1551
1038.481	-2483
1038.544	-2558
1038.607	-1783
1038.670	-1578
1038.732	-2498
1038.795	-2660
1038.858	-1915
1038.921	-2246
1038.984	-1375
1039.046	-2389
1039.109	-2188
1039.172	-1683
1039.234	-2287
1039.297	-2571
1039.360	-1903
1039.422	-3167
1039.485	-2611
1039.547	-2805
1039.610	-1510
1039.672	-2319
1039.734	-2104
1039.797	-2544
1039.859	-1417
1039.922	-1879
1039.984	-2093
1040.046	-1810
1040.109	-2665
1040.171	-2116
1040.233	-1556
1040.295	-1807
1040.358	-2398
1040.420	-2275
1040.482	-2945
1040.544	-2349
1040.606	-2207
1040.668	-2630
1040.730	-1983
1040.792	-1787
1040.854	-2625
1040.916	-2411
1040.978	-2646
1041.040	-1971
1041.102	-1600
1041.164	-2679
1041.225	-2211
1041.287	-3382
1041.349	-1730
1041.411	-1972
1041.472	-2507
1041.534	-1944
1041.596	-2355
1041.657	-2231
1041.719	-2285
1041.781	-3014
1041.842	-2277
1041.904	-2068
1041.965	-1357
1042.027	-2158
1042.088	-2149
1042.150	-2343
1042.211	-2082
1042.272	-1569
1042.334	-1608
1042.395	-2117
1042.456	-2870
1042.518	-2340
1042.579	-2199
1042.640	-2883
1042.701	-2196
1042.763	-1848
1042.824	-1810
1042.885	-2689
1042.946	-2530
1043.007	-1735
1043.068	-2324
1043.129	-1948
1043.190	-2747
1043.251	-1816
1043.312	-1610
1043.373	-2576
1043.434	-1572
1043.495	-2095
1043.556	-1769
1043.616	-2493
1043.677	-2146
1043.738	-1806
1043.799	-2544
1043.859	-2457
1043.920	-2831
1043.981	-1302
1044.041	-2309
1044.102	-2056
1044.162	-1500
1044.223	-1868
1044.284	-1617
1044.344	-1436
1044.405	-1916
1044.465	-1611
1044.525	-2135
1044.586	-2359
1044.646	-1665
1044.707	-1878
1044.767	-2071
1044.827	-2684
1044.887	-2016
1044.948	-2406
1045.008	-2352
1045.068	-2344
1045.128	-2476
1045.188	-1566
1045.249	-1486
1045.309	-2187
1045.369	-1819
1045.429	-2370
1045.489	-1687
1045.549	-2530
1045.609	-1920
1045.669	-1823
1045.729	-2305
1045.789	-2147
1045.848	-1302
1045.908	-2124
1045.968	-1513
1046.028	-2400
1046.088	-2391
1046.147	-1552
1046.207	-2761
1046.267	-1554
1046.326	-2441
1046.386	-1887
1046.446	-1917
1046.505	-2261
1046.565	-1219
1046.624	-1520
1046.684	-950
1046.743	-765
1046.803	-977
1046.862	-936
1046.922	0
