'Start Wavelength	183.907
'End Wavelength	1046.922
'Gate Delay	5.000
'Gate Width (ms)	1.050
'Laser Output Level	0.000
'X Position	0.000
'Y Position	0.000
'Z Position	0.000
'Grid Point Number	1.000
'Shot Number	100.000
183.907	523.000
183.977	198.000
184.047	107
184.116	544
184.186	626
184.256	510
184.325	-549
184.395	69
184.465	750
184.534	1019
184.604	-367
184.674	1066
184.743	-352
184.813	1572
184.883	410
184.952	584
185.022	524
185.092	890
185.161	84
185.231	111
185.301	-398
185.370	674
185.440	369
185.509	452
185.579	293
185.649	393
185.718	457
185.788	1105
185.857	-642
185.927	903
185.996	99
186.066	1046
186.136	-61
186.205	124
186.275	540
186.344	495
186.414	707
186.483	-8
186.553	1079
186.622	1322
186.692	1387
186.761	503
186.831	433
186.900	764
186.970	1111
187.039	1448
187.109	876
187.178	830
187.248	1190
187.317	560
187.387	282
187.456	1338
187.526	1
187.595	424
187.664	463
187.734	1461
187.803	833
187.873	1014
187.942	748
188.012	668
188.081	749
188.150	859
188.220	1010
188.289	1498
188.358	266
188.428	1471
188.497	215
188.567	935
188.636	-325
188.705	1117
188.775	111
188.844	652
188.913	1117
188.983	762
189.052	228
189.121	1092
189.191	26
189.260	888
189.329	492
189.399	157
189.468	1188
189.537	509
189.606	798
189.676	779
189.745	-125
189.814	643
189.883	750
189.953	181
190.022	452
190.091	551
190.161	671
190.230	420
190.299	835
190.368	723
190.437	49
190.507	1095
190.576	771
190.645	1265
190.714	457
190.783	598
190.853	1261
190.922	1503
190.991	369
191.060	1111
191.129	-302
191.198	1649
191.268	423
191.337	867
191.406	580
191.475	650
191.544	-138
191.613	1149
191.682	997
191.752	942
191.821	505
191.890	1096
191.959	70
192.028	782
192.097	507
192.166	1130
192.235	121
192.304	597
192.373	189
192.442	680
192.511	780
192.580	1238
192.650	728
192.719	284
192.788	905
192.857	713
192.926	154
192.995	349
193.064	614
193.133	-83
193.202	58
193.271	1110
193.340	359
193.409	303
193.478	595
193.547	501
193.615	380
193.684	798
193.753	896
193.822	920
193.891	366
193.960	459
194.029	-44
194.098	517
194.167	-1051
194.236	1326
194.305	346
194.374	833
194.443	207
194.512	896
194.580	844
194.649	621
194.718	458
194.787	922
194.856	217
194.925	1731
194.994	372
195.062	1130
195.131	194
195.200	1339
195.269	-38
195.338	694
195.407	29
195.475	449
195.544	661
195.613	579
195.682	475
195.751	776
195.819	82
195.888	1628
195.957	194
196.026	88
196.094	490
196.163	1078
196.232	-127
196.301	416
196.369	351
196.438	283
196.507	137
196.576	683
196.644	826
196.713	293
196.782	307
196.850	1402
196.919	799
196.988	767
197.056	618
197.125	1270
197.194	-383
197.262	153
197.331	774
197.400	247
197.468	-317
197.537	244
197.606	465
197.674	976
197.743	132
197.812	82
197.880	386
197.949	-180
198.017	594
198.086	408
198.155	-116
198.223	1058
198.292	497
198.360	730
198.429	219
198.497	1128
198.566	-349
198.635	559
198.703	-585
198.772	299
198.840	569
198.909	330
198.977	173
199.046	-248
199.114	459
199.183	1459
199.251	387
199.320	333
199.388	315
199.457	542
199.525	275
199.594	1370
199.662	-337
199.731	662
199.799	-88
199.867	874
199.936	196
200.004	1135
200.073	406
200.141	1222
200.210	338
200.278	834
200.346	1115
200.415	1199
200.483	939
200.552	1581
200.620	1050
200.688	1402
200.757	1078
200.825	1138
200.893	-5
200.962	1033
201.030	205
201.098	225
201.167	1334
201.235	1211
201.303	253
201.372	1009
201.440	707
201.508	497
201.577	577
201.645	1062
201.713	672
201.781	1050
201.850	344
201.918	761
201.986	44
202.055	1580
202.123	-708
202.191	1045
202.259	808
202.327	752
202.396	72
202.464	869
202.532	190
202.600	1052
202.669	620
202.737	778
202.805	343
202.873	739
202.941	629
203.009	548
203.078	-213
203.146	1145
203.214	462
203.282	165
203.350	1027
203.418	907
203.487	929
203.555	596
203.623	-58
203.691	1291
203.759	-409
203.827	626
203.895	730
203.963	1127
204.031	1073
204.099	1078
204.168	442
204.236	1252
204.304	1106
204.372	863
204.440	222
204.508	505
204.576	-413
204.644	1206
204.712	97
204.780	706
204.848	833
204.916	427
204.984	309
205.052	1473
205.120	234
205.188	1000
205.256	-158
205.324	932
205.392	226
205.460	958
205.528	-936
205.596	1058
205.664	-100
205.732	821
205.799	-99
205.867	671
205.935	-823
206.003	479
206.071	-577
206.139	734
206.207	299
206.275	-341
206.343	116
206.411	386
206.478	516
206.546	900
206.614	210
206.682	175
206.750	680
206.818	2028
206.885	1161
206.953	476
207.021	1467
207.089	1052
207.157	-297
207.225	487
207.292	336
207.360	713
207.428	-545
207.496	144
207.563	391
207.631	1069
207.699	-285
207.767	846
207.834	61
207.902	1129
207.970	-222
208.038	458
208.105	-217
208.173	507
208.241	435
208.309	1006
208.376	471
208.444	1200
208.512	-278
208.579	-191
208.647	12
208.715	1930
208.782	503
208.850	348
208.918	39
208.985	628
209.053	67
209.120	684
209.188	-300
209.256	1317
209.323	-695
209.391	378
209.459	1185
209.526	395
209.594	-115
209.661	427
209.729	116
209.796	181
209.864	1531
209.932	279
209.999	535
210.067	710
210.134	179
210.202	888
210.269	931
210.337	1800
210.404	758
210.472	1821
210.539	-298
210.607	535
210.674	-317
210.742	1156
210.809	56
210.877	80
210.944	1269
211.012	-4
211.079	1326
211.146	820
211.214	1188
211.281	1796
211.349	1903
211.416	495
211.484	531
211.551	559
211.618	567
211.686	473
211.753	-92
211.821	1057
211.888	633
211.955	802
212.023	691
212.090	75
212.157	-185
212.225	1036
212.292	472
212.359	939
212.427	456
212.494	1242
212.561	129
212.629	1171
212.696	-67
212.763	1214
212.831	-840
212.898	1231
212.965	-126
213.032	1086
213.100	-95
213.167	14
213.234	914
213.301	442
213.369	7
213.436	-56
213.503	-677
213.570	432
213.638	-382
213.705	55
213.772	-586
213.839	188
213.906	979
213.973	498
214.041	-295
214.108	457
214.175	372
214.242	-29
214.309	548
214.376	1018
214.444	-151
214.511	730
214.578	187
214.645	1254
214.712	577
214.779	607
214.846	46
214.913	2046
214.980	1998
215.048	3107
215.115	2103
215.182	1986
215.249	935
215.316	860
215.383	621
215.450	1516
215.517	482
215.584	892
215.651	-521
215.718	1008
215.785	838
215.852	286
215.919	669
215.986	1074
216.053	416
216.120	865
216.187	-150
216.254	1020
216.321	-13
216.388	903
216.455	-210
216.522	1315
216.589	-328
216.656	832
216.722	-525
216.789	231
216.856	88
216.923	639
216.990	809
217.057	759
217.124	484
217.191	504
217.258	351
217.324	63
217.391	360
217.458	-52
217.525	83
217.592	404
217.659	-407
217.725	742
217.792	63
217.859	1277
217.926	281
217.993	324
218.059	394
218.126	774
218.193	-197
218.260	805
218.327	-123
218.393	382
218.460	383
218.527	613
218.594	320
218.660	765
218.727	827
218.794	-91
218.860	715
218.927	197
218.994	-99
219.061	632
219.127	444
219.194	733
219.261	502
219.327	138
219.394	1230
219.461	-201
219.527	804
219.594	1659
219.661	230
219.727	231
219.794	1588
219.860	1187
219.927	1927
219.994	4868
220.060	4509
220.127	6026
220.193	4565
220.260	1971
220.326	2251
220.393	1156
220.460	355
220.526	221
220.593	-818
220.659	2244
220.726	-401
220.792	1224
220.859	-274
220.925	773
220.992	31
221.058	633
221.125	50
221.191	485
221.258	274
221.324	869
221.391	125
221.457	866
221.524	203
221.590	741
221.657	666
221.723	160
221.789	256
221.856	759
221.922	-171
221.989	852
222.055	-145
222.121	623
222.188	2183
222.254	1232
222.321	1059
222.387	1268
222.453	238
222.520	1
222.586	-280
222.652	1652
222.719	36
222.785	1263
222.851	195
222.918	1220
222.984	-141
223.050	594
223.116	-1019
223.183	1815
223.249	-626
223.315	-297
223.382	426
223.448	1246
223.514	-317
223.580	956
223.647	-274
223.713	231
223.779	495
223.845	175
223.911	787
223.978	228
224.044	71
224.110	418
224.176	200
224.242	-61
224.309	-580
224.375	1232
224.441	417
224.507	1203
224.573	-1250
224.639	446
224.705	-251
224.772	152
224.838	-28
224.904	1040
224.970	231
225.036	-40
225.102	-993
225.168	1484
225.234	928
225.300	575
225.366	485
225.432	707
225.499	515
225.565	707
225.631	215
225.697	456
225.763	113
225.829	340
225.895	261
225.961	1227
226.027	1517
226.093	-299
226.159	1405
226.225	2200
226.291	1053
226.357	1335
226.423	-128
226.489	1888
226.554	286
226.620	991
226.686	805
226.752	1334
226.818	934
226.884	1571
226.950	531
227.016	1022
227.082	1467
227.148	1411
227.214	2197
227.279	1823
227.345	2408
227.411	4340
227.477	7248
227.543	8124
227.609	10011
227.674	10225
227.740	4759
227.806	3856
227.872	1573
227.938	2687
228.003	1916
228.069	1839
228.135	710
228.201	1434
228.267	226
228.332	408
228.398	-246
228.464	1536
228.530	-151
228.595	658
228.661	-220
228.727	686
228.792	1296
228.858	519
228.924	-1336
228.990	2714
229.055	-554
229.121	451
229.187	-456
229.252	29
229.318	353
229.384	310
229.449	-377
229.515	-386
229.581	-470
229.646	2560
229.712	-368
229.777	872
229.843	301
229.909	986
229.974	74
230.040	876
230.105	371
230.171	115
230.236	23
230.302	565
230.368	279
230.433	364
230.499	-98
230.564	683
230.630	-111
230.695	397
230.761	21
230.826	-838
230.892	1141
230.957	133
231.023	313
231.088	291
231.154	569
231.219	1158
231.284	-64
231.350	978
231.415	-1061
231.481	1289
231.546	-812
231.612	1309
231.677	230
231.742	-488
231.808	1129
231.873	515
231.939	-1606
232.004	1600
232.069	1092
232.135	235
232.200	-479
232.265	837
232.331	-495
232.396	-90
232.461	-142
232.527	670
232.592	-67
232.657	1133
232.723	628
232.788	349
232.853	1206
232.918	1105
232.984	-511
233.049	172
233.114	-304
233.179	1804
233.245	1487
233.310	619
233.375	-619
233.440	1449
233.506	-246
233.571	1469
233.636	158
233.701	675
233.766	103
233.832	419
233.897	-406
233.962	-627
234.027	1644
234.092	981
234.157	819
234.222	462
234.288	1592
234.353	927
234.418	739
234.483	1098
234.548	698
234.613	1045
234.678	-832
234.743	177
234.808	2118
234.873	-296
234.938	906
235.004	810
235.069	136
235.134	419
235.199	211
235.264	985
235.329	-734
235.394	964
235.459	864
235.524	-493
235.589	847
235.654	426
235.719	-544
235.784	1064
235.849	-18
235.913	1444
235.978	-164
236.043	598
236.108	-363
236.173	453
236.238	234
236.303	438
236.368	130
236.433	1024
236.498	-337
236.563	563
236.627	-332
236.692	1031
236.757	300
236.822	549
236.887	-196
236.952	1395
237.017	-1006
237.081	1302
237.146	-716
237.211	1017
237.276	-267
237.341	724
237.405	-649
237.470	92
237.535	1234
237.600	653
237.664	775
237.729	-213
237.794	-406
237.859	662
237.923	-602
237.988	877
238.053	1045
238.118	616
238.182	690
238.247	1925
238.312	-464
238.376	1061
238.441	-1308
238.506	1410
238.570	120
238.635	2873
238.700	200
238.764	30
238.829	553
238.893	521
238.958	1385
239.023	1124
239.087	620
239.152	2147
239.216	1122
239.281	1797
239.346	1282
239.410	1989
239.475	994
239.539	3004
239.604	1686
239.668	4068
239.733	5681
239.797	14185
239.862	17016
239.926	18590
239.991	12380
240.055	7095
240.120	3291
240.184	4086
240.249	1645
240.313	1791
240.378	858
240.442	2047
240.507	1608
240.571	1370
240.635	185
240.700	1861
240.764	1022
240.829	1223
240.893	-768
240.957	1630
241.022	810
241.086	1678
241.151	-166
241.215	-103
241.279	965
241.344	-395
241.408	702
241.472	-93
241.537	1210
241.601	1692
241.665	-385
241.730	272
241.794	783
241.858	896
241.922	252
241.987	1504
242.051	417
242.115	-553
242.179	-539
242.244	680
242.308	848
242.372	336
242.436	-412
242.501	1078
242.565	285
242.629	429
242.693	-170
242.757	333
242.822	-574
242.886	1384
242.950	686
243.014	72
243.078	561
243.142	694
243.206	-810
243.271	1155
243.335	-249
243.399	1669
243.463	-378
243.527	1215
243.591	-38
243.655	651
243.719	-100
243.783	1477
243.847	695
243.911	1010
243.975	-454
244.040	-387
244.104	1293
244.168	670
244.232	-280
244.296	1256
244.360	576
244.424	256
244.488	962
244.552	1148
244.615	-1333
244.679	524
244.743	-548
244.807	71
244.871	1168
244.935	1012
244.999	-276
245.063	843
245.127	1548
245.191	1157
245.255	189
245.319	1282
245.383	-1620
245.446	1946
245.510	-1028
245.574	1286
245.638	976
245.702	-83
245.766	431
245.829	2384
245.893	-421
245.957	296
246.021	972
246.085	1184
246.149	635
246.212	2106
246.276	2227
246.340	1148
246.404	570
246.467	1947
246.531	-591
246.595	1855
246.659	1161
246.722	-390
246.786	1018
246.850	969
246.913	95
246.977	190
247.041	1053
247.104	797
247.168	870
247.232	1560
247.295	2795
247.359	1903
247.423	599
247.486	1519
247.550	898
247.614	948
247.677	810
247.741	1733
247.804	497
247.868	1556
247.932	40
247.995	4709
248.059	1409
248.122	589
248.186	1626
248.249	2318
248.313	5488
248.376	6254
248.440	3673
248.503	830
248.567	2503
248.630	1131
248.694	1075
248.757	2401
248.821	5330
248.884	4528
248.948	1174
249.011	3947
249.075	6674
249.138	6299
249.202	2116
249.265	1208
249.328	1518
249.392	122
249.455	878
249.519	969
249.582	1450
249.645	1789
249.709	1698
249.772	820
249.835	14
249.899	1732
249.962	1738
250.025	1046
250.089	642
250.152	4418
250.215	908
250.279	505
250.342	1526
250.405	1067
250.468	107
250.532	729
250.595	698
250.658	200
250.721	12
250.785	280
250.848	1521
250.911	907
250.974	1217
251.038	1315
251.101	3486
251.164	1708
251.227	1024
251.290	1062
251.354	1051
251.417	990
251.480	449
251.543	1750
251.606	497
251.669	1983
251.732	717
251.795	2939
251.859	2335
251.922	425
251.985	1064
252.048	1443
252.111	638
252.174	176
252.237	1964
252.300	6429
252.363	1922
252.426	4102
252.489	882
252.552	885
252.615	-66
252.678	2024
252.741	3720
252.804	3162
252.867	1314
252.930	3811
252.993	1892
253.056	2640
253.119	682
253.182	734
253.245	-55
253.308	1518
253.371	224
253.434	1688
253.497	1232
253.559	4198
253.622	1766
253.685	899
253.748	1197
253.811	1068
253.874	1750
253.937	943
254.000	977
254.062	1962
254.125	2854
254.188	3254
254.251	1845
254.314	1851
254.376	915
254.439	2016
254.502	790
254.565	2130
254.628	4338
254.690	2168
254.753	1055
254.816	1549
254.878	1315
254.941	2686
255.004	2335
255.067	1869
255.129	904
255.192	1970
255.255	350
255.317	1988
255.380	1518
255.443	1830
255.505	1712
255.568	925
255.631	766
255.693	2157
255.756	1188
255.819	3653
255.881	2272
255.944	1977
256.006	765
256.069	902
256.132	940
256.194	2125
256.257	890
256.319	1795
256.382	2401
256.444	7120
256.507	3793
256.569	2909
256.632	500
256.694	1084
256.757	1303
256.819	1898
256.882	-699
256.944	1537
257.007	1773
257.069	1463
257.132	1040
257.194	2367
257.257	624
257.319	1449
257.381	197
257.444	1402
257.506	1116
257.569	2146
257.631	3323
257.693	1771
257.756	1043
257.818	990
257.880	997
257.943	1802
258.005	885
258.067	1469
258.130	1347
258.192	1252
258.254	2000
258.317	2014
258.379	1512
258.441	2550
258.503	2798
258.566	2000
258.628	1842
258.690	1159
258.753	1939
258.815	1962
258.877	1148
258.939	1249
259.001	1424
259.064	1159
259.126	218
259.188	1565
259.250	1679
259.312	2451
259.375	2668
259.437	2466
259.499	736
259.561	1987
259.623	1306
259.685	903
259.747	1629
259.809	2472
259.872	1851
259.934	3128
259.996	3719
260.058	1799
260.120	854
260.182	3002
260.244	1500
260.306	1752
260.368	2129
260.430	1309
260.492	1538
260.554	3337
260.616	2521
260.678	2991
260.740	2070
260.802	2227
260.864	1778
260.926	1609
260.988	1909
261.050	1935
261.112	527
261.174	2724
261.236	2339
261.298	1791
261.359	2166
261.421	2680
261.483	985
261.545	2827
261.607	1380
261.669	1752
261.731	1888
261.793	3473
261.854	405
261.916	1760
261.978	1083
262.040	1549
262.102	2604
262.164	2248
262.225	1866
262.287	2747
262.349	1801
262.411	2425
262.472	2235
262.534	1497
262.596	1351
262.658	3058
262.719	1343
262.781	2763
262.843	1291
262.904	2535
262.966	1901
263.028	2091
263.090	1826
263.151	2507
263.213	2330
263.275	2036
263.336	1063
263.398	2512
263.459	1751
263.521	2305
263.583	3268
263.644	3009
263.706	1686
263.767	1487
263.829	1551
263.891	2910
263.952	1417
264.014	1997
264.075	1167
264.137	2406
264.198	1944
264.260	1574
264.321	715
264.383	2058
264.444	2064
264.506	1998
264.567	1598
264.629	2126
264.690	197
264.752	3230
264.813	2062
264.875	1724
264.936	2703
264.998	2082
265.059	2336
265.120	3299
265.182	1727
265.243	2068
265.305	1897
265.366	2566
265.427	1384
265.489	3313
265.550	602
265.611	1895
265.673	1308
265.734	2754
265.795	1777
265.857	1409
265.918	107
265.979	2568
266.040	1148
266.102	2356
266.163	2177
266.224	2301
266.286	1744
266.347	1490
266.408	1671
266.469	2502
266.530	1726
266.592	1402
266.653	2369
266.714	2665
266.775	1005
266.836	2286
266.898	1161
266.959	1819
267.020	1432
267.081	3394
267.142	1607
267.203	1879
267.264	1492
267.326	2911
267.387	1750
267.448	1867
267.509	2396
267.570	2007
267.631	1531
267.692	1983
267.753	2115
267.814	1648
267.875	1781
267.936	2949
267.997	1488
268.058	2061
268.119	1822
268.180	2391
268.241	541
268.302	2000
268.363	1109
268.424	3197
268.485	1477
268.546	1775
268.607	1389
268.668	1690
268.729	1284
268.790	2527
268.851	1950
268.912	1901
268.972	2489
269.033	2181
269.094	1817
269.155	2381
269.216	1911
269.277	2242
269.338	1815
269.398	2576
269.459	1676
269.520	2317
269.581	1529
269.642	2048
269.702	1737
269.763	1718
269.824	1936
269.885	2424
269.945	2183
270.006	3081
270.067	1516
270.128	2046
270.188	1559
270.249	2311
270.310	1907
270.370	2843
270.431	1937
270.492	2098
270.553	1891
270.613	3007
270.674	2387
270.734	1959
270.795	1799
270.856	2298
270.916	1114
270.977	2226
271.038	2289
271.098	3113
271.159	2207
271.219	3141
271.280	2834
271.340	3013
271.401	1879
271.462	3031
271.522	2161
271.583	2413
271.643	1852
271.704	2394
271.764	2081
271.825	2947
271.885	6507
271.946	10710
272.006	4446
272.066	5428
272.127	10781
272.187	17731
272.248	10468
272.308	4019
272.369	6530
272.429	5909
272.489	3294
272.550	2838
272.610	3530
272.671	3062
272.731	2357
272.791	4239
272.852	3377
272.912	2726
272.972	2482
273.033	2493
273.093	2259
273.153	3149
273.214	1938
273.274	1943
273.334	2696
273.394	6891
273.455	3538
273.515	3473
273.575	4695
273.635	3920
273.696	3696
273.756	7173
273.816	4594
273.876	4298
273.936	2598
273.997	4048
274.057	2370
274.117	3397
274.177	2604
274.237	6591
274.297	7242
274.358	3262
274.418	4464
274.478	4983
274.538	2896
274.598	2712
274.658	3346
274.718	3055
274.778	2568
274.838	3277
274.898	2859
274.958	4862
275.018	6622
275.078	6436
275.138	3881
275.198	3298
275.258	2792
275.318	3810
275.378	3221
275.438	3797
275.498	3099
275.558	3897
275.618	4232
275.678	5378
275.738	4712
275.798	3961
275.858	2985
275.918	4000
275.978	2636
276.038	4069
276.098	3465
276.157	4085
276.217	5197
276.277	5054
276.337	3490
276.397	3667
276.457	4248
276.517	4356
276.576	3425
276.636	3497
276.696	3598
276.756	4127
276.815	3482
276.875	3438
276.935	2936
276.995	4173
277.055	4490
277.114	6317
277.174	3580
277.234	4322
277.293	2364
277.353	3024
277.413	2436
277.472	2661
277.532	2021
277.592	4157
277.651	3782
277.711	7306
277.771	3411
277.830	8048
277.890	7417
277.950	5561
278.009	15037
278.069	8750
278.128	6682
278.188	8216
278.248	5202
278.307	8993
278.367	6683
278.426	3961
278.486	3690
278.545	3148
278.605	2924
278.664	2782
278.724	3365
278.783	4581
278.843	8158
278.902	4623
278.962	3258
279.021	3327
279.081	3405
279.140	3032
279.199	3364
279.259	3900
279.318	3934
279.378	4227
279.437	5924
279.496	20177
279.556	31201
279.615	24239
279.675	7244
279.734	6333
279.793	7950
279.853	20629
279.912	9456
279.971	5276
280.031	5868
280.090	8727
280.149	17551
280.208	8304
280.268	15910
280.327	20013
280.386	5633
280.445	5842
280.505	4226
280.564	3897
280.623	3753
280.682	3747
280.742	4399
280.801	4599
280.860	2375
280.919	4035
280.978	3836
281.037	3544
281.097	3152
281.156	3877
281.215	2764
281.274	4080
281.333	5802
281.392	5203
281.451	2586
281.510	3294
281.569	3554
281.628	4398
281.688	3892
281.747	4334
281.806	3342
281.865	3560
281.924	2726
281.983	4149
282.042	3647
282.101	3792
282.160	3709
282.219	3532
282.278	3946
282.337	4365
282.396	4220
282.454	5257
282.513	3905
282.572	5378
282.631	3770
282.690	4001
282.749	2743
282.808	3722
282.867	3158
282.926	4072
282.985	3313
283.043	4196
283.102	3767
283.161	2840
283.220	3777
283.279	5655
283.338	4192
283.396	3718
283.455	4245
283.514	4287
283.573	3939
283.631	4500
283.690	3705
283.749	3865
283.808	3939
283.866	4662
283.925	3420
283.984	4206
284.043	3872
284.101	4322
284.160	3484
284.219	4027
284.277	3760
284.336	4962
284.395	5598
284.453	5799
284.512	3980
284.570	5042
284.629	4601
284.688	4799
284.746	4061
284.805	5549
284.863	5104
284.922	5317
284.981	5519
285.039	8898
285.098	12388
285.156	26443
285.215	66460
285.273	72207
285.332	33977
285.390	17350
285.449	11149
285.507	9085
285.566	6553
285.624	6830
285.683	5906
285.741	4563
285.799	3735
285.858	5190
285.916	3843
285.975	4843
286.033	3814
286.091	4300
286.150	3022
286.208	4456
286.267	3879
286.325	4824
286.383	4068
286.442	4952
286.500	4343
286.558	4151
286.616	3635
286.675	5498
286.733	3639
286.791	4190
286.850	4664
286.908	3765
286.966	3640
287.024	4266
287.083	3172
287.141	3216
287.199	4091
287.257	4928
287.315	4017
287.374	4433
287.432	3542
287.490	5124
287.548	3482
287.606	3760
287.664	4331
287.723	4555
287.781	4076
287.839	5231
287.897	3930
287.955	4615
288.013	3987
288.071	4785
288.129	3019
288.187	5112
288.245	4159
288.303	4546
288.361	4510
288.419	4004
288.477	3392
288.535	4920
288.593	3446
288.651	5014
288.709	3663
288.767	4177
288.825	3500
288.883	4534
288.941	4158
288.999	4239
289.057	4209
289.115	4756
289.173	4052
289.231	4735
289.289	4141
289.346	4805
289.404	5015
289.462	4509
289.520	3867
289.578	4325
289.636	4005
289.694	4881
289.751	5025
289.809	5054
289.867	5261
289.925	5324
289.983	4090
290.040	5127
290.098	3885
290.156	4567
290.214	4866
290.271	4593
290.329	5210
290.387	5756
290.444	3656
290.502	4782
290.560	4394
290.617	4779
290.675	3683
290.733	5328
290.790	4841
290.848	5532
290.906	3883
290.963	4962
291.021	4547
291.078	5417
291.136	4121
291.194	4481
291.251	4427
291.309	4456
291.366	4590
291.424	5353
291.481	4774
291.539	5380
291.596	4466
291.654	5026
291.711	5158
291.769	4358
291.826	4795
291.884	5357
291.941	4150
291.999	4392
292.056	4761
292.114	4523
292.171	4434
292.228	6275
292.286	4876
292.343	5356
292.401	4638
292.458	5622
292.515	4227
292.573	6255
292.630	5336
292.687	4906
292.745	4523
292.802	4282
292.859	4834
292.917	6152
292.974	5527
293.031	5332
293.089	4136
293.146	5111
293.203	3787
293.260	5177
293.318	4667
293.375	5247
293.432	4099
293.489	6100
293.546	4484
293.604	4712
293.661	5618
293.718	10940
293.775	6606
293.832	6619
293.889	5903
293.947	6095
294.004	5237
294.061	5226
294.118	4817
294.175	6823
294.232	4748
294.289	5194
294.346	4603
294.403	4856
294.460	5076
294.517	5235
294.574	5173
294.631	6014
294.688	4699
294.745	5983
294.802	9584
294.859	8537
294.916	4969
294.973	5406
295.030	4659
295.087	5179
295.144	4390
295.201	5005
295.258	4861
295.315	6101
295.372	5239
295.429	8640
295.486	6203
295.542	5109
295.599	4759
295.656	5980
295.713	4961
295.770	8200
295.827	4794
295.883	5190
295.940	4601
295.997	4884
296.054	4669
296.111	4542
296.167	4699
296.224	5122
296.281	3749
296.338	4816
296.394	4137
296.451	4522
296.508	4825
296.564	6763
296.621	6375
296.678	9301
296.734	13253
296.791	8154
296.848	5202
296.904	5429
296.961	5761
297.018	7843
297.074	6501
297.131	5683
297.187	5532
297.244	6158
297.301	9118
297.357	16643
297.414	8040
297.470	6653
297.527	4212
297.583	5081
297.640	4034
297.696	5167
297.753	4968
297.809	5648
297.866	3606
297.922	4680
297.979	3779
298.035	4613
298.092	4192
298.148	6456
298.204	6330
298.261	5899
298.317	6543
298.374	11920
298.430	8376
298.486	5535
298.543	4858
298.599	5065
298.656	4029
298.712	5211
298.768	5136
298.824	5437
298.881	4126
298.937	5523
298.993	4552
299.050	5312
299.106	4564
299.162	5382
299.218	5428
299.275	5193
299.331	5745
299.387	8113
299.443	14386
299.500	34041
299.556	31260
299.612	14580
299.668	12874
299.724	27762
299.780	37897
299.837	17357
299.893	11921
299.949	22797
300.005	36664
300.061	27990
300.117	41266
300.173	23551
300.229	12094
300.285	8966
300.341	8008
300.397	8024
300.453	7643
300.510	9189
300.566	10068
300.622	15791
300.678	40222
300.734	57758
300.790	28790
300.845	21692
300.901	25812
300.957	40192
301.013	21202
301.069	12263
301.125	7848
301.181	7344
301.237	6462
301.293	6489
301.349	6256
301.405	5631
301.461	5205
301.516	5600
301.572	5244
301.628	6294
301.684	4916
301.740	5505
301.796	6537
301.851	6282
301.907	6590
301.963	7170
302.019	9590
302.074	22156
302.130	23951
302.186	12348
302.242	7343
302.297	6013
302.353	5765
302.409	6988
302.464	6724
302.520	6581
302.576	8305
302.631	9933
302.687	5637
302.743	6096
302.798	4470
302.854	4927
302.910	4617
302.965	4679
303.021	4830
303.076	5582
303.132	4284
303.187	6335
303.243	5309
303.299	5712
303.354	4316
303.410	5046
303.465	4914
303.521	5340
303.576	4842
303.632	5623
303.687	6130
303.743	10326
303.798	9526
303.853	6327
303.909	4851
303.964	4881
304.020	4654
304.075	5738
304.130	4904
304.186	5463
304.241	6368
304.297	5551
304.352	4792
304.358	4837
304.407	5204
304.449	5608
304.463	5752
304.518	5024
304.539	4976
304.573	4883
304.629	5525
304.630	5505
304.684	4781
304.720	6843
304.739	7884
304.794	10623
304.811	9922
304.850	8226
304.902	5661
304.905	5496
304.960	5256
304.992	4438
305.015	3839
305.071	4485
305.083	4395
305.126	4059
305.173	4084
305.181	4092
305.236	3081
305.264	3416
305.292	3757
305.347	4744
305.354	4751
305.402	4807
305.445	4455
305.457	4347
305.512	4662
305.535	4372
305.567	3958
305.622	4456
305.626	4435
305.678	4376
305.716	6084
305.733	6721
305.788	7251
305.807	6717
305.843	5856
305.897	7811
305.898	7832
305.953	8853
305.988	6633
306.008	5456
306.063	4807
306.078	4648
306.118	4173
306.168	4129
306.173	4121
306.228	3098
306.259	3494
306.283	3916
306.338	3205
306.349	3420
306.393	4081
306.440	3626
306.448	3575
306.503	5040
306.530	4287
306.558	3375
306.613	4099
306.620	3998
306.668	3830
306.711	4975
306.723	5158
306.778	5403
306.801	5198
306.833	4876
306.888	3476
306.892	3494
306.943	4109
306.982	3850
306.997	3707
307.052	3437
307.072	3385
307.107	3318
307.162	3870
307.163	3863
307.217	3208
307.253	3383
307.272	3476
307.327	3573
307.343	3670
307.381	3821
307.434	3133
307.436	3116
307.491	3750
307.524	3960
307.546	3986
307.600	4683
307.614	4444
307.655	3457
307.704	3128
307.710	3140
307.765	2999
307.795	3138
307.819	3144
307.874	2524
307.885	2597
307.929	3220
307.975	4000
307.984	4073
308.038	4087
308.065	3540
308.093	3012
308.148	3036
308.156	2992
308.202	2871
308.246	2752
308.257	2745
308.312	2865
308.336	3163
308.366	3320
308.421	3112
308.426	3057
308.475	2714
308.517	2426
308.530	2364
308.585	2964
308.607	2850
308.639	2529
308.694	2711
308.697	2681
308.748	2445
308.787	2448
308.803	2401
308.857	2265
308.877	2463
308.912	2812
308.967	2210
308.967	2221
309.021	3502
309.058	3320
309.076	3108
309.130	3960
309.148	3920
309.185	4275
309.238	5321
309.239	5314
309.293	4490
309.328	4001
309.348	3966
309.402	3069
309.418	3081
309.457	3513
309.508	4123
309.511	4134
309.566	3983
309.598	3951
309.620	4080
309.674	4679
309.688	4845
309.729	5239
309.778	5211
309.783	5137
309.837	4559
309.868	4221
309.892	4455
309.946	4845
309.959	5056
310.001	5572
310.049	5994
310.055	5931
310.109	4962
310.139	4322
310.163	3869
310.218	3226
310.229	3126
310.272	3276
310.319	3356
310.326	3322
310.381	2943
310.409	3029
310.435	3308
310.489	3406
310.499	3454
310.543	3353
310.589	3161
310.598	3170
310.652	3346
310.679	3407
310.706	3610
310.760	4092
310.769	4156
310.814	4138
310.859	4062
310.868	4031
310.923	3917
310.948	3877
310.977	3956
311.031	3994
311.038	4032
311.085	3996
311.128	3657
311.139	3681
311.193	4196
311.218	4303
311.247	4178
311.301	4102
311.308	4074
311.356	4084
311.398	4198
311.410	4073
311.464	3424
311.488	3196
311.518	3253
311.572	3246
311.578	3248
311.626	3400
311.668	3643
311.680	3735
311.734	4074
311.758	4245
311.788	4282
311.842	4354
311.847	4364
311.896	4354
311.937	4333
311.950	4194
312.004	3612
312.027	3374
312.058	3672
312.112	4212
312.117	4266
312.165	3944
312.207	3677
312.297	4042
312.386	4389
312.476	3556
312.566	3754
312.656	4671
312.745	4004
312.835	4938
312.925	5043
313.015	4834
313.104	5003
313.194	6000
313.284	5633
313.374	5643
313.463	6638
313.553	6636
313.643	6374
313.732	6666
313.822	6369
313.912	8174
314.001	8356
314.091	8712
314.180	7675
314.270	8597
314.360	7491
314.449	8622
314.539	7790
314.628	8695
314.718	8688
314.808	9679
314.897	9512
314.987	9931
315.076	10505
315.166	9550
315.255	9691
315.345	9459
315.434	8342
315.524	8726
315.613	8573
315.703	10635
315.792	19707
315.881	50421
315.971	20224
316.060	10692
316.150	8575
316.239	9246
316.328	8347
316.418	8966
316.507	9619
316.597	11981
316.686	11358
316.775	10228
316.865	9823
316.954	8830
317.043	8440
317.133	7397
317.222	7116
317.311	6927
317.400	5352
317.490	7986
317.579	7340
317.668	8838
317.757	11521
317.847	27825
317.936	74385
318.025	28046
318.114	22590
318.203	14387
318.293	9863
318.382	13750
318.471	15241
318.560	13733
318.649	10770
318.738	8370
318.828	6358
318.917	5657
319.006	6206
319.095	5445
319.184	6698
319.273	6436
319.362	7011
319.451	6155
319.540	6033
319.629	6483
319.718	6135
319.807	7120
319.896	6213
319.985	7896
320.074	7961
320.163	7265
320.252	6495
320.341	7673
320.430	7556
320.519	8951
320.608	9286
320.697	10786
320.786	12247
320.875	13818
320.964	14982
321.053	14474
321.142	16613
321.230	18613
321.319	19508
321.408	20838
321.497	20107
321.586	18235
321.675	15926
321.764	15524
321.852	15716
321.941	16778
322.030	16221
322.119	17711
322.207	20935
322.296	22805
322.385	24241
322.474	27775
322.562	27601
322.651	23359
322.740	19046
322.829	17215
322.917	14418
323.006	13954
323.095	13461
323.183	11562
323.272	10166
323.361	10212
323.449	10454
323.538	9222
323.626	10008
323.715	9556
323.804	8401
323.892	8437
323.981	8379
324.069	8742
324.158	7757
324.246	7633
324.335	8070
324.424	8601
324.512	7866
324.601	7649
324.689	7257
324.778	7389
324.866	8093
324.954	6849
325.043	6796
325.131	5475
325.220	8276
325.308	7514
325.397	6546
325.485	6799
325.574	6924
325.662	6573
325.750	6007
325.839	7256
325.927	6249
326.015	6516
326.104	5742
326.192	6301
326.280	6776
326.369	6497
326.457	5685
326.545	5966
326.634	5774
326.722	6966
326.810	7362
326.898	8287
326.987	7451
327.075	7279
327.163	7709
327.251	6941
327.340	7951
327.428	9308
327.516	12250
327.604	9950
327.692	8050
327.781	6457
327.869	5998
327.957	6308
328.045	5094
328.133	5989
328.221	5546
328.309	5690
328.397	5990
328.485	7473
328.574	10755
328.662	15320
328.750	11448
328.838	8400
328.926	7301
329.014	6390
329.102	6072
329.190	7171
329.278	6124
329.366	6282
329.454	5887
329.542	6700
329.630	5540
329.718	6622
329.806	6098
329.893	6793
329.981	5675
330.069	6920
330.157	6568
330.245	6313
330.333	5901
330.421	6052
330.509	6289
330.597	6943
330.684	5907
330.772	5414
330.860	5815
330.948	5829
331.036	5726
331.123	5227
331.211	6178
331.299	6001
331.387	5494
331.475	6963
331.562	5748
331.650	6586
331.738	5828
331.825	6186
331.913	5883
332.001	5645
332.089	5637
332.176	5831
332.264	5895
332.352	5477
332.439	6244
332.527	6681
332.614	5487
332.702	7148
332.790	6816
332.877	5757
332.965	7332
333.052	7383
333.140	7669
333.228	7646
333.315	7827
333.403	7552
333.490	8303
333.578	7949
333.665	10079
333.753	10115
333.840	9841
333.928	11630
334.015	12665
334.103	15603
334.190	20016
334.278	24935
334.365	33421
334.452	33639
334.540	25690
334.627	27309
334.715	32531
334.802	42259
334.889	56502
334.977	69272
335.064	49198
335.151	29817
335.239	22992
335.326	19682
335.413	18853
335.501	19721
335.588	22051
335.675	23673
335.762	29364
335.850	39328
335.937	52586
336.024	74183
336.111	95586
336.199	83731
336.286	48570
336.373	31014
336.460	22335
336.547	18473
336.635	15350
336.722	14354
336.809	12731
336.896	11146
336.983	11123
337.070	11362
337.157	9524
337.245	10803
337.332	11086
337.419	10914
337.506	9767
337.593	9951
337.680	9753
337.767	9666
337.854	8773
337.941	8730
338.028	8620
338.115	7046
338.202	9291
338.289	8393
338.376	7916
338.463	7912
338.550	6822
338.637	8052
338.724	7130
338.811	7145
338.898	7565
338.984	7554
339.071	6142
339.158	7481
339.245	7702
339.332	6775
339.419	6002
339.506	7354
339.593	6277
339.679	7148
339.766	6784
339.853	6576
339.940	6420
340.027	6506
340.113	6251
340.200	7724
340.287	6664
340.374	6460
340.460	6755
340.547	4989
340.634	6584
340.720	7474
340.807	5571
340.894	6499
340.980	7089
341.067	6549
341.154	7822
341.240	6700
341.327	7461
341.414	8171
341.500	6044
341.587	7563
341.674	6894
341.760	7310
341.847	6208
341.933	7123
342.020	5947
342.106	7363
342.193	6442
342.279	6276
342.366	5849
342.452	6650
342.539	6334
342.625	7288
342.712	7346
342.798	6652
342.885	5861
342.971	5949
343.058	6217
343.144	6854
343.230	6932
343.317	7100
343.403	6154
343.490	7423
343.576	6177
343.662	6347
343.749	5943
343.835	7510
343.921	7097
344.008	13580
344.094	23351
344.180	9634
344.267	6714
344.353	8305
344.439	8228
344.525	5712
344.612	6456
344.698	6189
344.784	5445
344.870	5932
344.957	5679
345.043	7226
345.129	5687
345.215	7008
345.301	5732
345.387	7152
345.474	5829
345.560	5868
345.646	5432
345.732	6774
345.818	5502
345.904	6882
345.990	6169
346.076	5930
346.162	5516
346.249	6905
346.335	6268
346.421	6637
346.507	7663
346.593	10388
346.679	6077
346.765	9041
346.851	12330
346.937	11256
347.023	8941
347.108	6624
347.194	6398
347.280	6742
347.366	9647
347.452	22765
347.538	30916
347.624	17148
347.710	11250
347.796	7159
347.882	7705
347.967	7253
348.053	6172
348.139	7313
348.225	6830
348.311	6538
348.397	7006
348.482	8027
348.568	7750
348.654	12033
348.740	31884
348.825	36714
348.911	18756
348.997	13281
349.083	14834
349.168	7820
349.254	7715
349.340	7494
349.425	6526
349.511	7970
349.597	6963
349.682	8624
349.768	10059
349.854	8018
349.939	7519
350.025	7789
350.110	7433
350.196	7237
350.282	6593
350.367	8246
350.453	6916
350.538	6724
350.624	6369
350.709	7739
350.795	6079
350.880	6148
350.966	7718
351.051	7185
351.137	5684
351.222	6071
351.308	7006
351.393	7804
351.479	6601
351.564	6477
351.649	6537
351.735	6138
351.820	6227
351.906	6747
351.991	5811
352.076	6497
352.162	7636
352.247	5764
352.332	6741
352.418	6780
352.503	6229
352.588	8458
352.673	6779
352.759	6782
352.844	6147
352.929	6157
353.014	6336
353.100	6756
353.185	7983
353.270	7719
353.355	7144
353.441	7550
353.526	5907
353.611	6392
353.696	5400
353.781	6453
353.866	6115
353.952	7481
354.037	5801
354.122	7294
354.207	5704
354.292	6355
354.377	6235
354.462	5968
354.547	6069
354.632	7050
354.717	7553
354.802	8589
354.887	7322
354.972	6076
355.057	5916
355.142	6080
355.227	7362
355.312	6108
355.397	6038
355.482	7283
355.567	6148
355.652	7741
355.737	7261
355.822	9182
355.907	8164
355.991	7292
356.076	5779
356.161	6995
356.246	6587
356.331	7603
356.416	7690
356.501	15252
356.585	12731
356.670	7697
356.755	9836
356.840	8054
356.924	14973
357.009	25427
357.094	12404
357.179	7697
357.263	6810
357.348	8100
357.433	7060
357.517	7588
357.602	6434
357.687	7091
357.771	8923
357.856	7746
357.941	7495
358.025	11626
358.110	28517
358.195	15575
358.279	7757
358.364	8586
358.448	8672
358.533	12232
358.617	9824
358.702	11026
358.787	8750
358.871	8288
358.956	8382
359.040	8115
359.125	7127
359.209	8261
359.294	8981
359.378	12633
359.462	12668
359.547	8522
359.631	6219
359.716	6917
359.800	7078
359.885	7582
359.969	6913
360.053	8519
360.138	7131
360.222	7340
360.306	7817
360.391	8188
360.475	8312
360.559	8661
360.644	8978
360.728	8747
360.812	12502
360.896	19102
360.981	10277
361.065	8596
361.149	9724
361.233	9217
361.318	8221
361.402	9622
361.486	10676
361.570	10434
361.654	10628
361.739	11808
361.823	18030
361.907	24970
361.991	16921
362.075	19428
362.159	25676
362.243	45704
362.327	90922
362.411	113907
362.495	53908
362.580	32658
362.664	30971
362.748	36643
362.832	55564
362.916	100247
363.000	195832
363.084	219911
363.168	106973
363.252	48039
363.336	30687
363.420	24040
363.503	20534
363.587	19461
363.671	19558
363.755	20187
363.839	22465
363.923	25073
364.007	31724
364.091	44954
364.175	66292
364.258	121144
364.342	224588
364.426	292633
364.510	174978
364.594	79098
364.677	44892
364.761	34821
364.845	25963
364.929	19010
365.013	15114
365.096	13906
365.180	12514
365.264	11862
365.347	12077
365.431	10757
365.515	9458
365.598	9710
365.682	12248
365.766	9866
365.849	11221
365.933	10310
366.017	11669
366.100	10223
366.184	10780
366.267	11340
366.351	10656
366.435	10245
366.518	10099
366.602	10512
366.685	10439
366.769	10637
366.852	10125
366.936	10152
367.019	9774
367.103	9427
367.186	11037
367.270	10108
367.353	9934
367.436	12946
367.520	12189
367.603	12277
367.687	10683
367.770	10633
367.853	11349
367.937	12235
368.020	13396
368.104	9682
368.187	9863
368.270	9078
368.353	9029
368.437	8875
368.520	9184
368.603	8457
368.687	9341
368.770	11624
368.853	7597
368.936	9035
369.020	9119
369.103	7767
369.186	8157
369.269	8284
369.352	8927
369.436	8250
369.519	8915
369.602	6799
369.685	9692
369.768	6511
369.851	8551
369.934	7904
370.018	7986
370.101	6755
370.184	10051
370.267	8905
370.350	8192
370.433	8895
370.516	16864
370.599	34041
370.682	17250
370.765	11107
370.848	11223
370.931	11525
371.014	9772
371.097	6992
371.180	8662
371.263	8472
371.346	5591
371.429	8155
371.511	6460
371.594	7511
371.677	8042
371.760	9329
371.843	7861
371.926	16533
372.009	26865
372.091	14798
372.174	8403
372.257	15143
372.340	9141
372.423	7974
372.505	9593
372.588	7202
372.671	8966
372.754	11484
372.836	9121
372.919	8674
373.002	8993
373.085	8047
373.167	9379
373.250	10208
373.332	13824
373.415	20725
373.498	33231
373.580	21316
373.663	48752
373.746	51216
373.828	15162
373.911	11718
373.993	9532
374.076	9741
374.159	10131
374.241	10662
374.324	13446
374.406	13290
374.489	15524
374.571	28556
374.654	15005
374.736	12663
374.819	20593
374.901	27353
374.983	26549
375.066	14490
375.148	12325
375.231	12375
375.313	14039
375.395	13051
375.478	11845
375.560	13334
375.643	12378
375.725	14063
375.807	22658
375.890	18540
375.972	10061
376.054	11621
376.136	10179
376.219	11012
376.301	12408
376.383	17889
376.465	12121
376.548	9270
376.630	10351
376.712	15513
376.794	10958
376.877	8312
376.959	7238
377.041	8625
377.123	7809
377.205	9137
377.287	7946
377.369	9836
377.452	9083
377.534	9751
377.616	9426
377.698	9433
377.780	7950
377.862	8562
377.944	9279
378.026	7742
378.108	8789
378.190	8891
378.272	9089
378.354	8063
378.436	7758
378.518	7525
378.600	8052
378.682	8598
378.764	9887
378.846	9996
378.928	7689
379.010	7930
379.091	8235
379.173	8572
379.255	7580
379.337	8060
379.419	8242
379.501	11513
379.583	8377
379.664	7945
379.746	7462
379.828	10945
379.910	9307
379.991	9871
380.073	8153
380.155	7513
380.237	7399
380.318	7309
380.400	7761
380.482	8057
380.564	7402
380.645	10233
380.727	7855
380.809	8484
380.890	7965
380.972	6704
381.053	6472
381.135	7950
381.217	7118
381.298	10250
381.380	7981
381.461	8332
381.543	12545
381.624	15107
381.706	7910
381.787	8184
381.869	8400
381.951	11679
382.032	23636
382.113	17907
382.195	7234
382.276	10185
382.358	10363
382.439	15087
382.521	16026
382.602	22471
382.684	12468
382.765	15450
382.846	15140
382.928	18572
383.009	13136
383.090	12875
383.172	26515
383.253	32875
383.334	18001
383.416	20321
383.497	14776
383.578	10186
383.659	13735
383.741	26714
383.822	52332
383.903	28224
383.984	15401
384.066	21374
384.147	14928
384.228	14072
384.309	13457
384.390	14345
384.471	14165
384.553	13093
384.634	12441
384.715	11975
384.796	11198
384.877	10164
384.958	12435
385.039	10742
385.120	10146
385.201	11229
385.282	10461
385.363	12174
385.444	12864
385.525	14163
385.606	19034
385.687	17952
385.768	14515
385.849	14575
385.930	22754
386.011	29952
386.092	16567
386.173	14618
386.254	14333
386.335	15461
386.416	13320
386.496	15443
386.577	16071
386.658	13706
386.739	13840
386.820	15033
386.901	13802
386.981	16871
387.062	17869
387.143	19781
387.224	22145
387.304	24633
387.385	23520
387.466	21495
387.547	25572
387.627	24928
387.708	25804
387.789	27774
387.869	27130
387.950	22773
388.031	19363
388.111	16391
388.192	17972
388.273	17475
388.353	16428
388.434	15637
388.514	14707
388.595	21367
388.676	20560
388.756	16354
388.837	14894
388.917	12774
388.998	10970
389.078	13577
389.159	12123
389.239	10289
389.320	14175
389.400	10625
389.480	13203
389.561	14493
389.641	13814
389.722	12422
389.802	10953
389.883	13612
389.963	16357
390.043	13051
390.124	10631
390.204	12114
390.284	13784
390.365	11668
390.445	11681
390.525	12430
390.605	12781
390.686	11457
390.766	12250
390.846	13362
390.927	11839
391.007	11012
391.087	13246
391.167	11877
391.247	11236
391.328	14903
391.408	12923
391.488	13666
391.568	12626
391.648	14895
391.728	16431
391.808	16611
391.888	15841
391.969	17802
392.049	17955
392.129	19546
392.209	20973
392.289	25055
392.369	23089
392.449	23847
392.529	25644
392.609	29470
392.689	33106
392.769	40975
392.849	46664
392.929	58601
393.009	77928
393.089	110762
393.169	179232
393.248	319823
393.328	457387
393.408	428891
393.488	297791
393.568	169818
393.648	101266
393.728	67526
393.807	49536
393.887	40806
393.967	33251
394.047	27419
394.127	24547
394.206	23427
394.286	21131
394.366	18178
394.446	18747
394.525	18128
394.605	16582
394.685	16670
394.764	18945
394.844	33975
394.924	46143
395.003	24206
395.083	16649
395.163	15016
395.242	13484
395.322	14680
395.402	13169
395.481	16976
395.561	19916
395.640	51375
395.720	100793
395.799	55578
395.879	22849
395.958	19401
396.038	19276
396.117	22132
396.197	22440
396.276	26942
396.356	29900
396.435	38568
396.515	50783
396.594	74484
396.673	137585
396.753	284436
396.832	416644
396.912	336572
396.991	176954
397.070	92406
397.150	57323
397.229	52393
397.308	85188
397.388	146267
397.467	82807
397.546	33733
397.625	20998
397.705	21999
397.784	18200
397.863	15634
397.942	15875
398.022	15105
398.101	13304
398.180	13583
398.259	12571
398.338	13451
398.417	11971
398.497	11178
398.576	12154
398.655	9938
398.734	11206
398.813	10621
398.892	11337
398.971	11046
399.050	9844
399.129	9877
399.208	10036
399.287	10572
399.366	8791
399.445	8857
399.524	9335
399.603	8175
399.682	9292
399.761	8982
399.840	9488
399.919	9599
399.998	8234
400.077	7678
400.156	7438
400.235	10698
400.313	7799
400.392	7784
400.471	8938
400.550	10448
400.629	7047
400.708	8031
400.786	7005
400.865	7595
400.944	6274
401.023	10135
401.102	6412
401.180	7222
401.259	6807
401.338	7639
401.416	7247
401.495	5848
401.574	8167
401.652	6752
401.731	7356
401.810	6745
401.888	7005
401.967	6211
402.046	6843
402.124	7563
402.203	5078
402.281	6426
402.360	6043
402.438	6976
402.517	5805
402.596	6941
402.674	6461
402.753	6641
402.831	7667
402.910	8631
402.988	14218
403.066	32682
403.145	21009
403.223	15042
403.302	29250
403.380	24378
403.459	25266
403.537	13165
403.615	10149
403.694	7440
403.772	8814
403.850	9069
403.929	7293
404.007	6874
404.085	10058
404.164	9911
404.242	7293
404.320	7913
404.398	7735
404.477	8609
404.555	17256
404.633	14441
404.711	7437
404.789	7628
404.868	7106
404.946	7521
405.024	6888
405.102	6076
405.180	5020
405.258	4804
405.336	6239
405.415	5177
405.493	6669
405.571	8073
405.649	5365
405.727	5477
405.805	7371
405.883	9115
405.961	7927
406.039	5952
406.117	5370
406.195	6599
406.273	6261
406.351	12945
406.429	9418
406.507	5305
406.585	5121
406.663	6335
406.740	6218
406.818	5367
406.896	5061
406.974	6871
407.052	5757
407.130	9372
407.208	10221
407.285	7395
407.363	5840
407.441	7865
407.519	6486
407.596	8309
407.674	17520
407.752	55782
407.830	39821
407.907	11073
407.985	6799
408.063	6546
408.141	5631
408.218	7591
408.296	5478
408.373	7820
408.451	8499
408.529	8577
408.606	8492
408.684	9112
408.762	9640
408.839	9482
408.917	9928
408.994	11071
409.072	12486
409.149	15307
409.227	22697
409.304	30626
409.382	34929
409.459	39391
409.537	47056
409.614	45344
409.692	38353
409.769	39004
409.846	51182
409.924	56891
410.001	45204
410.079	36976
410.156	29794
410.233	23484
410.311	19252
410.388	17444
410.465	16311
410.543	14487
410.620	14788
410.697	13364
410.775	13368
410.852	13418
410.929	13972
411.006	15001
411.083	13136
411.161	12231
411.238	12116
411.315	11246
411.392	10546
411.469	11323
411.547	10434
411.624	8499
411.701	8568
411.778	8767
411.855	8891
411.932	7703
412.009	7852
412.086	8221
412.163	8499
412.240	8004
412.317	8516
412.394	7794
412.471	7635
412.548	7535
412.625	6464
412.702	7752
412.779	7844
412.856	7584
412.933	6647
413.010	6955
413.087	6203
413.164	7272
413.241	7734
413.318	6280
413.395	6585
413.471	6638
413.548	6670
413.625	7192
413.702	5381
413.779	7377
413.855	6662
413.932	5933
414.009	4961
414.086	6186
414.162	5831
414.239	5984
414.316	6792
414.393	8650
414.469	5653
414.546	5749
414.623	5851
414.699	6488
414.776	5695
414.853	5348
414.929	6095
415.006	5102
415.082	5045
415.159	5615
415.236	5432
415.312	6496
415.389	5015
415.465	6088
415.542	5330
415.618	5367
415.695	6534
415.771	4595
415.848	5654
415.924	5838
416.000	6060
416.077	6520
416.153	5317
416.230	5162
416.306	5463
416.383	5312
416.459	5710
416.535	5020
416.612	4935
416.688	4944
416.764	6237
416.841	5649
416.917	5156
416.993	5694
417.069	5834
417.146	5017
417.222	5076
417.298	5687
417.374	5146
417.451	5662
417.527	5233
417.603	5617
417.679	6113
417.755	4861
417.831	4821
417.908	6849
417.984	6297
418.060	6024
418.136	5920
418.212	6888
418.288	6157
418.364	6685
418.440	5827
418.516	7323
418.592	6118
418.668	6432
418.744	6975
418.820	7880
418.896	6554
418.972	7250
419.048	6879
419.124	8041
419.200	6156
419.276	8534
419.352	7183
419.428	8513
419.504	7466
419.579	8771
419.655	8176
419.731	8830
419.807	9481
419.883	10446
419.959	10347
420.034	11250
420.110	10997
420.186	12379
420.262	12225
420.337	13654
420.413	13264
420.489	14735
420.565	15458
420.640	15674
420.716	17385
420.792	16798
420.867	19806
420.943	19446
421.019	20874
421.094	22538
421.170	24526
421.245	26239
421.321	28691
421.397	31551
421.472	42474
421.548	65925
421.623	55725
421.699	48832
421.774	52305
421.850	60123
421.925	70621
422.001	81324
422.076	96671
422.152	118361
422.227	143084
422.302	180619
422.378	223758
422.453	267169
422.529	273258
422.604	200534
422.679	140162
422.755	197149
422.830	258712
422.905	261688
422.981	229589
423.056	188974
423.131	155237
423.207	124945
423.282	104106
423.357	88079
423.432	74156
423.508	66147
423.583	56375
423.658	49950
423.733	43746
423.808	41363
423.883	39880
423.959	40351
424.034	40617
424.109	37678
424.184	31577
424.259	27173
424.334	24727
424.409	22380
424.484	20582
424.559	19547
424.634	18296
424.709	16603
424.784	15749
424.859	15459
424.934	14090
425.009	14801
425.084	14385
425.159	13786
425.234	12680
425.309	11969
425.384	11449
425.459	11245
425.534	11696
425.609	10068
425.683	10364
425.758	10819
425.833	10456
425.908	10249
425.983	9579
426.058	11688
426.132	9629
426.207	9219
426.282	10032
426.357	7940
426.431	9004
426.506	9428
426.581	7813
426.655	8501
426.730	7444
426.805	7447
426.879	8713
426.954	7299
427.029	7329
427.103	9434
427.178	11191
427.253	9636
427.327	6935
427.402	6778
427.476	7006
427.551	7052
427.625	6778
427.700	7255
427.774	6476
427.849	7117
427.923	7720
427.998	8414
428.072	10971
428.147	19571
428.221	63905
428.296	149758
428.370	86658
428.444	22181
428.519	11920
428.593	9284
428.667	10388
428.742	13054
428.816	28710
428.890	98232
428.965	131581
429.039	44242
429.113	13054
429.188	9052
429.262	8348
429.336	7908
429.410	8040
429.485	9010
429.559	9033
429.633	8927
429.707	11780
429.781	26684
429.855	93801
429.930	118366
430.004	43595
430.078	33273
430.152	79222
430.226	194897
430.300	175843
430.374	64313
430.448	25720
430.522	16941
430.596	16883
430.670	40127
430.744	120052
430.818	117684
430.892	31616
430.966	11501
431.040	8584
431.114	6997
431.188	6395
431.262	6384
431.336	5656
431.410	5722
431.484	5928
431.557	7551
431.631	8697
431.705	16127
431.779	51698
431.853	143055
431.927	95096
432.000	23260
432.074	9723
432.148	5845
432.222	4134
432.295	4712
432.369	3195
432.443	4404
432.516	5423
432.590	8162
432.664	5060
432.737	2706
432.811	2964
432.885	2819
432.958	3499
433.032	2802
433.106	2886
433.179	3268
433.253	3885
433.326	2868
433.400	3183
433.473	3653
433.547	2807
433.620	3035
433.694	2928
433.767	3066
433.841	3216
433.914	3848
433.988	3266
434.061	3735
434.134	3423
434.208	3100
434.281	3756
434.355	3304
434.428	3160
434.501	3562
434.575	3053
434.648	2693
434.721	3229
434.795	3084
434.868	3335
434.941	3809
435.014	4187
435.088	5035
435.161	4795
435.234	7023
435.307	7637
435.381	9324
435.454	14429
435.527	21537
435.600	24994
435.673	21126
435.746	17625
435.819	14645
435.892	11333
435.966	10818
436.039	7858
436.112	7023
436.185	5529
436.258	5636
436.331	4851
436.404	4938
436.477	4374
436.550	4975
436.623	5177
436.696	3789
436.769	3840
436.842	3343
436.915	3722
436.987	3914
437.060	4022
437.133	2591
437.206	3168
437.279	4170
437.352	2858
437.425	3042
437.498	3327
437.570	3346
437.643	2813
437.716	3427
437.789	2435
437.861	2453
437.934	2560
438.007	3196
438.080	3082
438.152	2929
438.225	3193
438.298	6070
438.370	11957
438.443	6189
438.516	3959
438.588	3165
438.661	2601
438.734	3620
438.806	3266
438.879	4231
438.951	3579
439.024	2867
439.096	2673
439.169	2401
439.241	2815
439.314	3063
439.386	2379
439.459	3929
439.531	2241
439.604	3164
439.676	3237
439.749	2854
439.821	2411
439.893	2951
439.966	2884
440.038	3253
440.110	3439
440.183	2431
440.255	2738
440.327	3892
440.400	4063
440.472	7731
440.544	6097
440.617	4034
440.689	4408
440.761	4673
440.833	4346
440.905	3793
440.978	3198
441.050	3387
441.122	3864
441.194	4174
441.266	3628
441.338	3792
441.411	4217
441.483	5417
441.555	5022
441.627	4705
441.699	4776
441.771	5450
441.843	4867
441.915	5234
441.987	5384
442.059	7150
442.131	7791
442.203	10154
442.275	12127
442.347	21297
442.419	43976
442.491	136076
442.563	214079
442.635	109028
442.706	36741
442.778	18819
442.850	13895
442.922	12211
442.994	12479
443.066	13216
443.137	16448
443.209	22977
443.281	34699
443.353	67333
443.425	160122
443.496	292907
443.568	290952
443.640	159592
443.711	62569
443.783	31331
443.855	20527
443.926	14275
443.998	10990
444.070	10554
444.141	8900
444.213	8317
444.285	8443
444.356	8319
444.428	7385
444.499	7137
444.571	8076
444.642	7670
444.714	8485
444.785	9621
444.857	10653
444.928	11926
445.000	13453
445.071	17307
445.143	24179
445.214	35675
445.285	57468
445.357	118762
445.428	247593
445.500	313569
445.571	297023
445.642	222978
445.714	111017
445.785	47370
445.856	25857
445.928	18406
445.999	13796
446.070	11335
446.141	9091
446.213	8994
446.284	7574
446.355	6348
446.426	6075
446.497	5744
446.569	4294
446.640	3907
446.711	4517
446.782	3867
446.853	2933
446.924	4140
446.995	3864
447.066	3170
447.138	2899
447.209	3760
447.280	2504
447.351	2062
447.422	1455
447.493	2368
447.564	1380
447.635	1615
447.706	1837
447.777	2595
447.847	1693
447.918	1194
447.989	1553
448.060	1893
448.131	1488
448.202	1729
448.273	1565
448.344	2282
448.414	2120
448.485	2230
448.556	1859
448.627	1750
448.698	3165
448.768	2187
448.839	1492
448.910	2030
448.981	1277
449.051	939
449.122	780
449.193	2147
449.263	1851
449.334	1926
449.405	1346
449.475	1750
449.546	2476
449.616	2931
449.687	2956
449.758	2733
449.828	2070
449.899	2203
449.969	1073
450.040	2210
450.110	1319
450.181	2267
450.251	1021
450.322	2259
450.392	1882
450.463	1392
450.533	1462
450.604	1886
450.674	1952
450.744	3589
450.815	3024
450.885	3691
450.955	3761
451.026	3928
451.096	3206
451.166	3286
451.237	4752
451.307	5814
451.377	4497
451.447	3216
451.518	2852
451.588	2963
451.658	2044
451.728	2459
451.799	1765
451.869	2701
451.939	1767
452.009	2112
452.079	1953
452.149	2751
452.219	2300
452.289	2954
452.360	3290
452.430	3962
452.500	6260
452.570	10463
452.640	21719
452.710	47094
452.780	53514
452.850	35033
452.920	20237
452.990	12039
453.060	8200
453.129	5705
453.199	4702
453.269	4358
453.339	3700
453.409	3078
453.479	3340
453.549	2326
453.619	2262
453.688	1923
453.758	1920
453.828	2090
453.898	1293
453.968	1343
454.037	2292
454.087	1833
454.107	1620
454.168	1627
454.177	1601
454.247	1342
454.249	1379
454.316	1586
454.330	1477
454.386	942
454.411	1022
454.456	1050
454.492	1423
454.525	1729
454.574	1859
454.595	1897
454.655	1580
454.665	1487
454.734	2716
454.736	2755
454.804	2898
454.817	3004
454.873	3393
454.898	3156
454.943	2614
454.979	2365
455.013	2077
455.060	2292
455.082	2375
455.141	2198
455.152	2131
455.221	2633
455.222	2668
455.291	2962
455.303	2871
455.360	2326
455.384	2711
455.430	3243
455.465	3078
455.499	2867
455.546	2373
455.569	2143
455.627	3170
455.638	3308
455.707	2489
455.708	2519
455.777	2781
455.789	2845
455.846	3121
455.869	2978
455.916	2486
455.950	2560
455.985	2663
456.031	2797
456.054	2789
456.112	3133
456.124	3169
456.193	3415
456.193	3385
456.262	3966
456.274	4172
456.332	5036
456.355	4346
456.401	2826
456.436	3500
456.470	4153
456.516	4282
456.540	4280
456.597	3757
456.609	3598
456.678	4514
456.678	4486
456.747	4974
456.759	4922
456.817	4465
456.840	4603
456.886	4830
456.920	5032
456.955	5170
457.001	5353
457.024	5413
457.082	5870
457.093	5921
457.162	6310
457.163	6344
457.232	6357
457.243	6444
457.301	6733
457.324	6786
457.370	6927
457.405	7517
457.439	8211
457.485	9074
457.508	9688
457.566	12085
457.577	12866
457.646	17798
457.647	17942
457.715	39613
457.727	44466
457.784	80172
457.808	103389
457.853	130446
457.889	152057
457.922	146355
457.969	105637
457.991	108793
458.050	125142
458.060	130145
458.129	208459
458.130	210972
458.198	205590
458.211	191910
458.267	120394
458.292	86167
458.336	61188
458.372	54939
458.405	68050
458.453	94933
458.474	119383
458.533	207939
458.543	214964
458.611	309351
458.614	311776
458.680	204865
458.694	170237
458.749	93677
458.775	66106
458.818	42130
458.855	32266
458.887	26707
458.936	21139
458.955	19295
459.016	15767
459.024	15441
459.093	14212
459.097	14133
459.162	12245
459.177	12123
459.230	11616
459.257	11319
459.299	11021
459.338	10836
459.368	10481
459.418	9884
459.437	9729
459.499	9383
459.505	9363
459.574	9508
459.579	9551
459.643	9250
459.659	9121
459.711	9145
459.740	9301
459.780	9341
459.820	9140
459.849	9078
459.900	9320
459.917	9352
459.981	9370
459.986	9322
460.054	9024
460.061	8997
460.123	8903
460.141	8945
460.191	9273
460.222	9648
460.260	9946
460.302	9862
460.328	9876
460.382	9918
460.397	10303
460.462	12549
460.465	12887
460.534	21128
460.543	22296
460.602	58280
460.623	71883
460.671	109033
460.703	142227
460.739	129104
460.783	101596
460.808	83955
460.864	23539
460.876	19244
460.944	11743
460.945	11669
461.013	10258
461.024	10152
461.081	9767
461.104	9634
461.150	9364
461.184	8885
461.218	9037
461.264	10027
461.286	9915
461.345	8871
461.355	8791
461.423	8812
461.425	8799
461.491	8169
461.505	8315
461.559	9295
461.585	9342
461.628	9117
461.665	9126
461.696	9037
461.745	8810
461.764	8815
461.825	9005
461.832	9052
461.901	9083
461.905	9111
461.969	8688
461.985	8610
462.037	9675
462.065	10142
462.105	9531
462.145	8966
462.173	8945
462.225	8921
462.241	9011
462.305	9298
462.310	9332
462.378	9955
462.385	10021
462.446	10249
462.465	10373
462.514	10373
462.545	10130
462.582	9549
462.625	9100
462.650	9280
462.705	9457
462.718	9391
462.785	9581
462.786	9591
462.854	9419
462.865	9378
462.922	9289
462.945	9364
462.990	9595
463.025	9802
463.058	9976
463.104	9886
463.126	9624
463.184	9252
463.194	9300
463.262	9229
463.264	9235
463.330	9635
463.344	9677
463.398	10107
463.424	10260
463.466	9753
463.504	9348
463.533	9725
463.583	10147
463.601	10051
463.663	9719
463.669	9675
463.737	9310
463.743	9240
463.805	10007
463.823	10343
463.873	10226
463.903	10001
463.940	9970
463.982	9932
464.008	9920
464.062	9750
464.076	9716
464.142	9865
464.144	9878
464.211	9449
464.221	9425
464.279	10137
464.301	10358
464.347	10388
464.381	10486
464.414	10071
464.461	9235
464.482	9507
464.540	10317
464.550	10249
464.617	9616
464.620	9591
464.685	10221
464.699	10286
464.753	10493
464.779	10626
464.820	10699
464.859	10574
464.888	10368
464.938	10203
464.956	10353
465.018	10739
465.023	10749
465.091	10508
465.098	10491
465.158	10472
465.177	10442
465.226	10848
465.257	11005
465.293	10815
465.336	10640
465.361	10738
465.416	10860
465.428	10933
465.495	11143
465.496	11157
465.563	10452
465.575	10343
465.631	10741
465.654	10862
465.698	10770
465.734	10613
465.765	10801
465.813	11057
465.833	11125
465.893	11328
465.900	11301
465.968	10856
465.972	10802
466.035	10842
466.052	10843
466.102	10800
466.131	10745
466.170	11038
466.210	11264
466.237	11515
466.290	12014
466.304	11990
466.369	11656
466.372	11683
466.439	11916
466.449	11914
466.506	11265
466.528	11018
466.573	11035
466.607	10939
466.641	11239
466.687	11739
466.708	11843
466.766	11885
466.775	12028
466.842	13022
466.845	13042
466.909	12102
466.925	11849
466.977	12861
467.004	13344
467.044	12758
467.083	12166
467.111	12558
467.163	13176
467.178	13228
467.242	13328
467.245	13316
467.312	12528
467.321	12399
467.379	13422
467.400	13754
467.446	14015
467.480	14153
467.559	14834
467.638	15252
467.717	15308
467.796	16429
467.875	17940
467.955	18176
468.034	20849
468.113	23739
468.192	28218
468.271	35699
468.350	50715
468.429	65405
468.508	65935
468.588	45564
468.667	28549
468.746	21685
468.825	19401
468.904	17493
468.983	15608
469.062	15982
469.141	15670
469.220	14526
469.299	14745
469.378	13674
469.456	14464
469.535	14204
469.614	13695
469.693	12983
469.772	14737
469.851	14166
469.930	13729
470.009	13379
470.088	12929
470.166	14512
470.245	14819
470.324	14816
470.403	14581
470.482	14585
470.560	14340
470.639	13797
470.718	13976
470.797	13354
470.875	13020
470.954	13863
471.033	12914
471.111	12767
471.190	12717
471.269	12194
471.347	13138
471.426	13772
471.505	13990
471.583	13180
471.662	14317
471.740	13041
471.819	13624
471.898	12630
471.976	13341
472.055	12808
472.133	16236
472.212	19559
472.290	14601
472.369	12833
472.447	13738
472.526	12655
472.604	13122
472.683	13944
472.761	14737
472.839	12864
472.918	15405
472.996	14005
473.075	14394
473.153	14228
473.231	14913
473.310	15163
473.388	14994
473.466	14766
473.545	14785
473.623	15088
473.701	15465
473.780	15579
473.858	14133
473.936	17165
474.014	14990
474.093	17572
474.171	20960
474.249	16427
474.327	15514
474.405	14119
474.484	14087
474.562	14975
474.640	13232
474.718	14589
474.796	14199
474.874	14416
474.952	14209
475.030	13278
475.108	15019
475.187	14168
475.265	15251
475.343	17961
475.421	18870
475.499	14909
475.577	14932
475.655	14685
475.733	13806
475.811	13966
475.889	14962
475.966	14274
476.044	14361
476.122	15820
476.200	17601
476.278	15662
476.356	13802
476.434	13825
476.512	15423
476.590	17285
476.667	15337
476.745	13184
476.823	13754
476.901	13638
476.979	13580
477.056	14239
477.134	13607
477.212	12643
477.290	13632
477.367	13574
477.445	13310
477.523	11811
477.601	12600
477.678	13815
477.756	13414
477.834	12783
477.911	14366
477.989	13666
478.066	13301
478.144	14195
478.222	15220
478.299	20454
478.377	22631
478.454	18096
478.532	13324
478.609	12454
478.687	12965
478.764	12614
478.842	13456
478.919	13306
478.997	12866
479.074	13008
479.152	13604
479.229	14098
479.307	13167
479.384	13478
479.461	13094
479.539	12390
479.616	13460
479.694	12503
479.771	13601
479.848	12418
479.926	11709
480.003	14000
480.080	13675
480.157	14311
480.235	13509
480.312	13146
480.389	14142
480.467	13829
480.544	15065
480.621	15774
480.698	17313
480.775	16043
480.853	16093
480.930	15595
481.007	15350
481.084	22129
481.161	35121
481.238	24092
481.315	14783
481.392	14802
481.470	15304
481.547	15025
481.624	15289
481.701	15998
481.778	16674
481.855	17651
481.932	17962
482.009	19252
482.086	21046
482.163	22213
482.240	27552
482.317	32307
482.393	26757
482.470	21543
482.547	20706
482.624	19323
482.701	18510
482.778	18989
482.855	19295
482.932	19121
483.009	22097
483.085	25660
483.162	35135
483.239	34613
483.316	26384
483.393	27063
483.469	22942
483.546	20819
483.623	19095
483.699	18697
483.776	16846
483.853	16060
483.930	16521
484.006	17000
484.083	17385
484.160	17486
484.236	17860
484.313	18349
484.389	20932
484.466	23860
484.543	28813
484.619	34908
484.696	38339
484.772	26688
484.849	20411
484.925	18655
485.002	17489
485.078	15773
485.155	14758
485.231	13690
485.308	14035
485.384	14864
485.461	16040
485.537	14552
485.614	14663
485.690	14267
485.766	14174
485.843	13704
485.919	13561
485.995	14101
486.072	13937
486.148	13421
486.224	13369
486.301	14377
486.377	14186
486.453	13092
486.530	14964
486.606	15457
486.682	15546
486.758	15393
486.835	17780
486.911	18084
486.987	19383
487.063	21619
487.139	28281
487.215	38218
487.292	39368
487.368	39872
487.444	50507
487.520	71856
487.596	114473
487.672	234742
487.748	680940
487.824	1085669
487.900	474453
487.976	144579
488.052	72344
488.128	47654
488.204	35426
488.280	29382
488.356	24595
488.432	22316
488.508	20226
488.584	18487
488.660	18159
488.736	17482
488.812	15744
488.888	15922
488.964	15616
489.039	16520
489.115	19508
489.191	19273
489.267	15982
489.343	14446
489.418	13285
489.494	13601
489.570	12404
489.646	15416
489.722	14282
489.797	14132
489.873	15080
489.949	14859
490.024	15370
490.100	13999
490.176	14143
490.251	14651
490.327	15630
490.403	14157
490.478	15136
490.554	13232
490.629	14729
490.705	13667
490.781	14603
490.856	13324
490.932	13067
491.007	13199
491.083	11507
491.158	12270
491.234	12147
491.309	13222
491.385	12072
491.460	11965
491.536	12983
491.611	11600
491.686	12353
491.762	12640
491.837	13347
491.913	13258
491.988	13730
492.063	14515
492.139	12292
492.214	12269
492.289	11285
492.365	10384
492.440	11606
492.515	11570
492.590	11077
492.666	11429
492.741	11998
492.816	12486
492.891	11687
492.967	11760
493.042	11351
493.117	11133
493.192	10884
493.267	12249
493.342	12335
493.418	12998
493.493	11220
493.568	11368
493.643	10473
493.718	10727
493.793	10375
493.868	10992
493.943	10635
494.018	10353
494.093	10960
494.168	11904
494.243	10234
494.318	11618
494.393	11821
494.468	11004
494.543	10023
494.618	9937
494.693	10768
494.768	10735
494.842	11169
494.917	10891
494.992	10767
495.067	10557
495.142	10534
495.217	10320
495.292	11082
495.366	10740
495.441	9394
495.516	10778
495.591	10913
495.665	13951
495.740	17971
495.815	13390
495.890	11106
495.964	9471
496.039	13502
496.114	16043
496.188	30802
496.263	24855
496.338	11121
496.412	9421
496.487	11393
496.561	10170
496.636	10349
496.710	12867
496.785	13960
496.860	11010
496.934	10122
497.009	10497
497.083	9739
497.158	10041
497.232	9922
497.307	9322
497.381	9624
497.455	10472
497.530	10912
497.604	9637
497.679	9553
497.753	10366
497.827	9472
497.902	9194
497.976	11099
498.050	10054
498.125	10449
498.199	10006
498.273	9929
498.348	10127
498.422	9837
498.496	9908
498.570	11186
498.645	9802
498.719	8814
498.793	10560
498.867	9988
498.941	9278
499.016	10248
499.090	9821
499.164	10165
499.238	11160
499.312	11064
499.386	10749
499.460	11846
499.534	10306
499.609	10710
499.683	10127
499.757	11460
499.831	9868
499.905	10076
499.979	10745
500.053	10304
500.127	11178
500.201	10646
500.275	10862
500.349	10549
500.422	9665
500.496	11479
500.570	10869
500.644	13141
500.718	10886
500.792	12822
500.866	12199
500.940	11014
501.013	12349
501.087	11783
501.161	12571
501.235	10520
501.309	13780
501.382	11679
501.456	12029
501.530	11626
501.603	10812
501.677	11601
501.751	10747
501.825	12288
501.898	11819
501.972	10608
502.046	10850
502.119	10684
502.193	11859
502.266	10585
502.340	10218
502.413	10760
502.487	11263
502.561	11021
502.634	11272
502.708	11755
502.781	10636
502.855	13138
502.928	11236
503.002	12485
503.075	11062
503.149	11367
503.222	12994
503.295	13123
503.369	13952
503.442	15943
503.516	18491
503.589	20910
503.662	24119
503.736	29764
503.809	38590
503.882	51384
503.956	76093
504.029	153092
504.102	404177
504.175	616088
504.249	287833
504.322	112729
504.395	61604
504.468	39639
504.542	29130
504.615	21650
504.688	19533
504.761	15964
504.834	16478
504.907	13840
504.980	13270
505.053	12204
505.127	10121
505.200	14193
505.273	11673
505.346	10716
505.419	9817
505.492	11972
505.565	11028
505.638	11351
505.711	9374
505.784	8672
505.857	7916
505.930	10477
506.003	8267
506.076	11345
506.149	8832
506.221	7091
506.294	10185
506.367	6927
506.440	8179
506.513	8722
506.586	7721
506.659	8055
506.731	8464
506.804	7742
506.877	7522
506.950	8528
507.022	8729
507.095	7380
507.168	8883
507.241	8829
507.313	8215
507.386	7683
507.459	9324
507.531	7604
507.604	7500
507.677	8210
507.749	6934
507.822	8739
507.894	7673
507.967	8800
508.040	8419
508.112	8968
508.185	8233
508.257	6675
508.330	9859
508.402	8032
508.475	7736
508.547	7795
508.620	8354
508.692	7509
508.765	7490
508.837	7973
508.909	8450
508.982	7357
509.054	8804
509.127	7626
509.199	7242
509.271	7209
509.344	7907
509.416	7684
509.488	7774
509.560	8457
509.633	7967
509.705	7904
509.777	7894
509.849	8953
509.922	6568
509.994	6840
510.066	8666
510.138	5925
510.210	9665
510.283	7496
510.355	8498
510.427	8196
510.499	7988
510.571	7518
510.643	6926
510.715	9023
510.787	6646
510.859	8638
510.931	7674
511.003	7959
511.076	8866
511.148	7219
511.219	6856
511.291	8387
511.363	8660
511.435	7509
511.507	7111
511.579	7865
511.651	7786
511.723	7626
511.795	8242
511.867	7613
511.939	7870
512.010	7882
512.082	7593
512.154	6931
512.226	7775
512.298	9372
512.369	7421
512.441	8793
512.513	8556
512.585	6614
512.656	9209
512.728	7340
512.800	7956
512.871	7960
512.943	8134
513.015	6798
513.086	8239
513.158	8384
513.230	6608
513.301	8030
513.373	8974
513.444	7976
513.516	8055
513.588	8423
513.659	8723
513.731	8142
513.802	6586
513.874	9638
513.945	9379
514.016	7187
514.088	7451
514.159	6766
514.231	9285
514.302	8015
514.374	7933
514.445	5742
514.516	10597
514.588	7589
514.659	8030
514.730	6173
514.802	9147
514.873	6400
514.944	10201
515.016	7797
515.087	7916
515.158	6986
515.229	7976
515.301	7440
515.372	8658
515.443	7448
515.514	9326
515.585	8300
515.656	9876
515.728	9824
515.799	8281
515.870	8695
515.941	9378
516.012	7616
516.083	8765
516.154	7581
516.225	9289
516.296	10071
516.367	9625
516.438	8561
516.509	9857
516.580	9449
516.651	16525
516.722	32394
516.793	21980
516.864	10439
516.935	11273
517.006	12363
517.077	12797
517.148	17515
517.219	44387
517.289	67801
517.360	17936
517.431	12794
517.502	10107
517.573	11376
517.643	11357
517.714	10870
517.785	12370
517.856	13247
517.926	15069
517.997	16747
518.068	18257
518.138	22973
518.209	25649
518.280	48404
518.350	130000
518.421	78021
518.492	53338
518.562	65664
518.633	91919
518.703	145191
518.774	312521
518.845	720307
518.915	689456
518.986	243522
519.056	103113
519.127	61535
519.197	42988
519.268	30470
519.338	26659
519.408	20889
519.479	18356
519.549	15658
519.620	17005
519.690	14173
519.760	13883
519.831	12820
519.901	11482
519.971	12331
520.042	11411
520.112	10547
520.182	11705
520.253	11532
520.323	8926
520.393	8529
520.463	11620
520.534	7936
520.604	11843
520.674	10084
520.744	9257
520.814	9306
520.885	10131
520.955	9034
521.025	8675
521.095	10090
521.165	10809
521.235	8294
521.305	9058
521.375	10528
521.445	10862
521.515	8913
521.585	10886
521.655	8128
521.725	10415
521.795	10596
521.865	6682
521.935	11113
522.005	9501
522.075	9563
522.145	11135
522.215	10813
522.285	11010
522.355	9664
522.424	10756
522.494	11812
522.564	10686
522.634	10622
522.704	14318
522.774	10580
522.843	11775
522.913	11906
522.983	10859
523.053	9750
523.122	11089
523.192	10063
523.262	11317
523.331	11093
523.401	11425
523.471	11215
523.540	10836
523.610	10638
523.680	12085
523.749	12297
523.819	15312
523.888	15754
523.958	12462
524.027	11919
524.097	12363
524.166	12397
524.236	10549
524.305	13167
524.375	11480
524.444	11173
524.514	13922
524.583	12222
524.653	11462
524.722	13317
524.791	11942
524.861	14783
524.930	13007
524.999	13725
525.069	15230
525.138	14128
525.207	14823
525.277	17416
525.346	18109
525.415	20508
525.484	22222
525.554	25716
525.623	32826
525.692	45046
525.761	49411
525.830	58995
525.900	78364
525.969	124701
526.038	241722
526.107	448671
526.176	1186318
526.245	974704
526.314	333421
526.383	610438
526.452	849099
526.522	1013622
526.591	967946
526.660	234400
526.729	127287
526.797	127213
526.867	177238
526.935	440916
527.004	1311261
527.073	967168
527.142	213679
527.211	85755
527.280	55648
527.349	41602
527.418	30783
527.487	28523
527.555	22256
527.624	20750
527.693	18990
527.762	19815
527.831	16415
527.899	17885
527.968	15638
528.037	14036
528.106	15381
528.174	15024
528.243	14850
528.312	15074
528.380	14777
528.449	13080
528.518	15079
528.586	12299
528.655	13772
528.723	13395
528.792	13149
528.861	12654
528.929	11981
528.998	13526
529.066	12019
529.135	12396
529.203	11330
529.272	11080
529.340	13172
529.409	14220
529.477	12170
529.545	11124
529.614	14791
529.682	10407
529.751	12249
529.819	16174
529.887	12668
529.956	12585
530.024	13904
530.092	13287
530.161	13095
530.229	12499
530.297	11355
530.365	13251
530.434	12629
530.502	13214
530.570	13886
530.638	12186
530.707	13199
530.775	14718
530.843	13375
530.911	13227
530.979	13671
531.047	13767
531.115	14308
531.183	13610
531.252	13930
531.320	13494
531.388	12690
531.456	15333
531.524	13683
531.592	15138
531.660	16195
531.728	13156
531.796	14027
531.864	14805
531.932	15035
532.000	13410
532.067	15166
532.135	15624
532.203	17532
532.271	17105
532.339	20032
532.407	20177
532.475	19154
532.542	18783
532.610	19662
532.678	16806
532.746	22814
532.814	27803
532.881	20135
532.949	20030
533.017	19930
533.084	17741
533.152	17681
533.220	17032
533.287	16160
533.355	17611
533.423	18138
533.490	17192
533.558	18508
533.625	19708
533.693	19513
533.761	20124
533.828	21091
533.896	18998
533.963	20724
534.031	23718
534.098	28786
534.166	34413
534.233	31666
534.300	36688
534.368	36192
534.435	35375
534.503	37602
534.570	42193
534.637	46828
534.705	53407
534.772	66702
534.840	123349
534.907	492843
534.974	636461
535.041	113748
535.109	50045
535.176	38708
535.243	35305
535.310	34952
535.378	32128
535.445	32917
535.512	33760
535.579	32797
535.646	30630
535.714	32977
535.781	35017
535.848	36730
535.915	33942
535.982	32693
536.049	32560
536.116	34746
536.183	32254
536.250	30614
536.317	32312
536.384	35655
536.451	35996
536.518	36658
536.585	34757
536.652	36990
536.719	36044
536.786	34640
536.853	33901
536.920	37121
536.987	35281
537.053	34150
537.120	39342
537.187	40942
537.254	38617
537.321	38843
537.388	40194
537.454	38379
537.521	38269
537.588	37897
537.654	38328
537.721	41025
537.788	41605
537.855	38826
537.921	38921
537.988	38039
538.055	37673
538.121	34221
538.188	33951
538.254	33046
538.321	33844
538.388	36942
538.454	43390
538.521	44102
538.587	42698
538.654	42448
538.720	39290
538.787	40452
538.853	39131
538.920	37979
538.986	34891
539.053	34996
539.119	36220
539.185	37237
539.252	38205
539.318	41345
539.385	44881
539.451	42763
539.517	41624
539.583	40569
539.650	40403
539.716	41522
539.782	37914
539.849	37882
539.915	38621
539.981	38085
540.047	36983
540.114	36909
540.180	40013
540.246	41975
540.312	44508
540.378	42400
540.444	42850
540.510	42204
540.576	43784
540.643	40069
540.709	38534
540.775	39022
540.841	39053
540.907	38263
540.973	38890
541.039	38985
541.105	39883
541.171	42117
541.237	44634
541.303	42512
541.369	44144
541.435	42782
541.500	40950
541.566	37713
541.632	38695
541.698	39505
541.764	42356
541.830	40740
541.896	39958
541.961	40717
542.027	39557
542.093	43968
542.159	44809
542.224	40193
542.290	41011
542.356	40262
542.421	38689
542.487	39163
542.553	37187
542.618	38740
542.684	38358
542.750	40916
542.815	41086
542.881	41167
542.947	43931
543.012	45312
543.078	38832
543.143	37246
543.209	40262
543.274	38388
543.340	38556
543.405	41206
543.471	42030
543.536	43275
543.602	41279
543.667	40469
543.732	42548
543.798	40248
543.863	43181
543.928	42851
543.994	41822
544.059	43146
544.124	44864
544.190	44660
544.255	44925
544.320	45370
544.386	44842
544.451	47879
544.516	46068
544.581	45518
544.646	48397
544.712	49509
544.777	48753
544.842	48367
544.907	46783
544.972	47542
545.037	50142
545.102	53256
545.168	51814
545.233	52888
545.298	52657
545.363	52034
545.428	57407
545.493	56352
545.558	56382
545.623	57329
545.688	57030
545.753	57629
545.818	59623
545.883	64171
545.947	64471
546.012	68773
546.077	69593
546.142	73994
546.207	75310
546.272	79711
546.337	82079
546.401	84416
546.466	90214
546.531	92132
546.596	99253
546.661	105053
546.725	108940
546.790	113537
546.855	124436
546.919	135422
546.984	151599
547.049	164093
547.113	186381
547.178	206354
547.243	231457
547.307	263868
547.372	293927
547.436	295741
547.501	311437
547.565	335334
547.630	307792
547.695	295833
547.759	295678
547.823	301149
547.888	304652
547.952	314492
548.017	324232
548.081	339296
548.146	332197
548.210	334549
548.274	361596
548.339	358071
548.403	324723
548.468	309488
548.532	304888
548.596	313782
548.660	315477
548.725	339854
548.789	364542
548.853	358711
548.917	343386
548.982	334514
549.046	303334
549.110	275827
549.174	280431
549.238	324586
549.303	357562
549.367	364115
549.431	351416
549.495	328337
549.559	329378
549.623	370188
549.687	408155
549.751	396091
549.815	466013
549.879	477583
549.943	460702
550.007	478628
550.071	476494
550.135	434073
550.199	412957
550.263	410105
550.327	386547
550.391	394761
550.455	437292
550.519	454298
550.582	478050
550.646	529715
550.710	541330
550.774	535067
550.838	539527
550.901	555756
550.965	582088
551.029	604825
551.093	641643
551.156	685244
551.220	735798
551.284	761643
551.347	648802
551.411	580328
551.475	555406
551.538	568408
551.602	541654
551.666	513578
551.729	489733
551.793	473747
551.856	470074
551.920	461214
551.983	459710
552.047	456406
552.110	457293
552.174	464054
552.237	471579
552.301	442597
552.364	423888
552.428	413035
552.491	425752
552.554	431063
552.618	427328
552.681	437799
552.745	421633
552.808	428135
552.871	447332
552.934	439935
552.998	434239
553.061	424611
553.124	412058
553.187	407134
553.251	418747
553.314	419062
553.377	418746
553.440	443573
553.503	453620
553.567	449397
553.630	447396
553.693	447741
553.756	449381
553.819	441359
553.882	425224
553.945	427540
554.008	429468
554.071	432954
554.134	438573
554.197	415244
554.260	404768
554.323	410285
554.386	415639
554.449	431398
554.512	431656
554.575	418342
554.638	411549
554.701	407087
554.764	406675
554.827	390805
554.889	383619
554.952	361684
555.015	354388
555.078	360668
555.141	364737
555.203	357180
555.266	354084
555.329	353346
555.391	342996
555.454	337031
555.517	325574
555.580	317871
555.642	304575
555.705	302793
555.768	299578
555.830	292219
555.893	277478
555.955	268922
556.018	264216
556.080	266062
556.143	273304
556.206	270521
556.268	263521
556.330	258272
556.393	250028
556.455	244544
556.518	239840
556.580	233341
556.643	224851
556.705	221398
556.767	218003
556.830	213696
556.892	210295
556.955	207062
557.017	199755
557.079	200510
557.142	194192
557.204	191785
557.266	188932
557.328	178795
557.391	168740
557.453	165903
557.515	165715
557.577	166780
557.639	166210
557.701	164189
557.764	163972
557.826	165634
557.888	167845
557.950	171140
558.012	182848
558.074	216541
558.136	379941
558.198	782380
558.260	372678
558.322	180214
558.384	173746
558.446	176480
558.508	182589
558.570	197935
558.632	220533
558.694	268428
558.756	403600
558.818	878664
558.880	1539819
558.942	912297
559.003	865560
559.065	490829
559.127	222529
559.189	200257
559.251	213279
559.312	275681
559.374	531437
559.436	1213999
559.498	781586
559.559	267143
559.621	203142
559.683	214558
559.744	306423
559.806	732835
559.868	1033534
559.929	359656
559.991	222524
560.052	308702
560.114	730108
560.176	537830
560.237	456084
560.299	697012
560.360	219901
560.422	103197
560.483	87635
560.545	82238
560.606	78965
560.667	75109
560.729	73045
560.790	69309
560.852	68074
560.913	65751
560.974	63280
561.036	63579
561.097	63479
561.158	61984
561.220	62433
561.281	59188
561.342	58484
561.403	57853
561.465	57479
561.526	58149
561.587	57109
561.648	54545
561.709	54238
561.771	53614
561.832	52138
561.893	50972
561.954	50231
562.015	50043
562.076	49236
562.137	48865
562.198	47196
562.259	48275
562.320	47594
562.381	48468
562.442	48193
562.503	46653
562.564	46035
562.625	45050
562.686	44103
562.747	44703
562.808	44702
562.869	43752
562.930	43905
562.991	43087
563.051	43404
563.112	41624
563.173	42360
563.234	41577
563.294	40550
563.355	40644
563.416	40211
563.477	40793
563.537	39586
563.598	39634
563.659	39328
563.720	38629
563.780	39139
563.841	38476
563.901	39176
563.962	38826
564.023	38589
564.083	38983
564.144	38397
564.204	37634
564.265	37801
564.325	37842
564.386	36643
564.446	36758
564.507	36624
564.567	35774
564.628	36183
564.688	36863
564.749	34999
564.809	35798
564.869	36787
564.930	36214
564.990	35760
565.050	34650
565.111	33890
565.171	35569
565.231	35842
565.292	35884
565.352	34650
565.412	36242
565.472	34264
565.532	35490
565.593	34245
565.653	34746
565.713	35038
565.773	36514
565.833	36269
565.893	37768
565.953	34946
566.013	33102
566.074	32534
566.134	32934
566.194	32071
566.254	32946
566.314	31725
566.374	32348
566.434	33731
566.494	32968
566.554	32393
566.614	33689
566.673	34314
566.733	35071
566.793	35711
566.853	34593
566.913	36354
566.973	34877
567.033	33855
567.092	34408
567.152	34032
567.212	34767
567.272	35027
567.331	35824
567.391	36063
567.451	38601
567.511	37240
567.570	36341
567.630	37052
567.690	34568
567.749	34458
567.809	34212
567.868	35188
567.928	34033
567.988	35131
568.047	36473
568.107	35119
568.166	35560
568.226	35410
568.285	35297
568.345	35537
568.404	36479
568.464	34646
568.523	34835
568.582	35382
568.642	36095
568.701	33939
568.761	33267
568.820	31923
568.879	33569
568.939	33444
568.998	35013
569.057	33730
569.116	34329
569.176	34231
569.235	33588
569.294	33498
569.353	32984
569.413	32365
569.472	32420
569.531	32098
569.590	32281
569.649	33220
569.708	31624
569.767	34062
569.827	33169
569.886	31496
569.945	31884
570.004	32575
570.063	33174
570.122	34633
570.181	35217
570.240	35534
570.299	34805
570.358	35002
570.417	35082
570.475	35263
570.534	35939
570.593	36092
570.652	36544
570.711	36334
570.770	36205
570.829	34653
570.887	35285
570.946	36453
571.005	36517
571.064	35254
571.122	34166
571.181	34767
571.240	34101
571.299	33685
571.357	33613
571.416	32758
571.475	32797
571.533	34549
571.592	37123
571.650	36694
571.709	38091
571.768	39837
571.826	40986
571.885	39655
571.943	36934
572.002	34738
572.060	34644
572.119	34128
572.177	34760
572.236	33995
572.294	34983
572.352	37198
572.411	37382
572.469	35335
572.528	33854
572.586	34708
572.644	33573
572.703	33092
572.761	32697
572.819	31741
572.877	31146
572.936	30242
572.994	30159
573.052	30371
573.110	31163
573.169	33711
573.227	32506
573.285	32985
573.343	31852
573.401	31889
573.459	31307
573.517	32060
573.576	32662
573.634	32463
573.692	32966
573.750	32361
573.808	31895
573.866	30989
573.924	30607
573.982	30469
574.040	31202
574.098	29883
574.155	30301
574.213	30180
574.271	29267
574.329	32412
574.387	31254
574.445	29073
574.503	28070
574.560	28187
574.618	27532
574.676	29334
574.734	27837
574.792	27929
574.849	27606
574.907	25347
574.965	24823
575.022	24118
575.080	23789
575.138	24542
575.195	23543
575.253	22287
575.311	23122
575.368	24741
575.426	24159
575.483	24669
575.541	25137
575.598	23710
575.656	23847
575.713	24819
575.771	25941
575.828	23956
575.886	24088
575.943	23773
576.001	21959
576.058	21816
576.115	22457
576.173	23387
576.230	23369
576.287	24201
576.345	24089
576.402	23460
576.459	24680
576.517	23271
576.574	22845
576.631	22389
576.688	21821
576.746	22026
576.803	22303
576.860	22406
576.917	21269
576.974	23071
577.031	23574
577.089	22656
577.146	21060
577.203	21805
577.260	21560
577.317	20363
577.374	22571
577.431	21291
577.488	20536
577.545	20309
577.602	21341
577.659	21238
577.716	21520
577.773	20811
577.830	21978
577.886	20918
577.943	20325
578.000	20678
578.057	20323
578.114	21800
578.171	20888
578.227	20161
578.284	19909
578.341	21458
578.398	20990
578.454	20450
578.511	21277
578.568	20770
578.625	20981
578.681	20110
578.738	21054
578.794	21357
578.851	21351
578.908	21415
578.964	21232
579.021	22223
579.077	21343
579.134	22013
579.190	22567
579.247	21305
579.303	20190
579.360	20652
579.416	21583
579.473	21739
579.529	20836
579.586	20923
579.642	21646
579.698	21350
579.755	22722
579.811	20943
579.867	21778
579.924	21560
579.980	21163
580.036	21137
580.093	21910
580.149	21476
580.205	22898
580.261	23591
580.317	23479
580.374	23436
580.430	23843
580.486	24031
580.542	23288
580.598	22998
580.619	23136
580.654	23398
580.692	23186
580.710	23118
580.765	23381
580.767	23410
580.823	24294
580.838	24478
580.879	25037
580.911	24890
580.935	24834
580.984	22711
580.991	22441
581.047	24104
581.057	24013
581.103	23703
581.130	23149
581.159	22594
581.203	22984
581.215	23110
581.270	21604
581.276	21659
581.326	22362
581.349	22350
581.382	22309
581.422	22379
581.438	22431
581.494	21588
581.494	21573
581.550	21310
581.567	21518
581.606	21953
581.640	22227
581.661	22397
581.713	22689
581.717	22722
581.773	22560
581.786	22455
581.829	22185
581.859	22389
581.885	22598
581.932	23158
581.940	23278
581.996	22998
582.004	22997
582.052	22800
582.077	22844
582.107	23004
582.150	22168
582.163	21914
582.219	21749
582.223	21749
582.274	21910
582.296	21809
582.330	21566
582.368	21706
582.386	21848
582.441	21897
582.441	21899
582.497	22066
582.514	22058
582.552	22046
582.587	21590
582.608	21270
582.659	21779
582.663	21836
582.719	22821
582.732	22541
582.774	21618
582.805	21917
582.830	22110
582.877	22273
582.885	22322
582.941	22104
582.950	22141
582.996	22242
583.023	21929
583.052	21742
583.095	22444
583.107	22572
583.162	22236
583.168	22173
583.218	21480
583.240	21342
583.273	21231
583.313	21231
583.328	21325
583.384	21894
583.385	21914
583.439	22109
583.458	21968
583.494	21757
583.531	21850
583.549	21998
583.603	22694
583.605	22706
583.660	22239
583.676	22418
583.715	23056
583.748	23039
583.770	23023
583.820	23459
583.825	23459
583.881	22870
583.893	22652
583.936	22200
583.965	22639
583.991	22987
584.038	23002
584.046	22990
584.101	23580
584.110	23498
584.156	23371
584.183	23410
584.211	23371
584.255	23865
584.266	24037
584.321	24965
584.328	25011
584.376	24995
584.400	25145
584.431	25512
584.472	25626
584.486	25653
584.541	26293
584.545	26315
584.596	26872
584.617	27197
584.651	27776
584.689	28602
584.706	28891
584.761	29507
584.762	29509
584.816	30106
584.834	30330
584.871	31185
584.906	32485
584.926	32967
584.978	34600
584.980	34697
585.035	37183
585.051	38196
585.090	40772
585.123	42853
585.145	44298
585.195	48352
585.200	48835
585.254	55664
585.267	57349
585.309	63395
585.340	68373
585.364	72578
585.412	83375
585.419	85300
585.473	104701
585.484	110266
585.528	140131
585.556	170692
585.583	218003
585.628	331876
585.637	366711
585.692	677420
585.700	728076
585.747	917400
585.772	815311
585.801	597327
585.845	299240
585.856	246623
585.910	131531
585.917	122136
585.965	91258
585.989	80133
586.019	71296
586.061	62386
586.074	60419
586.128	55823
586.133	55432
586.183	52227
586.205	51313
586.237	50514
586.277	49943
586.292	49878
586.346	48835
586.349	48776
586.401	48229
586.421	48167
586.455	48098
586.493	47530
586.509	47496
586.564	48402
586.565	48408
586.618	50868
586.637	52251
586.672	56745
586.709	62200
586.727	64433
586.781	70970
586.781	70996
586.835	61537
586.853	58891
586.889	54663
586.925	51447
586.944	50567
586.996	50302
586.998	50343
587.052	49593
587.068	49855
587.106	50542
587.140	50372
587.161	50660
587.212	51649
587.215	51690
587.269	51611
587.284	51578
587.323	52932
587.356	54528
587.377	55293
587.427	56197
587.431	56304
587.485	57138
587.499	57438
587.539	58945
587.571	59880
587.593	60864
587.643	63642
587.648	63860
587.702	64581
587.715	64885
587.755	65533
587.786	64982
587.810	64912
587.858	65456
587.864	65500
587.917	65555
587.930	65236
587.971	65079
588.001	65837
588.025	66331
588.073	65744
588.079	65665
588.133	64902
588.145	64654
588.187	64374
588.217	64119
588.241	64585
588.288	65608
588.295	65832
588.348	67455
588.360	67541
588.402	66517
588.431	65170
588.456	64435
588.503	64722
588.510	65084
588.564	66619
588.575	66982
588.617	69239
588.646	70590
588.671	70846
588.718	71078
588.725	71286
588.778	72306
588.789	72486
588.832	76200
588.861	79522
588.886	89155
588.932	110715
588.939	113175
588.993	133108
589.004	132449
589.047	96296
589.075	76833
589.100	73081
589.147	68798
589.154	68663
589.207	67850
589.218	67523
589.261	68483
589.290	69184
589.314	69289
589.361	69419
589.368	69747
589.421	71962
589.433	72447
589.475	79036
589.504	84141
589.528	92838
589.576	112280
589.582	111221
589.635	90126
589.647	85789
589.689	77093
589.718	72516
589.742	73124
589.790	74226
589.795	74347
589.849	74235
589.861	74139
589.902	74742
589.932	74908
589.955	75129
590.004	75266
590.009	75334
590.062	74947
590.075	74729
590.115	74946
590.146	74832
590.168	74901
590.218	74872
590.222	75117
590.275	77260
590.289	77606
590.328	79674
590.360	81168
590.381	81352
590.431	81126
590.435	81313
590.488	82744
590.503	82934
590.541	83822
590.574	84406
590.594	85663
590.645	88670
590.647	88930
590.700	91958
590.716	92693
590.753	94390
590.787	95856
590.806	97101
590.859	99684
590.859	99873
590.912	101250
590.930	101595
590.965	102881
591.001	103623
591.018	103293
591.071	101768
591.072	101581
591.124	100315
591.143	99790
591.177	100758
591.214	101423
591.230	102056
591.283	103742
591.285	103614
591.336	103522
591.356	103431
591.389	103264
591.427	102343
591.442	102549
591.495	102827
591.498	102661
591.547	103670
591.569	103986
591.600	105256
591.640	106367
591.653	106893
591.706	108196
591.711	108170
591.759	111406
591.782	112672
591.811	115096
591.853	118180
591.864	118365
591.917	118072
591.924	117792
591.969	117871
591.995	117609
592.022	118775
592.066	120192
592.075	120713
592.127	122570
592.137	122660
592.180	125338
592.208	126774
592.233	128054
592.279	129730
592.285	130554
592.338	135449
592.350	136293
592.390	135012
592.421	133544
592.443	135202
592.491	138131
592.495	138513
592.548	140043
592.562	140197
592.600	140692
592.633	140621
592.653	141052
592.704	140684
592.705	141551
592.775	144579
592.846	150169
592.916	150936
592.987	151333
593.058	152268
593.128	154957
593.199	154451
593.270	155498
593.341	158229
593.411	163326
593.482	170259
593.553	175155
593.623	177640
593.694	181282
593.764	186804
593.835	184625
593.906	187182
593.976	192754
594.047	195977
594.117	204272
594.188	209353
594.258	210282
594.329	210315
594.399	215378
594.470	222602
594.540	229031
594.611	233633
594.681	230444
594.751	230966
594.822	239211
594.892	250814
594.963	254896
595.033	263181
595.103	268981
595.174	269882
595.244	277868
595.314	285895
595.384	293144
595.455	300862
595.525	309507
595.595	321574
595.665	318303
595.736	314273
595.806	321526
595.876	325905
595.946	327140
596.016	342216
596.087	350357
596.157	349697
596.227	351861
596.297	368717
596.367	392937
596.437	413328
596.507	408865
596.577	406016
596.647	422014
596.717	442018
596.787	447894
596.857	446054
596.927	449559
596.997	449428
597.067	455061
597.137	459152
597.207	465106
597.277	467394
597.347	449121
597.417	438558
597.487	436120
597.557	446096
597.626	454791
597.696	465753
597.766	457412
597.836	431358
597.906	413657
597.975	406133
598.045	413723
598.115	430405
598.185	459075
598.254	506351
598.324	543815
598.394	550618
598.464	534538
598.533	527300
598.603	495272
598.672	479529
598.742	489953
598.812	490443
598.881	505936
598.951	500522
599.020	510357
599.090	524415
599.159	532382
599.229	515313
599.299	506701
599.368	518521
599.437	509127
599.507	473007
599.576	457238
599.646	452256
599.715	446919
599.785	440928
599.854	430245
599.924	426737
599.993	420148
600.062	433485
600.132	439981
600.201	463793
600.270	530872
600.340	558631
600.409	542616
600.478	541135
600.547	549621
600.617	498801
600.686	407093
600.755	372568
600.824	352779
600.894	342837
600.963	346159
601.032	339728
601.101	330304
601.170	314129
601.239	305467
601.308	302482
601.378	303598
601.447	305520
601.516	309077
601.585	307916
601.654	310831
601.723	312905
601.792	319616
601.861	327804
601.930	338718
601.999	343023
602.068	341903
602.137	347451
602.206	352933
602.275	356173
602.343	359223
602.412	361740
602.481	364672
602.550	370441
602.619	378820
602.688	380562
602.756	383158
602.825	387018
602.894	397432
602.963	406815
603.032	409440
603.100	411544
603.169	412890
603.238	416652
603.307	416371
603.375	423741
603.444	429416
603.513	439225
603.581	444008
603.650	446729
603.719	446507
603.787	458750
603.856	470655
603.924	478641
603.993	494524
604.061	509832
604.130	531121
604.198	539396
604.267	551352
604.335	556136
604.404	562755
604.472	572007
604.541	574911
604.609	581148
604.678	579428
604.746	582120
604.815	598844
604.883	605969
604.951	604659
605.020	616166
605.088	628358
605.156	642319
605.225	648167
605.293	650872
605.361	647219
605.429	654316
605.498	666137
605.566	682371
605.634	708475
605.702	732566
605.771	746533
605.839	748613
605.907	736592
605.975	714475
606.043	706946
606.111	710065
606.180	706778
606.248	699599
606.316	695655
606.384	694203
606.452	701184
606.520	718128
606.588	739334
606.656	742842
606.724	733310
606.792	699834
606.860	643751
606.928	600025
606.996	577196
607.064	567178
607.132	583000
607.200	612663
607.267	626341
607.335	637184
607.403	651571
607.471	628526
607.539	613908
607.607	612513
607.674	553828
607.742	548835
607.810	547175
607.878	547863
607.946	560982
608.013	582523
608.081	592542
608.149	597230
608.216	617793
608.284	634070
608.352	633206
608.419	628487
608.487	611727
608.555	609521
608.622	623836
608.690	658357
608.757	709814
608.825	720914
608.893	704781
608.960	668521
609.028	647033
609.095	650104
609.163	647403
609.230	586587
609.298	547341
609.365	575667
609.432	611318
609.500	653580
609.567	728686
609.635	803526
609.702	831399
609.769	789798
609.837	642465
609.904	579310
609.971	587474
610.039	613189
610.106	674382
610.173	880442
610.241	1282982
610.308	1011770
610.375	689967
610.442	627239
610.509	603278
610.577	604651
610.644	613077
610.711	627144
610.778	640298
610.845	665826
610.912	695216
610.980	717633
611.047	718022
611.114	706202
611.181	692990
611.248	689626
611.315	719318
611.382	734979
611.449	752309
611.516	763616
611.583	755939
611.650	756770
611.717	763560
611.784	774386
611.851	786248
611.918	806269
611.984	857073
612.051	967716
612.118	1213263
612.185	1623808
612.252	1417214
612.319	1015233
612.386	923947
612.452	869215
612.519	832975
612.586	825414
612.653	830750
612.719	852860
612.786	829263
612.853	785801
612.919	777048
612.986	783056
613.053	749353
613.120	719273
613.186	697597
613.253	699695
613.319	703775
613.386	704511
613.453	713286
613.519	714790
613.586	704599
613.652	712955
613.719	702143
613.785	715180
613.852	719878
613.918	717981
613.985	718509
614.051	746555
614.118	734264
614.184	713221
614.250	713700
614.317	726945
614.383	721707
614.449	733229
614.516	727719
614.582	730895
614.648	719922
614.715	715520
614.781	702509
614.847	701864
614.914	697822
614.980	687721
615.046	688547
615.112	705331
615.179	705236
615.245	712759
615.311	704536
615.377	713060
615.443	714462
615.509	724231
615.575	736524
615.642	730930
615.708	747088
615.774	765537
615.840	786693
615.906	801179
615.972	856215
616.038	992612
616.104	1318064
616.170	1688718
616.236	1581952
616.302	1152716
616.368	1025641
616.434	868518
616.500	823908
616.565	850243
616.631	951222
616.697	878534
616.763	868634
616.829	1024068
616.895	1357698
616.961	1312927
617.026	923603
617.092	778080
617.158	741262
617.224	725621
617.289	686422
617.355	662655
617.421	654297
617.487	653947
617.552	629400
617.618	627824
617.684	627032
617.749	631844
617.815	608699
617.880	596823
617.946	596141
618.012	607842
618.077	617167
618.143	597776
618.208	601982
618.274	636020
618.339	634461
618.405	547035
618.470	549050
618.536	550270
618.601	541078
618.667	509600
618.732	487569
618.798	482307
618.863	484469
618.928	479189
618.994	482490
619.059	477429
619.124	482614
619.190	478496
619.255	477392
619.320	479451
619.386	482842
619.451	476735
619.516	464757
619.581	472221
619.647	489059
619.712	487329
619.777	468498
619.842	471749
619.907	478849
619.972	482291
620.038	479410
620.103	468624
620.168	471634
620.233	477367
620.298	478544
620.363	484546
620.428	494448
620.493	504424
620.558	509542
620.623	516880
620.688	513250
620.753	510169
620.818	519587
620.883	521703
620.948	519443
621.013	516655
621.078	508573
621.143	516166
621.207	523230
621.272	512966
621.337	500345
621.402	496003
621.467	489794
621.532	492323
621.596	493804
621.661	482977
621.726	478669
621.791	483462
621.855	486174
621.920	477996
621.985	487501
622.049	491760
622.114	495789
622.179	499411
622.243	506282
622.308	525359
622.373	536661
622.437	526824
622.502	504621
622.566	500991
622.631	501592
622.695	510659
622.760	504094
622.824	506761
622.889	509575
622.953	510606
623.018	534968
623.082	536113
623.147	531577
623.211	521400
623.276	521644
623.340	507351
623.404	498800
623.469	497578
623.533	501974
623.597	494504
623.662	491267
623.726	464964
623.790	440613
623.854	433028
623.919	436425
623.983	442612
624.047	448619
624.111	453590
624.176	459058
624.240	460751
624.304	472725
624.368	459824
624.432	461826
624.496	469040
624.560	486806
624.625	489428
624.689	486252
624.753	507208
624.817	485729
624.881	476060
624.945	439098
625.009	427270
625.073	435186
625.137	444922
625.201	462672
625.265	462557
625.329	444788
625.393	451229
625.456	455320
625.520	466477
625.584	473201
625.648	479934
625.712	486752
625.776	480742
625.839	457708
625.903	405877
625.967	383441
626.031	400388
626.095	459203
626.158	433102
626.222	358580
626.286	336476
626.349	328391
626.413	309203
626.477	307649
626.540	312704
626.604	310479
626.668	304153
626.731	301835
626.795	299499
626.858	301464
626.922	296753
626.986	291321
627.049	293090
627.113	304518
627.176	294823
627.240	287501
627.303	290455
627.366	286506
627.430	289046
627.493	285267
627.557	279759
627.620	283427
627.684	296357
627.747	292140
627.810	273705
627.874	248684
627.937	241255
628.000	247033
628.064	241572
628.127	221202
628.190	217696
628.253	209818
628.317	203456
628.380	195539
628.443	191360
628.506	190536
628.569	180738
628.632	174348
628.696	174299
628.759	174354
628.822	166877
628.885	163997
628.948	161641
629.011	157468
629.074	153674
629.137	150330
629.200	147674
629.263	143988
629.326	143837
629.389	142879
629.452	141570
629.515	138124
629.578	136533
629.641	139585
629.704	140698
629.767	135636
629.830	131790
629.892	129721
629.955	127063
630.018	132915
630.081	129899
630.144	130715
630.207	125233
630.269	128457
630.332	123003
630.395	123350
630.458	118977
630.520	114836
630.583	116478
630.646	119333
630.708	120505
630.771	122182
630.834	127812
630.896	122358
630.959	123600
631.021	120792
631.084	119194
631.146	119980
631.209	120123
631.272	119352
631.334	121829
631.397	118666
631.459	119306
631.522	123005
631.584	124798
631.646	127643
631.709	128088
631.771	126530
631.834	123620
631.896	121306
631.958	117432
632.021	117729
632.083	111949
632.145	113787
632.208	111981
632.270	113816
632.332	113126
632.395	111033
632.457	113994
632.519	110663
632.581	111511
632.643	110073
632.706	111957
632.768	107632
632.830	110680
632.892	114447
632.954	113712
633.016	114840
633.078	112061
633.141	112481
633.203	110453
633.265	111361
633.327	110114
633.389	111560
633.451	111727
633.513	109378
633.575	113966
633.637	110590
633.698	112343
633.760	116989
633.822	120380
633.884	122656
633.946	123224
634.008	121900
634.070	121672
634.132	124638
634.193	131087
634.255	135281
634.317	136844
634.379	136959
634.441	128218
634.502	120972
634.564	116137
634.626	110677
634.687	107441
634.749	104752
634.811	106324
634.873	104319
634.934	105560
634.996	105736
635.057	105109
635.119	107122
635.181	106998
635.242	108256
635.304	106505
635.365	110455
635.427	106164
635.488	104821
635.550	105329
635.611	105494
635.673	104610
635.734	110047
635.796	110991
635.857	117023
635.918	119670
635.980	126352
636.041	130437
636.102	133254
636.164	132773
636.225	129999
636.286	118464
636.348	113475
636.409	104636
636.470	104293
636.531	104082
636.593	102316
636.654	100857
636.715	98548
636.776	98770
636.838	95485
636.899	94888
636.960	94579
637.021	94597
637.082	93341
637.143	91967
637.204	87814
637.265	90179
637.326	92226
637.387	93074
637.448	90777
637.509	92073
637.570	92211
637.631	90898
637.692	87655
637.753	87893
637.814	87028
637.875	87841
637.936	88031
637.997	85828
638.058	85815
638.119	85966
638.179	87397
638.240	86722
638.301	87794
638.362	83526
638.423	82748
638.483	83644
638.544	80792
638.605	83712
638.666	82920
638.726	83408
638.787	83275
638.848	82263
638.908	80298
638.969	79295
639.030	77257
639.090	78062
639.151	78657
639.211	79424
639.272	79753
639.332	80168
639.393	80165
639.453	81599
639.514	83220
639.574	78383
639.635	74205
639.695	75711
639.756	72937
639.816	74118
639.877	73115
639.937	73394
639.997	73485
640.058	72088
640.118	71016
640.178	74311
640.239	72505
640.299	73120
640.359	73529
640.420	77230
640.480	79921
640.540	85125
640.600	85480
640.661	81453
640.721	79336
640.781	85346
640.841	83075
640.901	75358
640.961	74081
641.021	74717
641.082	77285
641.142	73329
641.202	72335
641.262	70065
641.322	71230
641.382	70105
641.442	69459
641.502	69834
641.562	71186
641.622	70454
641.682	74449
641.742	78151
641.802	76000
641.861	71896
641.921	67345
641.981	67646
642.041	64638
642.101	64982
642.161	64007
642.221	65782
642.280	66288
642.340	65904
642.400	65026
642.460	69054
642.519	68117
642.579	69052
642.639	67302
642.698	65814
642.758	70623
642.818	69050
642.877	67810
642.937	68751
642.997	68696
643.056	67063
643.116	65997
643.175	70313
643.235	70329
643.294	70688
643.354	72835
643.414	76167
643.473	81280
643.532	88530
643.592	103237
643.651	131665
643.711	185277
643.770	297150
643.830	563308
643.889	835310
643.948	381715
644.008	150607
644.067	102424
644.126	85818
644.186	75671
644.245	72178
644.304	68279
644.363	69397
644.423	64385
644.482	66411
644.541	67415
644.600	68503
644.659	77499
644.719	86100
644.778	107655
644.837	150221
644.896	255087
644.955	463563
645.014	207858
645.073	90965
645.132	75726
645.191	71113
645.250	69054
645.309	72361
645.368	76365
645.427	88443
645.486	131017
645.545	194154
645.604	87086
645.663	65634
645.722	64060
645.781	67302
645.840	70879
645.898	78132
645.957	93537
646.016	119193
646.075	172067
646.134	281156
646.192	565704
646.251	684718
646.310	239720
646.369	114138
646.427	96588
646.486	79233
646.545	67374
646.603	63883
646.662	61625
646.721	59713
646.779	59355
646.838	59931
646.896	67134
646.955	77001
647.014	102131
647.072	162100
647.131	351542
647.189	195980
647.248	67054
647.306	57882
647.365	53468
647.423	49253
647.481	51964
647.540	49779
647.598	50127
647.657	50830
647.715	49649
647.773	47761
647.832	46867
647.890	43881
647.948	43981
648.007	44269
648.065	42347
648.123	42136
648.181	42550
648.240	41386
648.298	40447
648.356	40912
648.414	42166
648.472	40761
648.531	39585
648.589	38446
648.647	38121
648.705	38701
648.763	40187
648.821	41089
648.879	40343
648.937	42862
648.995	46711
649.053	52452
649.111	64904
649.169	88034
649.227	134827
649.285	245974
649.343	519977
649.401	297923
649.459	84426
649.516	55233
649.574	46044
649.632	47846
649.690	49245
649.748	57472
649.806	72244
649.863	118906
649.921	267173
649.979	188012
650.037	50342
650.094	37734
650.152	34963
650.210	33995
650.268	34925
650.325	35445
650.383	36649
650.440	30487
650.498	29202
650.556	29706
650.613	28556
650.671	29204
650.728	29361
650.786	31628
650.843	38934
650.901	32924
650.958	27127
651.016	27488
651.073	26401
651.131	26189
651.188	24384
651.246	25466
651.303	23775
651.360	25565
651.418	23942
651.475	25091
651.532	23468
651.590	25684
651.647	23565
651.704	24096
651.762	23974
651.819	23445
651.876	21976
651.933	22264
651.990	22870
652.048	21440
652.105	21545
652.162	23411
652.219	22214
652.276	21622
652.333	23216
652.390	20468
652.448	20499
652.505	22639
652.562	21371
652.619	21501
652.676	20693
652.733	22248
652.790	20470
652.847	20872
652.904	20839
652.961	19748
653.017	18675
653.074	21334
653.131	19549
653.188	19488
653.245	20226
653.302	20818
653.359	19266
653.415	20887
653.472	19487
653.529	18525
653.586	17920
653.642	20474
653.699	19832
653.756	19035
653.813	18868
653.869	20184
653.926	19137
653.983	18935
654.039	19848
654.096	18419
654.152	19286
654.209	17242
654.266	18138
654.322	18335
654.379	19658
654.435	19271
654.492	18567
654.548	18093
654.605	18615
654.661	20125
654.717	17804
654.774	18611
654.830	18636
654.887	18697
654.943	19348
655.000	20555
655.056	18753
655.112	17838
655.168	18037
655.225	18815
655.281	18391
655.337	18404
655.394	17246
655.450	17418
655.506	17008
655.562	17255
655.618	18213
655.675	16227
655.731	17215
655.787	16421
655.843	18439
655.899	16854
655.955	18046
656.011	18356
656.067	16398
656.123	17683
656.179	16788
656.235	18579
656.291	16529
656.347	18506
656.403	16917
656.459	17618
656.515	17412
656.571	16811
656.627	16772
656.683	17585
656.739	18027
656.795	17345
656.850	16676
656.906	17583
656.962	18561
657.018	18300
657.074	22247
657.129	28011
657.185	39814
657.241	82255
657.297	47919
657.352	19679
657.408	17229
657.464	17607
657.519	15339
657.575	15098
657.630	14557
657.686	15421
657.742	15513
657.797	16602
657.853	15535
657.908	17007
657.964	14497
658.019	16219
658.075	15244
658.130	15888
658.186	13847
658.241	15646
658.297	13309
658.352	15124
658.407	15911
658.463	14188
658.518	14279
658.573	15427
658.629	14441
658.684	14758
658.739	14247
658.795	13685
658.850	15025
658.905	14652
658.960	14646
659.016	13769
659.071	13911
659.126	13878
659.181	14102
659.236	14456
659.291	15312
659.346	13459
659.401	13899
659.457	14934
659.512	12878
659.567	15341
659.622	13124
659.677	13257
659.732	13044
659.787	13976
659.842	13372
659.897	14135
659.952	14797
660.007	13774
660.061	14242
660.116	12921
660.171	13098
660.226	13204
660.281	15150
660.336	13088
660.391	13718
660.445	12987
660.500	13153
660.555	13309
660.610	12814
660.664	13482
660.719	12738
660.774	12896
660.828	12627
660.883	12481
660.938	13306
660.992	12434
661.047	13874
661.101	12731
661.156	12726
661.211	12496
661.265	13210
661.320	12552
661.374	12083
661.429	13014
661.483	12744
661.538	11810
661.592	12941
661.647	13917
661.701	16208
661.755	13523
661.810	12844
661.864	11673
661.919	12842
661.973	12198
662.027	12410
662.081	11917
662.136	12809
662.190	12325
662.244	11844
662.299	13315
662.353	12335
662.407	12344
662.461	11496
662.515	12196
662.569	11442
662.624	12710
662.678	12135
662.732	12481
662.786	11806
662.840	12285
662.894	12191
662.948	13202
663.002	11694
663.056	12347
663.110	11868
663.164	11958
663.218	12766
663.272	12491
663.326	12404
663.380	12493
663.434	11560
663.488	11208
663.542	11825
663.595	12376
663.649	12196
663.703	12207
663.757	11489
663.811	11202
663.864	11866
663.918	12091
663.972	11063
664.026	11798
664.079	11747
664.133	12616
664.187	12994
664.240	12252
664.294	12921
664.348	13280
664.401	11646
664.455	12303
664.508	11349
664.562	11755
664.615	11982
664.669	12108
664.722	11047
664.776	11532
664.829	11745
664.883	12614
664.936	11736
664.990	12410
665.043	11544
665.097	11146
665.150	12346
665.203	11392
665.257	11903
665.310	12603
665.363	11603
665.417	12723
665.470	12420
665.523	13192
665.576	11935
665.630	11854
665.683	12082
665.736	12587
665.789	12444
665.842	11869
665.895	12811
665.949	11552
666.002	12890
666.055	12229
666.108	14091
666.161	13583
666.214	12361
666.267	12738
666.320	12987
666.373	14118
666.426	13068
666.479	13505
666.532	12800
666.585	13818
666.638	13982
666.691	13451
666.744	13325
666.796	12092
666.849	12259
666.902	14118
666.955	13229
667.008	13821
667.060	12919
667.113	13212
667.166	13914
667.219	15656
667.271	15518
667.324	14281
667.377	13977
667.430	14007
667.482	13591
667.535	14221
667.587	14507
667.640	13880
667.693	13209
667.745	14032
667.798	14106
667.850	13337
667.903	14324
667.955	14648
668.008	13101
668.060	13319
668.113	12984
668.165	13182
668.218	14114
668.270	13211
668.322	13254
668.375	12779
668.427	13261
668.479	13327
668.532	14290
668.584	12591
668.636	12059
668.689	12728
668.741	13317
668.793	13041
668.845	12607
668.898	13637
668.950	12789
669.002	12980
669.054	12495
669.106	13196
669.158	12319
669.211	12319
669.263	11543
669.315	13085
669.367	11790
669.419	11837
669.471	13793
669.523	12183
669.575	13141
669.627	11791
669.679	12152
669.731	12984
669.783	12189
669.835	11910
669.886	11209
669.938	12502
669.990	12400
670.042	10772
670.094	11185
670.146	11553
670.197	11201
670.249	11739
670.301	10998
670.353	12060
670.404	11806
670.456	11586
670.508	11538
670.560	12456
670.611	11607
670.663	11579
670.715	14699
670.766	14052
670.818	11918
670.869	11757
670.921	12175
670.972	13644
671.024	12114
671.075	11105
671.127	11663
671.178	12815
671.230	13350
671.281	13819
671.333	15970
671.384	16542
671.436	21838
671.487	29157
671.538	37532
671.590	53534
671.641	83971
671.692	139566
671.744	241928
671.795	186113
671.846	84504
671.897	45603
671.949	30874
672.000	24374
672.051	19244
672.102	16260
672.153	14536
672.204	13276
672.256	12880
672.307	12303
672.358	11882
672.409	11198
672.460	10632
672.511	10584
672.562	9910
672.613	10109
672.664	9785
672.715	10980
672.766	9205
672.817	8892
672.868	9303
672.919	10132
672.970	9167
673.021	8625
673.071	8608
673.122	9316
673.173	8744
673.224	9100
673.275	9623
673.326	8770
673.376	8455
673.427	8631
673.478	9023
673.528	9734
673.579	8738
673.630	9206
673.680	10519
673.731	8565
673.782	8950
673.832	8842
673.883	8613
673.934	7839
673.984	9042
674.035	8945
674.085	9236
674.136	9522
674.186	8473
674.237	9001
674.287	8162
674.338	8960
674.388	10352
674.438	9080
674.489	9588
674.539	9484
674.589	9806
674.640	8969
674.690	10226
674.740	9565
674.791	8762
674.841	9341
674.891	8549
674.942	8399
674.992	7491
675.042	7127
675.092	6609
675.142	7004
675.193	6298
675.243	8172
675.293	8037
675.343	7233
675.393	8859
675.443	8753
675.493	8580
675.543	7236
675.593	8619
675.643	8470
675.693	7785
675.743	8219
675.793	6915
675.843	6423
675.893	7630
675.943	6807
675.993	7281
676.043	6329
676.093	7811
676.142	7628
676.192	7725
676.242	7399
676.292	7374
676.341	7697
676.391	6874
676.441	6363
676.491	6754
676.540	6718
676.590	6682
676.640	6037
676.689	6749
676.739	5618
676.789	6554
676.838	6546
676.888	5812
676.937	6414
676.987	6822
677.037	6998
677.086	5881
677.136	5989
677.185	5403
677.235	6173
677.284	6861
677.333	6146
677.383	6007
677.432	5130
677.482	6632
677.531	5783
677.580	5312
677.630	6204
677.679	6204
677.728	6315
677.778	5958
677.827	4888
677.876	6232
677.925	6691
677.975	6711
678.024	7076
678.073	6369
678.122	5836
678.171	6650
678.220	6483
678.269	8018
678.319	8404
678.368	8215
678.417	7215
678.466	7105
678.515	5881
678.564	5515
678.613	5612
678.662	5639
678.711	5426
678.760	5666
678.809	6361
678.857	6061
678.906	6442
678.955	6426
679.004	7219
679.053	5442
679.102	6254
679.151	5487
679.199	5293
679.248	5383
679.297	5670
679.346	4687
679.394	5110
679.443	5439
679.492	7053
679.540	6432
679.589	5906
679.638	5601
679.686	5929
679.735	7787
679.784	7321
679.832	8553
679.881	7266
679.929	6188
679.978	5688
680.026	5912
680.075	6344
680.123	5495
680.172	4570
680.220	6171
680.268	5529
680.317	5310
680.365	5049
680.414	4007
680.462	5511
680.510	4748
680.559	5668
680.607	4855
680.655	5739
680.703	5673
680.752	5505
680.800	4396
680.848	4942
680.896	4849
680.945	4571
680.993	4048
681.041	4663
681.089	4615
681.137	4586
681.185	4110
681.233	4360
681.258	4559
681.281	4704
681.329	5046
681.377	4341
681.380	4439
681.425	5442
681.473	5641
681.502	6017
681.521	6200
681.569	6773
681.617	6927
681.624	6766
681.665	5352
681.713	6131
681.745	6161
681.761	6117
681.809	6097
681.857	6956
681.867	6959
681.904	6779
681.952	6535
681.989	6629
682.000	6592
682.048	5515
682.096	5991
682.111	5885
682.143	5551
682.191	7307
682.233	7074
682.239	6993
682.286	6601
682.334	6414
682.354	6495
682.382	6488
682.430	7221
682.476	7385
682.477	7349
682.525	7191
682.572	7813
682.598	7383
682.620	6910
682.667	7585
682.715	7490
682.720	7574
682.763	8065
682.810	7012
682.841	7956
682.857	8372
682.905	7346
682.952	7964
682.963	8020
683.000	8012
683.047	7502
683.085	8706
683.095	9016
683.142	8833
683.190	8717
683.206	8508
683.237	7974
683.284	8158
683.328	8859
683.332	8876
683.379	8058
683.426	8286
683.449	8166
683.473	8096
683.521	9306
683.568	9507
683.571	9545
683.615	9368
683.662	8700
683.693	8665
683.709	8620
683.757	8585
683.804	8989
683.814	8825
683.851	8135
683.898	9219
683.936	9004
683.945	8936
683.992	9171
684.039	9027
684.057	9404
684.086	9879
684.133	8460
684.179	9457
684.180	9462
684.227	9163
684.274	9970
684.300	9505
684.321	9149
684.368	9822
684.415	10165
684.422	10269
684.462	10674
684.509	9951
684.543	10294
684.556	10394
684.603	10599
684.649	10694
684.665	10720
684.696	10691
684.743	11282
684.786	11677
684.790	11673
684.837	10902
684.883	10493
684.908	10925
684.930	11426
684.977	11514
685.023	12422
685.029	12375
685.070	11723
685.117	11660
685.150	11651
685.164	11620
685.210	12013
685.257	11918
685.272	12137
685.303	12521
685.350	13063
685.393	12032
685.396	11915
685.443	11592
685.490	11541
685.514	10976
685.536	10613
685.583	11167
685.629	10801
685.636	10931
685.675	11618
685.722	11859
685.757	11721
685.768	11640
685.815	11956
685.861	11806
685.878	11999
685.908	12447
685.954	12507
686.000	12205
686.000	12190
686.047	12890
686.093	13338
686.121	13388
686.139	13319
686.185	13124
686.232	13643
686.242	13553
686.278	13173
686.324	13638
686.363	13241
686.370	13169
686.416	13102
686.463	13827
686.484	13271
686.509	12687
686.555	13530
686.601	13764
686.606	13756
686.647	13523
686.693	13391
686.727	13434
686.739	13440
686.785	13627
686.831	13285
686.848	13451
686.877	13835
686.923	13845
686.969	13945
686.969	13945
687.015	14051
687.061	15431
687.090	15801
687.107	15806
687.153	15552
687.199	14678
687.211	14776
687.245	14975
687.291	14134
687.332	14296
687.336	14366
687.382	15374
687.428	15021
687.453	15444
687.474	15696
687.520	16308
687.565	16182
687.574	16232
687.611	16856
687.657	18057
687.695	18699
687.702	18995
687.748	21462
687.794	24208
687.816	24559
687.839	23056
687.885	20589
687.931	18300
687.937	18078
687.976	17944
688.022	16920
688.058	17010
688.067	17134
688.113	15958
688.158	16146
688.179	16239
688.204	16460
688.249	16715
688.295	16692
688.300	16715
688.340	17057
688.386	17281
688.421	17156
688.431	17085
688.477	16994
688.522	17676
688.542	17565
688.567	17739
688.613	18003
688.658	18319
688.663	18388
688.703	18332
688.749	17658
688.784	17634
688.794	17767
688.839	18399
688.884	18356
688.905	18358
688.930	18151
688.975	17489
689.020	18037
689.026	17943
689.065	17714
689.110	18132
689.146	18448
689.155	18590
689.201	19049
689.246	19674
689.267	19447
689.291	18810
689.336	18499
689.381	18172
689.388	18074
689.426	18134
689.471	18310
689.509	18439
689.516	18480
689.561	18971
689.606	18660
689.630	18763
689.651	18828
689.696	18291
689.741	18248
689.750	18388
689.785	19171
689.830	19136
689.871	18910
689.875	18857
689.920	18955
689.965	18368
689.992	18108
690.010	18220
690.054	18155
690.099	18579
690.112	18696
690.144	18757
690.189	18322
690.233	18249
690.233	18272
690.278	18265
690.323	18140
690.354	18527
690.367	18762
690.412	18627
690.457	18782
690.474	19053
690.501	19207
690.546	18423
690.590	18141
690.595	18040
690.635	17734
690.680	17843
690.716	17850
690.724	17862
690.769	17829
690.813	17894
690.836	17913
690.857	18299
690.902	18378
690.946	19687
690.957	19679
690.991	19314
691.035	19609
691.077	19648
691.080	19684
691.124	19713
691.168	20099
691.198	20149
691.213	20102
691.257	19701
691.301	19562
691.318	19222
691.346	18920
691.390	19227
691.434	18980
691.439	18983
691.478	19635
691.522	19992
691.559	20417
691.567	20489
691.611	20621
691.655	20560
691.680	20672
691.699	20708
691.743	20679
691.787	20197
691.800	20212
691.831	20589
691.875	21050
691.919	20951
691.921	20922
691.964	20695
692.008	20762
692.041	20129
692.052	20086
692.096	20142
692.139	20806
692.162	20840
692.183	20832
692.227	20568
692.271	20561
692.282	20451
692.315	20273
692.359	20547
692.402	20460
692.403	20496
692.447	20501
692.490	20151
692.523	20342
692.534	20389
692.578	19747
692.622	19352
692.643	19189
692.666	19331
692.709	19687
692.753	20243
692.763	20246
692.797	20526
692.840	20792
692.884	21119
692.884	21157
692.928	20912
692.971	20833
693.004	20413
693.015	20330
693.059	20475
693.102	20410
693.124	20397
693.146	20595
693.189	20224
693.233	20979
693.245	20897
693.276	20720
693.320	20950
693.363	20778
693.365	20747
693.407	21305
693.450	21432
693.485	21445
693.493	21406
693.537	21499
693.580	21063
693.605	20775
693.624	20660
693.667	20723
693.710	20431
693.725	20321
693.753	20390
693.797	20489
693.840	20663
693.845	20631
693.883	20853
693.926	21187
693.966	21360
693.970	21383
694.013	20978
694.056	20795
694.086	20585
694.099	20762
694.142	21086
694.185	21351
694.206	21675
694.229	22037
694.272	22216
694.315	22245
694.326	22276
694.358	22384
694.401	22423
694.444	22510
694.446	22455
694.487	22206
694.530	22053
694.566	21830
694.573	21938
694.616	22369
694.659	22968
694.686	23262
694.702	23392
694.745	23407
694.787	23421
694.806	23371
694.830	23311
694.873	23185
694.916	23191
694.926	23129
694.959	24049
695.002	25229
695.044	26252
695.046	26245
695.087	26588
695.130	26610
695.166	26718
695.172	26771
695.215	26578
695.258	26598
695.286	26432
695.301	26710
695.343	27456
695.386	28525
695.406	28579
695.428	29491
695.471	31901
695.514	34211
695.526	34751
695.556	37214
695.599	41006
695.641	44158
695.646	44422
695.684	41687
695.726	38496
695.766	35550
695.769	35562
695.811	34591
695.854	33500
695.886	32761
695.896	32996
695.938	33494
695.981	33978
696.005	34254
696.023	35401
696.065	38099
696.108	40675
696.125	41605
696.150	42269
696.192	43435
696.235	44430
696.245	44583
696.277	44708
696.319	44836
696.361	44778
696.365	44675
696.404	43765
696.446	42746
696.485	41777
696.488	41903
696.530	41955
696.572	42352
696.604	42506
696.614	42504
696.656	42033
696.698	41592
696.724	41153
696.740	41521
696.783	42344
696.825	43273
696.844	43506
696.867	43660
696.909	43876
696.951	43931
696.964	43893
696.992	44644
697.034	45514
697.076	46404
697.083	46464
697.118	47763
697.160	49172
697.202	50390
697.203	50307
697.244	49811
697.286	49246
697.323	48514
697.327	48609
697.369	48401
697.411	48294
697.442	48081
697.453	48273
697.494	48495
697.536	48809
697.562	48886
697.578	48851
697.620	48414
697.661	48044
697.682	47721
697.703	48809
697.744	50764
697.786	52705
697.801	53274
697.828	53330
697.869	53173
697.911	53120
697.921	52961
697.952	52622
697.994	52048
698.035	51416
698.040	51224
698.077	51489
698.118	51614
698.160	51722
698.160	51597
698.201	53663
698.243	55707
698.279	57332
698.284	57545
698.325	58273
698.367	58956
698.399	59332
698.408	59802
698.449	61325
698.491	62844
698.518	63669
698.532	63630
698.573	63080
698.614	62525
698.638	62053
698.656	62353
698.697	62692
698.738	63018
698.757	63026
698.779	63169
698.820	63138
698.862	63104
698.877	62936
698.903	62633
698.944	61909
698.985	61170
698.996	60816
699.026	61290
699.067	61736
699.116	62116
699.235	61340
699.354	60289
699.474	57185
699.593	56031
699.713	56888
699.832	57191
699.951	60710
700.070	58197
700.190	54237
700.309	52692
700.428	52102
700.547	50814
700.667	50412
700.786	51785
700.905	49705
701.024	50765
701.143	48808
701.262	52901
701.381	52717
701.500	53196
701.619	51042
701.738	53550
701.857	51415
701.976	47277
702.095	51430
702.214	52681
702.333	49794
702.452	52478
702.571	51746
702.690	50819
702.809	52021
702.928	49324
703.047	45046
703.165	46975
703.284	46797
703.403	46051
703.522	45856
703.640	42505
703.759	44034
703.878	42738
703.997	44125
704.115	45360
704.234	43830
704.353	45323
704.471	41074
704.590	40747
704.708	39967
704.827	40078
704.946	40482
705.064	40780
705.183	38708
705.301	41437
705.420	37666
705.538	37134
705.656	35254
705.775	34226
705.893	38094
706.012	36397
706.130	35482
706.249	38294
706.367	34802
706.485	36358
706.604	34767
706.722	35384
706.840	41931
706.958	55798
707.077	41627
707.195	34525
707.313	32861
707.431	31290
707.549	31370
707.668	28571
707.786	34533
707.904	30533
708.022	34021
708.140	30910
708.258	30208
708.376	33268
708.494	28559
708.612	32507
708.730	31819
708.848	30316
708.966	31388
709.084	31070
709.202	29834
709.320	27898
709.438	29132
709.556	30857
709.674	26330
709.791	27068
709.909	26488
710.027	25909
710.145	26956
710.263	26262
710.380	27398
710.498	25453
710.616	26873
710.733	24619
710.851	24816
710.969	24737
711.086	23696
711.204	25213
711.322	26198
711.439	24423
711.557	22384
711.674	24289
711.792	23057
711.909	22634
712.027	23769
712.144	22783
712.262	22873
712.379	24408
712.497	23082
712.614	23147
712.732	24061
712.849	21046
712.966	23712
713.084	24437
713.201	20532
713.318	23013
713.436	26820
713.553	21224
713.670	25344
713.787	24229
713.905	22476
714.022	25451
714.139	26434
714.256	30253
714.373	42569
714.490	77596
714.608	191125
714.725	635408
714.842	525168
714.959	84905
715.076	38604
715.193	31084
715.310	27922
715.427	21416
715.544	23490
715.661	22218
715.778	19397
715.895	20829
716.011	21050
716.128	19176
716.245	20544
716.362	19711
716.479	17277
716.596	18587
716.713	19054
716.829	18629
716.946	17273
717.063	16824
717.180	16183
717.296	18459
717.413	17731
717.530	16222
717.646	16291
717.763	16808
717.880	16998
717.996	14676
718.113	16431
718.229	15986
718.346	15374
718.462	14699
718.579	16349
718.695	15091
718.812	15096
718.928	15949
719.045	14760
719.161	15121
719.277	16460
719.394	17406
719.510	17077
719.626	18288
719.743	21339
719.859	34538
719.975	72224
720.092	260205
720.208	450807
720.324	70183
720.440	24837
720.557	19815
720.673	17310
720.789	16494
720.905	14393
721.021	14770
721.137	13400
721.253	12975
721.369	14380
721.486	13796
721.602	13604
721.718	13127
721.834	13616
721.950	13808
722.066	13217
722.181	11778
722.297	12864
722.413	13053
722.529	12667
722.645	12644
722.761	11936
722.877	13023
722.993	14187
723.108	17838
723.224	15064
723.340	13457
723.456	12563
723.571	11696
723.687	10883
723.803	12400
723.918	12435
724.034	10928
724.150	11308
724.265	11511
724.381	10969
724.497	10760
724.612	11659
724.728	11484
724.843	10557
724.959	10480
725.074	12288
725.190	11856
725.305	11190
725.421	11446
725.536	12020
725.651	12364
725.767	11868
725.882	11478
725.997	11100
726.113	11022
726.228	10847
726.343	11225
726.459	10324
726.574	10493
726.689	11191
726.804	10654
726.920	10854
727.035	11150
727.150	10525
727.265	9845
727.380	11614
727.495	10173
727.610	10877
727.725	10171
727.841	10147
727.956	10928
728.071	9745
728.186	9622
728.301	10269
728.416	11194
728.531	11791
728.645	9368
728.760	10886
728.875	12327
728.990	10895
729.105	10066
729.220	10151
729.335	11192
729.449	10892
729.564	10607
729.679	9736
729.794	11057
729.908	10053
730.023	10122
730.138	11983
730.253	10895
730.367	10479
730.482	11265
730.596	11773
730.711	13843
730.826	21822
730.940	22253
731.055	15950
731.169	15339
731.284	16201
731.398	16200
731.513	17502
731.627	20224
731.742	25649
731.856	33005
731.970	32725
732.085	40676
732.199	56929
732.313	96781
732.428	233455
732.542	535716
732.656	289429
732.771	81184
732.885	50178
732.999	44486
733.113	46933
733.227	45924
733.342	41546
733.456	42182
733.570	40700
733.684	38075
733.798	36657
733.912	37350
734.026	37272
734.140	36627
734.254	35332
734.368	35325
734.482	34078
734.596	35619
734.710	32845
734.824	33974
734.938	32184
735.052	34593
735.166	33493
735.280	31931
735.393	30831
735.507	33477
735.621	31684
735.735	29430
735.849	30997
735.962	29315
736.076	31629
736.190	29053
736.303	29906
736.417	30394
736.531	27790
736.644	29146
736.758	28385
736.872	27179
736.985	29056
737.099	27767
737.212	28011
737.326	25470
737.439	29044
737.553	25982
737.666	28230
737.780	26493
737.893	27275
738.007	26140
738.120	27474
738.233	24683
738.347	26805
738.460	23827
738.573	27774
738.687	24190
738.800	25304
738.913	26655
739.026	25632
739.140	22936
739.253	24594
739.366	23327
739.479	23541
739.592	24604
739.705	21953
739.818	26760
739.932	21552
740.045	24001
740.158	22923
740.271	23699
740.384	23144
740.497	19786
740.610	22888
740.723	21260
740.836	21726
740.949	22285
741.062	23716
741.174	19793
741.287	22046
741.400	21663
741.513	18701
741.626	22052
741.739	20208
741.851	19573
741.964	22050
742.077	19308
742.189	19057
742.302	21405
742.415	19883
742.527	19920
742.640	19378
742.753	16177
742.865	20108
742.978	18137
743.090	17260
743.203	20284
743.316	16661
743.428	18173
743.541	18583
743.653	16101
743.766	19068
743.878	18809
743.990	15695
744.103	18800
744.215	17706
744.327	15886
744.440	21113
744.552	15986
744.664	15863
744.777	18975
744.889	16238
745.001	16321
745.113	18096
745.226	15648
745.338	15259
745.450	19139
745.562	15868
745.674	15248
745.786	18657
745.898	16119
746.010	15476
746.122	17880
746.234	15732
746.347	15260
746.459	15153
746.570	11974
746.682	16918
746.794	17995
746.906	13548
747.018	15534
747.130	17172
747.242	13318
747.354	14413
747.466	16562
747.577	14032
747.689	14774
747.801	15927
747.913	13011
748.024	14565
748.136	13717
748.248	12103
748.359	13881
748.471	14333
748.583	11095
748.694	12526
748.806	14124
748.918	12774
749.029	12868
749.141	13573
749.252	13608
749.364	10751
749.475	11912
749.587	11944
749.698	12422
749.809	13130
749.921	13068
750.032	11621
750.144	11265
750.255	11448
750.366	12133
750.478	11630
750.589	11738
750.700	10681
750.811	12516
750.923	11753
751.034	11342
751.145	13180
751.256	11797
751.367	11264
751.479	11412
751.590	10622
751.701	10290
751.812	9812
751.923	10753
752.034	12959
752.145	11473
752.256	12659
752.367	10490
752.478	10656
752.589	11357
752.700	11149
752.811	9534
752.922	10446
753.032	12856
753.143	12113
753.254	10060
753.365	12404
753.476	12437
753.586	10587
753.697	10244
753.808	11047
753.919	10050
754.029	11098
754.140	9798
754.251	10237
754.361	10939
754.472	11836
754.582	9405
754.693	10141
754.804	11713
754.914	10068
755.025	8136
755.135	10228
755.246	11462
755.356	9088
755.466	8925
755.577	9742
755.687	9228
755.798	9103
755.908	8756
756.018	9256
756.129	9734
756.239	9939
756.349	10523
756.460	10687
756.570	10681
756.680	9716
756.790	9903
756.900	9767
757.011	8572
757.121	8169
757.231	9169
757.341	10018
757.451	8009
757.561	8376
757.671	9606
757.781	9177
757.891	8577
758.001	7735
758.111	9550
758.221	10325
758.331	11446
758.441	9631
758.551	9993
758.661	9778
758.771	10945
758.880	10142
758.990	8760
759.100	9028
759.210	8868
759.320	9661
759.429	9576
759.539	10831
759.649	11368
759.758	12461
759.868	13090
759.978	13266
760.087	13556
760.197	13993
760.307	11999
760.416	11734
760.526	10229
760.635	11629
760.745	12727
760.854	13734
760.964	16224
761.073	14295
761.182	14346
761.292	13008
761.401	11360
761.511	9578
761.620	8904
761.729	9234
761.839	8488
761.948	8140
762.057	8109
762.166	8936
762.276	8017
762.385	8481
762.494	7937
762.603	7838
762.712	7849
762.822	8763
762.931	6762
763.040	6307
763.149	6647
763.258	6728
763.367	7927
763.476	7293
763.585	6104
763.694	7161
763.803	7121
763.912	6509
764.021	7350
764.130	6707
764.238	7840
764.347	7469
764.456	8227
764.565	7101
764.674	6239
764.783	6639
764.891	6029
765.000	7316
765.109	6784
765.217	5621
765.326	7006
765.435	7041
765.543	6706
765.652	5597
765.761	5914
765.869	6367
765.978	6536
766.086	7291
766.195	6252
766.303	7842
766.412	11259
766.520	9489
766.629	5651
766.737	5662
766.846	6372
766.954	5474
767.062	7192
767.171	6145
767.279	6432
767.387	6632
767.496	6041
767.604	5975
767.712	6258
767.820	5854
767.928	6223
768.037	6018
768.145	5195
768.253	5558
768.361	5409
768.469	6454
768.577	5371
768.685	7329
768.793	7426
768.901	6894
769.009	6959
769.117	6624
769.225	6275
769.333	7712
769.441	6914
769.549	7140
769.657	6274
769.765	8017
769.873	11912
769.981	8006
770.088	7208
770.196	6706
770.304	8956
770.412	8395
770.519	8859
770.627	9384
770.735	8433
770.842	9350
770.950	9185
771.058	10773
771.165	13692
771.273	14486
771.380	16052
771.488	22439
771.595	26583
771.703	23076
771.810	20518
771.918	21872
772.025	26732
772.133	30944
772.240	28354
772.348	34879
772.455	31315
772.562	28045
772.670	27368
772.777	28736
772.884	27267
772.991	25809
773.099	27642
773.206	25776
773.313	27013
773.420	25783
773.528	26332
773.635	24702
773.742	27977
773.849	24164
773.956	27137
774.063	24687
774.170	25615
774.277	26588
774.384	24028
774.491	24013
774.598	24268
774.705	23734
774.812	24245
774.919	23260
775.026	23133
775.133	23944
775.239	23840
775.346	22396
775.453	23264
775.560	21580
775.667	23800
775.773	21788
775.880	21910
775.987	20714
776.093	21818
776.200	24449
776.307	17607
776.413	19605
776.520	25243
776.627	21200
776.733	19209
776.840	17691
776.946	25970
777.053	19751
777.159	19252
777.266	18375
777.372	19643
777.478	21436
777.585	21240
777.691	16744
777.798	21310
777.904	18267
778.010	18260
778.117	20423
778.223	17576
778.329	19101
778.435	16750
778.542	19614
778.648	17503
778.754	16394
778.860	18754
778.966	18496
779.072	16494
779.178	18101
779.284	15180
779.391	17363
779.497	18315
779.603	18750
779.708	15394
779.815	15261
779.920	18423
780.026	14374
780.132	17004
780.238	17054
780.344	14960
780.450	20586
780.556	13271
780.661	15032
780.767	18093
780.873	11437
780.979	13864
781.085	17773
781.190	14414
781.296	14252
781.402	15538
781.507	14406
781.613	11100
781.719	15602
781.824	16666
781.930	14627
782.035	16143
782.141	17357
782.246	11151
782.352	12915
782.457	14589
782.563	13950
782.668	14754
782.773	13163
782.879	12033
782.984	13661
783.090	13929
783.195	14751
783.300	15934
783.405	11951
783.511	10475
783.616	13205
783.721	13259
783.826	11807
783.932	10894
784.037	13117
784.142	12680
784.247	12796
784.352	12667
784.457	9836
784.562	13530
784.667	13689
784.772	9268
784.877	8706
784.982	13769
785.087	13555
785.192	10789
785.297	11464
785.402	12872
785.507	12147
785.611	11395
785.716	10045
785.821	11020
785.926	12220
786.031	11260
786.135	11427
786.240	12031
786.345	9541
786.450	9801
786.554	10789
786.659	10162
786.763	11265
786.868	10682
786.973	12059
787.077	9104
787.182	8499
787.286	11016
787.391	13218
787.495	8161
787.600	7458
787.704	9777
787.809	10673
787.913	9629
788.017	9998
788.122	12091
788.226	8844
788.330	6441
788.435	9858
788.539	12141
788.643	8610
788.747	6206
788.852	9939
788.956	8863
789.060	11041
789.164	10173
789.268	9128
789.372	10037
789.476	9522
789.580	6901
789.684	7993
789.788	10664
789.892	9697
789.996	6835
790.100	6577
790.204	9631
790.308	11648
790.412	7028
790.516	5832
790.620	7269
790.724	10836
790.828	8365
790.931	5392
791.035	7946
791.139	7861
791.242	8799
791.346	8540
791.450	8384
791.554	6862
791.657	5184
791.761	7810
791.864	8139
791.968	9457
792.072	9196
792.175	6377
792.279	6812
792.382	6436
792.486	7220
792.589	7892
792.693	8697
792.796	6610
792.899	7573
793.003	8523
793.106	6193
793.209	7158
793.313	6086
793.416	4903
793.519	7199
793.623	10161
793.726	7967
793.829	6170
793.932	5232
794.035	4895
794.138	9083
794.242	9472
794.345	5224
794.448	4959
794.551	4309
794.654	7735
794.757	7047
794.860	6103
794.963	7299
795.066	6473
795.169	6719
795.272	6919
795.375	8223
795.477	5740
795.580	5589
795.683	5761
795.786	7721
795.889	5946
795.991	6016
796.094	7146
796.197	5521
796.300	8593
796.402	7407
796.505	4545
796.608	4081
796.710	5585
796.813	7229
796.915	6758
797.018	6720
797.120	5669
797.223	5166
797.326	8649
797.428	4898
797.530	4031
797.633	5656
797.735	7040
797.838	5868
797.940	8065
798.042	6599
798.145	5466
798.247	5577
798.349	4056
798.452	6975
798.554	5990
798.656	6301
798.758	7605
798.860	6076
798.962	5959
799.065	4506
799.167	4496
799.269	6563
799.371	7315
799.473	7964
799.575	6260
799.677	5175
799.779	5118
799.881	3627
799.983	6597
800.085	5899
800.187	5236
800.289	3887
800.390	4895
800.492	7506
800.594	5806
800.696	4157
800.798	4952
800.899	5029
801.001	5163
801.103	5576
801.205	4919
801.306	4793
801.408	5253
801.509	5514
801.611	5182
801.713	6004
801.814	3368
801.916	4002
802.017	4567
802.119	3423
802.220	5209
802.322	4753
802.423	6446
802.525	3630
802.626	4423
802.727	6266
802.829	5826
802.930	850
803.031	5131
803.133	4245
803.234	5599
803.335	5138
803.436	4093
803.538	4062
803.639	3798
803.740	5647
803.841	4916
803.942	6289
804.043	4869
804.144	4088
804.245	3632
804.346	3985
804.447	4882
804.548	4504
804.649	5558
804.750	3463
804.851	3753
804.952	4174
805.053	4211
805.154	3129
805.255	5068
805.355	4577
805.456	3564
805.557	3577
805.658	3893
805.758	4209
805.859	3585
805.960	4404
806.061	3689
806.161	3967
806.262	3735
806.362	3210
806.463	3124
806.564	5424
806.664	4523
806.765	3530
806.865	3954
806.966	3839
807.066	3274
807.166	5014
807.267	4895
807.367	2990
807.468	5183
807.568	2988
807.668	3432
807.769	5279
807.869	5131
807.969	4163
808.069	3547
808.170	4183
808.270	4191
808.370	3436
808.470	4468
808.570	3655
808.670	3746
808.770	3847
808.870	3264
808.970	3654
809.070	3203
809.170	3660
809.271	4611
809.370	3982
809.470	4123
809.570	2594
809.670	2746
809.770	3757
809.870	3933
809.970	3546
810.070	4096
810.169	4539
810.269	1999
810.369	4328
810.469	3787
810.568	3775
810.668	2642
810.768	3228
810.867	3525
810.967	3129
811.066	2956
811.166	4066
811.265	4853
811.365	3008
811.464	2852
811.564	3707
811.663	3356
811.763	2613
811.862	4955
811.962	3874
812.061	3102
812.160	3108
812.260	3704
812.359	2968
812.458	3478
812.557	4274
812.657	3415
812.756	4034
812.855	3861
812.954	3147
813.053	4003
813.153	3755
813.252	1951
813.351	3579
813.450	4259
813.549	3972
813.648	4733
813.747	2922
813.846	4417
813.945	3803
814.044	4751
814.143	4766
814.242	5044
814.341	4511
814.439	5397
814.538	4694
814.637	5457
814.736	6326
814.835	6200
814.933	5178
815.032	8026
815.131	10930
815.229	21082
815.328	27958
815.427	19245
815.525	17440
815.624	16453
815.722	16833
815.821	18111
815.919	18397
816.018	17520
816.116	17594
816.215	18098
816.313	19933
816.412	22280
816.510	22728
816.609	23918
816.707	25944
816.805	22301
816.904	22393
817.002	22321
817.100	23283
817.198	24125
817.296	21162
817.395	22889
817.493	21736
817.591	20070
817.689	20552
817.787	21136
817.885	21234
817.983	19282
818.081	19512
818.179	19478
818.277	23653
818.375	19852
818.473	20257
818.571	17447
818.669	20274
818.767	21628
818.865	18472
818.963	15438
819.061	20177
819.158	18478
819.256	21476
819.354	16963
819.452	17017
819.549	16083
819.647	20415
819.745	16367
819.842	16869
819.940	18621
820.038	17096
820.135	15475
820.233	19002
820.330	17429
820.428	16399
820.525	18133
820.623	16229
820.720	15159
820.818	16706
820.915	17320
821.012	15999
821.110	13831
821.207	16529
821.304	15237
821.402	16288
821.499	17213
821.596	13467
821.693	15414
821.791	17234
821.888	15309
821.985	17552
822.082	13925
822.179	15529
822.276	16333
822.373	12953
822.470	14412
822.567	15968
822.664	13518
822.761	14338
822.858	16169
822.955	14013
823.052	12242
823.149	14668
823.246	14542
823.343	10797
823.440	12595
823.536	15973
823.633	13705
823.730	11868
823.827	15373
823.923	14187
824.020	12101
824.117	15514
824.213	14328
824.310	11918
824.407	10946
824.503	14170
824.600	12992
824.696	10781
824.793	15164
824.889	14778
824.986	11096
825.082	8989
825.179	10809
825.275	14465
825.371	16272
825.468	9865
825.564	6528
825.660	13253
825.757	16721
825.853	11841
825.949	9469
826.045	10178
826.142	12374
826.238	12845
826.334	12600
826.430	12329
826.526	7041
826.622	8042
826.718	13907
826.814	15341
826.910	11167
827.006	7514
827.102	7988
827.198	12713
827.294	13578
827.390	12463
827.486	10308
827.582	6678
827.678	8942
827.774	14513
827.869	8893
827.965	9173
828.061	7995
828.157	13327
828.252	12348
828.348	9722
828.444	8289
828.539	9273
828.635	11129
828.731	10204
828.826	7975
828.922	10014
829.017	11734
829.113	10681
829.208	7616
829.304	9544
829.399	13105
829.495	9979
829.590	9244
829.685	10094
829.781	10846
829.876	11049
829.971	5284
830.066	5723
830.162	9019
830.257	14196
830.352	10024
830.447	6449
830.543	7435
830.638	9519
830.733	11560
830.828	8205
830.923	9323
831.018	10093
831.113	11501
831.208	6438
831.303	5081
831.398	6248
831.493	9413
831.588	12971
831.683	7501
831.778	5527
831.873	6552
831.967	9267
832.062	9661
832.157	7951
832.252	7233
832.346	6534
832.441	10858
832.536	8010
832.631	8590
832.725	6641
832.820	7292
832.914	8610
833.009	6059
833.104	5019
833.198	6465
833.293	7329
833.387	10713
833.482	8195
833.576	7606
833.670	6730
833.765	7036
833.859	8630
833.954	8600
834.048	8332
834.142	7089
834.237	4833
834.331	8421
834.425	8771
834.519	6520
834.613	5697
834.708	5899
834.802	5959
834.896	7565
834.990	7920
835.084	5513
835.178	4377
835.272	6204
835.366	9900
835.460	9431
835.554	6060
835.648	3974
835.742	3925
835.836	5224
835.930	6130
836.024	7685
836.117	6370
836.211	6166
836.305	4509
836.399	5740
836.493	5428
836.586	7916
836.680	6814
836.774	4773
836.867	5977
836.961	5121
837.055	5789
837.148	4887
837.242	6300
837.335	5947
837.429	5597
837.522	4921
837.616	5380
837.709	4745
837.803	5624
837.896	8079
837.989	7288
838.083	4249
838.176	3892
838.269	3441
838.363	5618
838.456	4899
838.549	6976
838.642	5938
838.735	4814
838.829	5772
838.922	4483
839.015	5120
839.108	4516
839.201	4549
839.294	7041
839.387	5395
839.480	3910
839.573	4360
839.666	4425
839.759	4587
839.852	5111
839.945	7214
840.038	4799
840.131	3964
840.223	3799
840.316	4984
840.409	6285
840.502	6804
840.594	6601
840.687	3439
840.780	3145
840.873	2521
840.965	3639
841.058	5577
841.150	6506
841.243	2895
841.336	4297
841.428	3446
841.521	4387
841.613	4272
841.706	5082
841.798	3646
841.890	5261
841.983	3370
842.075	3876
842.167	4062
842.260	4647
842.352	5632
842.444	5021
842.537	3000
842.629	3425
842.721	3651
842.813	5191
842.905	3835
842.997	4972
843.090	5031
843.182	4327
843.274	2711
843.366	3336
843.458	4563
843.550	6168
843.642	5058
843.734	4450
843.826	2170
843.918	2525
844.009	4319
844.101	3090
844.193	4058
844.285	4007
844.377	4949
844.469	3631
844.560	2008
844.652	3263
844.744	3587
844.835	3993
844.927	4847
845.019	4881
845.110	3883
845.202	5492
845.293	2720
845.385	2233
845.476	3511
845.568	4169
845.659	3463
845.751	2891
845.842	3491
845.934	3681
846.025	3820
846.116	3546
846.208	3262
846.299	2860
846.390	2406
846.482	3559
846.573	4576
846.664	3674
846.755	2627
846.846	4509
846.937	1805
847.029	2834
847.120	2647
847.211	3735
847.302	5738
847.393	3300
847.484	4142
847.575	1941
847.666	1803
847.757	2048
847.847	3031
847.938	4910
848.029	4384
848.120	3605
848.211	3298
848.302	2580
848.392	2319
848.483	3851
848.574	3347
848.664	4234
848.755	3453
848.846	2075
848.936	3078
849.027	3831
849.118	5261
849.208	3550
849.299	4339
849.389	7679
849.480	10732
849.570	17173
849.661	30840
849.751	44870
849.841	17739
849.932	5941
850.022	3455
850.112	3792
850.203	3401
850.293	3216
850.383	3255
850.474	2445
850.564	2518
850.654	2621
850.744	2087
850.834	3502
850.924	3991
851.014	5304
851.104	3191
851.194	2410
851.284	2531
851.374	2590
851.464	2869
851.554	2432
851.644	2618
851.734	3356
851.824	3501
851.914	3713
852.004	3410
852.094	2481
852.183	1885
852.273	2857
852.363	1900
852.452	3722
852.542	3021
852.632	3470
852.721	3277
852.811	3356
852.901	4923
852.990	4087
853.080	3538
853.169	3719
853.259	4080
853.348	4099
853.438	5322
853.527	5453
853.617	8065
853.706	12219
853.795	19384
853.885	35761
853.974	60107
854.063	103350
854.152	125969
854.242	57223
854.331	19988
854.420	9983
854.509	7877
854.598	7398
854.687	5760
854.777	4317
854.866	3838
854.955	3938
855.044	3331
855.133	3064
855.222	4176
855.311	3067
855.400	3276
855.488	2357
855.577	2679
855.666	2251
855.755	2994
855.844	3166
855.933	2795
856.021	3276
856.110	3611
856.199	2526
856.288	1703
856.376	2722
856.465	2553
856.554	2792
856.642	3518
856.731	4420
856.819	3933
856.908	2894
856.996	3365
857.085	2830
857.173	1827
857.262	1910
857.350	1537
857.438	2993
857.527	2301
857.615	2419
857.703	3688
857.792	2211
857.880	1425
857.968	1702
858.056	2814
858.145	3353
858.233	2838
858.321	2419
858.409	3440
858.497	2985
858.585	2535
858.673	3275
858.761	1892
858.849	1948
858.937	2142
859.025	3133
859.113	3934
859.201	2919
859.289	4434
859.377	3286
859.465	3244
859.552	1958
859.640	2608
859.728	2622
859.816	1921
859.903	3296
859.991	1678
860.079	3582
860.166	2593
860.254	2559
860.342	3670
860.429	2905
860.517	3009
860.604	3007
860.692	2754
860.779	2097
860.867	3462
860.954	2753
861.042	3971
861.129	4307
861.216	3830
861.304	4034
861.391	3730
861.478	2480
861.565	3165
861.653	3342
861.740	1946
861.827	1960
861.914	3019
862.001	2873
862.089	3650
862.176	2945
862.263	2633
862.350	3640
862.437	2979
862.524	2277
862.611	3256
862.698	3328
862.785	4094
862.871	4723
862.958	4235
863.045	4683
863.132	4656
863.219	3369
863.306	2546
863.392	3180
863.479	2544
863.566	3164
863.652	3689
863.739	4285
863.826	4702
863.912	5233
863.999	3589
864.086	4632
864.172	5627
864.259	4974
864.345	5325
864.432	5170
864.518	4393
864.604	5355
864.691	5110
864.777	6195
864.863	8124
864.950	11939
865.036	15380
865.122	28272
865.209	27886
865.295	24174
865.381	22514
865.467	22144
865.553	22204
865.639	22597
865.726	27707
865.812	36364
865.898	49785
865.984	65064
866.070	100203
866.156	94145
866.242	44308
866.328	27253
866.414	22822
866.499	20580
866.585	20139
866.671	20910
866.757	21088
866.843	19323
866.928	19566
867.014	17962
867.100	19906
867.186	19528
867.271	18029
867.357	18272
867.442	18057
867.528	19253
867.614	18594
867.699	18330
867.785	18063
867.870	18063
867.956	18010
868.041	17776
868.127	16351
868.212	16872
868.297	16608
868.383	17450
868.468	16161
868.553	18598
868.639	16207
868.724	17748
868.809	17429
868.894	15854
868.979	17702
869.065	16070
869.150	13828
869.235	16430
869.320	17206
869.405	15166
869.490	17489
869.575	16599
869.660	12489
869.745	17361
869.830	17113
869.915	14815
870.000	14623
870.085	14534
870.169	19591
870.254	18189
870.339	10998
870.424	13834
870.509	15636
870.593	18017
870.678	17296
870.763	13823
870.847	11747
870.932	16419
871.016	15365
871.101	10494
871.186	14639
871.270	17950
871.355	11894
871.439	13391
871.523	15932
871.608	11488
871.692	12333
871.777	16312
871.861	15313
871.945	13655
872.030	13675
872.114	13440
872.198	12183
872.282	12045
872.367	12510
872.451	12661
872.535	12671
872.619	13693
872.703	12243
872.787	14215
872.871	13655
872.955	10651
873.039	10107
873.123	13875
873.207	14285
873.291	9782
873.375	12055
873.459	14518
873.543	12977
873.627	11120
873.711	10254
873.794	13906
873.878	12836
873.962	9691
874.045	11839
874.129	11570
874.137	11573
874.213	11608
874.245	11423
874.296	11137
874.352	10694
874.380	10475
874.460	11244
874.464	11278
874.547	9752
874.568	10282
874.631	11849
874.676	11411
874.714	11033
874.784	12250
874.798	12494
874.881	9813
874.892	9629
874.965	8452
874.999	9874
875.048	11748
875.107	11503
875.131	11418
875.215	8057
875.215	8057
875.298	8806
875.323	9471
875.381	11066
875.430	12800
875.465	13896
875.538	11418
875.548	11091
875.631	8118
875.646	7994
875.714	7507
875.753	8388
875.798	9441
875.861	11096
875.881	11546
875.964	9636
875.968	9556
876.047	8397
876.076	8927
876.130	9977
876.183	10709
876.213	11084
876.291	11367
876.296	11359
876.379	10078
876.398	9573
876.462	8046
876.506	7691
876.545	7467
876.613	8146
876.628	8345
876.711	10198
876.721	10404
876.794	11713
876.828	11437
876.877	10659
876.935	8175
876.960	7389
877.043	8456
877.043	8463
877.125	10336
877.150	10851
877.208	11415
877.258	9544
877.291	8435
877.365	7683
877.374	7608
877.456	8157
877.472	7924
877.539	7182
877.579	8647
877.622	10068
877.687	9920
877.704	9898
877.787	9794
877.794	9808
877.869	10040
877.901	10030
877.952	9263
878.008	7302
878.034	6720
878.115	6826
878.117	6835
878.199	8128
878.222	8356
878.282	9093
878.329	10244
878.364	10681
878.437	10047
878.447	9931
878.529	7545
878.544	7419
878.611	7398
878.651	7766
878.694	8501
878.758	9424
878.776	9544
878.858	9990
878.865	9915
878.941	7962
878.972	7075
879.023	6449
879.078	7659
879.105	8427
879.185	10256
879.187	10284
879.269	9314
879.292	9697
879.351	10054
879.399	8736
879.433	7969
879.506	7695
879.516	7691
879.598	8223
879.613	8048
879.680	7246
879.720	7877
879.762	8772
879.827	8583
879.844	8353
879.926	8210
879.933	8170
880.007	8122
880.040	7558
880.089	7007
880.147	8182
880.171	8736
880.253	9411
880.254	9405
880.335	7861
880.360	7915
880.417	9316
880.467	9719
880.499	9326
880.574	8306
880.580	8319
880.662	9966
880.680	9685
880.744	7396
880.787	6980
880.825	7313
880.893	8221
880.907	8310
880.989	7157
881.000	7241
881.070	8914
881.106	9328
881.152	8503
881.213	6588
881.233	6317
881.315	7254
881.319	7291
881.396	8278
881.426	8310
881.478	8694
881.532	9938
881.559	10237
881.639	8905
881.641	8853
881.722	7462
881.745	7238
881.803	8418
881.852	8934
881.885	8430
881.958	6792
881.966	6776
882.047	8701
882.064	8604
882.129	6800
882.171	5838
882.210	5404
882.277	5668
882.291	5999
882.372	8309
882.383	8552
882.454	10128
882.489	10397
882.535	9669
882.596	9570
882.616	9904
882.697	9552
882.702	9529
882.778	6372
882.808	5556
882.859	5818
882.914	6116
882.940	6353
883.020	6980
883.021	6995
883.102	8286
883.127	8829
883.183	10747
883.233	11115
883.264	9367
883.339	5618
883.345	5519
883.426	4690
883.445	4768
883.507	6217
883.551	6706
883.587	7545
883.657	9545
883.668	9750
883.749	10626
883.763	10608
883.830	7207
883.869	5552
883.910	5528
883.975	6243
883.991	6575
884.072	7367
884.081	7499
884.152	9523
884.187	10500
884.233	11276
884.292	11044
884.314	9721
884.394	5168
884.398	4971
884.475	4459
884.504	4229
884.555	4904
884.610	5801
884.636	6285
884.716	8031
884.716	8060
884.797	11248
884.821	11989
884.877	10521
884.927	9171
884.958	8248
885.033	6076
885.038	6015
885.118	5137
885.139	4965
885.199	5439
885.244	5728
885.279	6537
885.350	8646
885.359	9071
885.439	12328
885.456	12763
885.520	9155
885.561	7084
885.600	6347
885.667	5811
885.680	6193
885.760	7632
885.773	7840
885.840	5927
885.878	5112
885.920	5644
885.984	6480
886.000	6772
886.080	7911
886.089	8034
886.160	9041
886.195	9288
886.240	8446
886.300	7711
886.320	7853
886.400	8273
886.406	8271
886.480	6794
886.511	6297
886.560	6642
886.616	6871
886.640	6612
886.720	5819
886.722	5799
886.800	6608
886.827	6762
886.879	7616
886.932	8598
886.959	9180
887.038	10696
887.039	10693
887.119	8822
887.143	8298
887.198	8018
887.248	7761
887.278	7532
887.354	6895
887.358	6936
887.437	7375
887.459	7582
887.517	8370
887.564	8793
887.596	7894
887.669	5810
887.676	5711
887.755	4598
887.774	4321
887.835	5041
887.880	5672
887.914	6352
887.985	7450
887.994	7743
888.073	10612
888.090	11105
888.153	11960
888.195	12425
888.232	10385
888.300	6834
888.311	6743
888.391	5976
888.405	5832
888.470	5564
888.510	5390
888.549	5764
888.615	6498
888.628	6975
888.708	9745
888.720	10135
888.787	8880
888.825	8125
888.866	6501
888.930	4109
888.945	4432
889.024	6183
889.035	6392
889.103	7771
889.140	8503
889.182	7737
889.245	6651
889.261	6881
889.340	7896
889.349	8006
889.419	7481
889.454	7174
889.498	6574
889.559	5787
889.577	6406
889.656	9082
889.664	9336
889.735	8496
889.768	8070
889.814	7608
889.873	6956
889.978	7712
890.083	7084
890.187	7940
890.292	9170
890.397	7043
890.501	6704
890.606	5096
890.710	7074
890.815	10142
890.919	7959
891.024	7741
891.128	5029
891.233	5342
891.337	9535
891.442	9216
891.546	7475
891.650	5498
891.755	4969
891.859	7618
891.963	10326
892.068	7678
892.172	6227
892.276	4162
892.380	6121
892.484	9139
892.589	9506
892.693	7018
892.797	4296
892.901	4081
893.005	5787
893.109	11895
893.213	8983
893.317	6146
893.421	4425
893.525	3398
893.629	5380
893.733	8940
893.837	7213
893.941	6964
894.045	4425
894.148	4526
894.252	4760
894.356	8536
894.460	10363
894.564	6567
894.667	5913
894.771	3123
894.875	3926
894.978	5840
895.082	8045
895.186	8384
895.289	6235
895.393	4960
895.496	8994
895.600	4920
895.703	4112
895.807	5186
895.910	6682
896.014	7354
896.117	4893
896.221	7041
896.324	7849
896.427	3546
896.531	3996
896.634	6174
896.737	6431
896.840	7172
896.944	8779
897.047	8777
897.150	5905
897.253	4330
897.356	3970
897.460	2793
897.563	4577
897.666	7586
897.769	7854
897.872	4818
897.975	4334
898.078	5509
898.181	3806
898.284	5269
898.387	8395
898.490	8068
898.593	5147
898.695	4206
898.798	5077
898.901	3770
899.004	5605
899.107	5935
899.209	5415
899.312	9887
899.415	4679
899.518	3464
899.620	3115
899.723	4337
899.826	5477
899.928	3697
900.031	6189
900.133	8530
900.236	5500
900.338	3928
900.441	4330
900.543	5116
900.646	5820
900.748	5657
900.851	7836
900.953	5284
901.055	4261
901.158	4674
901.260	3991
901.362	2745
901.465	3249
901.567	5473
901.669	6738
901.771	4364
901.873	6148
901.976	5891
902.078	5743
902.180	4361
902.282	4078
902.384	5372
902.486	9117
902.588	6952
902.690	3220
902.792	2987
902.894	5208
902.996	6370
903.098	6368
903.200	3777
903.302	3192
903.404	4071
903.505	4329
903.607	4333
903.709	8095
903.811	7825
903.913	5743
904.014	3318
904.116	2883
904.218	3414
904.319	6075
904.421	8506
904.523	6821
904.624	4224
904.726	3476
904.827	2967
904.929	3418
905.030	4673
905.132	8326
905.233	6097
905.335	3403
905.436	3182
905.537	3482
905.639	3780
905.740	4426
905.841	7184
905.943	5538
906.044	4619
906.145	3264
906.247	2400
906.348	4150
906.449	4906
906.550	6127
906.651	4188
906.752	4637
906.854	3282
906.955	3194
907.056	3675
907.157	7954
907.258	6654
907.359	2919
907.460	2250
907.561	3800
907.662	2987
907.762	5385
907.863	6456
907.964	5784
908.065	5037
908.166	4218
908.267	3986
908.367	3298
908.468	3691
908.569	5431
908.670	6401
908.770	4983
908.871	5291
908.971	5565
909.072	4594
909.173	3716
909.273	4067
909.374	6780
909.474	4011
909.575	3492
909.675	4655
909.776	5204
909.876	3399
909.977	3795
910.077	4841
910.177	6825
910.278	4475
910.378	2872
910.478	4029
910.579	5419
910.679	6290
910.779	6391
910.879	6106
910.980	6526
911.080	5855
911.180	3190
911.280	2898
911.380	3821
911.480	2959
911.580	4586
911.680	4496
911.780	5853
911.880	5848
911.980	3527
912.080	3314
912.180	4578
912.280	4552
912.380	3404
912.480	2555
912.580	3381
912.679	3423
912.779	6846
912.879	5261
912.979	4406
913.078	3076
913.178	3470
913.278	2549
913.377	3946
913.477	3949
913.577	3562
913.676	6016
913.776	7526
913.875	5278
913.975	4132
914.074	5325
914.174	5321
914.273	2884
914.373	5058
914.472	3526
914.572	3974
914.671	3460
914.770	4371
914.870	3352
914.969	3557
915.068	5703
915.167	5991
915.267	3785
915.366	4277
915.465	4210
915.564	5342
915.663	5250
915.763	4869
915.862	6771
915.961	6107
916.060	3707
916.159	3716
916.258	3686
916.357	3679
916.456	4563
916.555	6055
916.654	4982
916.752	6520
916.851	5793
916.950	3831
917.049	2941
917.148	3097
917.247	3841
917.345	3489
917.444	3637
917.543	3884
917.642	4756
917.740	6009
917.839	8710
917.937	8015
918.036	6694
918.135	5189
918.233	4121
918.332	4933
918.430	3798
918.529	4802
918.627	4624
918.726	7209
918.824	5520
918.923	4315
919.021	4967
919.119	3689
919.218	4290
919.316	4912
919.414	5531
919.512	6844
919.611	6743
919.709	6101
919.807	8482
919.905	9306
920.003	8655
920.102	8059
920.200	8028
920.298	8477
920.396	8815
920.494	7541
920.592	6048
920.690	7151
920.788	7802
920.886	8203
920.984	8553
921.082	9749
921.180	10341
921.277	9853
921.375	11996
921.473	16557
921.571	15217
921.669	13602
921.766	12418
921.864	14214
921.962	13471
922.060	12335
922.157	13851
922.255	14933
922.352	14187
922.450	15816
922.548	16225
922.645	18645
922.743	25316
922.840	37614
922.938	42922
923.035	37067
923.133	35891
923.230	43001
923.327	50331
923.425	45664
923.522	45406
923.619	41284
923.717	38049
923.814	36820
923.911	37652
924.008	39387
924.106	35352
924.203	36155
924.300	38602
924.397	36232
924.494	36525
924.591	35991
924.688	34477
924.786	35678
924.883	36495
924.979	36421
925.077	35582
925.173	33825
925.270	34226
925.367	34491
925.464	35891
925.561	37745
925.658	36936
925.755	31019
925.852	37054
925.948	33618
926.045	33307
926.142	34784
926.239	35643
926.335	27205
926.432	33310
926.529	36084
926.625	37803
926.722	30411
926.818	31170
926.915	35549
927.011	32363
927.108	32332
927.204	33043
927.301	29054
927.397	34814
927.494	36919
927.590	25349
927.687	28821
927.783	36328
927.879	34868
927.976	29522
928.072	27232
928.168	32657
928.264	32406
928.361	29560
928.457	34900
928.553	28321
928.649	29409
928.745	30797
928.841	27133
928.937	30287
929.033	29608
929.129	28757
929.225	34868
929.321	28245
929.417	25879
929.513	32739
929.609	26974
929.705	26156
929.801	31243
929.897	25452
929.993	27123
930.089	28202
930.184	24734
930.280	29652
930.376	35012
930.471	24767
930.567	23085
930.663	26400
930.758	23889
930.854	26102
930.950	25978
931.045	23135
931.141	24899
931.236	31209
931.332	26221
931.427	21816
931.523	31238
931.618	26886
931.714	18531
931.809	23402
931.905	27842
932.000	18745
932.095	18549
932.191	29066
932.286	32026
932.381	25006
932.476	20602
932.572	24122
932.667	20299
932.762	20337
932.857	24556
932.952	28984
933.047	22844
933.142	19245
933.237	24391
933.332	26500
933.427	27072
933.522	21918
933.617	19053
933.712	20758
933.807	28285
933.902	28555
933.997	27790
934.092	19441
934.187	22279
934.282	23897
934.376	23877
934.471	25218
934.566	19934
934.661	19641
934.755	24843
934.850	25800
934.945	20862
935.039	17188
935.134	16411
935.228	22378
935.323	30611
935.417	18051
935.512	14917
935.606	17106
935.701	23241
935.795	25277
935.890	21043
935.984	18001
936.079	14852
936.173	20447
936.267	17952
936.362	17290
936.456	21294
936.550	27842
936.644	21233
936.738	15079
936.833	16183
936.927	13049
937.021	18301
937.115	21538
937.209	21629
937.303	17575
937.397	15137
937.491	18543
937.585	21253
937.679	20248
937.773	15038
937.867	13509
937.961	15711
938.055	24015
938.149	20187
938.243	12495
938.337	13045
938.430	16083
938.524	22287
938.618	16279
938.712	13671
938.805	15858
938.899	20621
938.993	23659
939.086	13888
939.180	9200
939.274	13948
939.367	20039
939.461	21087
939.554	15065
939.648	14558
939.741	14278
939.835	18573
939.928	23973
940.022	20567
940.115	16384
940.208	19394
940.302	22543
940.395	22956
940.488	14833
940.582	14768
940.675	12593
940.768	14284
940.861	19994
940.954	20096
941.048	11963
941.141	11308
941.234	13476
941.327	15879
941.420	17506
941.513	17651
941.606	13888
941.699	14007
941.792	18848
941.885	16990
941.978	17112
942.071	16803
942.164	12138
942.257	12389
942.349	15051
942.442	16512
942.535	11718
942.628	12747
942.721	13098
942.813	15739
942.906	14793
942.999	14213
943.091	12660
943.184	13874
943.277	13777
943.369	11058
943.462	8731
943.554	12823
943.647	14454
943.739	16633
943.832	17396
943.924	8858
944.017	9646
944.109	11003
944.201	11721
944.294	11795
944.386	13571
944.478	12582
944.571	10928
944.663	11272
944.755	12193
944.847	15037
944.940	12605
945.032	9459
945.124	8974
945.216	11691
945.308	13341
945.400	12816
945.492	11356
945.584	15336
945.676	16077
945.768	13718
945.860	14336
945.952	16402
946.044	11526
946.136	10053
946.228	11800
946.320	10933
946.412	12517
946.503	15025
946.595	14516
946.687	9983
946.779	8238
946.870	10519
946.962	10244
947.054	10344
947.145	13718
947.237	10402
947.329	12121
947.420	13630
947.512	9874
947.603	7931
947.695	8666
947.786	9142
947.878	10425
947.969	12723
948.061	14087
948.152	11503
948.243	7181
948.335	7473
948.426	8753
948.517	11809
948.609	13146
948.700	11040
948.791	10936
948.882	7017
948.973	8072
949.065	11188
949.156	10264
949.247	8362
949.338	8082
949.429	7268
949.520	7859
949.611	10722
949.702	12047
949.793	9352
949.884	11059
949.975	9267
950.066	6568
950.157	7110
950.247	9107
950.338	7058
950.429	7849
950.520	8536
950.611	7772
950.701	10623
950.792	13880
950.883	11485
950.973	8343
951.064	10562
951.155	11514
951.245	11870
951.336	10767
951.427	13040
951.517	13502
951.608	11542
951.698	9492
951.788	7913
951.879	6620
951.969	7730
952.060	8181
952.150	11307
952.240	11751
952.331	10788
952.421	11052
952.511	7447
952.602	5511
952.692	6044
952.782	5975
952.872	8279
952.962	9837
953.052	7868
953.143	7554
953.233	8651
953.323	8730
953.413	10058
953.503	11731
953.593	9639
953.683	8595
953.773	6131
953.863	6103
953.953	6164
954.042	8993
954.132	9279
954.222	9576
954.312	6783
954.402	7556
954.492	6668
954.581	8870
954.671	8820
954.761	8489
954.850	8898
954.940	4876
955.030	5319
955.119	6130
955.209	6740
955.298	8009
955.388	9802
955.477	9381
955.567	6151
955.656	7516
955.746	7182
955.835	6133
955.925	6731
956.014	8357
956.103	10860
956.193	12455
956.282	10518
956.371	8304
956.461	8384
956.550	8050
956.639	7342
956.728	7164
956.817	7742
956.906	8161
956.995	10224
957.085	6669
957.174	7342
957.263	6485
957.352	7542
957.441	8042
957.530	7472
957.619	5591
957.708	6907
957.796	6083
957.885	7041
957.974	6554
958.063	7305
958.152	4075
958.241	5901
958.329	4979
958.418	6837
958.507	7715
958.596	9462
958.684	6713
958.773	7508
958.861	5492
958.950	4638
959.039	5766
959.127	6115
959.216	7216
959.304	5305
959.393	7073
959.481	7039
959.570	5352
959.658	3903
959.746	4526
959.835	5276
959.923	5982
960.011	4084
960.100	7037
960.188	7933
960.276	6077
960.365	5364
960.453	3667
960.541	4113
960.629	5759
960.717	4651
960.805	3033
960.893	6415
960.981	7253
961.069	9701
961.158	10587
961.245	11897
961.333	9471
961.421	6635
961.509	6044
961.597	6624
961.685	5620
961.773	7124
961.861	7226
961.949	8510
962.036	6246
962.124	4197
962.212	5048
962.299	6529
962.387	4501
962.475	5518
962.562	5652
962.650	7474
962.738	5073
962.825	4016
962.913	4265
963.000	4748
963.088	6711
963.175	6248
963.263	4581
963.350	5358
963.438	5956
963.525	4475
963.612	4982
963.700	5104
963.787	6265
963.874	6040
963.962	4977
964.049	4269
964.136	4199
964.223	4553
964.310	4671
964.398	4028
964.485	5202
964.572	6207
964.659	5150
964.746	3726
964.833	3316
964.920	4961
965.007	4700
965.094	5831
965.181	6142
965.268	7231
965.355	5367
965.441	5744
965.528	4699
965.615	6240
965.702	5039
965.789	5732
965.875	6508
965.962	7296
966.049	5608
966.136	7844
966.222	8139
966.309	8097
966.395	7448
966.482	6700
966.569	6221
966.655	7070
966.742	5882
966.828	5005
966.915	4127
967.001	4991
967.087	3704
967.174	5207
967.260	5241
967.347	5582
967.433	4679
967.519	5417
967.605	5580
967.692	5565
967.778	5319
967.864	5047
967.950	5881
968.036	4786
968.123	5608
968.209	5323
968.295	3677
968.381	5897
968.467	5167
968.553	3522
968.639	5651
968.725	4830
968.811	7008
968.897	7971
968.983	5814
969.069	4280
969.154	4317
969.240	4356
969.326	3755
969.412	4258
969.497	4243
969.583	4364
969.669	5637
969.755	5817
969.840	6205
969.926	10469
970.012	11988
970.097	14838
970.183	12808
970.268	8051
970.354	6449
970.439	4469
970.525	5881
970.610	4643
970.696	6781
970.781	4542
970.866	2877
970.952	5538
971.037	3925
971.122	5966
971.208	5888
971.293	4881
971.378	4288
971.463	5055
971.549	3926
971.634	4720
971.719	4894
971.804	4704
971.889	4626
971.974	4357
972.059	5152
972.144	5231
972.229	4828
972.314	4501
972.399	3913
972.484	4052
972.569	4267
972.654	4159
972.739	4285
972.824	4479
972.908	3916
972.993	3983
973.078	4259
973.163	4446
973.247	5611
973.332	4055
973.417	5774
973.501	4848
973.586	6132
973.671	4868
973.755	4635
973.840	6117
973.924	6847
974.009	8923
974.093	8156
974.178	8799
974.262	6303
974.346	6500
974.431	5695
974.515	5248
974.600	5724
974.684	6698
974.768	5164
974.852	5600
974.937	5257
975.021	6054
975.105	5789
975.189	5200
975.273	5449
975.358	3331
975.442	4110
975.526	5824
975.610	4858
975.694	3881
975.778	5216
975.862	4110
975.946	3076
976.030	5638
976.114	4267
976.198	5874
976.281	5973
976.365	6363
976.449	3653
976.533	5953
976.617	4405
976.700	4416
976.784	3460
976.868	3780
976.951	3978
977.035	4415
977.119	4820
977.202	4816
977.286	6637
977.369	8289
977.453	11378
977.536	10837
977.620	9317
977.703	7926
977.787	6706
977.870	8070
977.953	6720
978.037	4274
978.120	6422
978.203	6100
978.287	6974
978.370	6490
978.453	5297
978.536	4771
978.620	6436
978.703	6965
978.786	4435
978.869	4917
978.952	4895
979.035	6920
979.118	6083
979.201	5701
979.284	5755
979.367	5578
979.450	6439
979.533	5610
979.616	5112
979.699	5073
979.782	6017
979.865	5728
979.948	4615
980.030	5060
980.113	5345
980.196	5020
980.279	5450
980.361	5469
980.444	6611
980.526	9280
980.609	10517
980.692	13375
980.774	10235
980.857	8577
980.939	8443
981.022	7416
981.104	6540
981.187	6685
981.269	7463
981.352	7305
981.434	5429
981.516	6952
981.599	7518
981.681	6704
981.763	5791
981.846	6897
981.928	6904
982.010	6849
982.092	5801
982.174	7662
982.256	6138
982.339	7004
982.421	6685
982.503	7062
982.585	5632
982.667	6538
982.749	6909
982.831	6773
982.913	6626
982.995	7666
983.077	5828
983.158	8531
983.240	6863
983.322	10739
983.404	13766
983.486	12845
983.568	11334
983.649	9779
983.731	10153
983.813	9216
983.894	8293
983.976	9374
984.058	8946
984.139	9047
984.221	7792
984.302	8470
984.384	8225
984.465	8381
984.547	9020
984.628	8111
984.710	9211
984.791	8641
984.872	8694
984.954	8393
985.035	9524
985.116	7661
985.198	8172
985.279	9048
985.360	8360
985.441	7963
985.522	9305
985.604	9280
985.685	7511
985.766	9355
985.847	10737
985.928	8866
986.009	8327
986.090	9072
986.171	9421
986.252	8853
986.333	9087
986.414	8190
986.495	9115
986.576	10541
986.656	9484
986.737	10616
986.818	10510
986.899	9721
986.980	9310
987.060	10828
987.141	10890
987.222	12505
987.302	13210
987.383	14518
987.464	12875
987.544	12948
987.625	11890
987.705	13565
987.786	13607
987.866	12741
987.947	12586
988.027	13056
988.108	11140
988.188	11755
988.268	11077
988.349	11902
988.429	11833
988.509	10999
988.589	10610
988.670	10201
988.750	10803
988.830	10352
988.910	11956
988.990	11437
989.070	9953
989.151	10862
989.231	9053
989.311	10910
989.391	9143
989.471	9824
989.551	9976
989.631	10135
989.711	10630
989.791	9931
989.870	8252
989.950	10845
990.030	9608
990.110	10142
990.190	8703
990.269	8342
990.349	9329
990.429	10066
990.509	8835
990.588	7430
990.668	8966
990.747	9060
990.827	7446
990.907	8990
990.986	9353
991.066	8693
991.145	6966
991.225	9401
991.304	9637
991.383	8718
991.463	8735
991.542	8451
991.622	7874
991.701	7733
991.780	7144
991.859	7746
991.939	7157
992.018	7906
992.097	8342
992.176	6653
992.256	7230
992.335	7199
992.414	8555
992.493	6335
992.572	5413
992.651	8098
992.730	7622
992.809	7221
992.888	6559
992.967	7090
993.046	6411
993.125	5570
993.203	6861
993.282	7922
993.361	6399
993.440	6792
993.519	6356
993.597	6290
993.676	6475
993.755	7968
993.834	6223
993.912	5096
993.991	6007
994.069	5893
994.148	6731
994.226	5265
994.305	6347
994.384	5839
994.462	6898
994.540	4812
994.619	4798
994.697	6114
994.776	6275
994.854	7113
994.932	4868
995.011	4957
995.089	5030
995.167	5305
995.245	5689
995.324	4883
995.402	6348
995.480	4762
995.558	5022
995.636	4757
995.714	5000
995.792	7096
995.870	3328
995.948	4106
996.026	4021
996.104	3348
996.182	4968
996.260	3201
996.338	3874
996.416	3862
996.494	5236
996.572	5761
996.649	4431
996.727	3818
996.805	5192
996.883	4841
996.960	4459
997.038	5245
997.116	5986
997.193	3765
997.271	3528
997.348	2715
997.426	3563
997.504	5256
997.581	5458
997.658	3874
997.736	1460
997.813	2756
997.891	5091
997.968	3176
998.046	4089
998.123	3288
998.200	4812
998.277	3989
998.355	4336
998.432	2684
998.509	2476
998.586	4536
998.663	4690
998.741	3467
998.818	1938
998.895	2796
998.972	4426
999.049	4657
999.126	2759
999.203	4068
999.280	1852
999.357	3539
999.434	3015
999.511	2890
999.587	2502
999.664	1904
999.741	2826
999.818	3389
999.895	3313
999.971	2654
1000.048	2029
1000.125	3100
1000.202	1796
1000.278	3102
1000.355	3509
1000.431	2307
1000.508	1281
1000.584	1956
1000.661	2320
1000.738	3017
1000.814	2172
1000.890	2750
1000.967	3292
1001.043	2654
1001.120	1294
1001.196	2610
1001.272	1362
1001.349	1981
1001.425	2933
1001.501	2825
1001.577	1568
1001.654	2782
1001.730	1763
1001.806	985
1001.882	1683
1001.958	3959
1002.034	2662
1002.110	1121
1002.186	470
1002.262	949
1002.338	994
1002.414	2420
1002.490	2115
1002.566	1744
1002.642	714
1002.718	2536
1002.794	1361
1002.870	1448
1002.945	1381
1003.021	2209
1003.097	1126
1003.173	1749
1003.248	1662
1003.324	2557
1003.400	2227
1003.475	5
1003.551	548
1003.626	1818
1003.702	716
1003.777	1056
1003.853	786
1003.928	293
1004.004	246
1004.079	1522
1004.155	2277
1004.230	528
1004.305	1901
1004.381	367
1004.456	576
1004.531	280
1004.607	820
1004.682	1662
1004.757	1157
1004.832	1064
1004.907	1076
1004.982	1349
1005.057	1471
1005.133	575
1005.208	-166
1005.283	473
1005.358	578
1005.433	242
1005.508	901
1005.583	1487
1005.657	847
1005.732	2600
1005.807	1087
1005.882	654
1005.957	838
1006.032	522
1006.106	735
1006.181	885
1006.256	1396
1006.331	362
1006.405	306
1006.480	372
1006.554	301
1006.629	836
1006.704	464
1006.778	739
1006.853	1162
1006.927	330
1007.002	550
1007.076	1042
1007.150	127
1007.225	661
1007.299	984
1007.373	417
1007.448	397
1007.522	551
1007.596	567
1007.671	-51
1007.745	794
1007.819	1207
1007.893	921
1007.967	571
1008.041	-744
1008.115	920
1008.190	-750
1008.264	1478
1008.338	-675
1008.412	-102
1008.486	-311
1008.560	-138
1008.633	600
1008.707	1506
1008.781	1108
1008.855	9
1008.929	923
1009.003	192
1009.076	-509
1009.150	-623
1009.224	347
1009.298	488
1009.371	-892
1009.445	-14
1009.519	385
1009.592	-775
1009.666	-422
1009.739	457
1009.813	-302
1009.886	1050
1009.960	-494
1010.033	748
1010.107	240
1010.180	-667
1010.253	-747
1010.327	-283
1010.400	-1011
1010.473	-335
1010.547	562
1010.620	186
1010.693	227
1010.766	-998
1010.840	-472
1010.913	401
1010.986	-1186
1011.059	-753
1011.132	-1538
1011.205	715
1011.278	-53
1011.351	-248
1011.424	510
1011.497	-50
1011.570	106
1011.643	-502
1011.716	-371
1011.789	87
1011.862	-832
1011.934	-13
1012.007	-1473
1012.080	-410
1012.153	-438
1012.225	137
1012.298	-675
1012.371	-722
1012.443	-113
1012.516	-190
1012.588	-335
1012.661	-651
1012.733	-766
1012.806	-117
1012.879	-459
1012.951	-1100
1013.023	-1360
1013.096	-563
1013.168	-357
1013.241	256
1013.313	-72
1013.385	-743
1013.458	-1285
1013.530	-184
1013.602	-1471
1013.674	-418
1013.746	-1422
1013.819	-1226
1013.891	236
1013.963	-996
1014.035	-325
1014.107	-537
1014.179	-1322
1014.251	-810
1014.323	163
1014.395	-890
1014.467	-1359
1014.539	-678
1014.611	-660
1014.683	-252
1014.754	-806
1014.826	-1500
1014.898	-1116
1014.970	-1468
1015.042	426
1015.113	90
1015.185	-523
1015.257	-1715
1015.328	-83
1015.400	-619
1015.471	-1037
1015.543	-1342
1015.615	-702
1015.686	-927
1015.757	-1889
1015.829	-1145
1015.901	-903
1015.972	18
1016.043	-816
1016.115	303
1016.186	-705
1016.257	79
1016.328	-871
1016.400	-250
1016.471	-1515
1016.542	-606
1016.613	-1015
1016.685	-724
1016.756	-704
1016.827	-1087
1016.898	-812
1016.969	-362
1017.040	-1365
1017.111	-1371
1017.182	-1412
1017.253	-666
1017.324	-1388
1017.395	-637
1017.466	-315
1017.537	-1485
1017.608	-994
1017.678	-1398
1017.749	-1178
1017.820	-1175
1017.891	-2275
1017.961	-1601
1018.032	-1313
1018.103	-1447
1018.173	-1546
1018.244	-2235
1018.315	-975
1018.385	-354
1018.456	-1293
1018.526	-980
1018.597	-1277
1018.667	-1197
1018.738	-1615
1018.808	-1301
1018.878	-1406
1018.949	-1543
1019.019	-2030
1019.089	-1035
1019.160	-1252
1019.230	-1423
1019.300	-402
1019.371	-1657
1019.441	-914
1019.511	-1003
1019.581	-1625
1019.651	-760
1019.721	-802
1019.791	-1180
1019.861	-1483
1019.931	-408
1020.001	-1249
1020.071	-949
1020.141	-1450
1020.211	-1572
1020.281	-2172
1020.351	-2962
1020.421	-908
1020.491	-1036
1020.560	-2226
1020.630	-1907
1020.700	-1308
1020.770	-1117
1020.839	-1874
1020.909	-761
1020.979	-438
1021.048	-1227
1021.118	-1181
1021.187	-616
1021.257	-1868
1021.326	-999
1021.396	-1836
1021.465	-974
1021.535	-1168
1021.604	-1794
1021.674	-1273
1021.743	-1413
1021.812	-1722
1021.882	-1312
1021.951	-1453
1022.020	-1212
1022.089	-429
1022.159	-2367
1022.228	-1965
1022.297	-823
1022.366	-1536
1022.435	-2219
1022.504	-1482
1022.573	-619
1022.642	-1107
1022.711	-1280
1022.781	-1566
1022.849	-1422
1022.918	-1755
1022.987	-1058
1023.056	-1524
1023.125	-1068
1023.194	-1784
1023.263	-1243
1023.331	-1119
1023.400	-2363
1023.469	-1315
1023.538	-1192
1023.606	-1864
1023.675	-1250
1023.744	-1386
1023.812	-1534
1023.881	-1590
1023.949	-1860
1024.018	-1568
1024.086	-2153
1024.155	-1413
1024.223	-1286
1024.292	-1822
1024.360	-1663
1024.429	-1422
1024.497	-1400
1024.565	-2043
1024.634	-1785
1024.702	-1933
1024.770	-1115
1024.838	-1510
1024.907	-1139
1024.975	-1805
1025.043	-825
1025.111	-1848
1025.179	-589
1025.247	-1495
1025.315	-2166
1025.383	-1943
1025.451	-1070
1025.519	-1859
1025.587	-1509
1025.655	-1546
1025.723	-1720
1025.791	-1250
1025.859	-1292
1025.927	-1651
1025.995	-1738
1026.062	-2093
1026.130	-2157
1026.198	-1820
1026.266	-2392
1026.333	-1668
1026.401	-2154
1026.469	-2143
1026.536	-1279
1026.604	-1966
1026.671	-2356
1026.739	-1511
1026.806	-1364
1026.874	-1691
1026.941	-2213
1027.009	-2064
1027.076	-1910
1027.144	-1525
1027.211	-1165
1027.278	-1774
1027.345	-988
1027.413	-1466
1027.480	-2108
1027.547	-2152
1027.614	-2252
1027.682	-1979
1027.749	-1603
1027.816	-1292
1027.883	-1786
1027.950	-1800
1028.017	-2377
1028.084	-1553
1028.151	-1497
1028.218	-2113
1028.285	-1652
1028.352	-2656
1028.419	-2248
1028.486	-1931
1028.553	-2051
1028.619	-2401
1028.686	-2075
1028.753	-1683
1028.820	-1649
1028.886	-1660
1028.953	-1766
1029.020	-1401
1029.086	-1896
1029.153	-1202
1029.220	-1525
1029.286	-2393
1029.353	-2119
1029.419	-2418
1029.486	-1993
1029.552	-1646
1029.619	-2621
1029.685	-1353
1029.751	-1305
1029.818	-1194
1029.884	-1809
1029.951	-980
1030.017	-1713
1030.083	-2286
1030.149	-1892
1030.216	-2035
1030.282	-1642
1030.348	-3178
1030.414	-2361
1030.480	-1947
1030.546	-2022
1030.612	-1975
1030.678	-1824
1030.744	-2042
1030.810	-2119
1030.876	-1938
1030.942	-2194
1031.008	-1542
1031.074	-2439
1031.140	-2337
1031.206	-1267
1031.272	-2670
1031.337	-1496
1031.403	-2650
1031.469	-2539
1031.534	-2294
1031.600	-1326
1031.666	-2305
1031.731	-1982
1031.797	-1577
1031.863	-2178
1031.928	-2318
1031.994	-2348
1032.059	-1887
1032.125	-1307
1032.190	-1741
1032.256	-2632
1032.321	-2465
1032.386	-2628
1032.452	-1498
1032.517	-1907
1032.582	-1464
1032.647	-1625
1032.713	-2068
1032.778	-1311
1032.843	-2578
1032.908	-2653
1032.974	-2405
1033.039	-1786
1033.104	-2223
1033.169	-2210
1033.234	-2188
1033.299	-1967
1033.364	-2395
1033.429	-1883
1033.494	-2050
1033.559	-2035
1033.624	-1554
1033.688	-1213
1033.753	-1667
1033.818	-1585
1033.883	-1523
1033.948	-430
1034.013	431
1034.077	791
1034.142	1230
1034.207	2865
1034.271	6192
1034.336	7383
1034.400	4411
1034.465	1946
1034.530	-163
1034.594	-1273
1034.658	-1039
1034.723	-1412
1034.787	-1996
1034.852	-1967
1034.916	-2508
1034.981	-2026
1035.045	-2930
1035.109	-2387
1035.173	-1351
1035.238	-1517
1035.302	-1715
1035.366	-2375
1035.430	-2001
1035.495	-2008
1035.559	-2497
1035.623	-2012
1035.687	-2384
1035.751	-2557
1035.815	-1829
1035.879	-2322
1035.943	-2985
1036.007	-2692
1036.071	-2276
1036.135	-2449
1036.198	-2948
1036.262	-3048
1036.326	-1921
1036.390	-1986
1036.454	-2370
1036.517	-2127
1036.581	-2158
1036.645	-1819
1036.709	-1379
1036.772	-1946
1036.836	-2157
1036.900	-2659
1036.963	-2413
1037.026	-1943
1037.090	-2873
1037.154	-1326
1037.217	-2110
1037.280	-2322
1037.344	-2845
1037.407	-2483
1037.471	-2123
1037.534	-2482
1037.597	-1999
1037.661	-1174
1037.724	-1823
1037.787	-1866
1037.850	-2391
1037.913	-1794
1037.977	-2107
1038.040	-2047
1038.103	-2877
1038.166	-2590
1038.229	-1871
1038.292	-2238
1038.355	-2324
1038.418	-2032
1038.481	-1917
1038.544	-2269
1038.607	-1820
1038.670	-2675
1038.732	-2256
1038.795	-1969
1038.858	-2470
1038.921	-2629
1038.984	-2053
1039.046	-2433
1039.109	-3154
1039.172	-2203
1039.234	-2886
1039.297	-2243
1039.360	-2082
1039.422	-1698
1039.485	-2732
1039.547	-2553
1039.610	-2749
1039.672	-2561
1039.734	-2811
1039.797	-1649
1039.859	-1878
1039.922	-1495
1039.984	-2539
1040.046	-1696
1040.109	-2120
1040.171	-1831
1040.233	-2008
1040.295	-1789
1040.358	-2873
1040.420	-2387
1040.482	-3024
1040.544	-2622
1040.606	-2360
1040.668	-2241
1040.730	-2348
1040.792	-3252
1040.854	-2658
1040.916	-2599
1040.978	-2970
1041.040	-1505
1041.102	-2513
1041.164	-2924
1041.225	-2340
1041.287	-1706
1041.349	-2803
1041.411	-2068
1041.472	-2670
1041.534	-2422
1041.596	-2765
1041.657	-2043
1041.719	-2701
1041.781	-2141
1041.842	-2894
1041.904	-2399
1041.965	-2790
1042.027	-2441
1042.088	-2623
1042.150	-2590
1042.211	-2898
1042.272	-1893
1042.334	-3057
1042.395	-2527
1042.456	-2697
1042.518	-2932
1042.579	-2854
1042.640	-2573
1042.701	-2984
1042.763	-2984
1042.824	-2557
1042.885	-2723
1042.946	-2802
1043.007	-2159
1043.068	-2374
1043.129	-2626
1043.190	-2462
1043.251	-1968
1043.312	-2942
1043.373	-1617
1043.434	-2809
1043.495	-3010
1043.556	-2378
1043.616	-1674
1043.677	-2332
1043.738	-2411
1043.799	-2287
1043.859	-2485
1043.920	-3354
1043.981	-2146
1044.041	-2059
1044.102	-2132
1044.162	-2589
1044.223	-2427
1044.284	-2869
1044.344	-2108
1044.405	-2210
1044.465	-2320
1044.525	-2700
1044.586	-1414
1044.646	-2859
1044.707	-1293
1044.767	-1812
1044.827	-2086
1044.887	-2366
1044.948	-1881
1045.008	-2125
1045.068	-1899
1045.128	-2078
1045.188	-2535
1045.249	-1816
1045.309	-1997
1045.369	-2497
1045.429	-2466
1045.489	-2628
1045.549	-2610
1045.609	-2342
1045.669	-1825
1045.729	-2576
1045.789	-2201
1045.848	-2049
1045.908	-2662
1045.968	-2166
1046.028	-2011
1046.088	-1881
1046.147	-2309
1046.207	-2772
1046.267	-2519
1046.326	-1644
1046.386	-2079
1046.446	-1704
1046.505	-1750
1046.565	-1308
1046.624	-1209
1046.684	-1701
1046.743	-1216
1046.803	-836
1046.862	-411
1046.922	0
