'Start Wavelength	183.907
'End Wavelength	1046.922
'Gate Delay	5.000
'Gate Width (ms)	1.050
'Laser Output Level	0.000
'X Position	0.000
'Y Position	0.000
'Z Position	0.000
'Grid Point Number	1.000
'Shot Number	100.000
183.907	292.000
183.977	294.000
184.047	209
184.116	318
184.186	612
184.256	-170
184.325	-145
184.395	-1027
184.465	454
184.534	-202
184.604	-173
184.674	-432
184.743	458
184.813	-561
184.883	767
184.952	-105
185.022	52
185.092	-805
185.161	-24
185.231	110
185.301	-118
185.370	-43
185.440	274
185.509	-293
185.579	123
185.649	261
185.718	426
185.788	240
185.857	121
185.927	-238
185.996	-254
186.066	-130
186.136	310
186.205	51
186.275	-328
186.344	181
186.414	633
186.483	-346
186.553	1033
186.622	369
186.692	687
186.761	-783
186.831	481
186.900	-1064
186.970	642
187.039	-108
187.109	62
187.178	200
187.248	373
187.317	-202
187.387	180
187.456	-95
187.526	56
187.595	188
187.664	36
187.734	128
187.803	556
187.873	-134
187.942	562
188.012	-549
188.081	-122
188.150	-153
188.220	347
188.289	281
188.358	-224
188.428	210
188.497	257
188.567	158
188.636	700
188.705	487
188.775	873
188.844	-995
188.913	844
188.983	-681
189.052	-14
189.121	-689
189.191	-543
189.260	763
189.329	176
189.399	-573
189.468	148
189.537	-62
189.606	676
189.676	468
189.745	360
189.814	20
189.883	-627
189.953	-8
190.022	386
190.091	-83
190.161	-146
190.230	-765
190.299	267
190.368	-302
190.437	-151
190.507	-407
190.576	-223
190.645	-1106
190.714	664
190.783	-212
190.853	631
190.922	-23
190.991	15
191.060	449
191.129	393
191.198	145
191.268	270
191.337	-53
191.406	661
191.475	-199
191.544	-660
191.613	-275
191.682	-114
191.752	288
191.821	-26
191.890	-85
191.959	198
192.028	23
192.097	117
192.166	-72
192.235	99
192.304	1194
192.373	-207
192.442	-350
192.511	41
192.580	-431
192.650	348
192.719	327
192.788	621
192.857	-357
192.926	518
192.995	-454
193.064	505
193.133	-69
193.202	997
193.271	347
193.340	211
193.409	918
193.478	838
193.547	504
193.615	628
193.684	765
193.753	-68
193.822	112
193.891	1
193.960	540
194.029	233
194.098	173
194.167	-484
194.236	193
194.305	336
194.374	-442
194.443	47
194.512	-214
194.580	196
194.649	-32
194.718	707
194.787	63
194.856	-130
194.925	214
194.994	-481
195.062	218
195.131	218
195.200	486
195.269	872
195.338	233
195.407	690
195.475	123
195.544	645
195.613	-373
195.682	284
195.751	459
195.819	651
195.888	583
195.957	1278
196.026	-7
196.094	1328
196.163	-140
196.232	77
196.301	370
196.369	824
196.438	-468
196.507	508
196.576	-527
196.644	-252
196.713	-546
196.782	218
196.850	356
196.919	736
196.988	-270
197.056	-584
197.125	480
197.194	425
197.262	-811
197.331	-382
197.400	-76
197.468	67
197.537	-821
197.606	107
197.674	279
197.743	730
197.812	-535
197.880	1616
197.949	-158
198.017	1282
198.086	398
198.155	524
198.223	227
198.292	1101
198.360	-375
198.429	-14
198.497	247
198.566	328
198.635	801
198.703	1043
198.772	-18
198.840	302
198.909	260
198.977	768
199.046	-18
199.114	465
199.183	281
199.251	429
199.320	317
199.388	547
199.457	-477
199.525	821
199.594	577
199.662	-348
199.731	138
199.799	1187
199.867	956
199.936	589
200.004	243
200.073	1421
200.141	-36
200.210	528
200.278	-467
200.346	-133
200.415	424
200.483	460
200.552	271
200.620	703
200.688	564
200.757	581
200.825	505
200.893	718
200.962	-31
201.030	50
201.098	-727
201.167	981
201.235	-236
201.303	-182
201.372	531
201.440	-29
201.508	223
201.577	111
201.645	128
201.713	85
201.781	-447
201.850	259
201.918	-351
201.986	-215
202.055	227
202.123	389
202.191	-355
202.259	634
202.327	65
202.396	254
202.464	-1087
202.532	555
202.600	948
202.669	1384
202.737	109
202.805	849
202.873	237
202.941	439
203.009	-34
203.078	232
203.146	134
203.214	-396
203.282	-679
203.350	1511
203.418	-781
203.487	596
203.555	295
203.623	864
203.691	17
203.759	347
203.827	-709
203.895	337
203.963	-238
204.031	-54
204.099	-301
204.168	-295
204.236	503
204.304	915
204.372	292
204.440	1000
204.508	276
204.576	435
204.644	510
204.712	62
204.780	360
204.848	-71
204.916	504
204.984	523
205.052	163
205.120	929
205.188	-414
205.256	882
205.324	352
205.392	-84
205.460	30
205.528	-567
205.596	-171
205.664	245
205.732	-10
205.799	904
205.867	1366
205.935	81
206.003	594
206.071	437
206.139	-441
206.207	708
206.275	350
206.343	327
206.411	-175
206.478	877
206.546	-203
206.614	809
206.682	-114
206.750	-9
206.818	-202
206.885	1130
206.953	-1101
207.021	1087
207.089	-76
207.157	363
207.225	-688
207.292	141
207.360	110
207.428	-895
207.496	-495
207.563	525
207.631	35
207.699	764
207.767	210
207.834	358
207.902	-64
207.970	137
208.038	-447
208.105	502
208.173	-474
208.241	-184
208.309	416
208.376	334
208.444	1123
208.512	113
208.579	-263
208.647	872
208.715	694
208.782	-233
208.850	352
208.918	387
208.985	255
209.053	471
209.120	313
209.188	723
209.256	38
209.323	-523
209.391	-7
209.459	1553
209.526	74
209.594	794
209.661	-224
209.729	641
209.796	491
209.864	1002
209.932	-696
209.999	1345
210.067	900
210.134	805
210.202	-148
210.269	1582
210.337	1553
210.404	371
210.472	-89
210.539	1523
210.607	355
210.674	584
210.742	820
210.809	1128
210.877	-155
210.944	1915
211.012	-28
211.079	2065
211.146	352
211.214	705
211.281	1242
211.349	1144
211.416	768
211.484	890
211.551	-277
211.618	645
211.686	384
211.753	36
211.821	607
211.888	71
211.955	922
212.023	888
212.090	-41
212.157	455
212.225	1022
212.292	1011
212.359	970
212.427	3645
212.494	1453
212.561	466
212.629	814
212.696	357
212.763	1116
212.831	-116
212.898	1152
212.965	478
213.032	1072
213.100	1087
213.167	71
213.234	855
213.301	1191
213.369	491
213.436	159
213.503	475
213.570	663
213.638	645
213.705	187
213.772	112
213.839	706
213.906	1535
213.973	1657
214.041	886
214.108	364
214.175	488
214.242	1063
214.309	304
214.376	702
214.444	338
214.511	649
214.578	345
214.645	158
214.712	1159
214.779	939
214.846	-10
214.913	753
214.980	1324
215.048	711
215.115	1826
215.182	859
215.249	1259
215.316	-72
215.383	1674
215.450	354
215.517	556
215.584	788
215.651	969
215.718	602
215.785	930
215.852	337
215.919	1637
215.986	744
216.053	353
216.120	159
216.187	664
216.254	1195
216.321	558
216.388	1057
216.455	999
216.522	1066
216.589	895
216.656	764
216.722	1782
216.789	1071
216.856	1695
216.923	866
216.990	1580
217.057	629
217.124	1129
217.191	295
217.258	1844
217.324	2321
217.391	2719
217.458	947
217.525	1876
217.592	661
217.659	104
217.725	1669
217.792	971
217.859	1462
217.926	252
217.993	137
218.059	860
218.126	294
218.193	60
218.260	455
218.327	437
218.393	-103
218.460	-109
218.527	-253
218.594	133
218.660	696
218.727	1797
218.794	-653
218.860	1178
218.927	48
218.994	137
219.061	-427
219.127	553
219.194	318
219.261	384
219.327	-653
219.394	847
219.461	-373
219.527	614
219.594	251
219.661	813
219.727	-992
219.794	757
219.860	-620
219.927	1316
219.994	699
220.060	1700
220.127	1342
220.193	878
220.260	-9
220.326	1624
220.393	2234
220.460	3478
220.526	2358
220.593	1319
220.659	1858
220.726	1287
220.792	2211
220.859	2965
220.925	4344
220.992	6199
221.058	4515
221.125	4438
221.191	2075
221.258	586
221.324	616
221.391	1842
221.457	111
221.524	814
221.590	-19
221.657	2929
221.723	1436
221.789	1266
221.856	1731
221.922	1235
221.989	321
222.055	1103
222.121	-633
222.188	2431
222.254	589
222.321	405
222.387	-242
222.453	320
222.520	-397
222.586	-1056
222.652	-81
222.719	323
222.785	391
222.851	-201
222.918	68
222.984	418
223.050	148
223.116	-278
223.183	605
223.249	-245
223.315	-125
223.382	63
223.448	-284
223.514	320
223.580	101
223.647	-318
223.713	-341
223.779	368
223.845	-594
223.911	897
223.978	-879
224.044	464
224.110	-156
224.176	862
224.242	-44
224.309	-376
224.375	392
224.441	375
224.507	-468
224.573	-572
224.639	886
224.705	53
224.772	738
224.838	694
224.904	488
224.970	613
225.036	85
225.102	-658
225.168	1166
225.234	903
225.300	-543
225.366	526
225.432	552
225.499	654
225.565	456
225.631	25
225.697	301
225.763	920
225.829	863
225.895	651
225.961	1639
226.027	1130
226.093	-46
226.159	1481
226.225	2379
226.291	5468
226.357	9258
226.423	4419
226.489	3324
226.554	1322
226.620	1486
226.686	2608
226.752	2990
226.818	5140
226.884	10104
226.950	10197
227.016	5095
227.082	2369
227.148	1848
227.214	2492
227.279	2025
227.345	1644
227.411	774
227.477	2115
227.543	2646
227.609	3752
227.674	1866
227.740	506
227.806	1266
227.872	952
227.938	1259
228.003	2462
228.069	256
228.135	698
228.201	701
228.267	-16
228.332	87
228.398	-139
228.464	244
228.530	155
228.595	-528
228.661	-299
228.727	235
228.792	1682
228.858	111
228.924	-310
228.990	1185
229.055	-402
229.121	1430
229.187	490
229.252	245
229.318	386
229.384	424
229.449	982
229.515	-633
229.581	-1135
229.646	1766
229.712	120
229.777	802
229.843	1420
229.909	1929
229.974	2238
230.040	932
230.105	1443
230.171	117
230.236	1368
230.302	1885
230.368	1935
230.433	488
230.499	363
230.564	1195
230.630	835
230.695	90
230.761	1100
230.826	-1455
230.892	1357
230.957	-634
231.023	-243
231.088	-221
231.154	-625
231.219	510
231.284	246
231.350	584
231.415	74
231.481	721
231.546	756
231.612	-510
231.677	-762
231.742	-1133
231.808	1192
231.873	-495
231.939	-548
232.004	1329
232.069	1385
232.135	-324
232.200	-197
232.265	99
232.331	187
232.396	-177
232.461	388
232.527	-595
232.592	93
232.657	592
232.723	389
232.788	600
232.853	1182
232.918	996
232.984	188
233.049	-301
233.114	77
233.179	482
233.245	1494
233.310	938
233.375	-299
233.440	66
233.506	88
233.571	-169
233.636	414
233.701	365
233.766	1131
233.832	1091
233.897	769
233.962	-877
234.027	1128
234.092	769
234.157	1158
234.222	-408
234.288	320
234.353	2584
234.418	2698
234.483	2418
234.548	1419
234.613	801
234.678	1031
234.743	336
234.808	3755
234.873	687
234.938	1764
235.004	61
235.069	312
235.134	-408
235.199	896
235.264	634
235.329	190
235.394	305
235.459	2187
235.524	-375
235.589	1233
235.654	659
235.719	-725
235.784	385
235.849	760
235.913	1357
235.978	1057
236.043	1904
236.108	459
236.173	-84
236.238	1576
236.303	-143
236.368	276
236.433	733
236.498	1319
236.563	1809
236.627	3017
236.692	12219
236.757	10806
236.822	4658
236.887	2381
236.952	2488
237.017	298
237.081	2233
237.146	2614
237.211	5937
237.276	12185
237.341	19059
237.405	10394
237.470	3655
237.535	2352
237.600	1826
237.664	1724
237.729	353
237.794	684
237.859	4480
237.923	3058
237.988	1068
238.053	1428
238.118	1417
238.182	4295
238.247	4340
238.312	850
238.376	1223
238.441	-364
238.506	2313
238.570	-416
238.635	956
238.700	176
238.764	590
238.829	1629
238.893	1795
238.958	1945
239.023	657
239.087	613
239.152	574
239.216	188
239.281	733
239.346	427
239.410	-183
239.475	1062
239.539	3106
239.604	2665
239.668	1483
239.733	1063
239.797	1141
239.862	5326
239.926	4884
239.991	2455
240.055	295
240.120	295
240.184	341
240.249	775
240.313	-28
240.378	699
240.442	1323
240.507	3576
240.571	846
240.635	1205
240.700	2183
240.764	1075
240.829	316
240.893	-255
240.957	204
241.022	1846
241.086	3534
241.151	689
241.215	-385
241.279	1927
241.344	828
241.408	1116
241.472	190
241.537	2101
241.601	615
241.665	-14
241.730	164
241.794	1286
241.858	975
241.922	346
241.987	526
242.051	1244
242.115	94
242.179	897
242.244	-564
242.308	622
242.372	-60
242.436	1154
242.501	182
242.565	-117
242.629	134
242.693	1561
242.757	-736
242.822	199
242.886	1256
242.950	675
243.014	-242
243.078	538
243.142	890
243.206	-105
243.271	1116
243.335	354
243.399	1505
243.463	3271
243.527	12249
243.591	3985
243.655	1389
243.719	396
243.783	2302
243.847	1948
243.911	2723
243.975	3601
244.040	2187
244.104	2179
244.168	490
244.232	1151
244.296	2562
244.360	2359
244.424	1018
244.488	1154
244.552	1202
244.615	-329
244.679	701
244.743	942
244.807	595
244.871	603
244.935	1284
244.999	-90
245.063	-67
245.127	2569
245.191	690
245.255	1561
245.319	1856
245.383	-343
245.446	2004
245.510	1114
245.574	1014
245.638	2254
245.702	594
245.766	3315
245.829	2196
245.893	-74
245.957	98
246.021	1253
246.085	1190
246.149	1804
246.212	4643
246.276	6094
246.340	3199
246.404	2435
246.467	2903
246.531	1949
246.595	1617
246.659	2480
246.722	632
246.786	2719
246.850	1340
246.913	2664
246.977	-6
247.041	794
247.104	1491
247.168	1243
247.232	3677
247.295	8512
247.359	4060
247.423	1711
247.486	3709
247.550	2808
247.614	939
247.677	1834
247.741	1076
247.804	892
247.868	668
247.932	3112
247.995	7975
248.059	2927
248.122	1330
248.186	3178
248.249	3001
248.313	12402
248.376	15568
248.440	10008
248.503	2214
248.567	3879
248.630	3162
248.694	6759
248.757	7834
248.821	15372
248.884	10488
248.948	7800
249.011	11633
249.075	16091
249.138	16489
249.202	6979
249.265	2977
249.328	4466
249.392	2020
249.455	3155
249.519	1467
249.582	3261
249.645	4675
249.709	4030
249.772	1495
249.835	2323
249.899	1589
249.962	2947
250.025	1791
250.089	4711
250.152	8632
250.215	3598
250.279	1640
250.342	2422
250.405	2648
250.468	2115
250.532	2380
250.595	4520
250.658	10337
250.721	23297
250.785	7868
250.848	7024
250.911	2266
250.974	3157
251.038	2571
251.101	9163
251.164	3635
251.227	4926
251.290	3374
251.354	4788
251.417	16981
251.480	19056
251.543	11090
251.606	30717
251.669	26686
251.732	9934
251.795	10665
251.859	11083
251.922	19965
251.985	14232
252.048	5979
252.111	3947
252.174	3751
252.237	7785
252.300	17392
252.363	16267
252.426	29210
252.489	13549
252.552	7395
252.615	4701
252.678	4746
252.741	10919
252.804	12900
252.867	27642
252.930	19835
252.993	11954
253.056	7965
253.119	5706
253.182	3469
253.245	4585
253.308	4500
253.371	4241
253.434	3781
253.497	5070
253.559	8424
253.622	6532
253.685	7336
253.748	9026
253.811	3326
253.874	4181
253.937	3045
254.000	3231
254.062	4758
254.125	8862
254.188	8708
254.251	8046
254.314	3075
254.376	4888
254.439	8756
254.502	7261
254.565	4954
254.628	11948
254.690	6189
254.753	3624
254.816	2627
254.878	2866
254.941	5060
255.004	6045
255.067	2337
255.129	2526
255.192	2067
255.255	1129
255.317	2082
255.380	1889
255.443	334
255.505	859
255.568	416
255.631	1630
255.693	682
255.756	534
255.819	1279
255.881	106
255.944	555
256.006	142
256.069	107
256.132	370
256.194	1400
256.257	3579
256.319	2487
256.382	1968
256.444	2416
256.507	2156
256.569	761
256.632	1514
256.694	1513
256.757	6624
256.819	21648
256.882	9061
256.944	2322
257.007	3272
257.069	2446
257.132	1840
257.194	1936
257.257	1528
257.319	576
257.381	1447
257.444	5274
257.506	23103
257.569	30289
257.631	14260
257.693	7540
257.756	3802
257.818	1540
257.880	1375
257.943	1910
258.005	1660
258.067	916
258.130	1703
258.192	683
258.254	3632
258.317	2051
258.379	2300
258.441	3926
258.503	5894
258.566	3489
258.628	7338
258.690	1673
258.753	2331
258.815	3635
258.877	2185
258.939	869
259.001	1652
259.064	382
259.126	965
259.188	1133
259.250	1489
259.312	1453
259.375	5758
259.437	4288
259.499	1261
259.561	1074
259.623	1898
259.685	1561
259.747	1161
259.809	3619
259.872	7443
259.934	10448
259.996	15968
260.058	5052
260.120	1308
260.182	1564
260.244	578
260.306	179
260.368	1609
260.430	-212
260.492	4218
260.554	8010
260.616	4647
260.678	6039
260.740	10389
260.802	1502
260.864	2360
260.926	445
260.988	2092
261.050	1011
261.112	5869
261.174	13298
261.236	8290
261.298	2226
261.359	3277
261.421	6084
261.483	1454
261.545	1595
261.607	456
261.669	876
261.731	1917
261.793	6353
261.854	3279
261.916	2616
261.978	1561
262.040	3556
262.102	1023
262.164	1532
262.225	1369
262.287	863
262.349	4516
262.411	4486
262.472	2112
262.534	725
262.596	4047
262.658	1680
262.719	433
262.781	1797
262.843	3552
262.904	1939
262.966	746
263.028	1921
263.090	6976
263.151	21814
263.213	10435
263.275	7034
263.336	2152
263.398	1558
263.459	775
263.521	1510
263.583	4941
263.644	3169
263.706	1886
263.767	58
263.829	1579
263.891	-322
263.952	495
264.014	315
264.075	1996
264.137	8975
264.198	4516
264.260	829
264.321	1335
264.383	2784
264.444	13063
264.506	4129
264.567	2206
264.629	3191
264.690	10600
264.752	3784
264.813	2481
264.875	473
264.936	2003
264.998	711
265.059	774
265.120	252
265.182	1672
265.243	11475
265.305	13849
265.366	2697
265.427	964
265.489	1259
265.550	-421
265.611	1428
265.673	1210
265.734	1591
265.795	894
265.857	-107
265.918	844
265.979	3017
266.040	17391
266.102	18169
266.163	5282
266.224	3552
266.286	2783
266.347	721
266.408	1277
266.469	892
266.530	-185
266.592	-32
266.653	3129
266.714	5430
266.775	1995
266.836	963
266.898	892
266.959	2453
267.020	2767
267.081	1385
267.142	802
267.203	440
267.264	513
267.326	466
267.387	-94
267.448	162
267.509	915
267.570	992
267.631	334
267.692	438
267.753	1189
267.814	-522
267.875	1576
267.936	6352
267.997	4245
268.058	2432
268.119	1379
268.180	685
268.241	340
268.302	247
268.363	72
268.424	806
268.485	2217
268.546	630
268.607	488
268.668	-61
268.729	568
268.790	206
268.851	1091
268.912	2971
268.972	5312
269.033	2126
269.094	1247
269.155	713
269.216	618
269.277	984
269.338	955
269.398	-471
269.459	921
269.520	1419
269.581	2268
269.642	2765
269.702	2355
269.763	903
269.824	1132
269.885	881
269.945	4060
270.006	895
270.067	318
270.128	395
270.188	974
270.249	360
270.310	428
270.370	812
270.431	242
270.492	-350
270.553	1152
270.613	1548
270.674	6014
270.734	3222
270.795	657
270.856	1183
270.916	977
270.977	1497
271.038	698
271.098	1448
271.159	2405
271.219	2477
271.280	1103
271.340	44
271.401	91
271.462	1880
271.522	1275
271.583	461
271.643	1679
271.704	493
271.764	1202
271.825	2971
271.885	13034
271.946	21043
272.006	6990
272.066	7361
272.127	15417
272.187	5504
272.248	2883
272.308	2197
272.369	9229
272.429	5570
272.489	4570
272.550	5578
272.610	4895
272.671	2714
272.731	2994
272.791	4242
272.852	2765
272.912	1839
272.972	1019
273.033	89
273.093	1643
273.153	3349
273.214	2069
273.274	848
273.334	6781
273.394	16118
273.455	6496
273.515	6043
273.575	15094
273.635	6283
273.696	6323
273.756	12968
273.816	6509
273.876	4150
273.936	4151
273.997	9371
274.057	3402
274.117	1478
274.177	3199
274.237	17892
274.297	17285
274.358	8779
274.418	10988
274.478	9395
274.538	3752
274.598	1224
274.658	5760
274.718	8254
274.778	4898
274.838	1335
274.898	2978
274.958	11134
275.018	12154
275.078	9685
275.138	4188
275.198	830
275.258	967
275.318	1533
275.378	4980
275.438	5444
275.498	3398
275.558	5729
275.618	12399
275.678	10637
275.738	6850
275.798	5715
275.858	3411
275.918	1239
275.978	1439
276.038	2499
276.098	1992
276.157	2622
276.217	11874
276.277	5745
276.337	3631
276.397	2218
276.457	2174
276.517	1321
276.576	606
276.636	752
276.696	1982
276.756	6098
276.815	5605
276.875	2024
276.935	2349
276.995	1690
277.055	2255
277.114	1003
277.174	2210
277.234	8890
277.293	4128
277.353	1645
277.413	2071
277.472	1538
277.532	1895
277.592	1722
277.651	5797
277.711	16201
277.771	4883
277.830	16499
277.890	16486
277.950	7757
278.009	26063
278.069	11217
278.128	9969
278.188	16549
278.248	6179
278.307	14802
278.367	11553
278.426	2651
278.486	2318
278.545	1880
278.605	1707
278.664	662
278.724	1271
278.783	3801
278.843	14034
278.902	3676
278.962	2403
279.021	3071
279.081	1993
279.140	2131
279.199	2989
279.259	1877
279.318	2608
279.378	3158
279.437	5410
279.496	21051
279.556	54984
279.615	51828
279.675	13784
279.734	8225
279.793	10380
279.853	17586
279.912	8190
279.971	4289
280.031	4329
280.090	7095
280.149	13492
280.208	9308
280.268	37738
280.327	47772
280.386	11579
280.445	8489
280.505	9038
280.564	4401
280.623	4335
280.682	4358
280.742	8941
280.801	2512
280.860	2372
280.919	561
280.978	1953
281.037	1136
281.097	1248
281.156	1129
281.215	883
281.274	1736
281.333	8655
281.392	7202
281.451	1413
281.510	566
281.569	481
281.628	551
281.688	1001
281.747	1680
281.806	1292
281.865	1245
281.924	860
281.983	443
282.042	1092
282.101	272
282.160	1034
282.219	231
282.278	949
282.337	5353
282.396	4829
282.454	1005
282.513	2167
282.572	7975
282.631	6108
282.690	1582
282.749	1163
282.808	1298
282.867	1425
282.926	1775
282.985	493
283.043	398
283.102	1043
283.161	385
283.220	3998
283.279	10088
283.338	3765
283.396	691
283.455	2143
283.514	1982
283.573	3429
283.631	2422
283.690	2092
283.749	1397
283.808	3962
283.866	5535
283.925	2223
283.984	1256
284.043	2766
284.101	3251
284.160	1221
284.219	2199
284.277	2969
284.336	4486
284.395	12708
284.453	11903
284.512	4716
284.570	5604
284.629	5348
284.688	4530
284.746	5871
284.805	6594
284.863	8452
284.922	10964
284.981	13376
285.039	17875
285.098	30778
285.156	59738
285.215	78192
285.273	75213
285.332	71793
285.390	41601
285.449	25891
285.507	17370
285.566	12804
285.624	9398
285.683	7993
285.741	5705
285.799	5794
285.858	4479
285.916	3809
285.975	2461
286.033	2651
286.091	2423
286.150	2120
286.208	2362
286.267	2692
286.325	1782
286.383	3936
286.442	3519
286.500	1601
286.558	1322
286.616	1807
286.675	1626
286.733	2396
286.791	1370
286.850	1821
286.908	2880
286.966	5031
287.024	2112
287.083	772
287.141	1393
287.199	1570
287.257	2850
287.315	1696
287.374	1159
287.432	5519
287.490	3248
287.548	1107
287.606	1263
287.664	1632
287.723	1772
287.781	3445
287.839	1763
287.897	1344
287.955	1696
288.013	2332
288.071	4804
288.129	20457
288.187	70931
288.245	35125
288.303	9086
288.361	4706
288.419	4041
288.477	3010
288.535	1367
288.593	1687
288.651	704
288.709	663
288.767	851
288.825	826
288.883	613
288.941	352
288.999	-234
289.057	598
289.115	-94
289.173	964
289.231	1176
289.289	361
289.346	53
289.404	1663
289.462	2744
289.520	4133
289.578	1396
289.636	415
289.694	209
289.751	294
289.809	-48
289.867	1140
289.925	1489
289.983	1324
290.040	557
290.098	410
290.156	343
290.214	1123
290.271	281
290.329	817
290.387	27
290.444	336
290.502	-509
290.560	439
290.617	510
290.675	1195
290.733	94
290.790	1744
290.848	264
290.906	1171
290.963	569
291.021	706
291.078	496
291.136	675
291.194	4554
291.251	14640
291.309	3546
291.366	1697
291.424	1004
291.481	1670
291.539	420
291.596	1136
291.654	165
291.711	563
291.769	211
291.826	3208
291.884	1397
291.941	474
291.999	636
292.056	1722
292.114	580
292.171	521
292.228	276
292.286	910
292.343	2638
292.401	4156
292.458	2877
292.515	1498
292.573	1806
292.630	2389
292.687	1447
292.745	1652
292.802	1748
292.859	8816
292.917	10808
292.974	7199
293.031	1952
293.089	887
293.146	643
293.203	979
293.260	517
293.318	843
293.375	4261
293.432	1401
293.489	507
293.546	1320
293.604	1534
293.661	4980
293.718	15070
293.775	10476
293.832	4407
293.889	3318
293.947	2740
294.004	1816
294.061	2158
294.118	5041
294.175	12267
294.232	18737
294.289	7515
294.346	3221
294.403	2551
294.460	1971
294.517	1011
294.574	1558
294.631	1939
294.688	1468
294.745	4417
294.802	17707
294.859	26654
294.916	10431
294.973	5047
295.030	3988
295.087	2922
295.144	2232
295.201	1611
295.258	1935
295.315	1843
295.372	5413
295.429	12420
295.486	6479
295.542	2785
295.599	9098
295.656	21151
295.713	11770
295.770	13567
295.827	5827
295.883	2271
295.940	2239
295.997	4230
296.054	4574
296.111	1653
296.167	2268
296.224	1613
296.281	1134
296.338	738
296.394	1817
296.451	1212
296.508	4959
296.564	11724
296.621	9916
296.678	12444
296.734	22678
296.791	9009
296.848	4392
296.904	3435
296.961	10411
297.018	15048
297.074	12634
297.131	4892
297.187	3448
297.244	3842
297.301	10417
297.357	24195
297.414	9220
297.470	3942
297.527	2253
297.583	2129
297.640	2776
297.696	2351
297.753	1717
297.809	1276
297.866	1528
297.922	336
297.979	1086
298.035	786
298.092	2654
298.148	7596
298.204	9290
298.261	4253
298.317	6595
298.374	17340
298.430	12116
298.486	4197
298.543	2769
298.599	2328
298.656	4456
298.712	5594
298.768	11848
298.824	7622
298.881	2738
298.937	1365
298.993	1844
299.050	2597
299.106	2061
299.162	888
299.218	2338
299.275	1101
299.331	2302
299.387	3061
299.443	13592
299.500	19600
299.556	9601
299.612	3599
299.668	3411
299.724	5621
299.780	7361
299.837	3413
299.893	5279
299.949	13162
300.005	19302
300.061	13987
300.117	24362
300.173	12392
300.229	5190
300.285	4980
300.341	8236
300.397	4427
300.453	2333
300.510	2345
300.566	2856
300.622	2980
300.678	10623
300.734	20159
300.790	15728
300.845	16622
300.901	11635
300.957	17259
301.013	13818
301.069	4565
301.125	3858
301.181	4524
301.237	2601
301.293	1497
301.349	1774
301.405	1143
301.461	1769
301.516	3159
301.572	3742
301.628	4870
301.684	5253
301.740	5512
301.796	11371
301.851	7086
301.907	12146
301.963	11672
302.019	13768
302.074	37606
302.130	42894
302.186	20216
302.242	8216
302.297	5669
302.353	5387
302.409	8679
302.464	8822
302.520	6914
302.576	14650
302.631	19129
302.687	11808
302.743	5032
302.798	3065
302.854	1294
302.910	2592
302.965	2587
303.021	5917
303.076	6038
303.132	7142
303.187	9880
303.243	4794
303.299	2619
303.354	1346
303.410	1921
303.465	2038
303.521	1732
303.576	2519
303.632	2236
303.687	3893
303.743	12054
303.798	12781
303.853	4870
303.909	3368
303.964	2051
304.020	4094
304.075	6589
304.130	5222
304.186	10753
304.241	11931
304.297	9371
304.352	5379
304.358	5103
304.407	2861
304.449	2995
304.463	3041
304.518	2218
304.539	2266
304.573	2322
304.629	2525
304.630	2552
304.684	4000
304.720	7483
304.739	9186
304.794	16492
304.811	14265
304.850	8810
304.902	4533
304.905	4267
304.960	2614
304.992	2726
305.015	2842
305.071	2472
305.083	2453
305.126	2302
305.173	1524
305.181	1407
305.236	1869
305.264	2039
305.292	2217
305.347	3139
305.354	3216
305.402	3694
305.445	3276
305.457	3139
305.512	3626
305.535	3912
305.567	4427
305.622	3889
305.626	4023
305.678	7328
305.716	13439
305.733	15439
305.788	19199
305.807	16261
305.843	11351
305.897	13809
305.898	13826
305.953	15285
305.988	11052
306.008	8821
306.063	6172
306.078	5778
306.118	4693
306.168	2506
306.173	2342
306.228	2140
306.259	1996
306.283	1913
306.338	2026
306.349	2143
306.393	2615
306.440	2853
306.448	2909
306.503	3068
306.530	3463
306.558	5018
306.613	10809
306.620	11834
306.668	17209
306.711	18237
306.723	17768
306.778	14989
306.801	11550
306.833	7713
306.888	4516
306.892	4331
306.943	3001
306.982	2829
306.997	2798
307.052	2268
307.072	2352
307.107	2850
307.162	3854
307.163	3875
307.217	6844
307.253	8905
307.272	9467
307.327	9658
307.343	8951
307.381	7208
307.434	5770
307.436	5919
307.491	10982
307.524	16893
307.546	18551
307.600	18685
307.614	16910
307.655	10594
307.704	5408
307.710	5275
307.765	5915
307.795	7385
307.819	8852
307.874	15605
307.885	15770
307.929	13112
307.975	9590
307.984	9614
308.038	11092
308.065	13388
308.093	22673
308.148	44148
308.156	49174
308.202	75413
308.246	95188
308.257	93019
308.312	53824
308.336	38673
308.366	30022
308.421	19836
308.426	18755
308.475	12051
308.517	8848
308.530	8313
308.585	6968
308.607	6604
308.639	6823
308.694	7253
308.697	7336
308.748	12580
308.787	18273
308.803	18402
308.857	15252
308.877	13113
308.912	11101
308.967	10496
308.967	10489
309.021	14597
309.058	17945
309.076	22340
309.130	38029
309.148	43797
309.185	70095
309.238	113248
309.239	113683
309.293	127490
309.328	123732
309.348	108512
309.402	56543
309.418	42934
309.457	31019
309.508	19915
309.511	19723
309.566	18901
309.598	19352
309.620	23344
309.674	34826
309.688	38244
309.729	36663
309.778	29592
309.783	28880
309.837	19746
309.868	15122
309.892	17467
309.946	24698
309.959	27000
310.001	34022
310.049	40984
310.055	39659
310.109	23839
310.139	14460
310.163	11511
310.218	7112
310.229	6479
310.272	5962
310.319	4773
310.326	4581
310.381	4042
310.409	3575
310.435	3675
310.489	4172
310.499	4210
310.543	4087
310.589	4238
310.598	4362
310.652	4911
310.679	5201
310.706	4765
310.760	3696
310.769	3542
310.814	3394
310.859	3115
310.868	3201
310.923	3831
310.948	4076
310.977	4369
311.031	5134
311.038	5221
311.085	4594
311.128	3766
311.139	3919
311.193	4739
311.218	5150
311.247	4672
311.301	3617
311.308	3498
311.356	4107
311.398	4580
311.410	4487
311.464	3971
311.488	3725
311.518	3965
311.572	4410
311.578	4449
311.626	5270
311.668	5971
311.680	6028
311.734	6245
311.758	6308
311.788	6402
311.842	6485
311.847	6486
311.896	8872
311.937	10915
311.950	10759
312.004	9969
312.027	9564
312.058	7980
312.112	5141
312.117	4851
312.165	4544
312.207	4274
312.297	8359
312.386	6959
312.476	6338
312.566	10118
312.656	4816
312.745	3944
312.835	5215
312.925	5912
313.015	4960
313.104	6111
313.194	4334
313.284	4863
313.374	6849
313.463	5810
313.553	4659
313.643	4401
313.732	4842
313.822	4387
313.912	5309
314.001	6166
314.091	7245
314.180	9507
314.270	7553
314.360	7339
314.449	6717
314.539	4774
314.628	5588
314.718	5939
314.808	6984
314.897	5789
314.987	6095
315.076	6133
315.166	7317
315.255	7598
315.345	7065
315.434	5873
315.524	6191
315.613	6359
315.703	8279
315.792	9993
315.881	23633
315.971	10027
316.060	11389
316.150	14841
316.239	15054
316.328	7245
316.418	5081
316.507	5594
316.597	6780
316.686	6135
316.775	8573
316.865	15116
316.954	5313
317.043	4384
317.133	4779
317.222	4554
317.311	4135
317.400	3421
317.490	6982
317.579	6813
317.668	6071
317.757	7611
317.847	13977
317.936	39579
318.025	19537
318.114	12819
318.203	10460
318.293	15951
318.382	35307
318.471	23415
318.560	29082
318.649	45413
318.738	10978
318.828	7457
318.917	8107
319.006	8978
319.095	19048
319.184	52868
319.273	29620
319.362	15361
319.451	5657
319.540	6009
319.629	11661
319.718	20150
319.807	11735
319.896	18317
319.985	62847
320.074	22821
320.163	8638
320.252	11193
320.341	11607
320.430	10868
320.519	12858
320.608	7861
320.697	7186
320.786	7384
320.875	7969
320.964	10201
321.053	14480
321.142	18942
321.230	20687
321.319	17466
321.408	37966
321.497	18006
321.586	16421
321.675	16476
321.764	16735
321.852	12703
321.941	22040
322.030	14265
322.119	16474
322.207	35291
322.296	26849
322.385	16803
322.474	17378
322.562	43029
322.651	24329
322.740	16675
322.829	23141
322.917	21048
323.006	13331
323.095	12256
323.183	9747
323.272	12433
323.361	19409
323.449	50082
323.538	18370
323.626	37431
323.715	23574
323.804	11373
323.892	35617
323.981	20545
324.069	8252
324.158	19178
324.246	17851
324.335	9236
324.424	13538
324.512	5203
324.601	8293
324.689	7578
324.778	9309
324.866	14870
324.954	6393
325.043	5926
325.131	10156
325.220	17097
325.308	18352
325.397	14274
325.485	9612
325.574	5949
325.662	4869
325.750	5266
325.839	5027
325.927	4228
326.015	6244
326.104	6716
326.192	9483
326.280	4619
326.369	4629
326.457	6813
326.545	11080
326.634	5099
326.722	4493
326.810	4084
326.898	5786
326.987	5808
327.075	10213
327.163	10265
327.251	5691
327.340	5493
327.428	5776
327.516	4506
327.604	4934
327.692	4903
327.781	5211
327.869	8148
327.957	5263
328.045	5360
328.133	3922
328.221	4344
328.309	5418
328.397	4543
328.485	6112
328.574	8823
328.662	22567
328.750	10971
328.838	5402
328.926	4038
329.014	3870
329.102	6832
329.190	18468
329.278	10745
329.366	3320
329.454	3906
329.542	4420
329.630	3560
329.718	4330
329.806	4903
329.893	5523
329.981	5286
330.069	5295
330.157	10934
330.245	30123
330.333	16358
330.421	5741
330.509	6874
330.597	25233
330.684	17742
330.772	8396
330.860	11648
330.948	17696
331.036	7679
331.123	3405
331.211	4220
331.299	5661
331.387	13877
331.475	23922
331.562	7117
331.650	3769
331.738	5260
331.825	6562
331.913	3161
332.001	4231
332.089	6166
332.176	11942
332.264	19836
332.352	16886
332.439	7120
332.527	6010
332.614	3742
332.702	6385
332.790	4770
332.877	9989
332.965	19550
333.052	7380
333.140	7537
333.228	16361
333.315	5581
333.403	5485
333.490	12099
333.578	11851
333.665	19811
333.753	10218
333.840	4781
333.928	5408
334.015	14467
334.103	20574
334.190	62390
334.278	19385
334.365	11957
334.452	9897
334.540	6311
334.627	7470
334.715	10263
334.802	15396
334.889	62568
334.977	64059
335.064	17931
335.151	7876
335.239	7886
335.326	10527
335.413	33203
335.501	44249
335.588	8417
335.675	6764
335.762	10009
335.850	16636
335.937	12864
336.024	26194
336.111	85377
336.199	47641
336.286	14362
336.373	8316
336.460	5681
336.547	4494
336.635	5901
336.722	5980
336.809	5269
336.896	8193
336.983	21734
337.070	52555
337.157	65812
337.245	41507
337.332	27626
337.419	6098
337.506	5015
337.593	7540
337.680	19619
337.767	59316
337.854	16801
337.941	20134
338.028	17312
338.115	6806
338.202	10739
338.289	13766
338.376	40419
338.463	15183
338.550	33158
338.637	35864
338.724	9678
338.811	14751
338.898	4481
338.984	4845
339.071	5928
339.158	6806
339.245	15308
339.332	9787
339.419	11427
339.506	10903
339.593	2760
339.679	3724
339.766	3996
339.853	6358
339.940	10653
340.027	5768
340.113	4948
340.200	6277
340.287	4562
340.374	5411
340.460	9729
340.547	4084
340.634	6792
340.720	24460
340.807	13384
340.894	4066
340.980	4026
341.067	2994
341.154	4640
341.240	6540
341.327	12772
341.414	5322
341.500	4556
341.587	4714
341.674	4510
341.760	8681
341.847	10256
341.933	5083
342.020	2097
342.106	3289
342.193	3853
342.279	7386
342.366	5327
342.452	9161
342.539	5520
342.625	11150
342.712	25285
342.798	10763
342.885	5219
342.971	2351
343.058	2281
343.144	3053
343.230	3215
343.317	3595
343.403	3439
343.490	2411
343.576	2253
343.662	3188
343.749	3647
343.835	4708
343.921	8129
344.008	36764
344.094	81915
344.180	19626
344.267	8665
344.353	25443
344.439	28203
344.525	13722
344.612	5981
344.698	5706
344.784	3962
344.870	2881
344.957	3425
345.043	6373
345.129	3943
345.215	9569
345.301	5123
345.387	4327
345.474	2783
345.560	3004
345.646	3559
345.732	4056
345.818	4046
345.904	3906
345.990	3884
346.076	3826
346.162	7392
346.249	4297
346.335	3224
346.421	4048
346.507	10289
346.593	35468
346.679	8909
346.765	5891
346.851	4316
346.937	4166
347.023	3885
347.108	4131
347.194	3851
347.280	3845
347.366	4759
347.452	13648
347.538	42767
347.624	34176
347.710	28079
347.796	5786
347.882	4149
347.967	4189
348.053	7003
348.139	4306
348.225	3889
348.311	3999
348.397	2447
348.482	4875
348.568	5830
348.654	3529
348.740	8773
348.825	7502
348.911	6341
348.997	19498
349.083	39018
349.168	7267
349.254	3465
349.340	4106
349.425	2611
349.511	4830
349.597	5922
349.682	8882
349.768	28420
349.854	13343
349.939	5452
350.025	3532
350.110	3827
350.196	3057
350.282	2270
350.367	3323
350.453	5304
350.538	5435
350.624	5095
350.709	6041
350.795	2607
350.880	2800
350.966	3931
351.051	5397
351.137	4178
351.222	4027
351.308	9563
351.393	26802
351.479	7255
351.564	3482
351.649	4117
351.735	3600
351.820	2751
351.906	3207
351.991	4631
352.076	16604
352.162	24373
352.247	5793
352.332	4432
352.418	6624
352.503	8465
352.588	39370
352.673	30559
352.759	7408
352.844	3941
352.929	5049
353.014	5109
353.100	4699
353.185	8575
353.270	10537
353.355	10129
353.441	4770
353.526	4234
353.611	9520
353.696	9726
353.781	6995
353.866	2998
353.952	4276
354.037	8551
354.122	20349
354.207	17337
354.292	7202
354.377	3639
354.462	3551
354.547	4582
354.632	5772
354.717	8426
354.802	9505
354.887	5054
354.972	3103
355.057	3219
355.142	2863
355.227	4425
355.312	6050
355.397	12156
355.482	30014
355.567	14687
355.652	11874
355.737	12021
355.822	31271
355.907	25011
355.991	6030
356.076	3246
356.161	4130
356.246	3535
356.331	3829
356.416	7279
356.501	44170
356.585	44740
356.670	8764
356.755	8707
356.840	9732
356.924	34609
357.009	108754
357.094	42587
357.179	11436
357.263	8502
357.348	9476
357.433	9280
357.517	8555
357.602	6600
357.687	6227
357.771	10048
357.856	27892
357.941	16498
358.025	25602
358.110	101996
358.195	49984
358.279	10402
358.364	8574
358.448	24110
358.533	63242
358.617	45876
358.702	43761
358.787	17686
358.871	11798
358.956	9890
359.040	4448
359.125	4239
359.209	4368
359.294	13825
359.378	22738
359.462	9953
359.547	5950
359.631	4416
359.716	2745
359.800	4688
359.885	8355
359.969	4495
360.053	3671
360.138	3347
360.222	5445
360.306	9565
360.391	8645
360.475	14589
360.559	31238
360.644	24001
360.728	17171
360.812	24712
360.896	65221
360.981	33846
361.065	21135
361.149	6328
361.233	5780
361.318	4800
361.402	6058
361.486	5509
361.570	3889
361.654	5429
361.739	11462
361.823	43541
361.907	65172
361.991	14039
362.075	10299
362.159	19837
362.243	16111
362.327	21779
362.411	34780
362.495	14773
362.580	7613
362.664	5801
362.748	6297
362.832	8174
362.916	15292
363.000	50324
363.084	106243
363.168	94742
363.252	24283
363.336	11364
363.420	13492
363.503	46026
363.587	54798
363.671	10405
363.755	7834
363.839	12458
363.923	6541
364.007	11720
364.091	14121
364.175	20585
364.258	81884
364.342	78017
364.426	122381
364.510	66340
364.594	24131
364.677	18944
364.761	58192
364.845	41500
364.929	18964
365.013	13953
365.096	12028
365.180	14000
365.264	19081
365.347	72654
365.431	34415
365.515	11656
365.598	5007
365.682	5503
365.766	10715
365.849	15467
365.933	6156
366.017	9991
366.100	7947
366.184	3463
366.267	5067
366.351	4087
366.435	4095
366.518	2970
366.602	3575
366.685	3784
366.769	4983
366.852	10458
366.936	15497
367.019	7981
367.103	7783
367.186	17701
367.270	5170
367.353	2612
367.436	4702
367.520	4045
367.603	5518
367.687	6773
367.770	12034
367.853	7451
367.937	20755
368.020	32954
368.104	8669
368.187	9153
368.270	14247
368.353	12780
368.437	13417
368.520	29478
368.603	19010
368.687	23072
368.770	45478
368.853	11899
368.936	13974
369.020	16557
369.103	6314
369.186	4644
369.269	5642
369.352	8474
369.436	11795
369.519	8412
369.602	5294
369.685	6508
369.768	4715
369.851	4401
369.934	3397
370.018	4327
370.101	8918
370.184	9620
370.267	8265
370.350	13706
370.433	19015
370.516	34330
370.599	41515
370.682	14362
370.765	28797
370.848	29988
370.931	52276
371.014	23545
371.097	5764
371.180	4671
371.263	3868
371.346	2255
371.429	4181
371.511	3796
371.594	7314
371.677	13326
371.760	19060
371.843	11505
371.926	38814
372.009	89322
372.091	33555
372.174	21041
372.257	45856
372.340	20240
372.423	21652
372.505	28180
372.588	10710
372.671	17236
372.754	50335
372.836	25789
372.919	25367
373.002	51594
373.085	14658
373.167	11016
373.250	23489
373.332	47273
373.415	56746
373.498	113970
373.580	45297
373.663	57310
373.746	77439
373.828	18987
373.911	11107
373.993	10210
374.076	45705
374.159	43052
374.241	16898
374.324	46207
374.406	30609
374.489	32823
374.571	95238
374.654	40004
374.736	20708
374.819	57934
374.901	82002
374.983	83016
375.066	16700
375.148	8292
375.231	33543
375.313	70986
375.395	28929
375.478	7861
375.560	6000
375.643	7397
375.725	18292
375.807	70862
375.890	59269
375.972	26352
376.054	16231
376.136	22619
376.219	10494
376.301	21472
376.383	62116
376.465	24000
376.548	16742
376.630	18719
376.712	55419
376.794	24351
376.877	4855
376.959	2555
377.041	5572
377.123	13201
377.205	15766
377.287	3609
377.369	3129
377.452	2775
377.534	4064
377.616	2969
377.698	3935
377.780	2107
377.862	4562
377.944	4583
378.026	2009
378.108	3532
378.190	2472
378.272	3219
378.354	2321
378.436	1520
378.518	6518
378.600	23840
378.682	17883
378.764	32929
378.846	26118
378.928	9025
379.010	12350
379.091	7360
379.173	3757
379.255	3426
379.337	4644
379.419	14157
379.501	46019
379.583	18340
379.664	5578
379.746	11595
379.828	34297
379.910	43427
379.991	37492
380.073	6847
380.155	4966
380.237	3769
380.318	3650
380.400	4630
380.482	8000
380.564	11266
380.645	11781
380.727	11735
380.809	8138
380.890	5359
380.972	3983
381.053	3997
381.135	5535
381.217	11763
381.298	36254
381.380	17605
381.461	13302
381.543	52079
381.624	64590
381.706	13614
381.787	9776
381.869	9971
381.951	22982
382.032	85306
382.113	57864
382.195	15185
382.276	12652
382.358	20743
382.439	50844
382.521	52060
382.602	82915
382.684	39401
382.765	74703
382.846	91010
382.928	143527
383.009	77159
383.090	50804
383.172	173917
383.253	260960
383.334	91966
383.416	82902
383.497	43237
383.578	24440
383.659	43832
383.741	145931
383.822	348499
383.903	183736
383.984	66388
384.066	102951
384.147	63430
384.228	15974
384.309	12777
384.390	9655
384.471	8532
384.553	8818
384.634	11434
384.715	11537
384.796	6577
384.877	7125
384.958	29229
385.039	37842
385.120	14087
385.201	7672
385.282	10270
385.363	11635
385.444	8997
385.525	16741
385.606	44182
385.687	35783
385.768	10982
385.849	13555
385.930	43395
386.011	73205
386.092	20949
386.173	7880
386.254	6633
386.335	8372
386.416	7388
386.496	23284
386.577	35820
386.658	15752
386.739	9671
386.820	10734
386.901	8593
386.981	8554
387.062	6285
387.143	8101
387.224	32976
387.304	33382
387.385	15010
387.466	11103
387.547	16172
387.627	10644
387.708	15319
387.789	54926
387.869	63691
387.950	18878
388.031	5269
388.111	5440
388.192	17559
388.273	26292
388.353	13465
388.434	7331
388.514	10426
388.595	43823
388.676	61800
388.756	33468
388.837	32022
388.917	19517
388.998	5059
389.078	6132
389.159	5008
389.239	3848
389.320	8609
389.400	5683
389.480	14151
389.561	35057
389.641	17134
389.722	7822
389.802	12004
389.883	15014
389.963	37896
390.043	25822
390.124	11120
390.204	14835
390.284	38913
390.365	23737
390.445	31534
390.525	51305
390.605	37446
390.686	19828
390.766	10648
390.846	5865
390.927	3042
391.007	3996
391.087	6496
391.167	9096
391.247	5946
391.328	8113
391.408	15222
391.488	12312
391.568	1596
391.648	5653
391.728	8935
391.808	8969
391.888	8689
391.969	19290
392.049	33004
392.129	18216
392.209	16442
392.289	38933
392.369	23868
392.449	28447
392.529	17142
392.609	12746
392.689	13551
392.769	37493
392.849	34028
392.929	30663
393.009	63919
393.089	47756
393.169	49739
393.248	135909
393.328	392062
393.408	416496
393.488	150232
393.568	50556
393.648	25045
393.728	17074
393.807	12568
393.887	10618
393.967	9657
394.047	9948
394.127	11665
394.206	16738
394.286	44934
394.366	187045
394.446	206205
394.525	52990
394.605	15489
394.685	14661
394.764	35107
394.844	58517
394.924	41049
395.003	12233
395.083	8159
395.163	6936
395.242	6056
395.322	7083
395.402	4022
395.481	8431
395.561	21017
395.640	62712
395.720	55534
395.799	64355
395.879	48196
395.958	23846
396.038	68589
396.117	245245
396.197	274538
396.276	97427
396.356	38749
396.435	32703
396.515	22398
396.594	24411
396.673	42457
396.753	133229
396.832	364627
396.912	287454
396.991	81556
397.070	27593
397.150	15099
397.229	12132
397.308	20451
397.388	38785
397.467	17984
397.546	6825
397.625	3661
397.705	7843
397.784	7963
397.863	4006
397.942	4183
398.022	4717
398.101	17723
398.180	55590
398.259	31692
398.338	9775
398.417	5261
398.497	4920
398.576	5669
398.655	2704
398.734	2470
398.813	4081
398.892	15470
398.971	57515
399.050	27827
399.129	4083
399.208	2427
399.287	3421
399.366	2479
399.445	3150
399.524	3001
399.603	2064
399.682	5937
399.761	16373
399.840	56666
399.919	44490
399.998	6442
400.077	1403
400.156	1324
400.235	4935
400.313	2067
400.392	3438
400.471	16963
400.550	29605
400.629	7901
400.708	4122
400.786	5197
400.865	16230
400.944	18007
401.023	8589
401.102	1433
401.180	2834
401.259	2857
401.338	3474
401.416	4172
401.495	4161
401.574	4459
401.652	2890
401.731	5228
401.810	4644
401.888	2337
401.967	1914
402.046	3993
402.124	5363
402.203	5015
402.281	4917
402.360	7054
402.438	21958
402.517	14525
402.596	4918
402.674	3868
402.753	2431
402.831	1398
402.910	3720
402.988	12571
403.066	47614
403.145	26413
403.223	14543
403.302	38324
403.380	29543
403.459	31138
403.537	12210
403.615	4700
403.694	1123
403.772	2210
403.850	1351
403.929	690
404.007	1263
404.085	6066
404.164	7134
404.242	2451
404.320	5715
404.398	17277
404.477	22191
404.555	67073
404.633	60045
404.711	16285
404.789	8771
404.868	4046
404.946	1953
405.024	1157
405.102	2231
405.180	552
405.258	181
405.336	2258
405.415	1680
405.493	7213
405.571	7136
405.649	958
405.727	950
405.805	5576
405.883	3991
405.961	4731
406.039	6358
406.117	1434
406.195	3667
406.273	14473
406.351	62131
406.429	37265
406.507	8175
406.585	3008
406.663	3907
406.740	3663
406.818	3154
406.896	1600
406.974	3751
407.052	4242
407.130	35703
407.208	50157
407.285	10577
407.363	1447
407.441	1692
407.519	2279
407.596	2804
407.674	9388
407.752	33809
407.830	34088
407.907	13261
407.985	3318
408.063	1666
408.141	1217
408.218	6549
408.296	5068
408.373	2977
408.451	3443
408.529	2925
408.606	934
408.684	1793
408.762	463
408.839	646
408.917	447
408.994	1570
409.072	1095
409.149	2268
409.227	6315
409.304	7892
409.382	7005
409.459	6863
409.537	10783
409.614	9304
409.692	5672
409.769	5725
409.846	9691
409.924	15266
410.001	10593
410.079	6309
410.156	4815
410.233	3750
410.311	2914
410.388	2169
410.465	4027
410.543	5059
410.620	2811
410.697	3112
410.775	3680
410.852	1582
410.929	5090
411.006	6328
411.083	3772
411.161	10677
411.238	12054
411.315	5798
411.392	1868
411.469	4719
411.547	6410
411.624	2295
411.701	2351
411.778	2671
411.855	5292
411.932	2536
412.009	1010
412.086	2561
412.163	2004
412.240	2594
412.317	5339
412.394	4404
412.471	1256
412.548	1008
412.625	965
412.702	3185
412.779	6981
412.856	5546
412.933	909
413.010	1503
413.087	2634
413.164	17124
413.241	25543
413.318	5444
413.395	4581
413.471	5934
413.548	2226
413.625	2134
413.702	1830
413.779	2168
413.855	103
413.932	-175
414.009	-445
414.086	1373
414.162	1429
414.239	2424
414.316	15328
414.393	35978
414.469	11542
414.546	1330
414.623	1047
414.699	1209
414.776	1655
414.853	1078
414.929	1093
415.006	1143
415.082	3410
415.159	2148
415.236	1055
415.312	2010
415.389	3229
415.465	4753
415.542	1756
415.618	886
415.695	3606
415.771	2203
415.848	2065
415.924	2610
416.000	1806
416.077	2108
416.153	-607
416.230	29
416.306	110
416.383	670
416.459	1816
416.535	302
416.612	463
416.688	1155
416.764	403
416.841	1040
416.917	899
416.993	1689
417.069	1340
417.146	3113
417.222	3397
417.298	2182
417.374	710
417.451	2246
417.527	2214
417.603	1955
417.679	1624
417.755	1902
417.831	386
417.908	270
417.984	735
418.060	-56
418.136	4346
418.212	5935
418.288	2294
418.364	1626
418.440	666
418.516	3796
418.592	5369
418.668	8675
418.744	11097
418.820	8417
418.896	2211
418.972	421
419.048	1280
419.124	5736
419.200	2901
419.276	926
419.352	-449
419.428	1125
419.504	952
419.579	2347
419.655	1028
419.731	2487
419.807	6667
419.883	12785
419.959	8383
420.034	2983
420.110	6170
420.186	22297
420.262	18030
420.337	4280
420.413	3262
420.489	1327
420.565	1921
420.640	1673
420.716	2656
420.792	718
420.867	2149
420.943	1747
421.019	3424
421.094	4079
421.170	3275
421.245	1959
421.321	2408
421.397	3656
421.472	7435
421.548	19744
421.623	14845
421.699	6355
421.774	5466
421.850	5937
421.925	8642
422.001	8529
422.076	9030
422.152	10976
422.227	16382
422.302	21174
422.378	32548
422.453	58646
422.529	123011
422.604	235790
422.679	258067
422.755	248685
422.830	141735
422.905	67128
422.981	37590
423.056	24950
423.131	17937
423.207	13783
423.282	11250
423.357	14659
423.432	9559
423.508	9561
423.583	14984
423.658	11848
423.733	6142
423.808	6023
423.883	6832
423.959	5001
424.034	6083
424.109	5083
424.184	2520
424.259	2991
424.334	2186
424.409	1453
424.484	1340
424.559	2320
424.634	2320
424.709	3238
424.784	3446
424.859	2462
424.934	3525
425.009	16361
425.084	26979
425.159	10380
425.234	2416
425.309	684
425.384	6678
425.459	11762
425.534	3935
425.609	1938
425.683	1679
425.758	826
425.833	1760
425.908	3281
425.983	8236
426.058	26772
426.132	11708
426.207	3345
426.282	6166
426.357	6331
426.431	1601
426.506	1693
426.581	1612
426.655	1622
426.730	684
426.805	148
426.879	1636
426.954	1452
427.029	4471
427.103	23285
427.178	54748
427.253	24007
427.327	4206
427.402	6138
427.476	16959
427.551	7245
427.625	2995
427.700	3697
427.774	1234
427.849	2706
427.923	1147
427.998	2034
428.072	2481
428.147	6326
428.221	25428
428.296	82268
428.370	42698
428.444	6577
428.519	7735
428.593	16959
428.667	14466
428.742	18248
428.816	16641
428.890	55989
428.965	87824
429.039	28973
429.113	20025
429.188	7638
429.262	2852
429.336	4843
429.410	13420
429.485	10528
429.559	13461
429.633	10361
429.707	3474
429.781	10040
429.855	64255
429.930	93720
430.004	45465
430.078	68228
430.152	60516
430.226	96312
430.300	96712
430.374	17630
430.448	6257
430.522	18488
430.596	58805
430.670	36525
430.744	74395
430.818	103527
430.892	20530
430.966	3643
431.040	2139
431.114	477
431.188	1769
431.262	810
431.336	1029
431.410	6972
431.484	20081
431.557	11705
431.631	1842
431.705	2336
431.779	13857
431.853	69496
431.927	49481
432.000	5931
432.074	1734
432.148	2707
432.222	2690
432.295	1193
432.369	454
432.443	2699
432.516	21994
432.590	54585
432.664	21245
432.737	2944
432.811	449
432.885	-418
432.958	1127
433.032	320
433.106	58
433.179	799
433.253	421
433.326	914
433.400	-19
433.473	531
433.547	-462
433.620	167
433.694	1823
433.767	2713
433.841	288
433.914	386
433.988	258
434.061	1090
434.134	822
434.208	286
434.281	-947
434.355	-175
434.428	233
434.501	92
434.575	704
434.648	896
434.721	-515
434.795	-121
434.868	-1162
434.941	477
435.014	-117
435.088	417
435.161	1729
435.234	4207
435.307	4535
435.381	2632
435.454	2380
435.527	5130
435.600	5474
435.673	4471
435.746	1631
435.819	1951
435.892	1296
435.966	1588
436.039	1006
436.112	902
436.185	-430
436.258	384
436.331	-558
436.404	464
436.477	1
436.550	-111
436.623	211
436.696	-484
436.769	597
436.842	585
436.915	627
436.987	2334
437.060	168
437.133	132
437.206	-495
437.279	1168
437.352	-246
437.425	-392
437.498	478
437.570	3672
437.643	2306
437.716	199
437.789	393
437.861	4677
437.934	16043
438.007	7589
438.080	594
438.152	1084
438.225	2942
438.298	23882
438.370	72207
438.443	34719
438.516	14178
438.588	2768
438.661	-134
438.734	100
438.806	1798
438.879	1411
438.951	3329
439.024	8486
439.096	1867
439.169	153
439.241	-905
439.314	474
439.386	2054
439.459	4294
439.531	7373
439.604	2635
439.676	396
439.749	-308
439.821	-226
439.893	773
439.966	488
440.038	1958
440.110	2199
440.183	654
440.255	74
440.327	2013
440.400	12069
440.472	50678
440.544	34126
440.617	5025
440.689	5227
440.761	7755
440.833	13046
440.905	7552
440.978	800
441.050	210
441.122	370
441.194	594
441.266	663
441.338	798
441.411	1896
441.483	17516
441.555	27537
441.627	7039
441.699	4573
441.771	5139
441.843	1289
441.915	413
441.987	270
442.059	611
442.131	2494
442.203	4665
442.275	4466
442.347	5592
442.419	8044
442.491	42924
442.563	112778
442.635	49149
442.706	24909
442.778	17211
442.850	3548
442.922	2291
442.994	2161
443.066	5616
443.137	3658
443.209	3674
443.281	5922
443.353	13835
443.425	51711
443.496	176247
443.568	184210
443.640	73957
443.711	14958
443.783	6170
443.855	3218
443.926	1793
443.998	2722
444.070	4497
444.141	3471
444.213	4958
444.285	4332
444.356	3624
444.428	4348
444.499	2195
444.571	781
444.642	1177
444.714	1436
444.785	3120
444.857	5483
444.928	16130
445.000	10734
445.071	10862
445.143	13834
445.214	8899
445.285	13510
445.357	41111
445.428	112584
445.500	238716
445.571	177471
445.642	104790
445.714	40791
445.785	30831
445.856	9826
445.928	6608
445.999	6719
446.070	5122
446.141	4432
446.213	5650
446.284	2926
446.355	4822
446.426	2211
446.497	2285
446.569	4469
446.640	6672
446.711	3401
446.782	1836
446.853	2785
446.924	2294
446.995	1814
447.066	2041
447.138	4843
447.209	2979
447.280	-312
447.351	1021
447.422	79
447.493	2016
447.564	2445
447.635	2865
447.706	687
447.777	268
447.847	-189
447.918	275
447.989	1874
448.060	3356
448.131	10390
448.202	8902
448.273	5017
448.344	1658
448.414	958
448.485	988
448.556	-71
448.627	163
448.698	662
448.768	-390
448.839	-522
448.910	5303
448.981	4389
449.051	719
449.122	109
449.193	179
449.263	446
449.334	84
449.405	1005
449.475	5305
449.546	4109
449.616	5372
449.687	5178
449.758	1859
449.828	406
449.899	239
449.969	-603
450.040	824
450.110	578
450.181	1738
450.251	759
450.322	398
450.392	1212
450.463	942
450.533	344
450.604	920
450.674	1483
450.744	1171
450.815	610
450.885	1110
450.955	913
451.026	448
451.096	776
451.166	1798
451.237	7082
451.307	20083
451.377	8337
451.447	1494
451.518	495
451.588	687
451.658	616
451.728	3954
451.799	19158
451.869	24023
451.939	4343
452.009	716
452.079	949
452.149	1627
452.219	4444
452.289	22390
452.360	18219
452.430	3094
452.500	2307
452.570	3463
452.640	7015
452.710	20482
452.780	31227
452.850	17280
452.920	10850
452.990	4449
453.060	3215
453.129	3903
453.199	5231
453.269	18898
453.339	43782
453.409	68726
453.479	66958
453.549	105795
453.619	119435
453.688	50671
453.758	7413
453.828	3170
453.898	1971
453.968	2121
454.037	1262
454.087	1572
454.107	1701
454.168	522
454.177	343
454.247	1073
454.249	1046
454.316	272
454.330	616
454.386	1917
454.411	4934
454.456	9950
454.492	14353
454.525	18326
454.574	9412
454.595	5530
454.655	2105
454.665	1571
454.734	1891
454.736	1976
454.804	4680
454.817	7339
454.873	18351
454.898	20515
454.943	24402
454.979	15381
455.013	7224
455.060	4120
455.082	2816
455.141	3254
455.152	3323
455.221	13766
455.222	13958
455.291	29108
455.303	28177
455.360	23382
455.384	31525
455.430	45646
455.465	36937
455.499	28946
455.546	22992
455.569	20104
455.627	14567
455.638	13658
455.707	2837
455.708	2834
455.777	1066
455.789	1107
455.846	1382
455.869	1008
455.916	318
455.950	952
455.985	1548
456.031	1517
456.054	1444
456.112	1336
456.124	1367
456.193	1177
456.193	1168
456.262	1447
456.274	1628
456.332	2443
456.355	2348
456.401	2023
456.436	1403
456.470	771
456.516	830
456.540	907
456.597	508
456.609	423
456.678	452
456.678	446
456.747	573
456.759	579
456.817	593
456.840	420
456.886	88
456.920	453
456.955	941
457.001	1017
457.024	980
457.082	1199
457.093	1267
457.162	2525
457.163	2534
457.232	3044
457.243	2867
457.301	1880
457.324	1358
457.370	551
457.405	1078
457.439	1615
457.485	1070
457.508	765
457.566	1645
457.577	1837
457.646	1246
457.647	1270
457.715	4141
457.727	4509
457.784	6912
457.808	10207
457.853	15244
457.889	18967
457.922	21283
457.969	14230
457.991	12498
458.050	12334
458.060	12266
458.129	23154
458.130	23445
458.198	31259
458.211	28221
458.267	16097
458.292	11589
458.336	5568
458.372	4903
458.405	5595
458.453	8109
458.474	9953
458.533	19673
458.543	20709
458.611	43367
458.614	43459
458.680	34357
458.694	28359
458.749	11630
458.775	8435
458.818	3705
458.855	2749
458.887	2206
458.936	1721
458.955	1439
459.016	1380
459.024	1432
459.093	1851
459.097	1840
459.162	1703
459.177	1841
459.230	2195
459.257	2275
459.299	2344
459.338	2631
459.368	2875
459.418	3434
459.437	3389
459.499	2148
459.505	2097
459.574	1495
459.579	1530
459.643	1695
459.659	1516
459.711	1331
459.740	1460
459.780	1295
459.820	1089
459.849	1162
459.900	1727
459.917	1865
459.981	2446
459.986	2467
460.054	2053
460.061	2018
460.123	1936
460.141	2017
460.191	2360
460.222	2396
460.260	2599
460.302	3714
460.328	3909
460.382	2669
460.397	2392
460.462	1354
460.465	1385
460.534	3431
460.543	3592
460.602	8545
460.623	11050
460.671	18266
460.703	27432
460.739	29809
460.783	27126
460.808	25107
460.864	7354
460.876	4882
460.944	2034
460.945	2005
461.013	2254
461.024	2247
461.081	2145
461.104	2288
461.150	2245
461.184	1931
461.218	1563
461.264	1232
461.286	1426
461.345	1747
461.355	1624
461.423	1438
461.425	1416
461.491	1510
461.505	1666
461.559	3915
461.585	4839
461.628	7721
461.665	11489
461.696	13132
461.745	19337
461.764	19178
461.825	8659
461.832	8248
461.901	2883
461.905	2903
461.969	2154
461.985	1924
462.037	2503
462.065	2649
462.105	2458
462.145	2355
462.173	3513
462.225	6218
462.241	6899
462.305	11455
462.310	11274
462.378	8421
462.385	7458
462.446	3754
462.465	3052
462.514	1810
462.545	1851
462.582	1918
462.625	2041
462.650	1990
462.705	1350
462.718	1392
462.785	2353
462.786	2382
462.854	3886
462.865	4161
462.922	5534
462.945	6398
462.990	5427
463.025	3437
463.058	2799
463.104	2179
463.126	2031
463.184	2196
463.194	2216
463.262	2124
463.264	2135
463.330	2212
463.344	2163
463.398	2537
463.424	2694
463.466	2284
463.504	2292
463.533	2522
463.583	2390
463.601	2487
463.663	2626
463.669	2657
463.737	3665
463.743	3750
463.805	6025
463.823	6719
463.873	11117
463.903	14279
463.940	15529
463.982	17975
464.008	16156
464.062	8433
464.076	7709
464.142	2910
464.144	2823
464.211	2054
464.221	2068
464.279	2193
464.301	2051
464.347	2584
464.381	3298
464.414	3538
464.461	3712
464.482	3863
464.540	4452
464.550	4355
464.617	3475
464.620	3433
464.685	3053
464.699	2950
464.753	3556
464.779	4019
464.820	4404
464.859	4692
464.888	4204
464.938	3424
464.956	3841
465.018	5479
465.023	5377
465.091	3679
465.098	3479
465.158	3255
465.177	3292
465.226	3296
465.257	3222
465.293	3703
465.336	4272
465.361	4250
465.416	4335
465.428	4837
465.495	7513
465.496	7550
465.563	11723
465.575	12627
465.631	17476
465.654	19788
465.698	12844
465.734	5543
465.765	4784
465.813	3604
465.833	3223
465.893	3281
465.900	3236
465.968	2764
465.972	2728
466.035	2212
466.052	2089
466.102	2676
466.131	2986
466.170	2748
466.210	2500
466.237	2680
466.290	3009
466.304	3095
466.369	3461
466.372	3466
466.439	3540
466.449	3528
466.506	3951
466.528	4169
466.573	6637
466.607	8382
466.641	12369
466.687	18067
466.708	20359
466.766	27058
466.775	24816
466.842	7510
466.845	6673
466.909	5185
466.925	4976
466.977	4385
467.004	4189
467.044	4343
467.083	4484
467.111	4604
467.163	4812
467.178	4853
467.242	5013
467.245	4990
467.312	4449
467.321	4376
467.379	5148
467.400	5419
467.446	5630
467.480	5775
467.559	5686
467.638	3538
467.717	5032
467.796	5575
467.875	6111
467.955	4152
468.034	9095
468.113	22278
468.192	34651
468.271	8585
468.350	5922
468.429	6892
468.508	7647
468.588	6013
468.667	5352
468.746	5452
468.825	4785
468.904	4177
468.983	4714
469.062	8083
469.141	11019
469.220	3982
469.299	4342
469.378	3702
469.456	5690
469.535	3935
469.614	3906
469.693	4764
469.772	7559
469.851	10127
469.930	6798
470.009	3802
470.088	4353
470.166	4791
470.245	7387
470.324	9127
470.403	5693
470.482	3729
470.560	4097
470.639	3417
470.718	6251
470.797	3476
470.875	5727
470.954	7696
471.033	8858
471.111	3541
471.190	2985
471.269	3577
471.347	3533
471.426	3432
471.505	4321
471.583	4251
471.662	4545
471.740	3387
471.819	4361
471.898	3355
471.976	3670
472.055	2572
472.133	4813
472.212	7054
472.290	6109
472.369	3970
472.447	4295
472.526	2559
472.604	4153
472.683	2941
472.761	3999
472.839	2970
472.918	4692
472.996	3279
473.075	5737
473.153	4363
473.231	4335
473.310	4572
473.388	4846
473.466	3702
473.545	4375
473.623	5468
473.701	5726
473.780	3531
473.858	3321
473.936	5828
474.014	3960
474.093	4749
474.171	7116
474.249	9594
474.327	6842
474.405	3224
474.484	4083
474.562	2839
474.640	3934
474.718	3818
474.796	4028
474.874	3933
474.952	3401
475.030	3163
475.108	3484
475.187	2487
475.265	5018
475.343	5934
475.421	6951
475.499	3616
475.577	3938
475.655	5700
475.733	11542
475.811	20946
475.889	19641
475.966	12440
476.044	3794
476.122	5108
476.200	6346
476.278	4785
476.356	3521
476.434	3753
476.512	5544
476.590	5761
476.667	5628
476.745	2709
476.823	3670
476.901	4510
476.979	4664
477.056	3942
477.134	4597
477.212	4404
477.290	4137
477.367	3367
477.445	3495
477.523	3360
477.601	3552
477.678	3238
477.756	4825
477.834	5485
477.911	3081
477.989	3229
478.066	4042
478.144	3671
478.222	4902
478.299	7106
478.377	6876
478.454	3007
478.532	3860
478.609	2774
478.687	4432
478.764	2744
478.842	3720
478.919	3368
478.997	4184
479.074	3586
479.152	4460
479.229	5757
479.307	3828
479.384	3043
479.461	3112
479.539	2821
479.616	4508
479.694	3628
479.771	4558
479.848	4616
479.926	5526
480.003	7406
480.080	3990
480.157	3397
480.235	4171
480.312	3774
480.389	4256
480.467	7052
480.544	9203
480.621	3856
480.698	4593
480.775	4030
480.853	5347
480.930	3931
481.007	3979
481.084	4917
481.161	6182
481.238	4831
481.315	3984
481.392	2622
481.470	3640
481.547	3788
481.624	3535
481.701	4232
481.778	3983
481.855	3625
481.932	7276
482.009	12212
482.086	8576
482.163	4571
482.240	6056
482.317	9236
482.393	8002
482.470	4999
482.547	4640
482.624	3550
482.701	4940
482.778	3390
482.855	2688
482.932	3200
483.009	3314
483.085	3694
483.162	5318
483.239	5028
483.316	3170
483.393	3040
483.469	3832
483.546	3452
483.623	4977
483.699	3813
483.776	3944
483.853	3623
483.930	6229
484.006	17282
484.083	32976
484.160	12177
484.236	13781
484.313	11208
484.389	8882
484.466	8114
484.543	7443
484.619	8128
484.696	10643
484.772	9024
484.849	10449
484.925	7154
485.002	7617
485.078	8380
485.155	8797
485.231	6930
485.308	7290
485.384	6369
485.461	9121
485.537	16410
485.614	22567
485.690	7984
485.766	6892
485.843	5948
485.919	9498
485.995	10330
486.072	7234
486.148	6253
486.224	5362
486.301	6612
486.377	8938
486.453	7983
486.530	7774
486.606	8331
486.682	10776
486.758	14641
486.835	18232
486.911	11135
486.987	22743
487.063	21374
487.139	22504
487.215	15224
487.292	10769
487.368	7575
487.444	9811
487.520	12571
487.596	11905
487.672	18168
487.748	55471
487.824	86175
487.900	28977
487.976	10026
488.052	9582
488.128	12181
488.204	8905
488.280	7917
488.356	8660
488.432	20589
488.508	34226
488.584	11285
488.660	7129
488.736	5954
488.812	5820
488.888	8285
488.964	10118
489.039	20497
489.115	32854
489.191	20080
489.267	7731
489.343	6735
489.418	6013
489.494	5278
489.570	4546
489.646	6595
489.722	5738
489.797	6278
489.873	10574
489.949	23957
490.024	21890
490.100	5770
490.176	5818
490.251	5987
490.327	8773
490.403	5642
490.478	4936
490.554	4538
490.629	5109
490.705	4865
490.781	5634
490.856	5152
490.932	5977
491.007	5421
491.083	5006
491.158	4549
491.234	7524
491.309	19498
491.385	21401
491.460	5304
491.536	6910
491.611	4719
491.686	5511
491.762	6636
491.837	14052
491.913	23465
491.988	34600
492.063	41222
492.139	14568
492.214	9857
492.289	5014
492.365	3929
492.440	5935
492.515	4677
492.590	6241
492.666	4783
492.741	7315
492.816	9876
492.891	6938
492.967	4768
493.042	5363
493.117	4418
493.192	6509
493.267	12066
493.342	42914
493.418	64860
493.493	10150
493.568	3882
493.643	4359
493.718	5896
493.793	8568
493.868	9125
493.943	5203
494.018	4807
494.093	4327
494.168	4419
494.243	2879
494.318	2648
494.393	4295
494.468	1999
494.543	3850
494.618	3921
494.693	3694
494.768	2336
494.842	4034
494.917	3325
494.992	3855
495.067	3197
495.142	2389
495.217	4132
495.292	4306
495.366	4254
495.441	5027
495.516	6610
495.591	8404
495.665	27647
495.740	69871
495.815	28700
495.890	6867
495.964	3405
496.039	8085
496.114	5106
496.188	6177
496.263	5662
496.338	4476
496.412	5014
496.487	6720
496.561	5891
496.636	6558
496.710	4825
496.785	6291
496.860	6271
496.934	5466
497.009	5055
497.083	4774
497.158	4830
497.232	6687
497.307	8044
497.381	6430
497.455	7928
497.530	11379
497.604	7514
497.679	7774
497.753	10639
497.827	14035
497.902	11157
497.976	12995
498.050	34609
498.125	147381
498.199	158961
498.273	20045
498.348	11019
498.422	8927
498.496	8961
498.570	9578
498.645	6158
498.719	6650
498.793	9158
498.867	14227
498.941	21070
499.016	58795
499.090	170483
499.164	67062
499.238	8416
499.312	6181
499.386	7822
499.460	7358
499.534	7053
499.609	8801
499.683	12270
499.757	13731
499.831	25388
499.905	111217
499.979	117110
500.053	17751
500.127	16592
500.201	10122
500.275	7481
500.349	6904
500.422	7008
500.496	11548
500.570	21090
500.644	60856
500.718	124764
500.792	32437
500.866	7871
500.940	10293
501.013	8306
501.087	7731
501.161	11464
501.235	14824
501.309	38142
501.382	109921
501.456	105433
501.530	21290
501.603	37117
501.677	16902
501.751	4553
501.825	8601
501.898	13936
501.972	44335
502.046	32014
502.119	6848
502.193	18130
502.266	49921
502.340	28292
502.413	20248
502.487	44177
502.561	26178
502.634	8121
502.708	5521
502.781	4753
502.855	5535
502.928	2925
503.002	4014
503.075	3943
503.149	5613
503.222	4084
503.295	5228
503.369	6031
503.442	8987
503.516	29872
503.589	87165
503.662	59645
503.736	17857
503.809	39619
503.882	35018
503.956	46046
504.029	50623
504.102	35050
504.175	48615
504.249	16679
504.322	9219
504.395	8035
504.468	5649
504.542	4538
504.615	2964
504.688	3026
504.761	2625
504.834	5572
504.907	5578
504.980	8450
505.053	5336
505.127	2726
505.200	9301
505.273	6766
505.346	4542
505.419	2988
505.492	3760
505.565	2817
505.638	2649
505.711	2408
505.784	1906
505.857	1636
505.930	4478
506.003	2254
506.076	5527
506.149	4813
506.221	5958
506.294	7035
506.367	15252
506.440	60550
506.513	37331
506.586	7657
506.659	4397
506.731	2404
506.804	4536
506.877	5212
506.950	4099
507.022	3519
507.095	4255
507.168	6017
507.241	4246
507.313	2850
507.386	1780
507.459	4675
507.531	3549
507.604	1584
507.677	3778
507.749	829
507.822	5545
507.894	5514
507.967	7726
508.040	4564
508.112	4999
508.185	3285
508.257	2874
508.330	5911
508.402	3572
508.475	3709
508.547	4962
508.620	4027
508.692	8034
508.765	5164
508.837	2856
508.909	2679
508.982	3886
509.054	3511
509.127	3254
509.199	2882
509.271	2420
509.344	2612
509.416	3508
509.488	2682
509.560	3410
509.633	2699
509.705	4352
509.777	3367
509.849	5879
509.922	2194
509.994	3088
510.066	2645
510.138	1924
510.210	6911
510.283	5564
510.355	5900
510.427	4490
510.499	3561
510.571	4201
510.643	3453
510.715	6678
510.787	4296
510.859	5916
510.931	4906
511.003	5465
511.076	6608
511.148	3077
511.219	3149
511.291	7197
511.363	9761
511.435	3413
511.507	1704
511.579	3554
511.651	3062
511.723	3785
511.795	2653
511.867	3278
511.939	4490
512.010	10426
512.082	9395
512.154	2196
512.226	2995
512.298	5120
512.369	7177
512.441	5858
512.513	5354
512.585	3538
512.656	5258
512.728	4740
512.800	3632
512.871	4982
512.943	3764
513.015	2227
513.086	3003
513.158	3854
513.230	2985
513.301	4810
513.373	7283
513.444	4013
513.516	3161
513.588	2726
513.659	3791
513.731	4125
513.802	2423
513.874	9652
513.945	14251
514.016	4436
514.088	3184
514.159	3624
514.231	4598
514.302	6603
514.374	4992
514.445	3545
514.516	13418
514.588	9280
514.659	4877
514.730	10881
514.802	8898
514.873	3212
514.944	5801
515.016	4945
515.087	4061
515.158	6668
515.229	12996
515.301	4289
515.372	4527
515.443	2864
515.514	3256
515.585	2890
515.656	3650
515.728	4628
515.799	2386
515.870	4086
515.941	4372
516.012	3670
516.083	5571
516.154	5441
516.225	7484
516.296	8376
516.367	5758
516.438	6922
516.509	8524
516.580	12830
516.651	39251
516.722	140186
516.793	67997
516.864	14423
516.935	14231
517.006	16275
517.077	17379
517.148	41310
517.219	154316
517.289	252985
517.360	86982
517.431	33493
517.502	7690
517.573	8515
517.643	6835
517.714	7316
517.785	8816
517.856	8092
517.926	10827
517.997	13197
518.068	14026
518.138	19117
518.209	24329
518.280	94259
518.350	363151
518.421	146665
518.492	19389
518.562	12543
518.633	12456
518.703	10672
518.774	22653
518.845	57339
518.915	62000
518.986	19128
519.056	11783
519.127	17514
519.197	23706
519.268	65257
519.338	51271
519.408	11870
519.479	10559
519.549	8236
519.620	6632
519.690	5079
519.760	4944
519.831	5350
519.901	4402
519.971	4719
520.042	5558
520.112	5851
520.182	6945
520.253	7284
520.323	4116
520.393	6130
520.463	11540
520.534	6240
520.604	15570
520.674	9141
520.744	7370
520.814	14845
520.885	15093
520.955	19655
521.025	77442
521.095	36926
521.165	6830
521.235	5027
521.305	4028
521.375	4335
521.445	5495
521.515	5518
521.585	6360
521.655	5390
521.725	6934
521.795	6425
521.865	2413
521.935	9454
522.005	6692
522.075	4329
522.145	5090
522.215	4686
522.285	8296
522.355	10776
522.424	21584
522.494	19794
522.564	7939
522.634	12524
522.704	33735
522.774	15298
522.843	5212
522.913	4706
522.983	5806
523.053	4829
523.122	4287
523.192	5064
523.262	17296
523.331	17810
523.401	5737
523.471	4489
523.540	3415
523.610	3217
523.680	2714
523.749	4299
523.819	6067
523.888	5035
523.958	3192
524.027	3923
524.097	4401
524.166	3867
524.236	2777
524.305	6370
524.375	3066
524.444	2956
524.514	5932
524.583	4628
524.653	4615
524.722	6381
524.791	3601
524.861	5358
524.930	2315
524.999	3014
525.069	5641
525.138	4151
525.207	6269
525.277	6035
525.346	3396
525.415	3818
525.484	3715
525.554	5237
525.623	6092
525.692	6076
525.761	5482
525.830	8016
525.900	6797
525.969	12214
526.038	19358
526.107	35517
526.176	111869
526.245	98696
526.314	30875
526.383	56286
526.452	80480
526.522	123814
526.591	136903
526.660	32779
526.729	16113
526.797	17523
526.867	29125
526.935	118498
527.004	253670
527.073	158956
527.142	16512
527.211	8430
527.280	7441
527.349	6801
527.418	3457
527.487	4999
527.555	2994
527.624	3305
527.693	1709
527.762	5525
527.831	2900
527.899	4440
527.968	3990
528.037	2802
528.106	4151
528.174	7226
528.243	6375
528.312	9267
528.380	11370
528.449	3742
528.518	5075
528.586	1588
528.655	3928
528.723	3773
528.792	2507
528.861	2960
528.929	2575
528.998	4159
529.066	3913
529.135	6679
529.203	5504
529.272	5920
529.340	9863
529.409	10968
529.477	6995
529.545	8885
529.614	12073
529.682	10795
529.751	14173
529.819	14715
529.887	14592
529.956	12570
530.024	11742
530.092	10699
530.161	11248
530.229	12763
530.297	12093
530.365	13251
530.434	11146
530.502	11989
530.570	11439
530.638	9373
530.707	10493
530.775	10808
530.843	8464
530.911	11125
530.979	10527
531.047	11967
531.115	12443
531.183	10537
531.252	10264
531.320	9409
531.388	9057
531.456	11434
531.524	9875
531.592	13168
531.660	15168
531.728	12654
531.796	10892
531.864	12034
531.932	10951
532.000	11467
532.067	12688
532.135	13968
532.203	15136
532.271	14382
532.339	17209
532.407	25977
532.475	19939
532.542	14418
532.610	15372
532.678	16223
532.746	36207
532.814	79335
532.881	29350
532.949	15367
533.017	12632
533.084	12872
533.152	12188
533.220	12746
533.287	11580
533.355	14355
533.423	13045
533.490	13000
533.558	11286
533.625	12538
533.693	10945
533.761	11703
533.828	11415
533.896	10682
533.963	15423
534.031	15662
534.098	19743
534.166	14059
534.233	10931
534.300	12158
534.368	11343
534.435	10051
534.503	10685
534.570	12213
534.637	10889
534.705	11523
534.772	12448
534.840	17278
534.907	53897
534.974	77387
535.041	15623
535.109	11938
535.176	9289
535.243	8940
535.310	9529
535.378	8686
535.445	8746
535.512	8646
535.579	8603
535.646	7773
535.714	7401
535.781	8960
535.848	8354
535.915	9289
535.982	7769
536.049	8495
536.116	8634
536.183	7449
536.250	6965
536.317	6984
536.384	7122
536.451	9504
536.518	9763
536.585	7130
536.652	10132
536.719	12796
536.786	7381
536.853	7504
536.920	10238
536.987	13668
537.053	11641
537.120	36798
537.187	35809
537.254	7306
537.321	6293
537.388	7625
537.454	4561
537.521	6134
537.588	5095
537.654	6669
537.721	6248
537.788	7719
537.855	5177
537.921	7158
537.988	5653
538.055	6459
538.121	4780
538.188	6590
538.254	7021
538.321	12251
538.388	9048
538.454	6464
538.521	6083
538.587	6081
538.654	5809
538.720	5636
538.787	5197
538.853	5667
538.920	6827
538.986	7016
539.053	4838
539.119	6191
539.185	5956
539.252	7735
539.318	8030
539.385	8901
539.451	6054
539.517	7045
539.583	7160
539.650	12348
539.716	28208
539.782	11406
539.849	5070
539.915	5902
539.981	4584
540.047	6266
540.114	5737
540.180	7756
540.246	4668
540.312	6439
540.378	10525
540.444	12224
540.510	11919
540.576	30411
540.643	12898
540.709	5038
540.775	4703
540.841	4460
540.907	5865
540.973	10200
541.039	7111
541.105	7939
541.171	5685
541.237	4359
541.303	5562
541.369	7901
541.435	5308
541.500	10359
541.566	5483
541.632	4861
541.698	4388
541.764	5599
541.830	4707
541.896	4651
541.961	5146
542.027	4561
542.093	5248
542.159	5010
542.224	4190
542.290	7597
542.356	8673
542.421	11838
542.487	6899
542.553	4751
542.618	5949
542.684	5491
542.750	5141
542.815	6885
542.881	8445
542.947	26488
543.012	22476
543.078	5424
543.143	3223
543.209	4873
543.274	4218
543.340	5548
543.405	10625
543.471	17063
543.536	5779
543.602	5645
543.667	3281
543.732	5766
543.798	3039
543.863	5489
543.928	3362
543.994	3381
544.059	4437
544.124	4281
544.190	4184
544.255	5643
544.320	4664
544.386	4058
544.451	7105
544.516	7218
544.581	6557
544.646	16770
544.712	28256
544.777	8158
544.842	5412
544.907	6942
544.972	5425
545.037	5781
545.102	6108
545.168	6854
545.233	7140
545.298	7763
545.363	7290
545.428	8773
545.493	12306
545.558	23284
545.623	12403
545.688	6541
545.753	5759
545.818	6799
545.883	7352
545.947	6401
546.012	7743
546.077	7896
546.142	7772
546.207	7080
546.272	8728
546.337	8711
546.401	8861
546.466	8566
546.531	7266
546.596	8772
546.661	8729
546.725	9058
546.790	8218
546.855	9026
546.919	8985
546.984	11103
547.049	10406
547.113	13736
547.178	12131
547.243	14987
547.307	17113
547.372	19309
547.436	18840
547.501	17453
547.565	19127
547.630	18844
547.695	18258
547.759	20388
547.823	18489
547.888	17469
547.952	17741
548.017	18194
548.081	20871
548.146	22453
548.210	21800
548.274	20190
548.339	18937
548.403	18528
548.468	17408
548.532	17144
548.596	17060
548.660	17314
548.725	19139
548.789	22023
548.853	22835
548.917	20341
548.982	21302
549.046	21073
549.110	15277
549.174	16284
549.238	17715
549.303	18656
549.367	20911
549.431	19672
549.495	18188
549.559	18559
549.623	20750
549.687	23172
549.751	24902
549.815	27095
549.879	26880
549.943	25892
550.007	27040
550.071	27223
550.135	26777
550.199	23994
550.263	23141
550.327	23877
550.391	25635
550.455	24409
550.519	25536
550.582	28331
550.646	31384
550.710	33868
550.774	30481
550.838	30506
550.901	30988
550.965	34703
551.029	34562
551.093	38687
551.156	44429
551.220	59766
551.284	73226
551.347	48099
551.411	53191
551.475	58378
551.538	36173
551.602	30963
551.666	28418
551.729	27085
551.793	25947
551.856	26865
551.920	25091
551.983	26733
552.047	25309
552.110	24931
552.174	25178
552.237	27891
552.301	25074
552.364	23369
552.428	23126
552.491	24396
552.554	23856
552.618	25985
552.681	26587
552.745	26173
552.808	30281
552.871	35579
552.934	29244
552.998	25759
553.061	25618
553.124	24553
553.187	23906
553.251	25890
553.314	26296
553.377	26869
553.440	32400
553.503	58373
553.567	89301
553.630	35365
553.693	26595
553.756	26450
553.819	24761
553.882	24481
553.945	23661
554.008	24014
554.071	23493
554.134	25300
554.197	22666
554.260	22581
554.323	24271
554.386	23533
554.449	23951
554.512	24522
554.575	22429
554.638	23781
554.701	22429
554.764	22832
554.827	22354
554.889	21206
554.952	19160
555.015	19400
555.078	19492
555.141	20992
555.203	19952
555.266	19889
555.329	19653
555.391	18558
555.454	19920
555.517	19398
555.580	17398
555.642	17501
555.705	15787
555.768	17550
555.830	16626
555.893	16316
555.955	15960
556.018	15745
556.080	15417
556.143	16214
556.206	15371
556.268	16732
556.330	15580
556.393	15867
556.455	15614
556.518	18123
556.580	19048
556.643	14804
556.705	12919
556.767	13659
556.830	14547
556.892	14658
556.955	16586
557.017	14434
557.079	13595
557.142	13203
557.204	14197
557.266	19342
557.328	16676
557.391	12134
557.453	11911
557.515	12447
557.577	12796
557.639	14422
557.701	11848
557.764	12273
557.826	12586
557.888	15568
557.950	14273
558.012	16449
558.074	20798
558.136	42300
558.198	104855
558.260	45080
558.322	16323
558.384	17580
558.446	18851
558.508	21830
558.570	25027
558.632	32834
558.694	45037
558.756	58830
558.818	158511
558.880	382054
558.942	146368
559.003	111344
559.065	62115
559.127	25134
559.189	22612
559.251	26715
559.312	36776
559.374	84156
559.436	262904
559.498	148244
559.559	26906
559.621	24509
559.683	28087
559.744	46632
559.806	129381
559.868	209734
559.929	47925
559.991	27146
560.052	39051
560.114	104994
560.176	74853
560.237	58772
560.299	101090
560.360	26366
560.422	12279
560.483	11323
560.545	10742
560.606	10437
560.667	9634
560.729	9263
560.790	9369
560.852	9865
560.913	9016
560.974	9012
561.036	8955
561.097	9633
561.158	9480
561.220	9976
561.281	8273
561.342	9944
561.403	10511
561.465	11856
561.526	20343
561.587	25262
561.648	10570
561.709	9608
561.771	8895
561.832	9418
561.893	8772
561.954	8865
562.015	8405
562.076	8678
562.137	8544
562.198	8292
562.259	8703
562.320	8902
562.381	9578
562.442	11720
562.503	10836
562.564	9058
562.625	8200
562.686	8699
562.747	9599
562.808	9650
562.869	8967
562.930	11704
562.991	10776
563.051	10114
563.112	8343
563.173	9181
563.234	7742
563.294	9627
563.355	7783
563.416	8979
563.477	7841
563.537	8678
563.598	9395
563.659	8995
563.720	9248
563.780	8800
563.841	8650
563.901	9097
563.962	8834
564.023	9730
564.083	10047
564.144	9761
564.204	8952
564.265	10014
564.325	11218
564.386	18610
564.446	17425
564.507	8878
564.567	8032
564.628	8853
564.688	8360
564.749	8426
564.809	10928
564.869	11868
564.930	9194
564.990	9413
565.050	8080
565.111	8390
565.171	8765
565.231	8652
565.292	8844
565.352	8349
565.412	8940
565.472	9134
565.532	8834
565.593	8938
565.653	7439
565.713	8911
565.773	8911
565.833	10531
565.893	12220
565.953	10139
566.013	8098
566.074	10095
566.134	12835
566.194	17803
566.254	18366
566.314	11908
566.374	9488
566.434	9785
566.494	9812
566.554	9025
566.614	8444
566.673	9565
566.733	9392
566.793	10299
566.853	10195
566.913	10535
566.973	10399
567.033	11554
567.092	11153
567.152	10753
567.212	9369
567.272	11109
567.331	11203
567.391	9756
567.451	11698
567.511	15800
567.570	14741
567.630	10686
567.690	10363
567.749	10114
567.809	9720
567.868	10724
567.928	11027
567.988	12404
568.047	11227
568.107	12420
568.166	13132
568.226	15676
568.285	17992
568.345	17014
568.404	15064
568.464	14103
568.523	14037
568.582	14157
568.642	14764
568.701	17724
568.761	20691
568.820	25624
568.879	26205
568.939	25093
568.998	19443
569.057	14988
569.116	13730
569.176	13268
569.235	11183
569.294	11481
569.353	11213
569.413	11814
569.472	10056
569.531	11484
569.590	9568
569.649	11197
569.708	9270
569.767	11276
569.827	13827
569.886	12158
569.945	9549
570.004	10376
570.063	10308
570.122	9693
570.181	10381
570.240	12079
570.299	13369
570.358	13572
570.417	10515
570.475	9804
570.534	10845
570.593	9852
570.652	10959
570.711	11668
570.770	9719
570.829	10864
570.887	10430
570.946	10268
571.005	9050
571.064	9525
571.122	10092
571.181	11977
571.240	10079
571.299	9732
571.357	10312
571.416	10533
571.475	11635
571.533	11986
571.592	10234
571.650	11800
571.709	10366
571.768	10616
571.826	9509
571.885	10118
571.943	8693
572.002	9790
572.060	9997
572.119	9246
572.177	8930
572.236	9270
572.294	7996
572.352	9378
572.411	8758
572.469	9450
572.528	8360
572.586	9405
572.644	10619
572.703	14805
572.761	10189
572.819	9825
572.877	8357
572.936	9152
572.994	8212
573.052	9027
573.110	8813
573.169	8973
573.227	8423
573.285	9398
573.343	8921
573.401	8766
573.459	9320
573.517	8712
573.576	9426
573.634	9609
573.692	9278
573.750	9647
573.808	8796
573.866	10452
573.924	12065
573.982	11600
574.040	9152
574.098	9643
574.155	8396
574.213	8982
574.271	8625
574.329	9411
574.387	8563
574.445	8010
574.503	8274
574.560	8740
574.618	7674
574.676	7634
574.734	7896
574.792	8042
574.849	7504
574.907	7332
574.965	6860
575.022	7288
575.080	7493
575.138	7675
575.195	6528
575.253	8769
575.311	8564
575.368	8309
575.426	7802
575.483	8557
575.541	8486
575.598	8574
575.656	8499
575.713	8610
575.771	8429
575.828	8884
575.886	7590
575.943	9275
576.001	8760
576.058	9097
576.115	9376
576.173	11203
576.230	11562
576.287	11629
576.345	10353
576.402	8924
576.459	9334
576.517	10279
576.574	9413
576.631	10216
576.688	10289
576.746	9488
576.803	9463
576.860	8701
576.917	9472
576.974	9397
577.031	10171
577.089	10080
577.146	9004
577.203	9135
577.260	10848
577.317	9730
577.374	10785
577.431	10386
577.488	9351
577.545	9542
577.602	9988
577.659	10051
577.716	10837
577.773	11927
577.830	9665
577.886	9937
577.943	8592
578.000	9526
578.057	10053
578.114	9833
578.171	9174
578.227	11071
578.284	10748
578.341	12017
578.398	10585
578.454	11245
578.511	12362
578.568	12385
578.625	10856
578.681	9471
578.738	9011
578.794	9708
578.851	8524
578.908	10579
578.964	9449
579.021	11520
579.077	9998
579.134	10053
579.190	10151
579.247	10790
579.303	9594
579.360	9882
579.416	9348
579.473	10115
579.529	9105
579.586	10042
579.642	9928
579.698	10102
579.755	9853
579.811	10777
579.867	10695
579.924	10964
579.980	10756
580.036	13319
580.093	13061
580.149	14945
580.205	15571
580.261	13987
580.317	12737
580.374	13693
580.430	14157
580.486	14849
580.542	12719
580.598	12786
580.619	12573
580.654	12199
580.692	13300
580.710	13847
580.765	12338
580.767	12283
580.823	13572
580.838	13421
580.879	12992
580.911	13212
580.935	13357
580.984	12511
580.991	12398
581.047	14486
581.057	14383
581.103	13800
581.130	14362
581.159	14992
581.203	15080
581.215	15065
581.270	15819
581.276	15711
581.326	14670
581.349	15576
581.382	16921
581.422	16538
581.438	16336
581.494	17095
581.494	17097
581.550	16075
581.567	16628
581.606	17772
581.640	17191
581.661	16778
581.713	17971
581.717	18076
581.773	17372
581.786	17746
581.829	18671
581.859	18076
581.885	17648
581.932	18788
581.940	18986
581.996	19456
582.004	19724
582.052	20929
582.077	20170
582.107	19298
582.150	20328
582.163	20617
582.219	20675
582.223	20754
582.274	21664
582.296	21937
582.330	22302
582.368	23410
582.386	23898
582.441	23541
582.441	23527
582.497	24842
582.514	24938
582.552	25343
582.587	26291
582.608	26667
582.659	26058
582.663	26000
582.719	27429
582.732	27257
582.774	26999
582.805	27951
582.830	28792
582.877	29787
582.885	30049
582.941	32999
582.950	33686
582.996	37593
583.023	40195
583.052	42559
583.095	43426
583.107	43223
583.162	42043
583.168	41822
583.218	39389
583.240	38123
583.273	36389
583.313	35443
583.328	35189
583.384	34449
583.385	34380
583.439	32441
583.458	32499
583.494	32777
583.531	31678
583.549	31288
583.603	32519
583.605	32552
583.660	31864
583.676	31779
583.715	31814
583.748	32290
583.770	32730
583.820	33050
583.825	33065
583.881	32913
583.893	32887
583.936	33012
583.965	33211
583.991	33507
584.038	35092
584.046	35316
584.101	34226
584.110	34349
584.156	35947
584.183	36230
584.211	36076
584.255	36620
584.266	36887
584.321	37286
584.328	37518
584.376	40110
584.400	40291
584.431	39986
584.472	39902
584.486	40315
584.541	42993
584.545	43032
584.596	43199
584.617	43202
584.651	43777
584.689	44944
584.706	45507
584.761	46498
584.762	46461
584.816	47869
584.834	47499
584.871	46913
584.906	47864
584.926	48454
584.978	49071
584.980	49157
585.035	50716
585.051	50668
585.090	50793
585.123	51623
585.145	52476
585.195	53694
585.200	53943
585.254	55718
585.267	56519
585.309	59944
585.340	62381
585.364	64223
585.412	65698
585.419	66061
585.473	71208
585.484	72550
585.528	84091
585.556	94010
585.583	117657
585.628	167477
585.637	188036
585.692	338808
585.700	365424
585.747	449760
585.772	420852
585.801	296184
585.845	129739
585.856	113539
585.910	79973
585.917	76518
585.965	70886
585.989	68703
586.019	68038
586.061	67457
586.074	67289
586.128	65505
586.133	65263
586.183	63905
586.205	63162
586.237	62230
586.277	60534
586.292	60272
586.346	58946
586.349	58770
586.401	57948
586.421	57653
586.455	57847
586.493	57789
586.509	59705
586.564	66969
586.565	67105
586.618	82517
586.637	84757
586.672	77208
586.709	65428
586.727	62257
586.781	59929
586.781	60053
586.835	55477
586.853	54164
586.889	52592
586.925	50694
586.944	50721
586.996	51476
586.998	51645
587.052	52939
587.068	53226
587.106	53391
587.140	52696
587.161	52751
587.212	53254
587.215	53452
587.269	54671
587.284	54964
587.323	55729
587.356	55345
587.377	55278
587.427	56491
587.431	56788
587.485	57817
587.499	57789
587.539	58510
587.571	59267
587.593	60165
587.643	62121
587.648	62457
587.702	63338
587.715	63458
587.755	64842
587.786	65907
587.810	66692
587.858	67117
587.864	67641
587.917	71996
587.930	72803
587.971	75764
588.001	77408
588.025	78818
588.073	80926
588.079	81651
588.133	86202
588.145	87256
588.187	94197
588.217	98436
588.241	102473
588.288	110501
588.295	112334
588.348	125006
588.360	127655
588.402	140309
588.431	148460
588.456	157355
588.503	174676
588.510	178663
588.564	208178
588.575	214368
588.617	248830
588.646	272338
588.671	308300
588.718	379334
588.725	401517
588.778	576036
588.789	612880
588.832	897789
588.861	1097001
588.886	1288048
588.932	1649175
588.939	1656857
588.993	1607726
589.004	1589049
589.047	1399428
589.075	1241947
589.100	1026646
589.147	633306
589.154	611510
589.207	448405
589.218	415461
589.261	386219
589.290	367650
589.314	384706
589.361	420427
589.368	442434
589.421	623833
589.433	662921
589.475	990850
589.504	1226832
589.528	1360087
589.576	1584456
589.582	1560772
589.635	1251334
589.647	1173957
589.689	777201
589.718	505583
589.742	424634
589.790	272269
589.795	267056
589.849	214433
589.861	202418
589.902	186790
589.932	172871
589.955	159724
590.004	130814
590.009	130038
590.062	118590
590.075	115449
590.115	110050
590.146	105111
590.168	103723
590.218	99857
590.222	100019
590.275	97611
590.289	96667
590.328	94964
590.360	92713
590.381	91999
590.431	89416
590.435	89662
590.488	88287
590.503	87665
590.541	87682
590.574	86940
590.594	86782
590.645	85495
590.647	85812
590.700	85543
590.716	85180
590.753	84863
590.787	83951
590.806	84761
590.859	85983
590.859	86290
590.912	84665
590.930	83851
590.965	84792
591.001	84978
591.018	84889
591.071	83658
591.072	83322
591.124	84083
591.143	83949
591.177	85575
591.214	86714
591.230	87290
591.283	88040
591.285	87713
591.336	87754
591.356	87404
591.389	87252
591.427	86058
591.442	85992
591.495	84643
591.498	84203
591.547	84342
591.569	83947
591.600	84693
591.640	84876
591.653	85435
591.706	86334
591.711	86096
591.759	88760
591.782	89595
591.811	92665
591.853	96263
591.864	95783
591.917	91167
591.924	90140
591.969	90851
591.995	90783
592.022	91680
592.066	92064
592.075	93249
592.127	98282
592.137	98823
592.180	102736
592.208	104599
592.233	103005
592.279	98562
592.285	98680
592.338	96365
592.350	95428
592.390	95414
592.421	94727
592.443	95808
592.491	96877
592.495	97440
592.548	99518
592.562	99673
592.600	98751
592.633	97188
592.653	97924
592.704	98231
592.705	98812
592.775	99370
592.846	102633
592.916	104040
592.987	103010
593.058	104183
593.128	104314
593.199	102917
593.270	104858
593.341	107415
593.411	107095
593.482	109713
593.553	110674
593.623	110342
593.694	113192
593.764	115900
593.835	113590
593.906	112025
593.976	113695
594.047	117153
594.117	125863
594.188	126649
594.258	118395
594.329	117918
594.399	122336
594.470	122318
594.540	124411
594.611	126343
594.681	125621
594.751	126668
594.822	130740
594.892	136464
594.963	139503
595.033	140048
595.103	144544
595.174	146410
595.244	163782
595.314	174577
595.384	155237
595.455	154464
595.525	160474
595.595	164494
595.665	167723
595.736	162379
595.806	166479
595.876	169184
595.946	170106
596.016	173508
596.087	179776
596.157	180704
596.227	179572
596.297	190326
596.367	200786
596.437	210292
596.507	220720
596.577	230257
596.647	215881
596.717	223136
596.787	224969
596.857	224422
596.927	228592
596.997	231905
597.067	236182
597.137	248132
597.207	247458
597.277	247360
597.347	243576
597.417	240554
597.487	243792
597.557	250902
597.626	255459
597.696	261165
597.766	270459
597.836	273261
597.906	253913
597.975	249493
598.045	255449
598.115	262654
598.185	276200
598.254	296227
598.324	314869
598.394	320178
598.464	320051
598.533	318973
598.603	309461
598.672	309759
598.742	318760
598.812	321987
598.881	330855
598.951	332653
599.020	339533
599.090	350449
599.159	360808
599.229	358236
599.299	359012
599.368	373465
599.437	371155
599.507	367313
599.576	369843
599.646	379758
599.715	384108
599.785	382025
599.854	386898
599.924	395851
599.993	399515
600.062	408645
600.132	420312
600.201	436231
600.270	465726
600.340	483331
600.409	484411
600.478	492342
600.547	510013
600.617	502205
600.686	482324
600.755	479624
600.824	486214
600.894	493856
600.963	501426
601.032	511822
601.101	520951
601.170	528316
601.239	535226
601.308	552017
601.378	563919
601.447	574106
601.516	587443
601.585	604780
601.654	626410
601.723	636053
601.792	656308
601.861	682822
601.930	715603
601.999	740797
602.068	729527
602.137	733239
602.206	738913
602.275	738592
602.343	752290
602.412	758703
602.481	762187
602.550	762301
602.619	775588
602.688	765269
602.756	790647
602.825	773135
602.894	803842
602.963	780637
603.032	799481
603.100	796568
603.169	773791
603.238	819103
603.307	766955
603.375	776997
603.444	822075
603.513	740344
603.581	779382
603.650	826347
603.719	663253
603.787	627600
603.856	641884
603.924	651081
603.993	664676
604.061	677968
604.130	698020
604.198	715551
604.267	717513
604.335	741272
604.404	734698
604.472	764473
604.541	758381
604.609	797869
604.678	824575
604.746	839703
604.815	885098
604.883	831729
604.951	803581
605.020	831824
605.088	743616
605.156	689039
605.225	687660
605.293	678685
605.361	688492
605.429	670813
605.498	698171
605.566	667917
605.634	708244
605.702	682192
605.771	694102
605.839	720475
605.907	645452
605.975	702543
606.043	654486
606.111	623182
606.180	718373
606.248	613151
606.316	614350
606.384	685175
606.452	469541
606.520	341535
606.588	338252
606.656	337817
606.724	333319
606.792	315938
606.860	291980
606.928	273082
606.996	262315
607.064	261378
607.132	268994
607.200	282754
607.267	292790
607.335	295534
607.403	303585
607.471	294482
607.539	286096
607.607	288415
607.674	259699
607.742	259852
607.810	257893
607.878	255163
607.946	261317
608.013	265722
608.081	272590
608.149	271337
608.216	272821
608.284	279655
608.352	275126
608.419	274978
608.487	275022
608.555	253193
608.622	259471
608.690	264816
608.757	279619
608.825	284215
608.893	280008
608.960	269733
609.028	264655
609.095	264683
609.163	251050
609.230	225327
609.298	207345
609.365	216563
609.432	233532
609.500	251254
609.567	288980
609.635	325681
609.702	341370
609.769	327970
609.837	261312
609.904	223058
609.971	228002
610.039	246316
610.106	308442
610.173	536325
610.241	1115501
610.308	702243
610.375	323725
610.442	246479
610.509	229841
610.577	229782
610.644	233450
610.711	239125
610.778	245271
610.845	257168
610.912	273730
610.980	291090
611.047	309366
611.114	289564
611.181	268377
611.248	264441
611.315	282120
611.382	285929
611.449	295749
611.516	300041
611.583	296837
611.650	297560
611.717	299762
611.784	305228
611.851	316577
611.918	334805
611.984	374233
612.051	489254
612.118	868270
612.185	1791738
612.252	1206378
612.319	456933
612.386	385710
612.452	357580
612.519	342295
612.586	344859
612.653	345774
612.719	350356
612.786	336625
612.853	311401
612.919	305609
612.986	310976
613.053	291425
613.120	273702
613.186	266174
613.253	265702
613.319	267816
613.386	270414
613.453	276804
613.519	282006
613.586	280876
613.652	296645
613.719	283677
613.785	282732
613.852	281622
613.918	276001
613.985	285065
614.051	311292
614.118	356763
614.184	337998
614.250	279837
614.317	284030
614.383	279310
614.449	283718
614.516	282193
614.582	283536
614.648	276841
614.715	274586
614.781	271795
614.847	273723
614.914	274223
614.980	265975
615.046	264055
615.112	270304
615.179	272606
615.245	274191
615.311	274230
615.377	284707
615.443	292148
615.509	283877
615.575	290085
615.642	286696
615.708	296170
615.774	309430
615.840	327407
615.906	343718
615.972	397782
616.038	558489
616.104	1023804
616.170	1978695
616.236	1687539
616.302	612063
616.368	478498
616.434	370199
616.500	345359
616.565	370942
616.631	442484
616.697	379333
616.763	384885
616.829	530730
616.895	875210
616.961	826284
617.026	411567
617.092	314349
617.158	302602
617.224	295682
617.289	278970
617.355	267359
617.421	268225
617.487	266719
617.552	255753
617.618	252395
617.684	255806
617.749	255880
617.815	247351
617.880	245562
617.946	243927
618.012	249545
618.077	251154
618.143	241065
618.208	243956
618.274	262785
618.339	263374
618.405	222830
618.470	223150
618.536	221026
618.601	228283
618.667	212910
618.732	204746
618.798	201186
618.863	202042
618.928	201158
618.994	204163
619.059	207581
619.124	219020
619.190	206526
619.255	201745
619.320	200759
619.386	202274
619.451	198997
619.516	195437
619.581	198601
619.647	205268
619.712	204940
619.777	200062
619.842	200625
619.907	208036
619.972	207053
620.038	208078
620.103	203635
620.168	203653
620.233	205536
620.298	208925
620.363	209357
620.428	215426
620.493	222252
620.558	222765
620.623	223474
620.688	222635
620.753	219090
620.818	227397
620.883	224683
620.948	223111
621.013	223770
621.078	220718
621.143	222312
621.207	222058
621.272	222096
621.337	220583
621.402	221308
621.467	229744
621.532	232958
621.596	230923
621.661	215643
621.726	214349
621.791	216203
621.855	221579
621.920	221248
621.985	223547
622.049	227675
622.114	229914
622.179	232344
622.243	238960
622.308	240157
622.373	247198
622.437	244370
622.502	232060
622.566	228406
622.631	231433
622.695	236301
622.760	235442
622.824	233863
622.889	233331
622.953	238070
623.018	260654
623.082	260770
623.147	247228
623.211	240269
623.276	238833
623.340	228572
623.404	223981
623.469	224925
623.533	231347
623.597	224274
623.662	218436
623.726	208324
623.790	199725
623.854	201767
623.919	204966
623.983	199909
624.047	202356
624.111	203348
624.176	210807
624.240	217295
624.304	225171
624.368	204771
624.432	204806
624.496	207350
624.560	217149
624.625	222700
624.689	215376
624.753	223587
624.817	209119
624.881	205031
624.945	193758
625.009	193762
625.073	191178
625.137	199406
625.201	208932
625.265	206324
625.329	197745
625.393	199767
625.456	190778
625.520	196237
625.584	203213
625.648	216982
625.712	242242
625.776	306727
625.839	308640
625.903	198288
625.967	171887
626.031	203515
626.095	249675
626.158	187801
626.222	152958
626.286	144198
626.349	141922
626.413	136752
626.477	135076
626.540	131821
626.604	133227
626.668	133371
626.731	132404
626.795	137114
626.858	130617
626.922	124283
626.986	124267
627.049	123673
627.113	131528
627.176	129055
627.240	123861
627.303	118757
627.366	119509
627.430	122986
627.493	122152
627.557	125531
627.620	127736
627.684	122152
627.747	123232
627.810	113471
627.874	106677
627.937	106396
628.000	114898
628.064	110824
628.127	93492
628.190	93308
628.253	94197
628.317	89398
628.380	88634
628.443	89153
628.506	90586
628.569	80895
628.632	78371
628.696	77698
628.759	79111
628.822	74564
628.885	74186
628.948	73701
629.011	74047
629.074	72223
629.137	71384
629.200	71264
629.263	73520
629.326	68071
629.389	68798
629.452	70550
629.515	70649
629.578	69463
629.641	71346
629.704	70177
629.767	68667
629.830	66751
629.892	65727
629.955	65294
630.018	69417
630.081	67879
630.144	71087
630.207	65748
630.269	68755
630.332	67699
630.395	65340
630.458	62714
630.520	62836
630.583	62920
630.646	60942
630.708	60718
630.771	62697
630.834	63873
630.896	62979
630.959	62852
631.021	62593
631.084	62369
631.146	65553
631.209	66530
631.272	61543
631.334	60362
631.397	62721
631.459	61313
631.522	63540
631.584	64468
631.646	66561
631.709	67865
631.771	72453
631.834	67560
631.896	64374
631.958	60137
632.021	61575
632.083	59631
632.145	61336
632.208	59928
632.270	61388
632.332	57574
632.395	57957
632.457	60059
632.519	57810
632.581	56742
632.643	57323
632.706	58648
632.768	55828
632.830	57777
632.892	58823
632.954	59316
633.016	59823
633.078	57556
633.141	58326
633.203	57878
633.265	59542
633.327	55813
633.389	56904
633.451	61232
633.513	62304
633.575	62566
633.637	60762
633.698	60767
633.760	59800
633.822	60278
633.884	60945
633.946	62314
634.008	62087
634.070	64315
634.132	72169
634.193	69105
634.255	69962
634.317	68733
634.379	69237
634.441	64906
634.502	62073
634.564	57676
634.626	55513
634.687	54910
634.749	54093
634.811	54935
634.873	52630
634.934	52951
634.996	54933
635.057	53310
635.119	53611
635.181	55281
635.242	54911
635.304	52823
635.365	56534
635.427	53027
635.488	53502
635.550	52589
635.611	54414
635.673	52547
635.734	57789
635.796	57615
635.857	61353
635.918	60004
635.980	66010
636.041	66692
636.102	68992
636.164	68073
636.225	66651
636.286	59863
636.348	59391
636.409	55417
636.470	52831
636.531	52867
636.593	55098
636.654	52131
636.715	48722
636.776	47951
636.838	47976
636.899	50598
636.960	47816
637.021	46102
637.082	46649
637.143	46330
637.204	45177
637.265	45124
637.326	45996
637.387	46532
637.448	44285
637.509	46926
637.570	46328
637.631	45648
637.692	43679
637.753	42499
637.814	44527
637.875	43707
637.936	44214
637.997	44057
638.058	44728
638.119	45360
638.179	44484
638.240	43317
638.301	45178
638.362	42647
638.423	43884
638.483	44403
638.544	41730
638.605	42302
638.666	42085
638.726	43058
638.787	42688
638.848	41945
638.908	42091
638.969	40470
639.030	41152
639.090	39646
639.151	41146
639.211	43115
639.272	45232
639.332	54621
639.393	44366
639.453	42493
639.514	43012
639.574	40390
639.635	38679
639.695	41110
639.756	37522
639.816	39166
639.877	41158
639.937	48583
639.997	52587
640.058	39165
640.118	38473
640.178	38257
640.239	37122
640.299	36431
640.359	38444
640.420	38350
640.480	42039
640.540	43488
640.600	43613
640.661	41186
640.721	41856
640.781	46638
640.841	43264
640.901	38915
640.961	38839
641.021	39897
641.082	41289
641.142	43794
641.202	39865
641.262	35540
641.322	38030
641.382	35160
641.442	38201
641.502	35969
641.562	37962
641.622	36089
641.682	38792
641.742	40697
641.802	39357
641.861	37475
641.921	35860
641.981	37168
642.041	37411
642.101	39724
642.161	35779
642.221	34304
642.280	34656
642.340	32388
642.400	33487
642.460	35490
642.519	35451
642.579	35868
642.639	36725
642.698	34332
642.758	37978
642.818	34804
642.877	35175
642.937	36521
642.997	38998
643.056	43112
643.116	36195
643.175	37540
643.235	36736
643.294	36596
643.354	38427
643.414	39675
643.473	43244
643.532	46174
643.592	59337
643.651	79468
643.711	128334
643.770	239051
643.830	557348
643.889	1032094
643.948	277736
644.008	73354
644.067	51611
644.126	42378
644.186	40292
644.245	37010
644.304	32989
644.363	36090
644.423	33225
644.482	34717
644.541	35127
644.600	34784
644.659	42524
644.719	46890
644.778	64329
644.837	98570
644.896	191321
644.955	413735
645.014	139707
645.073	51619
645.132	40567
645.191	37447
645.250	35772
645.309	37791
645.368	37984
645.427	45419
645.486	69115
645.545	103968
645.604	42454
645.663	34165
645.722	33988
645.781	35817
645.840	37106
645.898	42296
645.957	54570
646.016	73088
646.075	122414
646.134	230747
646.192	590174
646.251	783935
646.310	143262
646.369	54631
646.427	49203
646.486	39075
646.545	34720
646.603	32269
646.662	31608
646.721	31316
646.779	31179
646.838	31513
646.896	37488
646.955	44667
647.014	65631
647.072	111090
647.131	280354
647.189	129449
647.248	36368
647.306	29547
647.365	29781
647.423	25356
647.481	28779
647.540	25726
647.598	26536
647.657	25298
647.715	27739
647.773	25516
647.832	26818
647.890	23533
647.948	25392
648.007	25541
648.065	25131
648.123	25498
648.181	27483
648.240	29535
648.298	27855
648.356	23365
648.414	25250
648.472	23813
648.531	24769
648.589	23688
648.647	23513
648.705	23053
648.763	24235
648.821	24308
648.879	24095
648.937	25012
648.995	28110
649.053	31299
649.111	42181
649.169	63955
649.227	109547
649.285	216194
649.343	577879
649.401	259305
649.459	69595
649.516	47153
649.574	40368
649.632	62953
649.690	70414
649.748	46425
649.806	65205
649.863	106515
649.921	209141
649.979	126401
650.037	30744
650.094	22424
650.152	24369
650.210	20818
650.268	23083
650.325	22597
650.383	23618
650.440	20252
650.498	21379
650.556	20444
650.613	18677
650.671	19997
650.728	20290
650.786	21407
650.843	24088
650.901	19573
650.958	18552
651.016	18226
651.073	18243
651.131	17178
651.188	18431
651.246	18847
651.303	16740
651.360	17820
651.418	17291
651.475	17787
651.532	17272
651.590	17207
651.647	16975
651.704	16684
651.762	16469
651.819	16963
651.876	16448
651.933	15963
651.990	17231
652.048	15495
652.105	15940
652.162	15788
652.219	15868
652.276	15847
652.333	16285
652.390	15663
652.448	17282
652.505	17437
652.562	17067
652.619	19126
652.676	28387
652.733	27212
652.790	16077
652.847	14913
652.904	15991
652.961	13991
653.017	14477
653.074	15967
653.131	16049
653.188	14111
653.245	14929
653.302	14574
653.359	15488
653.415	15564
653.472	15176
653.529	15122
653.586	14266
653.642	13868
653.699	16026
653.756	13943
653.813	13923
653.869	15561
653.926	14447
653.983	15114
654.039	14736
654.096	14175
654.152	16022
654.209	13185
654.266	14645
654.322	13975
654.379	16197
654.435	16283
654.492	16995
654.548	19048
654.605	23944
654.661	17770
654.717	15119
654.774	15557
654.830	15266
654.887	15023
654.943	15967
655.000	17534
655.056	16682
655.112	16388
655.168	15211
655.225	15772
655.281	17056
655.337	18465
655.394	22797
655.450	19156
655.506	19177
655.562	24056
655.618	21177
655.675	14657
655.731	14611
655.787	13764
655.843	15554
655.899	13494
655.955	14952
656.011	14768
656.067	13306
656.123	14621
656.179	14255
656.235	15340
656.291	14148
656.347	15912
656.403	15600
656.459	14721
656.515	15597
656.571	15521
656.627	15582
656.683	15559
656.739	16631
656.795	14248
656.850	14908
656.906	15457
656.962	16154
657.018	14188
657.074	16752
657.129	18654
657.185	24843
657.241	43099
657.297	27461
657.352	15264
657.408	15056
657.464	15781
657.519	15248
657.575	12782
657.630	14715
657.686	13656
657.742	14164
657.797	13924
657.853	14760
657.908	14997
657.964	13913
658.019	15275
658.075	14590
658.130	13713
658.186	13155
658.241	13835
658.297	14288
658.352	13575
658.407	14102
658.463	13014
658.518	13996
658.573	14868
658.629	13404
658.684	12967
658.739	14281
658.795	12027
658.850	14147
658.905	13195
658.960	13177
659.016	13610
659.071	13439
659.126	14276
659.181	15328
659.236	17502
659.291	19104
659.346	14687
659.401	17103
659.457	19150
659.512	23860
659.567	16937
659.622	13706
659.677	12549
659.732	13336
659.787	13437
659.842	14531
659.897	16276
659.952	14606
660.007	13680
660.061	14017
660.116	13017
660.171	13411
660.226	12776
660.281	13889
660.336	13328
660.391	13605
660.445	13214
660.500	13453
660.555	13360
660.610	12888
660.664	13867
660.719	13044
660.774	13593
660.828	13621
660.883	12972
660.938	14848
660.992	13662
661.047	14719
661.101	12733
661.156	12960
661.211	12676
661.265	12806
661.320	12674
661.374	13094
661.429	11672
661.483	14251
661.538	12142
661.592	13450
661.647	13644
661.701	15760
661.755	13644
661.810	13735
661.864	12839
661.919	13559
661.973	13850
662.027	12923
662.081	12143
662.136	13188
662.190	13054
662.244	14996
662.299	13504
662.353	13217
662.407	12344
662.461	13286
662.515	14261
662.569	14011
662.624	14031
662.678	13344
662.732	12745
662.786	13085
662.840	12802
662.894	14009
662.948	11557
663.002	12878
663.056	11876
663.110	12656
663.164	12304
663.218	12483
663.272	12825
663.326	14315
663.380	13446
663.434	13778
663.488	12413
663.542	13484
663.595	12853
663.649	12951
663.703	12735
663.757	12642
663.811	12680
663.864	12318
663.918	12459
663.972	12395
664.026	13013
664.079	12715
664.133	12951
664.187	13299
664.240	11976
664.294	12416
664.348	13191
664.401	12628
664.455	11834
664.508	12616
664.562	12658
664.615	12828
664.669	11447
664.722	12231
664.776	11840
664.829	12689
664.883	12410
664.936	13030
664.990	13308
665.043	14192
665.097	15296
665.150	15698
665.203	13390
665.257	13427
665.310	13145
665.363	13655
665.417	14442
665.470	14084
665.523	13905
665.576	14029
665.630	13541
665.683	13732
665.736	13901
665.789	14633
665.842	13340
665.895	14458
665.949	12779
666.002	13195
666.055	12746
666.108	14109
666.161	13150
666.214	13759
666.267	13193
666.320	14689
666.373	13119
666.426	13976
666.479	13514
666.532	13868
666.585	14638
666.638	14780
666.691	13741
666.744	15076
666.796	14002
666.849	14460
666.902	12761
666.955	13513
667.008	12171
667.060	12574
667.113	12113
667.166	13718
667.219	13393
667.271	13557
667.324	12208
667.377	14190
667.430	13905
667.482	16686
667.535	14357
667.587	13982
667.640	13144
667.693	15202
667.745	18475
667.798	18309
667.850	12762
667.903	14231
667.955	13113
668.008	14674
668.060	15548
668.113	15182
668.165	14778
668.218	15028
668.270	15061
668.322	15248
668.375	12954
668.427	14675
668.479	12371
668.532	14162
668.584	13505
668.636	12827
668.689	13038
668.741	14512
668.793	12807
668.845	12964
668.898	14184
668.950	13424
669.002	13753
669.054	14033
669.106	13363
669.158	15225
669.211	12828
669.263	15142
669.315	16171
669.367	17901
669.419	14174
669.471	15261
669.523	13875
669.575	15553
669.627	14878
669.679	13955
669.731	13727
669.783	15215
669.835	13065
669.886	13408
669.938	13389
669.990	13227
670.042	12155
670.094	13170
670.146	14110
670.197	14170
670.249	15610
670.301	15739
670.353	18798
670.404	22344
670.456	29263
670.508	43246
670.560	68729
670.611	116125
670.663	203713
670.715	482316
670.766	668458
670.818	176631
670.869	42409
670.921	26922
670.972	22419
671.024	19608
671.075	16857
671.127	15761
671.178	15532
671.230	15596
671.281	13806
671.333	15580
671.384	16519
671.436	18924
671.487	21319
671.538	25087
671.590	32191
671.641	48561
671.692	76312
671.744	135117
671.795	85650
671.846	35338
671.897	22466
671.949	19581
672.000	16352
672.051	16267
672.102	15671
672.153	14284
672.204	13842
672.256	15883
672.307	13339
672.358	14554
672.409	13434
672.460	13903
672.511	12598
672.562	13711
672.613	12734
672.664	12709
672.715	12292
672.766	12817
672.817	11410
672.868	11549
672.919	12066
672.970	12881
673.021	12582
673.071	11992
673.122	11629
673.173	12956
673.224	11931
673.275	12003
673.326	11916
673.376	11983
673.427	10332
673.478	12003
673.528	11516
673.579	11303
673.630	11619
673.680	12668
673.731	11196
673.782	11474
673.832	11448
673.883	12610
673.934	10660
673.984	11242
674.035	11696
674.085	11106
674.136	12014
674.186	12313
674.237	13291
674.287	16469
674.338	12264
674.388	12113
674.438	11707
674.489	12263
674.539	11840
674.589	12196
674.640	12468
674.690	12350
674.740	12487
674.791	13313
674.841	12816
674.891	13126
674.942	10397
674.992	10563
675.042	9463
675.092	10797
675.142	9855
675.193	10623
675.243	10451
675.293	11652
675.343	10772
675.393	12380
675.443	11806
675.493	10737
675.543	9903
675.593	12088
675.643	10958
675.693	10524
675.743	10882
675.793	10257
675.843	8954
675.893	11076
675.943	10899
675.993	10938
676.043	10445
676.093	10676
676.142	9876
676.192	10573
676.242	9815
676.292	10591
676.341	10329
676.391	11000
676.441	10170
676.491	10204
676.540	9255
676.590	10500
676.640	9958
676.689	9933
676.739	8818
676.789	8814
676.838	9351
676.888	10590
676.937	9029
676.987	10047
677.037	8937
677.086	8313
677.136	9170
677.185	8884
677.235	7965
677.284	9205
677.333	8804
677.383	8866
677.432	7417
677.482	8530
677.531	9400
677.580	9110
677.630	8036
677.679	9357
677.728	9073
677.778	9187
677.827	7405
677.876	8845
677.925	7905
677.975	8073
678.024	9498
678.073	9659
678.122	10100
678.171	10793
678.220	9478
678.269	10608
678.319	10557
678.368	10346
678.417	9607
678.466	10634
678.515	10719
678.564	10383
678.613	8419
678.662	9186
678.711	8097
678.760	9458
678.809	9040
678.857	9810
678.906	9387
678.955	9241
679.004	8959
679.053	9975
679.102	9258
679.151	10755
679.199	9016
679.248	9072
679.297	8852
679.346	9199
679.394	8185
679.443	9361
679.492	8300
679.540	9232
679.589	9096
679.638	8841
679.686	7360
679.735	9300
679.784	8747
679.832	10556
679.881	8209
679.929	8572
679.978	8364
680.026	8466
680.075	9020
680.123	7973
680.172	7428
680.220	8075
680.268	8514
680.317	8045
680.365	7712
680.414	7656
680.462	8320
680.510	9340
680.559	7848
680.607	7790
680.655	7886
680.703	8220
680.752	7909
680.800	6877
680.848	7633
680.896	7923
680.945	6804
680.993	7976
681.041	7447
681.089	7508
681.137	6979
681.185	7048
681.233	6953
681.258	7640
681.281	8201
681.329	7688
681.377	8006
681.380	8097
681.425	8046
681.473	9754
681.502	9434
681.521	9044
681.569	10289
681.617	9208
681.624	9429
681.665	10153
681.713	9979
681.745	9601
681.761	9295
681.809	9730
681.857	11058
681.867	10892
681.904	9967
681.952	10783
681.989	10530
682.000	10329
682.048	10897
682.096	10829
682.111	10950
682.143	10949
682.191	10979
682.233	12271
682.239	12376
682.286	12222
682.334	11572
682.354	11335
682.382	10820
682.430	11785
682.476	11719
682.477	11638
682.525	11877
682.572	12577
682.598	12291
682.620	11932
682.667	12425
682.715	13994
682.720	13925
682.763	12511
682.810	14013
682.841	13341
682.857	12884
682.905	12769
682.952	13172
682.963	13474
683.000	14228
683.047	14144
683.085	14574
683.095	14597
683.142	14905
683.190	14575
683.206	14458
683.237	14049
683.284	14475
683.328	14771
683.332	14730
683.379	14464
683.426	15020
683.449	15205
683.473	15271
683.521	14447
683.568	16199
683.571	16179
683.615	15009
683.662	15959
683.693	15591
683.709	15337
683.757	15258
683.804	15262
683.814	15678
683.851	16843
683.898	15804
683.936	16998
683.945	17241
683.992	16822
684.039	17497
684.057	17644
684.086	17673
684.133	17600
684.179	16872
684.180	16796
684.227	17845
684.274	17620
684.300	18027
684.321	18240
684.368	17125
684.415	18607
684.422	18521
684.462	17709
684.509	18215
684.543	18248
684.556	18240
684.603	18307
684.649	18258
684.665	18550
684.696	19031
684.743	18731
684.786	19404
684.790	19445
684.837	20183
684.883	21675
684.908	22381
684.930	22793
684.977	23967
685.023	22043
685.029	22166
685.070	22296
685.117	20765
685.150	21416
685.164	21853
685.210	22805
685.257	23513
685.272	23700
685.303	23570
685.350	24082
685.393	23648
685.396	23585
685.443	23796
685.490	24117
685.514	24359
685.536	24518
685.583	24410
685.629	24133
685.636	24134
685.675	23693
685.722	24160
685.757	24052
685.768	24157
685.815	24503
685.861	25130
685.878	25252
685.908	25238
685.954	24834
686.000	26128
686.000	26139
686.047	27226
686.093	29509
686.121	29619
686.139	28849
686.185	28203
686.232	27085
686.242	27027
686.278	27135
686.324	26374
686.363	25664
686.370	25622
686.416	25529
686.463	26643
686.484	26707
686.509	26713
686.555	26278
686.601	26012
686.606	26080
686.647	26236
686.693	25874
686.727	25931
686.739	26045
686.785	26108
686.831	26215
686.848	26089
686.877	25620
686.923	26037
686.969	25832
686.969	25830
687.015	26898
687.061	27541
687.090	27755
687.107	27656
687.153	26988
687.199	27405
687.211	27043
687.245	26306
687.291	27519
687.332	27348
687.336	27359
687.382	28750
687.428	28361
687.453	28961
687.474	29026
687.520	27681
687.565	27669
687.574	27570
687.611	28034
687.657	28244
687.695	29029
687.702	29317
687.748	31840
687.794	33269
687.816	33702
687.839	32635
687.885	30866
687.931	28878
687.937	28661
687.976	28852
688.022	28971
688.058	28928
688.067	28934
688.113	29317
688.158	29080
688.179	29296
688.204	29778
688.249	30121
688.295	30424
688.300	30518
688.340	31453
688.386	32007
688.421	31680
688.431	31383
688.477	30868
688.522	30613
688.542	30618
688.567	31069
688.613	30433
688.658	31214
688.663	31155
688.703	30688
688.749	31318
688.784	31239
688.794	31254
688.839	31552
688.884	31130
688.905	31204
688.930	31312
688.975	31190
689.020	31205
689.026	31155
689.065	31341
689.110	31290
689.146	31686
689.155	31697
689.201	31577
689.246	31338
689.267	31293
689.291	31503
689.336	31343
689.381	31393
689.388	31360
689.426	31450
689.471	31977
689.509	31757
689.516	31667
689.561	31372
689.606	31179
689.630	31020
689.651	31281
689.696	30935
689.741	32124
689.750	32134
689.785	32108
689.830	32002
689.871	31867
689.875	31861
689.920	31740
689.965	31467
689.992	31251
690.010	31401
690.054	31275
690.099	31966
690.112	31905
690.144	31703
690.189	31929
690.233	31500
690.233	31537
690.278	31794
690.323	31720
690.354	31750
690.367	32108
690.412	32782
690.457	33571
690.474	33832
690.501	33927
690.546	33934
690.590	33653
690.595	33668
690.635	34463
690.680	34439
690.716	34785
690.724	35224
690.769	37299
690.813	39849
690.836	40608
690.857	42828
690.902	48276
690.946	53762
690.957	54964
690.991	66040
691.035	81556
691.077	96225
691.080	96400
691.124	93017
691.168	91103
691.198	90127
691.213	85798
691.257	72856
691.301	58774
691.318	53746
691.346	51055
691.390	45818
691.434	40626
691.439	40015
691.478	39221
691.522	38470
691.559	37502
691.567	37542
691.611	37547
691.655	37286
691.680	37117
691.699	37142
691.743	36693
691.787	37443
691.800	37184
691.831	37281
691.875	38534
691.919	39014
691.921	38975
691.964	39345
692.008	39230
692.041	39280
692.052	39326
692.096	39319
692.139	39409
692.162	39022
692.183	38688
692.227	38788
692.271	38582
692.282	38445
692.315	38391
692.359	38395
692.402	38109
692.403	38176
692.447	37852
692.490	38228
692.523	38176
692.534	38378
692.578	39131
692.622	39029
692.643	39395
692.666	39300
692.709	38812
692.753	38156
692.763	37892
692.797	38164
692.840	38669
692.884	38745
692.884	38818
692.928	39642
692.971	39275
693.004	39532
693.015	39700
693.059	39394
693.102	39461
693.124	39474
693.146	39865
693.189	40606
693.233	40660
693.245	40857
693.276	42171
693.320	43121
693.363	44198
693.365	44162
693.407	45985
693.450	47451
693.485	48731
693.493	49649
693.537	53939
693.580	58283
693.605	60578
693.624	65491
693.667	77038
693.710	88903
693.725	93008
693.753	115925
693.797	152399
693.840	187889
693.845	191555
693.883	184906
693.926	177640
693.966	171425
693.970	168567
694.013	135359
694.056	102435
694.086	79249
694.099	76774
694.142	68637
694.185	60477
694.206	56367
694.229	54951
694.272	52076
694.315	49430
694.326	48565
694.358	47673
694.401	46679
694.444	45475
694.446	45321
694.487	44799
694.530	43995
694.566	43423
694.573	43309
694.616	41506
694.659	40276
694.686	39233
694.702	39155
694.745	38964
694.787	38281
694.806	38125
694.830	38369
694.873	38471
694.916	38404
694.926	38269
694.959	38398
695.002	39095
695.044	39207
695.046	39132
695.087	39471
695.130	39867
695.166	40145
695.172	40272
695.215	40097
695.258	40363
695.286	40422
695.301	40580
695.343	40636
695.386	40647
695.406	40515
695.428	40286
695.471	39821
695.514	39738
695.526	39495
695.556	40218
695.599	41224
695.641	42027
695.646	42039
695.684	41537
695.726	40854
695.766	40195
695.769	40338
695.811	40913
695.854	41621
695.886	41967
695.896	41835
695.938	41062
695.981	40065
696.005	39523
696.023	39972
696.065	40624
696.108	41452
696.125	41613
696.150	41890
696.192	42452
696.235	42782
696.245	42776
696.277	42287
696.319	41550
696.361	40925
696.365	40757
696.404	41378
696.446	42146
696.485	42663
696.488	42783
696.530	43042
696.572	43274
696.604	43377
696.614	43314
696.656	42491
696.698	41890
696.724	41279
696.740	41261
696.783	41134
696.825	40933
696.844	40744
696.867	41064
696.909	41443
696.951	41770
696.964	41794
696.992	41595
697.034	41225
697.076	40790
697.083	40616
697.118	41323
697.160	42000
697.202	42827
697.203	42742
697.244	42372
697.286	41903
697.323	41350
697.327	41453
697.369	41589
697.411	41610
697.442	41594
697.453	41839
697.494	42330
697.536	42820
697.562	43073
697.578	43027
697.620	42511
697.661	42072
697.682	41747
697.703	42235
697.744	42961
697.786	43751
697.801	43899
697.828	44215
697.869	44568
697.911	44910
697.921	44895
697.952	44251
697.994	43188
698.035	42146
698.040	41913
698.077	41880
698.118	41674
698.160	41524
698.160	41417
698.201	41922
698.243	42246
698.279	42462
698.284	42630
698.325	43183
698.367	43784
698.399	44055
698.408	43975
698.449	43182
698.491	42324
698.518	41668
698.532	41995
698.573	42660
698.614	43323
698.638	43578
698.656	43652
698.697	43588
698.738	43506
698.757	43369
698.779	43797
698.820	44366
698.862	44960
698.877	45061
698.903	45430
698.944	45842
698.985	46254
698.996	46250
699.026	45935
699.067	45340
699.116	44514
699.235	44246
699.354	43010
699.474	43649
699.593	47410
699.713	45137
699.832	42559
699.951	42206
700.070	41511
700.190	40669
700.309	41940
700.428	42963
700.547	40111
700.667	41851
700.786	43513
700.905	39071
701.024	41269
701.143	39831
701.262	37408
701.381	37274
701.500	39490
701.619	39648
701.738	38243
701.857	37924
701.976	36629
702.095	37655
702.214	38940
702.333	38365
702.452	37648
702.571	36826
702.690	36574
702.809	36328
702.928	35834
703.047	35360
703.165	34358
703.284	34091
703.403	34254
703.522	37378
703.640	37016
703.759	41262
703.878	49071
703.997	35863
704.115	35173
704.234	34068
704.353	33751
704.471	32850
704.590	31661
704.708	31604
704.827	32298
704.946	34110
705.064	35687
705.183	33644
705.301	42279
705.420	60948
705.538	54090
705.656	48482
705.775	53994
705.893	105919
706.012	126244
706.130	48146
706.249	45587
706.367	45144
706.485	47691
706.604	44877
706.722	45271
706.840	51103
706.958	57502
707.077	48109
707.195	41983
707.313	41387
707.431	40480
707.549	40031
707.668	40147
707.786	40450
707.904	39573
708.022	39161
708.140	38194
708.258	37341
708.376	40084
708.494	39445
708.612	43960
708.730	62874
708.848	58266
708.966	52946
709.084	49411
709.202	48266
709.320	49331
709.438	50260
709.556	50127
709.674	49692
709.791	48220
709.909	48341
710.027	47795
710.145	46388
710.263	48082
710.380	45936
710.498	45580
710.616	45724
710.733	45686
710.851	45570
710.969	46617
711.086	44735
711.204	44229
711.322	44702
711.439	44571
711.557	44794
711.674	43475
711.792	43702
711.909	49181
712.027	55193
712.144	42299
712.262	42813
712.379	48378
712.497	68770
712.614	67659
712.732	56020
712.849	53771
712.966	55029
713.084	60046
713.201	57402
713.318	56886
713.436	54240
713.553	55627
713.670	55855
713.787	59479
713.905	58587
714.022	53474
714.139	53967
714.256	60323
714.373	68769
714.490	97753
714.608	207148
714.725	741337
714.842	695196
714.959	91783
715.076	59923
715.193	53524
715.310	50300
715.427	48765
715.544	45548
715.661	47204
715.778	47085
715.895	51615
716.011	49526
716.128	46329
716.245	45143
716.362	47029
716.479	48074
716.596	43811
716.713	45532
716.829	43720
716.946	43957
717.063	42454
717.180	40997
717.296	41218
717.413	41375
717.530	40083
717.646	39834
717.763	39544
717.880	37435
717.996	38266
718.113	38252
718.229	38570
718.346	35738
718.462	37125
718.579	40528
718.695	49492
718.812	48896
718.928	48447
719.045	37635
719.161	36172
719.277	36097
719.394	35796
719.510	38962
719.626	39168
719.743	48995
719.859	53337
719.975	80257
720.092	259762
720.208	529924
720.324	81981
720.440	42862
720.557	42956
720.673	47738
720.789	65733
720.905	125282
721.021	50553
721.137	35046
721.253	36480
721.369	36569
721.486	39549
721.602	48939
721.718	34690
721.834	30044
721.950	33411
722.066	31420
722.181	30779
722.297	31849
722.413	30945
722.529	30609
722.645	29549
722.761	29541
722.877	30268
722.993	29376
723.108	33238
723.224	30375
723.340	30729
723.456	27638
723.571	29221
723.687	27453
723.803	28086
723.918	27736
724.034	28627
724.150	28345
724.265	31313
724.381	53583
724.497	62512
724.612	27672
724.728	26013
724.843	26446
724.959	29213
725.074	49636
725.190	55054
725.305	27810
725.421	27455
725.536	23803
725.651	23573
725.767	23451
725.882	24503
725.997	24550
726.113	24312
726.228	23136
726.343	23804
726.459	22821
726.574	24340
726.689	22909
726.804	22699
726.920	22494
727.035	23853
727.150	23803
727.265	22628
727.380	23566
727.495	22873
727.610	22101
727.725	25348
727.841	29471
727.956	62729
728.071	45127
728.186	22909
728.301	19974
728.416	22832
728.531	21183
728.645	19259
728.760	21337
728.875	21010
728.990	18937
729.105	21004
729.220	19467
729.335	19944
729.449	19986
729.564	19494
729.679	19136
729.794	19878
729.908	20691
730.023	20704
730.138	17773
730.253	20118
730.367	17888
730.482	18134
730.596	18453
730.711	20360
730.826	20451
730.940	21777
731.055	19548
731.169	18331
731.284	18465
731.398	18985
731.513	21982
731.627	20923
731.742	23317
731.856	26087
731.970	22150
732.085	26637
732.199	33844
732.313	54360
732.428	126223
732.542	336638
732.656	182371
732.771	42077
732.885	27208
732.999	24859
733.113	23913
733.227	23920
733.342	20225
733.456	20444
733.570	18800
733.684	20182
733.798	20274
733.912	19635
734.026	18143
734.140	18776
734.254	21002
734.368	31729
734.482	35585
734.596	18068
734.710	17741
734.824	17628
734.938	17502
735.052	17192
735.166	18821
735.280	18182
735.393	16474
735.507	17984
735.621	23404
735.735	36748
735.849	19448
735.962	17019
736.076	17744
736.190	18443
736.303	23402
736.417	28939
736.531	17107
736.644	17590
736.758	15505
736.872	15910
736.985	15075
737.099	15440
737.212	14498
737.326	15741
737.439	16036
737.553	15451
737.666	15229
737.780	14350
737.893	14642
738.007	14621
738.120	14710
738.233	15750
738.347	13614
738.460	15083
738.573	15010
738.687	13971
738.800	14525
738.913	16825
739.026	15180
739.140	16884
739.253	17744
739.366	15703
739.479	14257
739.592	13779
739.705	13500
739.818	15188
739.932	13330
740.045	14983
740.158	13982
740.271	13904
740.384	12471
740.497	12830
740.610	13414
740.723	13744
740.836	13245
740.949	14373
741.062	15410
741.174	15397
741.287	13688
741.400	13273
741.513	12419
741.626	13765
741.739	13157
741.851	12795
741.964	11865
742.077	13315
742.189	12045
742.302	13369
742.415	12263
742.527	12749
742.640	12248
742.753	12762
742.865	12040
742.978	12086
743.090	12336
743.203	12875
743.316	11095
743.428	11909
743.541	12470
743.653	12098
743.766	12325
743.878	12923
743.990	15066
744.103	15201
744.215	12094
744.327	12132
744.440	13122
744.552	16660
744.664	13254
744.777	12138
744.889	11068
745.001	12344
745.113	11597
745.226	11667
745.338	11843
745.450	11784
745.562	10486
745.674	11101
745.786	11479
745.898	11095
746.010	11987
746.122	11953
746.234	10966
746.347	10811
746.459	11042
746.570	10698
746.682	11297
746.794	12062
746.906	10281
747.018	11102
747.130	11486
747.242	11312
747.354	11090
747.466	11496
747.577	11199
747.689	11093
747.801	10637
747.913	10777
748.024	9995
748.136	10356
748.248	9873
748.359	10365
748.471	11394
748.583	11534
748.694	13387
748.806	17662
748.918	14531
749.029	11682
749.141	11364
749.252	11830
749.364	11425
749.475	17049
749.587	14118
749.698	10473
749.809	10234
749.921	10608
750.032	10415
750.144	9445
750.255	10143
750.366	10138
750.478	9486
750.589	10323
750.700	10702
750.811	11142
750.923	10754
751.034	17519
751.145	17090
751.256	10188
751.367	9251
751.479	10335
751.590	9128
751.701	9557
751.812	9027
751.923	9193
752.034	9888
752.145	9698
752.256	9093
752.367	9876
752.478	9954
752.589	9957
752.700	9839
752.811	9979
752.922	9793
753.032	10498
753.143	10552
753.254	9662
753.365	11001
753.476	9965
753.586	9224
753.697	10176
753.808	8938
753.919	9525
754.029	9974
754.140	9890
754.251	9520
754.361	10403
754.472	9517
754.582	10065
754.693	9210
754.804	9576
754.914	9070
755.025	8880
755.135	9109
755.246	9719
755.356	8862
755.466	9367
755.577	9517
755.687	9711
755.798	8971
755.908	9715
756.018	8078
756.129	9593
756.239	9425
756.349	10563
756.460	9590
756.570	10792
756.680	9455
756.790	9743
756.900	9339
757.011	9307
757.121	10019
757.231	9487
757.341	8747
757.451	9578
757.561	8125
757.671	9051
757.781	9646
757.891	10674
758.001	9358
758.111	10735
758.221	10626
758.331	11196
758.441	10613
758.551	13220
758.661	12122
758.771	11173
758.880	12223
758.990	12047
759.100	10678
759.210	11785
759.320	12229
759.429	11594
759.539	12164
759.649	12226
759.758	12922
759.868	13819
759.978	11584
760.087	14394
760.197	14082
760.307	13981
760.416	12747
760.526	12895
760.635	13912
760.745	14012
760.854	14186
760.964	14876
761.073	15880
761.182	14806
761.292	14965
761.401	15679
761.511	14025
761.620	13942
761.729	13756
761.839	13470
761.948	15167
762.057	14547
762.166	14670
762.276	13547
762.385	15282
762.494	16056
762.603	15041
762.712	16629
762.822	16757
762.931	17531
763.040	16495
763.149	17283
763.258	16131
763.367	18004
763.476	18632
763.585	19920
763.694	20995
763.803	23467
763.912	22559
764.021	23517
764.130	23575
764.238	25861
764.347	26943
764.456	27729
764.565	29676
764.674	32694
764.783	34365
764.891	37908
765.000	42032
765.109	48709
765.217	53059
765.326	62372
765.435	74782
765.543	87248
765.652	107974
765.761	139909
765.869	185513
765.978	265881
766.086	400565
766.195	641901
766.303	1012559
766.412	1048488
766.520	932746
766.629	918258
766.737	572074
766.846	361168
766.954	246321
767.062	179713
767.171	145294
767.279	107932
767.387	84644
767.496	71214
767.604	63037
767.712	55076
767.820	49583
767.928	46509
768.037	42954
768.145	41457
768.253	38809
768.361	37441
768.469	38752
768.577	39070
768.685	40358
768.793	42923
768.901	48247
769.009	54023
769.117	62798
769.225	81808
769.333	109663
769.441	164741
769.549	270740
769.657	503527
769.765	906371
769.873	884058
769.981	810085
770.088	448472
770.196	246903
770.304	159490
770.412	113596
770.519	87784
770.627	68992
770.735	58375
770.842	49697
770.950	44553
771.058	38507
771.165	35759
771.273	32075
771.380	30527
771.488	28327
771.595	26977
771.703	25860
771.810	24681
771.918	23512
772.025	22834
772.133	21558
772.240	21634
772.348	21142
772.455	20971
772.562	18249
772.670	18319
772.777	18362
772.884	18373
772.991	17458
773.099	17009
773.206	15347
773.313	17103
773.420	15054
773.528	14934
773.635	14534
773.742	15270
773.849	14404
773.956	14578
774.063	15047
774.170	14494
774.277	15127
774.384	14018
774.491	13527
774.598	14180
774.705	13166
774.812	15387
774.919	14907
775.026	16245
775.133	13371
775.239	13246
775.346	12417
775.453	12691
775.560	12434
775.667	12879
775.773	11429
775.880	12483
775.987	12611
776.093	13514
776.200	12378
776.307	12286
776.413	12701
776.520	12172
776.627	12787
776.733	11939
776.840	10547
776.946	12901
777.053	11416
777.159	12064
777.266	8751
777.372	12473
777.478	11308
777.585	11501
777.691	9792
777.798	11914
777.904	12006
778.010	17120
778.117	14434
778.223	11285
778.329	11374
778.435	10631
778.542	11103
778.648	10945
778.754	9271
778.860	11100
778.966	11347
779.072	11192
779.178	10425
779.284	11662
779.391	9585
779.497	9781
779.603	12498
779.708	12695
779.815	19632
779.920	56662
780.026	113751
780.132	21042
780.238	10603
780.344	10416
780.450	10664
780.556	9313
780.661	9436
780.767	9795
780.873	8134
780.979	9461
781.085	8642
781.190	8383
781.296	8972
781.402	8801
781.507	8371
781.613	8773
781.719	7887
781.824	9534
781.930	8284
782.035	9598
782.141	9089
782.246	8724
782.352	8726
782.457	8808
782.563	8781
782.668	8507
782.773	8532
782.879	7470
782.984	8356
783.090	9229
783.195	10707
783.300	10099
783.405	8113
783.511	9031
783.616	8433
783.721	8863
783.826	7640
783.932	9549
784.037	7964
784.142	8197
784.247	7799
784.352	8215
784.457	7527
784.562	8310
784.667	7604
784.772	7521
784.877	7549
784.982	8737
785.087	7870
785.192	8235
785.297	7495
785.402	8105
785.507	8327
785.611	7101
785.716	8172
785.821	7182
785.926	7244
786.031	7120
786.135	7193
786.240	7326
786.345	6373
786.450	7397
786.554	6712
786.659	7317
786.763	5146
786.868	7999
786.973	7327
787.077	6710
787.182	6979
787.286	7511
787.391	7339
787.495	6978
787.600	6356
787.704	6675
787.809	6984
787.913	6838
788.017	6623
788.122	7617
788.226	6609
788.330	6214
788.435	6123
788.539	7098
788.643	6265
788.747	6144
788.852	5946
788.956	6718
789.060	6273
789.164	6665
789.268	6796
789.372	7132
789.476	6244
789.580	5744
789.684	5943
789.788	7685
789.892	6211
789.996	6830
790.100	6394
790.204	6854
790.308	6802
790.412	7741
790.516	8265
790.620	8829
790.724	7400
790.828	7569
790.931	5769
791.035	8769
791.139	7584
791.242	4953
791.346	6955
791.450	6253
791.554	5782
791.657	5847
791.761	6795
791.864	7430
791.968	5607
792.072	6401
792.175	6419
792.279	6619
792.382	5387
792.486	6659
792.589	5974
792.693	6819
792.796	4505
792.899	6763
793.003	5927
793.106	5358
793.209	4978
793.313	6795
793.416	4307
793.519	7372
793.623	7798
793.726	9593
793.829	6243
793.932	6122
794.035	5188
794.138	6782
794.242	6298
794.345	6820
794.448	7747
794.551	12212
794.654	29640
794.757	59602
794.860	14745
794.963	6814
795.066	5056
795.169	6685
795.272	4284
795.375	5955
795.477	5281
795.580	4772
795.683	3797
795.786	5712
795.889	3905
795.991	6518
796.094	5977
796.197	5378
796.300	7155
796.402	3681
796.505	3786
796.608	4800
796.710	5555
796.813	5624
796.915	5256
797.018	5909
797.120	5299
797.223	3516
797.326	5578
797.428	4620
797.530	4230
797.633	4567
797.735	7354
797.838	9664
797.940	8886
798.042	4873
798.145	4223
798.247	5931
798.349	3351
798.452	6073
798.554	4561
798.656	4538
798.758	5716
798.860	5275
798.962	3336
799.065	4602
799.167	3520
799.269	6216
799.371	5757
799.473	6820
799.575	5381
799.677	7261
799.779	7164
799.881	5713
799.983	5686
800.085	5084
800.187	4115
800.289	3419
800.390	3701
800.492	4551
800.594	4498
800.696	4280
800.798	4642
800.899	4045
801.001	3943
801.103	4354
801.205	4702
801.306	4750
801.408	3281
801.509	4794
801.611	4731
801.713	4650
801.814	3907
801.916	4338
802.017	3856
802.119	3462
802.220	4543
802.322	3818
802.423	7336
802.525	5131
802.626	4285
802.727	5082
802.829	4061
802.930	2893
803.031	4283
803.133	3749
803.234	3815
803.335	4262
803.436	2967
803.538	4101
803.639	2671
803.740	5158
803.841	3585
803.942	4239
804.043	4541
804.144	3763
804.245	3282
804.346	3515
804.447	3105
804.548	4988
804.649	6102
804.750	3376
804.851	2853
804.952	2766
805.053	3776
805.154	2832
805.255	4509
805.355	3176
805.456	3596
805.557	3183
805.658	2320
805.758	5010
805.859	2491
805.960	3981
806.061	2598
806.161	2648
806.262	4485
806.362	2940
806.463	2833
806.564	4772
806.664	3578
806.765	4876
806.865	4831
806.966	3843
807.066	2903
807.166	4404
807.267	4106
807.367	3429
807.468	4403
807.568	2942
807.668	4218
807.769	4656
807.869	2398
807.969	3980
808.069	3602
808.170	4763
808.270	2384
808.370	4021
808.470	4506
808.570	4138
808.670	3079
808.770	3875
808.870	2548
808.970	4181
809.070	2129
809.170	2357
809.271	4047
809.370	2533
809.470	3043
809.570	2432
809.670	2451
809.770	3042
809.870	3735
809.970	3711
810.070	2752
810.169	3730
810.269	1332
810.369	3347
810.469	1998
810.568	3597
810.668	2513
810.768	3460
810.867	3434
810.967	3213
811.066	2614
811.166	3574
811.265	3568
811.365	3251
811.464	2072
811.564	3984
811.663	3830
811.763	2175
811.862	3290
811.962	4305
812.061	2639
812.160	2090
812.260	2470
812.359	3217
812.458	3309
812.557	8141
812.657	10428
812.756	5329
812.855	3276
812.954	3214
813.053	2859
813.153	2710
813.252	2542
813.351	3974
813.450	3025
813.549	2381
813.648	3974
813.747	2130
813.846	2493
813.945	3155
814.044	2470
814.143	3477
814.242	3646
814.341	2446
814.439	3361
814.538	3584
814.637	2743
814.736	3021
814.835	2547
814.933	3098
815.032	3959
815.131	3532
815.229	3696
815.328	6638
815.427	3990
815.525	4985
815.624	4053
815.722	4667
815.821	4198
815.919	4577
816.018	4690
816.116	4927
816.215	4620
816.313	5110
816.412	4785
816.510	5340
816.609	6580
816.707	5074
816.805	5137
816.904	5740
817.002	5953
817.100	6949
817.198	6254
817.296	5789
817.395	6360
817.493	7377
817.591	6664
817.689	9363
817.787	8911
817.885	14999
817.983	22025
818.081	45254
818.179	102659
818.277	250635
818.375	230343
818.473	69538
818.571	28308
818.669	19362
818.767	16266
818.865	16499
818.963	17955
819.061	25296
819.158	42247
819.256	86932
819.354	190220
819.452	407876
819.549	291879
819.647	91001
819.745	37967
819.842	23783
819.940	16720
820.038	13483
820.135	10304
820.233	10691
820.330	7196
820.428	7238
820.525	8089
820.623	6395
820.720	5345
820.818	6409
820.915	6392
821.012	6925
821.110	4249
821.207	5434
821.304	4024
821.402	5277
821.499	5220
821.596	5433
821.693	4447
821.791	6517
821.888	4971
821.985	8676
822.082	6727
822.179	5358
822.276	3555
822.373	3649
822.470	3917
822.567	4654
822.664	2896
822.761	4499
822.858	3213
822.955	3926
823.052	4201
823.149	3888
823.246	3476
823.343	3930
823.440	3915
823.536	4092
823.633	3080
823.730	3337
823.827	3120
823.923	4153
824.020	4186
824.117	3449
824.213	3196
824.310	3869
824.407	3373
824.503	3426
824.600	3387
824.696	2921
824.793	3995
824.889	3606
824.986	2941
825.082	2542
825.179	3148
825.275	4305
825.371	3404
825.468	3587
825.564	2001
825.660	3038
825.757	3380
825.853	3850
825.949	2138
826.045	3071
826.142	2507
826.238	3639
826.334	2571
826.430	2121
826.526	2842
826.622	2994
826.718	2664
826.814	2956
826.910	2645
827.006	3795
827.102	1804
827.198	4261
827.294	2500
827.390	3578
827.486	2910
827.582	2613
827.678	1996
827.774	3204
827.869	1325
827.965	3783
828.061	2210
828.157	3413
828.252	2205
828.348	2017
828.444	2732
828.539	2772
828.635	2207
828.731	3487
828.826	2375
828.922	3582
829.017	2163
829.113	3505
829.208	2534
829.304	3162
829.399	4461
829.495	2584
829.590	3281
829.685	2299
829.781	2990
829.876	3128
829.971	2350
830.066	1807
830.162	2078
830.257	3302
830.352	2318
830.447	3489
830.543	2671
830.638	2525
830.733	4794
830.828	2425
830.923	3387
831.018	2797
831.113	3844
831.208	2506
831.303	2532
831.398	2843
831.493	2292
831.588	3634
831.683	1649
831.778	2812
831.873	1840
831.967	3931
832.062	2851
832.157	2003
832.252	3628
832.346	3622
832.441	3669
832.536	4121
832.631	8323
832.725	7761
832.820	1839
832.914	2420
833.009	2022
833.104	3831
833.198	3255
833.293	1991
833.387	2633
833.482	3101
833.576	1862
833.670	3404
833.765	3014
833.859	3166
833.954	3354
834.048	2602
834.142	2375
834.237	1645
834.331	2227
834.425	2501
834.519	1358
834.613	2787
834.708	1913
834.802	3068
834.896	1850
834.990	3341
835.084	2443
835.178	2368
835.272	1281
835.366	2453
835.460	2696
835.554	2600
835.648	2351
835.742	2629
835.836	2737
835.930	1826
836.024	2856
836.117	3912
836.211	2447
836.305	4555
836.399	6687
836.493	1860
836.586	3195
836.680	1626
836.774	1654
836.867	2768
836.961	1429
837.055	1442
837.148	1493
837.242	3166
837.335	1394
837.429	2808
837.522	2228
837.616	3529
837.709	7170
837.803	5289
837.896	2831
837.989	3295
838.083	4519
838.176	9133
838.269	7919
838.363	3395
838.456	2323
838.549	4553
838.642	4004
838.735	9589
838.829	5790
838.922	2163
839.015	2229
839.108	1372
839.201	1605
839.294	3235
839.387	2028
839.480	2703
839.573	4342
839.666	6507
839.759	2376
839.852	929
839.945	2030
840.038	2507
840.131	1504
840.223	2318
840.316	2006
840.409	2392
840.502	1876
840.594	3698
840.687	1001
840.780	3036
840.873	1631
840.965	2671
841.058	4378
841.150	8982
841.243	5622
841.336	2922
841.428	1614
841.521	1798
841.613	1475
841.706	3171
841.798	1391
841.890	2907
841.983	1545
842.075	2667
842.167	2315
842.260	2092
842.352	3459
842.444	5842
842.537	8990
842.629	13380
842.721	3645
842.813	2264
842.905	1069
842.997	3270
843.090	2740
843.182	5331
843.274	9301
843.366	20424
843.458	37428
843.550	24954
843.642	3897
843.734	3707
843.826	3087
843.918	3958
844.009	2118
844.101	1740
844.193	1576
844.285	2619
844.377	2412
844.469	1861
844.560	1254
844.652	1657
844.744	1781
844.835	2928
844.927	2093
845.019	2679
845.110	3840
845.202	1908
845.293	2435
845.385	1540
845.476	1603
845.568	2395
845.659	1085
845.751	2925
845.842	1121
845.934	1487
846.025	873
846.116	2217
846.208	1682
846.299	1943
846.390	1786
846.482	2603
846.573	3305
846.664	3947
846.755	5486
846.846	5168
846.937	214
847.029	2288
847.120	2754
847.211	2129
847.302	2438
847.393	796
847.484	3101
847.575	2674
847.666	1167
847.757	1336
847.847	1410
847.938	3344
848.029	814
848.120	1920
848.211	2201
848.302	1350
848.392	599
848.483	2485
848.574	1302
848.664	2197
848.755	1515
848.846	2759
848.936	935
849.027	2854
849.118	2304
849.208	1687
849.299	2246
849.389	4094
849.480	7278
849.570	12326
849.661	20951
849.751	35013
849.841	13232
849.932	3219
850.022	2102
850.112	2824
850.203	2661
850.293	1872
850.383	1665
850.474	1866
850.564	1758
850.654	1794
850.744	1772
850.834	2415
850.924	1914
851.014	2643
851.104	2243
851.194	1870
851.284	2700
851.374	4256
851.464	1655
851.554	2524
851.644	2861
851.734	5495
851.824	3356
851.914	2286
852.004	2241
852.094	2168
852.183	1510
852.273	2270
852.363	1843
852.452	2911
852.542	1472
852.632	1899
852.721	2394
852.811	1761
852.901	2110
852.990	1635
853.080	1460
853.169	1584
853.259	2471
853.348	2669
853.438	2871
853.527	3950
853.617	4815
853.706	8792
853.795	14144
853.885	31913
853.974	58608
854.063	106162
854.152	159832
854.242	63033
854.331	13737
854.420	7069
854.509	4670
854.598	4616
854.687	4165
854.777	4541
854.866	2891
854.955	3241
855.044	1379
855.133	2048
855.222	1848
855.311	1775
855.400	1435
855.488	2325
855.577	1668
855.666	2713
855.755	3668
855.844	5726
855.933	5720
856.021	3664
856.110	2339
856.199	1813
856.288	789
856.376	1931
856.465	991
856.554	1627
856.642	800
856.731	1531
856.819	1953
856.908	2876
856.996	1660
857.085	1583
857.173	1357
857.262	1738
857.350	1717
857.438	1719
857.527	1063
857.615	2338
857.703	1859
857.792	1440
857.880	1233
857.968	1910
858.056	2077
858.145	1831
858.233	1511
858.321	688
858.409	2048
858.497	1216
858.585	965
858.673	2078
858.761	602
858.849	1304
858.937	1093
859.025	1598
859.113	1185
859.201	1558
859.289	2456
859.377	548
859.465	1709
859.552	1077
859.640	626
859.728	2651
859.816	2169
859.903	1929
859.991	441
860.079	1812
860.166	1227
860.254	1785
860.342	1405
860.429	2303
860.517	951
860.604	1440
860.692	1580
860.779	1669
860.867	1347
860.954	1302
861.042	1493
861.129	2121
861.216	1562
861.304	1271
861.391	1623
861.478	1785
861.565	1364
861.653	2192
861.740	846
861.827	1575
861.914	1632
862.001	2027
862.089	1132
862.176	1480
862.263	783
862.350	2022
862.437	722
862.524	1155
862.611	1397
862.698	1140
862.785	1241
862.871	862
862.958	358
863.045	1190
863.132	724
863.219	1312
863.306	-582
863.392	1415
863.479	1285
863.566	1741
863.652	1095
863.739	1355
863.826	1490
863.912	1445
863.999	437
864.086	1726
864.172	1058
864.259	2066
864.345	1408
864.432	1392
864.518	1443
864.604	2098
864.691	2048
864.777	1475
864.863	2014
864.950	2103
865.036	2052
865.122	4648
865.209	3318
865.295	4039
865.381	3779
865.467	4705
865.553	4252
865.639	5832
865.726	7937
865.812	16796
865.898	31448
865.984	47368
866.070	83671
866.156	91979
866.242	25970
866.328	7916
866.414	4497
866.499	4144
866.585	4170
866.671	4092
866.757	3108
866.843	3251
866.928	2923
867.014	2824
867.100	3229
867.186	3533
867.271	3907
867.357	5019
867.442	5591
867.528	3743
867.614	2728
867.699	2836
867.785	2700
867.870	2853
867.956	2063
868.041	3913
868.127	2946
868.212	4077
868.297	2466
868.383	3420
868.468	4078
868.553	5753
868.639	6012
868.724	11169
868.809	10137
868.894	4060
868.979	2516
869.065	3048
869.150	2091
869.235	3412
869.320	1456
869.405	2022
869.490	2689
869.575	2353
869.660	2133
869.745	2897
869.830	2019
869.915	2381
870.000	1591
870.085	1886
870.169	1845
870.254	2850
870.339	1597
870.424	1919
870.509	1602
870.593	2349
870.678	1596
870.763	1702
870.847	2625
870.932	2815
871.016	1675
871.101	1868
871.186	2328
871.270	2821
871.355	1687
871.439	1691
871.523	2223
871.608	2100
871.692	1208
871.777	2652
871.861	1390
871.945	1661
872.030	1844
872.114	2093
872.198	1353
872.282	1704
872.367	1228
872.451	2570
872.535	1339
872.619	1772
872.703	796
872.787	1961
872.871	1469
872.955	1353
873.039	355
873.123	2392
873.207	831
873.291	1379
873.375	1396
873.459	2579
873.543	1037
873.627	2053
873.711	1464
873.794	1099
873.878	1694
873.962	825
874.045	1108
874.129	2070
874.137	1963
874.213	893
874.245	1450
874.296	2357
874.352	1175
874.380	594
874.460	1887
874.464	1940
874.547	1215
874.568	1409
874.631	1953
874.676	1746
874.714	1593
874.784	1876
874.798	1933
874.881	1761
874.892	1711
874.965	1380
874.999	1560
875.048	1782
875.107	1413
875.131	1282
875.215	1438
875.215	1438
875.298	1710
875.323	1623
875.381	1420
875.430	1442
875.465	1492
875.538	1519
875.548	1510
875.631	1713
875.646	1586
875.714	963
875.753	1268
875.798	1681
875.861	1865
875.881	1905
875.964	1883
875.968	1861
876.047	1496
876.076	1374
876.130	1148
876.183	1259
876.213	1296
876.291	1162
876.296	1156
876.379	809
876.398	1034
876.462	1747
876.506	1379
876.545	1052
876.613	1376
876.628	1442
876.711	536
876.721	663
876.794	1795
876.828	1447
876.877	858
876.935	1244
876.960	1403
877.043	775
877.043	775
877.125	983
877.150	990
877.208	927
877.258	1044
877.291	1130
877.365	1057
877.374	1045
877.456	1496
877.472	1411
877.539	1065
877.579	1386
877.622	1744
877.687	1152
877.704	972
877.787	1785
877.794	1671
877.869	607
877.901	799
877.952	1051
878.008	1220
878.034	1282
878.115	1109
878.117	1105
878.199	1279
878.222	1231
878.282	1185
878.329	1541
878.364	1699
878.437	1472
878.447	1484
878.529	547
878.544	627
878.611	679
878.651	470
878.694	378
878.758	988
878.776	1207
878.858	1040
878.865	1076
878.941	908
878.972	706
879.023	591
879.078	630
879.105	671
879.185	672
879.187	674
879.269	1608
879.292	1526
879.351	1099
879.399	501
879.433	129
879.506	650
879.516	714
879.598	1096
879.613	961
879.680	413
879.720	674
879.762	995
879.827	780
879.844	694
879.926	568
879.933	560
880.007	488
880.040	727
880.089	1143
880.147	1503
880.171	1632
880.253	3086
880.254	3093
880.335	3492
880.360	3997
880.417	5245
880.467	7215
880.499	8457
880.574	9642
880.580	9642
880.662	3334
880.680	2725
880.744	1093
880.787	883
880.825	577
880.893	494
880.907	553
880.989	468
881.000	538
881.070	797
881.106	548
881.152	359
881.213	607
881.233	638
881.315	1115
881.319	1117
881.396	1213
881.426	1035
881.478	717
881.532	1007
881.559	1098
881.639	171
881.641	147
881.722	827
881.745	758
881.803	786
881.852	958
881.885	932
881.958	553
881.966	554
882.047	1328
882.064	1246
882.129	841
882.171	1398
882.210	1966
882.277	2283
882.291	2217
882.372	989
882.383	828
882.454	491
882.489	733
882.535	947
882.596	1022
882.616	899
882.697	535
882.702	495
882.778	466
882.808	502
882.859	497
882.914	329
882.940	192
883.020	536
883.021	540
883.102	633
883.127	735
883.183	881
883.233	636
883.264	549
883.339	742
883.345	712
883.426	-157
883.445	-207
883.507	325
883.551	288
883.587	11
883.657	281
883.668	394
883.749	941
883.763	968
883.830	618
883.869	336
883.910	424
883.975	1120
883.991	1058
884.072	377
884.081	336
884.152	737
884.187	697
884.233	542
884.292	632
884.314	710
884.394	1040
884.398	1043
884.475	423
884.504	191
884.555	120
884.610	274
884.636	349
884.716	181
884.716	183
884.797	1114
884.821	1102
884.877	284
884.927	-163
884.958	40
885.033	440
885.038	407
885.118	-178
885.139	-304
885.199	-113
885.244	223
885.279	288
885.350	125
885.359	169
885.439	682
885.456	708
885.520	231
885.561	231
885.600	410
885.667	221
885.680	189
885.760	502
885.773	510
885.840	246
885.878	282
885.920	446
885.984	423
886.000	395
886.080	109
886.089	116
886.160	320
886.195	360
886.240	344
886.300	227
886.320	220
886.400	599
886.406	605
886.480	149
886.511	13
886.560	-202
886.616	-578
886.640	-361
886.720	620
886.722	641
886.800	-87
886.827	-291
886.879	-41
886.932	108
886.959	209
887.038	702
887.039	703
887.119	599
887.143	716
887.198	575
887.248	95
887.278	109
887.354	311
887.358	287
887.437	-133
887.459	-234
887.517	682
887.564	1314
887.596	1076
887.669	790
887.676	757
887.755	164
887.774	70
887.835	359
887.880	460
887.914	337
887.985	171
887.994	155
888.073	18
888.090	13
888.153	220
888.195	299
888.232	121
888.300	-243
888.311	-189
888.391	292
888.405	384
888.470	44
888.510	-185
888.549	97
888.615	673
888.628	652
888.708	451
888.720	413
888.787	346
888.825	350
888.866	139
888.930	-156
888.945	-89
889.024	173
889.035	220
889.103	512
889.140	668
889.182	112
889.245	-690
889.261	-620
889.340	-291
889.349	-241
889.419	-216
889.454	-228
889.498	-371
889.559	-522
889.577	-318
889.656	593
889.664	689
889.735	693
889.768	690
889.814	778
889.873	904
889.978	147
890.083	374
890.187	812
890.292	120
890.397	-69
890.501	318
890.606	79
890.710	134
890.815	693
890.919	488
891.024	-234
891.128	581
891.233	52
891.337	1043
891.442	-73
891.546	540
891.650	278
891.755	515
891.859	1163
891.963	413
892.068	298
892.172	-612
892.276	296
892.380	529
892.484	-788
892.589	-109
892.693	-129
892.797	358
892.901	-391
893.005	129
893.109	-359
893.213	861
893.317	430
893.421	140
893.525	-302
893.629	175
893.733	-112
893.837	422
893.941	-915
894.045	572
894.148	-83
894.252	63
894.356	205
894.460	431
894.564	-3
894.667	165
894.771	-44
894.875	59
894.978	502
895.082	556
895.186	130
895.289	76
895.393	277
895.496	52
895.600	-611
895.703	-675
895.807	137
895.910	-241
896.014	-96
896.117	162
896.221	808
896.324	-770
896.427	-239
896.531	-364
896.634	-393
896.737	58
896.840	490
896.944	238
897.047	49
897.150	192
897.253	-193
897.356	1092
897.460	99
897.563	156
897.666	243
897.769	472
897.872	105
897.975	840
898.078	-235
898.181	398
898.284	-473
898.387	-257
898.490	-213
898.593	382
898.695	529
898.798	180
898.901	357
899.004	-239
899.107	222
899.209	197
899.312	583
899.415	-68
899.518	-331
899.620	181
899.723	149
899.826	1297
899.928	425
900.031	-125
900.133	-1139
900.236	-23
900.338	3
900.441	11
900.543	-389
900.646	-148
900.748	-653
900.851	-251
900.953	-640
901.055	-29
901.158	117
901.260	-502
901.362	-262
901.465	152
901.567	-454
901.669	238
901.771	-428
901.873	-88
901.976	-447
902.078	42
902.180	-484
902.282	474
902.384	-156
902.486	278
902.588	-770
902.690	462
902.792	426
902.894	343
902.996	-606
903.098	250
903.200	-76
903.302	-552
903.404	282
903.505	138
903.607	449
903.709	315
903.811	-1070
903.913	704
904.014	82
904.116	170
904.218	-521
904.319	-532
904.421	-58
904.523	-273
904.624	-614
904.726	496
904.827	-42
904.929	58
905.030	-432
905.132	225
905.233	522
905.335	-26
905.436	-193
905.537	210
905.639	280
905.740	86
905.841	-109
905.943	485
906.044	-538
906.145	83
906.247	-129
906.348	48
906.449	-319
906.550	-294
906.651	-222
906.752	-376
906.854	172
906.955	434
907.056	-1299
907.157	380
907.258	-412
907.359	543
907.460	302
907.561	254
907.662	22
907.762	-352
907.863	-36
907.964	-513
908.065	-19
908.166	-83
908.267	154
908.367	-412
908.468	-114
908.569	28
908.670	150
908.770	-107
908.871	-280
908.971	-327
909.072	-60
909.173	-232
909.273	675
909.374	-862
909.474	-144
909.575	402
909.675	-510
909.776	144
909.876	131
909.977	-82
910.077	394
910.177	239
910.278	-109
910.378	-415
910.478	-687
910.579	467
910.679	-291
910.779	106
910.879	44
910.980	533
911.080	-52
911.180	-593
911.280	321
911.380	-126
911.480	370
911.580	-220
911.680	-168
911.780	505
911.880	-102
911.980	-388
912.080	-1283
912.180	362
912.280	338
912.380	142
912.480	-343
912.580	149
912.679	-168
912.779	714
912.879	-64
912.979	-9
913.078	-297
913.178	306
913.278	-682
913.377	71
913.477	152
913.577	-96
913.676	879
913.776	-61
913.875	-236
913.975	-163
914.074	-986
914.174	-672
914.273	-582
914.373	382
914.472	-390
914.572	23
914.671	-471
914.770	-255
914.870	-662
914.969	-349
915.068	-539
915.167	-503
915.267	109
915.366	552
915.465	-31
915.564	-398
915.663	56
915.763	-218
915.862	-72
915.961	-405
916.060	-1100
916.159	-756
916.258	427
916.357	436
916.456	89
916.555	226
916.654	-460
916.752	161
916.851	-683
916.950	525
917.049	-503
917.148	-86
917.247	-120
917.345	-827
917.444	-576
917.543	-271
917.642	-258
917.740	-53
917.839	348
917.937	-273
918.036	-278
918.135	-49
918.233	-976
918.332	18
918.430	-232
918.529	126
918.627	-331
918.726	-243
918.824	-730
918.923	-548
919.021	-703
919.119	-483
919.218	-526
919.316	-207
919.414	-381
919.512	-424
919.611	32
919.709	111
919.807	-687
919.905	161
920.003	-981
920.102	51
920.200	-165
920.298	-471
920.396	-101
920.494	6
920.592	-515
920.690	-496
920.788	-287
920.886	-477
920.984	-96
921.082	-649
921.180	-578
921.277	261
921.375	-328
921.473	-284
921.571	-546
921.669	-416
921.766	-1059
921.864	40
921.962	-33
922.060	115
922.157	10
922.255	448
922.352	-742
922.450	210
922.548	-430
922.645	-211
922.743	-1426
922.840	63
922.938	267
923.035	486
923.133	-242
923.230	570
923.327	-187
923.425	969
923.522	1127
923.619	128
923.717	-719
923.814	828
923.911	91
924.008	782
924.106	-493
924.203	214
924.300	728
924.397	-293
924.494	763
924.591	306
924.688	-678
924.786	-273
924.883	98
924.979	379
925.077	714
925.173	302
925.270	-83
925.367	-413
925.464	-209
925.561	347
925.658	235
925.755	-117
925.852	-234
925.948	-73
926.045	281
926.142	-113
926.239	145
926.335	13
926.432	-118
926.529	214
926.625	-527
926.722	-10
926.818	-371
926.915	570
927.011	-576
927.108	363
927.204	43
927.301	-14
927.397	-848
927.494	-483
927.590	247
927.687	-850
927.783	-320
927.879	226
927.976	-1553
928.072	-646
928.168	354
928.264	-5
928.361	-122
928.457	238
928.553	-285
928.649	-219
928.745	120
928.841	440
928.937	-21
929.033	-553
929.129	-412
929.225	158
929.321	-355
929.417	-170
929.513	-1135
929.609	-584
929.705	-1033
929.801	284
929.897	-505
929.993	-323
930.089	137
930.184	-446
930.280	-590
930.376	92
930.471	-386
930.567	252
930.663	-326
930.758	-187
930.854	-572
930.950	315
931.045	34
931.141	111
931.236	192
931.332	-287
931.427	-300
931.523	-344
931.618	-23
931.714	-369
931.809	25
931.905	-361
932.000	-773
932.095	320
932.191	-997
932.286	227
932.381	-647
932.476	-339
932.572	-492
932.667	-208
932.762	-630
932.857	-361
932.952	-404
933.047	-607
933.142	-743
933.237	-389
933.332	-857
933.427	49
933.522	-553
933.617	-176
933.712	330
933.807	57
933.902	-699
933.997	68
934.092	-462
934.187	-285
934.282	-286
934.376	-208
934.471	-207
934.566	-336
934.661	-1009
934.755	-603
934.850	-655
934.945	-659
935.039	46
935.134	-57
935.228	-560
935.323	-103
935.417	-1226
935.512	-760
935.606	-308
935.701	-963
935.795	-1451
935.890	-546
935.984	17
936.079	-564
936.173	-613
936.267	-612
936.362	-894
936.456	-1154
936.550	-86
936.644	-86
936.738	-1221
936.833	116
936.927	-83
937.021	-860
937.115	-41
937.209	-820
937.303	181
937.397	-543
937.491	45
937.585	-504
937.679	-631
937.773	-155
937.867	-989
937.961	-326
938.055	-82
938.149	-203
938.243	-219
938.337	-365
938.430	-680
938.524	-229
938.618	322
938.712	-66
938.805	-29
938.899	-276
938.993	379
939.086	-257
939.180	-1637
939.274	-351
939.367	-383
939.461	-864
939.554	-715
939.648	-239
939.741	-212
939.835	-662
939.928	-79
940.022	359
940.115	-475
940.208	396
940.302	-501
940.395	-811
940.488	-1331
940.582	-460
940.675	-729
940.768	-220
940.861	-936
940.954	-536
941.048	-1471
941.141	-418
941.234	-1077
941.327	438
941.420	862
941.513	-11
941.606	-168
941.699	438
941.792	-232
941.885	-701
941.978	-172
942.071	-1183
942.164	-345
942.257	-1307
942.349	-326
942.442	-296
942.535	-675
942.628	-445
942.721	-844
942.813	-73
942.906	338
942.999	-289
943.091	-815
943.184	-518
943.277	-1449
943.369	-123
943.462	-708
943.554	-1036
943.647	-1352
943.739	-534
943.832	-849
943.924	-1349
944.017	-40
944.109	-1811
944.201	-566
944.294	133
944.386	-727
944.478	-155
944.571	-56
944.663	-467
944.755	-1134
944.847	-1098
944.940	-291
945.032	-1185
945.124	-982
945.216	468
945.308	-618
945.400	100
945.492	-484
945.584	87
945.676	-347
945.768	-452
945.860	-341
945.952	73
946.044	-406
946.136	-854
946.228	-1221
946.320	-961
946.412	-832
946.503	179
946.595	341
946.687	-728
946.779	-109
946.870	-388
946.962	-578
947.054	-1197
947.145	-810
947.237	171
947.329	-549
947.420	-738
947.512	-266
947.603	-431
947.695	-891
947.786	-1186
947.878	-1226
947.969	-166
948.061	-760
948.152	-857
948.243	-130
948.335	-647
948.426	-1168
948.517	-594
948.609	406
948.700	48
948.791	-866
948.882	-1115
948.973	-690
949.065	-214
949.156	-238
949.247	-1729
949.338	-502
949.429	-926
949.520	-559
949.611	-1450
949.702	-375
949.793	-180
949.884	-601
949.975	-781
950.066	-632
950.157	-173
950.247	-570
950.338	-245
950.429	-811
950.520	-636
950.611	-667
950.701	-686
950.792	-328
950.883	29
950.973	-480
951.064	-348
951.155	111
951.245	-179
951.336	-720
951.427	-1042
951.517	-58
951.608	-820
951.698	-1175
951.788	-1181
951.879	-743
951.969	-834
952.060	-928
952.150	-30
952.240	-99
952.331	-1955
952.421	188
952.511	-734
952.602	-532
952.692	-469
952.782	-1018
952.872	-712
952.962	-556
953.052	-986
953.143	-1384
953.233	-9
953.323	-252
953.413	-945
953.503	-23
953.593	-276
953.683	-635
953.773	-1031
953.863	-497
953.953	-551
954.042	-933
954.132	-417
954.222	75
954.312	-529
954.402	-780
954.492	-289
954.581	-609
954.671	-415
954.761	-1736
954.850	874
954.940	-681
955.030	108
955.119	-1314
955.209	97
955.298	-1094
955.388	-667
955.477	558
955.567	-542
955.656	-88
955.746	280
955.835	-619
955.925	-1996
956.014	-836
956.103	-1050
956.193	-508
956.282	-282
956.371	-699
956.461	-904
956.550	-1342
956.639	41
956.728	-781
956.817	-467
956.906	-832
956.995	378
957.085	-1080
957.174	-94
957.263	-824
957.352	-293
957.441	-1417
957.530	-920
957.619	-579
957.708	-552
957.796	-875
957.885	-272
957.974	-1238
958.063	239
958.152	-1664
958.241	4
958.329	-613
958.418	-1246
958.507	-1320
958.596	1120
958.684	-1185
958.773	599
958.861	-1435
958.950	573
959.039	-1015
959.127	-1050
959.216	-408
959.304	-923
959.393	-931
959.481	-280
959.570	-512
959.658	-283
959.746	-1033
959.835	-417
959.923	-1302
960.011	-514
960.100	-62
960.188	-608
960.276	-1162
960.365	-568
960.453	-666
960.541	-1243
960.629	-847
960.717	-839
960.805	-2053
960.893	-830
960.981	-1976
961.069	659
961.158	-829
961.245	-770
961.333	-1013
961.421	-1116
961.509	-389
961.597	-910
961.685	-1679
961.773	-657
961.861	-1383
961.949	-7
962.036	-1007
962.124	396
962.212	-1302
962.299	-186
962.387	-1842
962.475	-71
962.562	-1993
962.650	-97
962.738	-830
962.825	-625
962.913	-813
963.000	-1226
963.088	-1353
963.175	-386
963.263	-478
963.350	-1053
963.438	-703
963.525	-1089
963.612	-375
963.700	-698
963.787	2203
963.874	782
963.962	-722
964.049	243
964.136	-361
964.223	-1067
964.310	-1214
964.398	-1027
964.485	-1241
964.572	-77
964.659	315
964.746	-922
964.833	-442
964.920	-1012
965.007	-1482
965.094	905
965.181	-778
965.268	-640
965.355	-1253
965.441	-977
965.528	-1566
965.615	395
965.702	-400
965.789	-443
965.875	-1100
965.962	-1266
966.049	-351
966.136	-365
966.222	-683
966.309	-84
966.395	-860
966.482	-613
966.569	-548
966.655	-479
966.742	-1243
966.828	-5
966.915	-1284
967.001	-819
967.087	-1808
967.174	-264
967.260	-552
967.347	-483
967.433	-236
967.519	316
967.605	-873
967.692	-433
967.778	-655
967.864	8
967.950	-1184
968.036	-1131
968.123	-547
968.209	-563
968.295	-1587
968.381	-24
968.467	-1134
968.553	-1729
968.639	-706
968.725	-1341
968.811	-987
968.897	-1080
968.983	-1509
969.069	-682
969.154	-313
969.240	245
969.326	-1052
969.412	-1380
969.497	-1030
969.583	-1415
969.669	-319
969.755	-325
969.840	-627
969.926	-556
970.012	-827
970.097	55
970.183	-932
970.268	-459
970.354	-597
970.439	-1134
970.525	1618
970.610	-2205
970.696	-248
970.781	-884
970.866	-1074
970.952	253
971.037	-1237
971.122	-1152
971.208	-976
971.293	-1533
971.378	-2033
971.463	-875
971.549	-421
971.634	-1071
971.719	-1320
971.804	-661
971.889	-906
971.974	-1808
972.059	-978
972.144	-1252
972.229	-216
972.314	-1344
972.399	-555
972.484	-358
972.569	-62
972.654	-1870
972.739	577
972.824	-1001
972.908	-1543
972.993	-546
973.078	-943
973.163	-24
973.247	-1295
973.332	-1969
973.417	-16
973.501	-1298
973.586	-1295
973.671	-138
973.755	-1617
973.840	-150
973.924	-1231
974.009	-1196
974.093	-712
974.178	-472
974.262	-61
974.346	80
974.431	-1150
974.515	-1411
974.600	-755
974.684	-671
974.768	-1761
974.852	-1271
974.937	-1900
975.021	-591
975.105	-1679
975.189	-1506
975.273	6
975.358	-1435
975.442	-1058
975.526	-420
975.610	-1653
975.694	-1219
975.778	-975
975.862	-683
975.946	-2520
976.030	587
976.114	-1721
976.198	88
976.281	-1028
976.365	126
976.449	-1611
976.533	-1023
976.617	-1938
976.700	-1308
976.784	-1077
976.868	-712
976.951	-1438
977.035	-1004
977.119	-699
977.202	-508
977.286	-856
977.369	-1042
977.453	-1008
977.536	-1701
977.620	-1715
977.703	-274
977.787	-1421
977.870	-406
977.953	-284
978.037	-2156
978.120	-519
978.203	-425
978.287	-177
978.370	-1165
978.453	-542
978.536	-1853
978.620	-104
978.703	-356
978.786	-1290
978.869	-693
978.952	-1513
979.035	-292
979.118	-776
979.201	-1239
979.284	98
979.367	-1463
979.450	-79
979.533	-1544
979.616	-992
979.699	-1357
979.782	-472
979.865	-523
979.948	-1861
980.030	-1605
980.113	-1235
980.196	-1308
980.279	-823
980.361	-1218
980.444	-1135
980.526	-656
980.609	-1215
980.692	-1125
980.774	-857
980.857	-1276
980.939	-83
981.022	-686
981.104	-1278
981.187	-907
981.269	-1352
981.352	-1034
981.434	-1605
981.516	-1684
981.599	-444
981.681	-1015
981.763	-1166
981.846	-871
981.928	-1570
982.010	-1063
982.092	-1562
982.174	-111
982.256	-1507
982.339	-707
982.421	-859
982.503	-236
982.585	-3029
982.667	-1303
982.749	-1288
982.831	-1057
982.913	-1738
982.995	260
983.077	-1664
983.158	-392
983.240	-1776
983.322	-1128
983.404	-640
983.486	-1716
983.568	-1348
983.649	-2067
983.731	-545
983.813	-1755
983.894	-1135
983.976	-2289
984.058	-1758
984.139	139
984.221	-2018
984.302	-327
984.384	-1196
984.465	-1406
984.547	-702
984.628	-1492
984.710	-583
984.791	-1638
984.872	-961
984.954	-1970
985.035	-948
985.116	-1924
985.198	-1394
985.279	172
985.360	-1480
985.441	-1117
985.522	-1539
985.604	-1349
985.685	-3100
985.766	-526
985.847	-1009
985.928	-1514
986.009	-1565
986.090	-1511
986.171	-1141
986.252	-882
986.333	-1125
986.414	-1204
986.495	-1073
986.576	-830
986.656	-975
986.737	-589
986.818	-944
986.899	-2101
986.980	-1540
987.060	92
987.141	-788
987.222	-825
987.302	-499
987.383	-1493
987.464	-1543
987.544	-1275
987.625	-1336
987.705	-848
987.786	-885
987.866	-1238
987.947	-1311
988.027	-691
988.108	-1028
988.188	-593
988.268	-831
988.349	-1159
988.429	-1405
988.509	-1144
988.589	-1148
988.670	-3042
988.750	-153
988.830	-1380
988.910	-1687
988.990	-937
989.070	-1351
989.151	-1095
989.231	-1394
989.311	-568
989.391	-1571
989.471	-963
989.551	-1620
989.631	-598
989.711	-121
989.791	-1632
989.870	-1954
989.950	-12
990.030	-1470
990.110	-1259
990.190	-2404
990.269	-591
990.349	-1755
990.429	-229
990.509	-761
990.588	-1158
990.668	-941
990.747	-1728
990.827	-1217
990.907	-1024
990.986	-1367
991.066	-1537
991.145	-1700
991.225	-955
991.304	-1940
991.383	-1309
991.463	-1778
991.542	-1258
991.622	-1776
991.701	-1297
991.780	-1458
991.859	-1067
991.939	-1774
992.018	-1177
992.097	-1488
992.176	-599
992.256	-1972
992.335	-1975
992.414	-420
992.493	-1201
992.572	-1567
992.651	-97
992.730	-1709
992.809	-1054
992.888	-1782
992.967	-1834
993.046	-565
993.125	-2027
993.203	-1299
993.282	-1268
993.361	-1155
993.440	-597
993.519	-1308
993.597	-1365
993.676	-1921
993.755	-195
993.834	-365
993.912	-2091
993.991	-457
994.069	-1859
994.148	-1355
994.226	-1411
994.305	-1422
994.384	-1371
994.462	-332
994.540	-1457
994.619	-2325
994.697	-1225
994.776	-1081
994.854	-331
994.932	-1697
995.011	-697
995.089	-1012
995.167	-950
995.245	-948
995.324	-2100
995.402	-524
995.480	-1451
995.558	-1100
995.636	-1196
995.714	-1392
995.792	-898
995.870	-1828
995.948	-1604
996.026	-1153
996.104	-2330
996.182	133
996.260	-2225
996.338	-1062
996.416	-1975
996.494	-2498
996.572	84
996.649	-1472
996.727	-2706
996.805	-815
996.883	-1101
996.960	-1389
997.038	-1012
997.116	-1130
997.193	-2317
997.271	-1260
997.348	-1268
997.426	-1281
997.504	-2054
997.581	-936
997.658	-952
997.736	-2265
997.813	-2176
997.891	-659
997.968	-1446
998.046	-1820
998.123	-816
998.200	-1371
998.277	-1158
998.355	-1013
998.432	-2190
998.509	-1581
998.586	-717
998.663	-1543
998.741	-1619
998.818	-1529
998.895	-1380
998.972	-526
999.049	-904
999.126	-1066
999.203	-1820
999.280	-1778
999.357	-2451
999.434	-1533
999.511	-1246
999.587	-1279
999.664	-1941
999.741	-880
999.818	27
999.895	-1381
999.971	-1258
1000.048	-1821
1000.125	-175
1000.202	-1585
1000.278	-1440
1000.355	-1111
1000.431	-598
1000.508	-1576
1000.584	-1109
1000.661	-1293
1000.738	-1817
1000.814	-1260
1000.890	-522
1000.967	-1414
1001.043	-835
1001.120	-2239
1001.196	-494
1001.272	-2526
1001.349	-1516
1001.425	-284
1001.501	-1508
1001.577	-1698
1001.654	-1434
1001.730	-1644
1001.806	-1210
1001.882	-1845
1001.958	-797
1002.034	-1276
1002.110	-1387
1002.186	-1816
1002.262	-858
1002.338	-1705
1002.414	-1343
1002.490	-911
1002.566	-1519
1002.642	-2079
1002.718	-471
1002.794	-1691
1002.870	-1548
1002.945	-1863
1003.021	-1487
1003.097	-1208
1003.173	-842
1003.248	-1968
1003.324	-1144
1003.400	-1404
1003.475	-1692
1003.551	-829
1003.626	-1129
1003.702	-758
1003.777	-1022
1003.853	-1701
1003.928	-2222
1004.004	-1298
1004.079	-803
1004.155	-825
1004.230	-1736
1004.305	-568
1004.381	-2034
1004.456	-1458
1004.531	-1863
1004.607	-830
1004.682	-1900
1004.757	-1662
1004.832	-1223
1004.907	-1693
1004.982	-1004
1005.057	-976
1005.133	-1542
1005.208	-1793
1005.283	-1105
1005.358	-1808
1005.433	-2237
1005.508	-1356
1005.583	-2180
1005.657	-2540
1005.732	-274
1005.807	-1885
1005.882	-1432
1005.957	-1463
1006.032	-1705
1006.106	-1992
1006.181	-2027
1006.256	-1780
1006.331	-2858
1006.405	-2173
1006.480	-309
1006.554	-1401
1006.629	-586
1006.704	-1845
1006.778	-1767
1006.853	-1345
1006.927	-1979
1007.002	-2066
1007.076	-1354
1007.150	-1715
1007.225	-1678
1007.299	-1245
1007.373	-2102
1007.448	-1775
1007.522	-1084
1007.596	-1521
1007.671	-1432
1007.745	-1730
1007.819	-2130
1007.893	-2299
1007.967	-1076
1008.041	-2816
1008.115	-973
1008.190	-2271
1008.264	-1187
1008.338	-2656
1008.412	-1954
1008.486	-921
1008.560	-1264
1008.633	-2145
1008.707	-1445
1008.781	-1400
1008.855	-1162
1008.929	-1503
1009.003	-1585
1009.076	-2067
1009.150	-1441
1009.224	-1303
1009.298	-1227
1009.371	-2356
1009.445	-1407
1009.519	-1501
1009.592	-2162
1009.666	-1060
1009.739	-1460
1009.813	-1987
1009.886	-747
1009.960	-2117
1010.033	-1573
1010.107	-806
1010.180	-2096
1010.253	-1617
1010.327	-1764
1010.400	-1716
1010.473	-1685
1010.547	-532
1010.620	-1919
1010.693	-1421
1010.766	-2488
1010.840	-898
1010.913	-2016
1010.986	-2037
1011.059	-1874
1011.132	-2202
1011.205	-550
1011.278	-1989
1011.351	-1335
1011.424	-1273
1011.497	-2737
1011.570	-1061
1011.643	-1368
1011.716	-1917
1011.789	-2015
1011.862	-1002
1011.934	-404
1012.007	-2710
1012.080	-1366
1012.153	-2478
1012.225	-659
1012.298	-2248
1012.371	-1440
1012.443	-1957
1012.516	-1943
1012.588	-1213
1012.661	-916
1012.733	-2066
1012.806	-561
1012.879	-2499
1012.951	-1869
1013.023	-1765
1013.096	-1530
1013.168	-2082
1013.241	-865
1013.313	-1664
1013.385	-1292
1013.458	-1996
1013.530	-893
1013.602	-2305
1013.674	-888
1013.746	-2250
1013.819	-2533
1013.891	-1256
1013.963	-2420
1014.035	-1652
1014.107	-1279
1014.179	-1901
1014.251	-2159
1014.323	-1993
1014.395	-2352
1014.467	-1687
1014.539	-2001
1014.611	-2630
1014.683	-1293
1014.754	-1445
1014.826	-1490
1014.898	-1670
1014.970	-2260
1015.042	-891
1015.113	-1105
1015.185	-1871
1015.257	-2228
1015.328	-1255
1015.400	-1832
1015.471	-1722
1015.543	-2402
1015.615	-903
1015.686	-2099
1015.757	-1795
1015.829	-1109
1015.901	-1880
1015.972	-1393
1016.043	-1230
1016.115	-1420
1016.186	-1594
1016.257	-1858
1016.328	-1574
1016.400	-1218
1016.471	-2081
1016.542	-1833
1016.613	-1431
1016.685	-1489
1016.756	-1047
1016.827	-1743
1016.898	-2730
1016.969	-1183
1017.040	-1508
1017.111	-1567
1017.182	-1717
1017.253	-1445
1017.324	-2703
1017.395	-1998
1017.466	-1805
1017.537	-1052
1017.608	-1951
1017.678	-1508
1017.749	-1493
1017.820	-1426
1017.891	-1984
1017.961	-1926
1018.032	-2029
1018.103	-1383
1018.173	-1767
1018.244	-1958
1018.315	-1742
1018.385	-1066
1018.456	-1129
1018.526	-2120
1018.597	-2165
1018.667	-1031
1018.738	-1828
1018.808	-1663
1018.878	-2248
1018.949	-1635
1019.019	-1490
1019.089	-1191
1019.160	-1783
1019.230	-2493
1019.300	-1051
1019.371	-2125
1019.441	-1786
1019.511	-1649
1019.581	-1489
1019.651	-1419
1019.721	-1333
1019.791	-2021
1019.861	-2349
1019.931	-1619
1020.001	-1367
1020.071	-1990
1020.141	-1895
1020.211	-1960
1020.281	-1896
1020.351	-1522
1020.421	-2017
1020.491	-1727
1020.560	-1861
1020.630	-769
1020.700	-2406
1020.770	-2741
1020.839	-1936
1020.909	-1554
1020.979	-2305
1021.048	-1882
1021.118	-1958
1021.187	-1659
1021.257	-2358
1021.326	-2346
1021.396	-1980
1021.465	-2522
1021.535	-1666
1021.604	-2253
1021.674	-2446
1021.743	-2171
1021.812	-2066
1021.882	-1631
1021.951	-1775
1022.020	-1649
1022.089	-2401
1022.159	-2070
1022.228	-1391
1022.297	-1610
1022.366	-1383
1022.435	-1674
1022.504	-1554
1022.573	-2398
1022.642	-2452
1022.711	-2010
1022.781	-1384
1022.849	-1662
1022.918	-2643
1022.987	-1802
1023.056	-2710
1023.125	-1527
1023.194	-1502
1023.263	-1779
1023.331	-1671
1023.400	-2367
1023.469	-2690
1023.538	-1165
1023.606	-2134
1023.675	-2079
1023.744	-2262
1023.812	-2423
1023.881	-2351
1023.949	-1081
1024.018	-1494
1024.086	-949
1024.155	-2284
1024.223	-2764
1024.292	-1840
1024.360	-1506
1024.429	-1341
1024.497	-1890
1024.565	-2336
1024.634	-1748
1024.702	-1236
1024.770	-2827
1024.838	-2512
1024.907	-1671
1024.975	-1617
1025.043	-1088
1025.111	-1455
1025.179	-1895
1025.247	-1611
1025.315	-1549
1025.383	-1606
1025.451	-2223
1025.519	-2391
1025.587	-1800
1025.655	-1377
1025.723	-1274
1025.791	-1429
1025.859	-402
1025.927	-1559
1025.995	-1688
1026.062	-1722
1026.130	-1637
1026.198	-2508
1026.266	-1403
1026.333	-1900
1026.401	-1547
1026.469	-1386
1026.536	-992
1026.604	-1860
1026.671	-1652
1026.739	-2153
1026.806	-1740
1026.874	-1847
1026.941	-1222
1027.009	-2360
1027.076	-1870
1027.144	-1636
1027.211	-2381
1027.278	-1895
1027.345	-2113
1027.413	-1997
1027.480	-2507
1027.547	-2296
1027.614	-1644
1027.682	-1296
1027.749	-1817
1027.816	-1505
1027.883	-1649
1027.950	-1277
1028.017	-2134
1028.084	-2621
1028.151	-2742
1028.218	-2771
1028.285	-1906
1028.352	-1889
1028.419	-2121
1028.486	-2172
1028.553	-1915
1028.619	-2602
1028.686	-1845
1028.753	-1853
1028.820	-1511
1028.886	-2168
1028.953	-1142
1029.020	-1961
1029.086	-1275
1029.153	-1953
1029.220	-2273
1029.286	-1761
1029.353	-1493
1029.419	-2694
1029.486	-1831
1029.552	-2086
1029.619	-2203
1029.685	-1859
1029.751	-1699
1029.818	-1199
1029.884	-1910
1029.951	-1188
1030.017	-1904
1030.083	-1479
1030.149	-1983
1030.216	-2304
1030.282	-1719
1030.348	-1903
1030.414	-1653
1030.480	-2270
1030.546	-2211
1030.612	-1805
1030.678	-1512
1030.744	-1892
1030.810	-1192
1030.876	-2133
1030.942	-1744
1031.008	-2373
1031.074	-1645
1031.140	-2128
1031.206	-2031
1031.272	-2220
1031.337	-1989
1031.403	-1669
1031.469	-927
1031.534	-2457
1031.600	-1573
1031.666	-2522
1031.731	-2038
1031.797	-2046
1031.863	-2039
1031.928	-2095
1031.994	-2426
1032.059	-1838
1032.125	-1798
1032.190	-2001
1032.256	-1715
1032.321	-2589
1032.386	-1762
1032.452	-2025
1032.517	-1762
1032.582	-1862
1032.647	-1308
1032.713	-1683
1032.778	-2301
1032.843	-2076
1032.908	-1905
1032.974	-1456
1033.039	-2146
1033.104	-2171
1033.169	-2669
1033.234	-1763
1033.299	-1373
1033.364	-1739
1033.429	-1926
1033.494	-935
1033.559	-1913
1033.624	-1743
1033.688	-1573
1033.753	-2635
1033.818	-1325
1033.883	-2150
1033.948	-2521
1034.013	-1818
1034.077	-2225
1034.142	-1343
1034.207	-2101
1034.271	-1262
1034.336	-946
1034.400	-1581
1034.465	-1568
1034.530	-1574
1034.594	-1707
1034.658	-2769
1034.723	-1456
1034.787	-2268
1034.852	-1947
1034.916	-2024
1034.981	-2176
1035.045	-1597
1035.109	-1288
1035.173	-1160
1035.238	-2324
1035.302	-2121
1035.366	-1958
1035.430	-1199
1035.495	-1835
1035.559	-1116
1035.623	-2161
1035.687	-1567
1035.751	-2161
1035.815	-2552
1035.879	-1702
1035.943	-2436
1036.007	-1420
1036.071	-1609
1036.135	-1810
1036.198	-2457
1036.262	-1960
1036.326	-2232
1036.390	-2120
1036.454	-2098
1036.517	-1534
1036.581	-2404
1036.645	-1527
1036.709	-2289
1036.772	-2074
1036.836	-1971
1036.900	-1522
1036.963	-1704
1037.026	-1664
1037.090	-1716
1037.154	-1791
1037.217	-2199
1037.280	-1971
1037.344	-2641
1037.407	-2108
1037.471	-1613
1037.534	-1736
1037.597	-1961
1037.661	-1725
1037.724	-1502
1037.787	-2227
1037.850	-2456
1037.913	-1850
1037.977	-1012
1038.040	-1251
1038.103	-2163
1038.166	-1956
1038.229	-1886
1038.292	-2229
1038.355	-2702
1038.418	-1005
1038.481	-894
1038.544	-1729
1038.607	-1737
1038.670	-889
1038.732	-2516
1038.795	-2195
1038.858	-2014
1038.921	-1141
1038.984	-1681
1039.046	-2778
1039.109	-1866
1039.172	-1858
1039.234	-2209
1039.297	-1266
1039.360	-1191
1039.422	-1799
1039.485	-2137
1039.547	-2468
1039.610	-2341
1039.672	-1828
1039.734	-2034
1039.797	-2003
1039.859	-2039
1039.922	-2523
1039.984	-2034
1040.046	-2031
1040.109	-2073
1040.171	-1616
1040.233	-2371
1040.295	-1731
1040.358	-3202
1040.420	-1756
1040.482	-1631
1040.544	-2375
1040.606	-2129
1040.668	-1830
1040.730	-1803
1040.792	-2552
1040.854	-1839
1040.916	-2345
1040.978	-2092
1041.040	-1013
1041.102	-2616
1041.164	-1362
1041.225	-2301
1041.287	-2193
1041.349	-1509
1041.411	-2412
1041.472	-2422
1041.534	-2338
1041.596	-2716
1041.657	-1840
1041.719	-1826
1041.781	-1865
1041.842	-1856
1041.904	-1881
1041.965	-1873
1042.027	-1785
1042.088	-1796
1042.150	-1403
1042.211	-2367
1042.272	-2014
1042.334	-2768
1042.395	-2174
1042.456	-1927
1042.518	-2246
1042.579	-772
1042.640	-1785
1042.701	-2195
1042.763	-2155
1042.824	-2499
1042.885	-1911
1042.946	-1734
1043.007	-1806
1043.068	-2416
1043.129	-1079
1043.190	-1760
1043.251	-1731
1043.312	-1790
1043.373	-1413
1043.434	-1971
1043.495	-1890
1043.556	-2506
1043.616	-1658
1043.677	-2441
1043.738	-1709
1043.799	-2829
1043.859	-1540
1043.920	-1612
1043.981	-1846
1044.041	-2211
1044.102	-2281
1044.162	-1308
1044.223	-1740
1044.284	-2593
1044.344	-1211
1044.405	-1675
1044.465	-1451
1044.525	-1520
1044.586	-1693
1044.646	-1707
1044.707	-1109
1044.767	-1986
1044.827	-1586
1044.887	-1771
1044.948	-1681
1045.008	-1923
1045.068	-1289
1045.128	-2369
1045.188	-1895
1045.249	-2397
1045.309	-1081
1045.369	-1305
1045.429	-1805
1045.489	-1918
1045.549	-955
1045.609	-1982
1045.669	-2335
1045.729	-1561
1045.789	-1524
1045.848	-1415
1045.908	-990
1045.968	-1592
1046.028	-2367
1046.088	-1429
1046.147	-1463
1046.207	-1902
1046.267	-1341
1046.326	-1677
1046.386	-1526
1046.446	-1468
1046.505	-1356
1046.565	-856
1046.624	-716
1046.684	-1024
1046.743	-722
1046.803	-1189
1046.862	-160
1046.922	0
