'Start Wavelength	183.907
'End Wavelength	1046.922
'Gate Delay	5.000
'Gate Width (ms)	1.050
'Laser Output Level	0.000
'X Position	0.000
'Y Position	0.000
'Z Position	0.000
'Grid Point Number	1.000
'Shot Number	100.000
183.907	-156.000
183.977	415.000
184.047	31
184.116	-10
184.186	129
184.256	159
184.325	186
184.395	46
184.465	740
184.534	83
184.604	-565
184.674	739
184.743	215
184.813	-25
184.883	413
184.952	1198
185.022	-233
185.092	241
185.161	90
185.231	-625
185.301	-462
185.370	1040
185.440	-146
185.509	-332
185.579	253
185.649	207
185.718	643
185.788	17
185.857	-57
185.927	-154
185.996	-238
186.066	650
186.136	-1162
186.205	616
186.275	99
186.344	93
186.414	-29
186.483	-294
186.553	1221
186.622	83
186.692	-69
186.761	-73
186.831	622
186.900	-87
186.970	272
187.039	385
187.109	570
187.178	198
187.248	-232
187.317	-245
187.387	-617
187.456	632
187.526	120
187.595	210
187.664	-173
187.734	-497
187.803	-352
187.873	54
187.942	-496
188.012	30
188.081	-123
188.150	953
188.220	-180
188.289	513
188.358	-46
188.428	315
188.497	372
188.567	344
188.636	126
188.705	-367
188.775	-546
188.844	-656
188.913	430
188.983	-619
189.052	350
189.121	-506
189.191	-70
189.260	22
189.329	523
189.399	252
189.468	-58
189.537	-331
189.606	-238
189.676	-38
189.745	423
189.814	69
189.883	-402
189.953	64
190.022	-102
190.091	171
190.161	340
190.230	246
190.299	333
190.368	231
190.437	6
190.507	-150
190.576	-27
190.645	-353
190.714	-80
190.783	-229
190.853	-58
190.922	-3
190.991	-23
191.060	21
191.129	-531
191.198	-171
191.268	5
191.337	-290
191.406	1055
191.475	-210
191.544	88
191.613	198
191.682	-55
191.752	321
191.821	-159
191.890	186
191.959	-151
192.028	-226
192.097	589
192.166	196
192.235	-279
192.304	-239
192.373	-728
192.442	-194
192.511	-5
192.580	-394
192.650	95
192.719	297
192.788	627
192.857	764
192.926	-819
192.995	-20
193.064	-383
193.133	142
193.202	-88
193.271	272
193.340	200
193.409	238
193.478	513
193.547	42
193.615	450
193.684	354
193.753	-268
193.822	543
193.891	-1033
193.960	472
194.029	-635
194.098	723
194.167	-30
194.236	375
194.305	90
194.374	-196
194.443	413
194.512	122
194.580	418
194.649	236
194.718	173
194.787	58
194.856	-369
194.925	527
194.994	-642
195.062	-557
195.131	-829
195.200	-312
195.269	-201
195.338	218
195.407	634
195.475	-793
195.544	135
195.613	-113
195.682	-289
195.751	241
195.819	-970
195.888	409
195.957	595
196.026	183
196.094	533
196.163	-156
196.232	-120
196.301	281
196.369	-274
196.438	463
196.507	-459
196.576	91
196.644	-543
196.713	109
196.782	171
196.850	-328
196.919	-201
196.988	549
197.056	172
197.125	830
197.194	159
197.262	467
197.331	162
197.400	269
197.468	581
197.537	-362
197.606	241
197.674	402
197.743	-346
197.812	-351
197.880	235
197.949	-556
198.017	-329
198.086	-84
198.155	93
198.223	-743
198.292	-447
198.360	-116
198.429	-125
198.497	-469
198.566	-257
198.635	1146
198.703	135
198.772	-244
198.840	-109
198.909	103
198.977	-463
199.046	277
199.114	625
199.183	296
199.251	-229
199.320	-293
199.388	612
199.457	225
199.525	439
199.594	-326
199.662	224
199.731	-167
199.799	316
199.867	186
199.936	63
200.004	707
200.073	224
200.141	180
200.210	195
200.278	420
200.346	370
200.415	225
200.483	-196
200.552	817
200.620	353
200.688	0
200.757	961
200.825	-307
200.893	-579
200.962	165
201.030	-349
201.098	-599
201.167	550
201.235	285
201.303	-461
201.372	503
201.440	143
201.508	88
201.577	-17
201.645	-80
201.713	343
201.781	219
201.850	377
201.918	115
201.986	9
202.055	1556
202.123	-23
202.191	77
202.259	143
202.327	-581
202.396	-108
202.464	453
202.532	31
202.600	491
202.669	-398
202.737	-253
202.805	-1293
202.873	64
202.941	-43
203.009	236
203.078	-361
203.146	258
203.214	730
203.282	-393
203.350	612
203.418	-603
203.487	483
203.555	336
203.623	363
203.691	209
203.759	-186
203.827	151
203.895	-54
203.963	359
204.031	-393
204.099	72
204.168	406
204.236	-427
204.304	397
204.372	-65
204.440	271
204.508	-282
204.576	-192
204.644	-364
204.712	-431
204.780	-399
204.848	-149
204.916	60
204.984	-253
205.052	-5
205.120	-243
205.188	-219
205.256	-1151
205.324	-947
205.392	-552
205.460	878
205.528	-687
205.596	195
205.664	-78
205.732	-407
205.799	94
205.867	-256
205.935	-873
206.003	996
206.071	-644
206.139	-454
206.207	-230
206.275	-484
206.343	306
206.411	-244
206.478	-67
206.546	561
206.614	-174
206.682	-195
206.750	-103
206.818	439
206.885	702
206.953	-732
207.021	1011
207.089	604
207.157	197
207.225	433
207.292	-108
207.360	271
207.428	-59
207.496	-367
207.563	85
207.631	106
207.699	-211
207.767	321
207.834	499
207.902	79
207.970	-246
208.038	212
208.105	-35
208.173	255
208.241	-667
208.309	426
208.376	38
208.444	266
208.512	227
208.579	-185
208.647	-174
208.715	585
208.782	-69
208.850	-633
208.918	25
208.985	2
209.053	69
209.120	-390
209.188	-429
209.256	-255
209.323	-1390
209.391	79
209.459	1230
209.526	656
209.594	-581
209.661	564
209.729	138
209.796	624
209.864	996
209.932	-998
209.999	1748
210.067	-110
210.134	-131
210.202	31
210.269	309
210.337	1008
210.404	617
210.472	-574
210.539	671
210.607	-336
210.674	-16
210.742	559
210.809	523
210.877	-297
210.944	690
211.012	-195
211.079	1043
211.146	583
211.214	-529
211.281	740
211.349	921
211.416	533
211.484	-141
211.551	-197
211.618	244
211.686	-78
211.753	-512
211.821	1060
211.888	449
211.955	224
212.023	138
212.090	548
212.157	15
212.225	-571
212.292	52
212.359	-950
212.427	-284
212.494	-239
212.561	-17
212.629	-4
212.696	-193
212.763	-102
212.831	-323
212.898	1107
212.965	-686
213.032	309
213.100	416
213.167	152
213.234	372
213.301	37
213.369	-84
213.436	307
213.503	-173
213.570	1190
213.638	256
213.705	214
213.772	-979
213.839	-150
213.906	-318
213.973	628
214.041	-614
214.108	505
214.175	-129
214.242	172
214.309	-6
214.376	159
214.444	-421
214.511	37
214.578	346
214.645	647
214.712	612
214.779	518
214.846	-875
214.913	924
214.980	1019
215.048	-461
215.115	1330
215.182	1348
215.249	392
215.316	501
215.383	673
215.450	36
215.517	-713
215.584	500
215.651	-1022
215.718	35
215.785	-20
215.852	-485
215.919	306
215.986	-274
216.053	-196
216.120	-821
216.187	-406
216.254	-621
216.321	-53
216.388	-91
216.455	-490
216.522	-47
216.589	-969
216.656	-566
216.722	-562
216.789	-184
216.856	-238
216.923	-829
216.990	451
217.057	-1000
217.124	-291
217.191	-487
217.258	507
217.324	-592
217.391	488
217.458	-399
217.525	36
217.592	-136
217.659	-927
217.725	1444
217.792	143
217.859	210
217.926	-688
217.993	141
218.059	173
218.126	341
218.193	-274
218.260	6
218.327	73
218.393	-406
218.460	176
218.527	-45
218.594	-455
218.660	315
218.727	1118
218.794	-526
218.860	368
218.927	-75
218.994	-813
219.061	-707
219.127	-375
219.194	299
219.261	390
219.327	-626
219.394	1331
219.461	-603
219.527	-58
219.594	514
219.661	-594
219.727	-782
219.794	587
219.860	-85
219.927	1379
219.994	2351
220.060	2106
220.127	2136
220.193	3012
220.260	370
220.326	856
220.393	432
220.460	-1058
220.526	122
220.593	-307
220.659	1235
220.726	-1194
220.792	646
220.859	-325
220.925	-526
220.992	189
221.058	524
221.125	168
221.191	-409
221.258	-842
221.324	658
221.391	-236
221.457	-345
221.524	-336
221.590	342
221.657	264
221.723	-795
221.789	267
221.856	609
221.922	-355
221.989	1007
222.055	-336
222.121	-358
222.188	1241
222.254	368
222.321	475
222.387	-433
222.453	386
222.520	28
222.586	-323
222.652	883
222.719	103
222.785	223
222.851	-274
222.918	-56
222.984	-399
223.050	-193
223.116	-1372
223.183	1230
223.249	-914
223.315	16
223.382	155
223.448	-75
223.514	-702
223.580	-180
223.647	213
223.713	-647
223.779	282
223.845	21
223.911	345
223.978	-1280
224.044	-515
224.110	-694
224.176	-88
224.242	-359
224.309	-1076
224.375	-468
224.441	1143
224.507	-592
224.573	-1039
224.639	148
224.705	-1564
224.772	-221
224.838	-756
224.904	-124
224.970	49
225.036	-1038
225.102	-791
225.168	702
225.234	561
225.300	321
225.366	-625
225.432	891
225.499	853
225.565	-352
225.631	-435
225.697	-11
225.763	53
225.829	7
225.895	-565
225.961	-395
226.027	100
226.093	-74
226.159	1113
226.225	927
226.291	711
226.357	643
226.423	515
226.489	85
226.554	-122
226.620	-644
226.686	198
226.752	-59
226.818	-176
226.884	373
226.950	299
227.016	564
227.082	383
227.148	229
227.214	34
227.279	595
227.345	871
227.411	2217
227.477	3056
227.543	2976
227.609	4329
227.674	5472
227.740	2152
227.806	1649
227.872	1383
227.938	897
228.003	432
228.069	-20
228.135	-464
228.201	780
228.267	-299
228.332	-178
228.398	-1487
228.464	925
228.530	-269
228.595	-171
228.661	-1377
228.727	-371
228.792	715
228.858	366
228.924	-786
228.990	1664
229.055	-1319
229.121	-289
229.187	193
229.252	-715
229.318	-664
229.384	598
229.449	96
229.515	-1288
229.581	-860
229.646	1881
229.712	-488
229.777	-381
229.843	-244
229.909	175
229.974	782
230.040	91
230.105	-197
230.171	-923
230.236	-647
230.302	-562
230.368	-694
230.433	-1036
230.499	-130
230.564	842
230.630	-510
230.695	-139
230.761	1090
230.826	-1652
230.892	410
230.957	-849
231.023	-761
231.088	-38
231.154	-813
231.219	614
231.284	-448
231.350	-134
231.415	-874
231.481	244
231.546	-279
231.612	446
231.677	-1183
231.742	-1380
231.808	912
231.873	-314
231.939	-2103
232.004	71
232.069	769
232.135	-476
232.200	-555
232.265	97
232.331	-228
232.396	-66
232.461	-582
232.527	-23
232.592	-533
232.657	376
232.723	211
232.788	-832
232.853	-123
232.918	217
232.984	-646
233.049	-475
233.114	-158
233.179	814
233.245	1021
233.310	308
233.375	-1060
233.440	-46
233.506	-324
233.571	-1016
233.636	-285
233.701	-227
233.766	-945
233.832	-192
233.897	-274
233.962	-1430
234.027	430
234.092	229
234.157	-15
234.222	-458
234.288	586
234.353	-1049
234.418	-207
234.483	-97
234.548	-676
234.613	-575
234.678	-203
234.743	-699
234.808	91
234.873	-1382
234.938	261
235.004	-525
235.069	46
235.134	-306
235.199	-28
235.264	56
235.329	-1864
235.394	698
235.459	457
235.524	-468
235.589	-388
235.654	-203
235.719	-1552
235.784	819
235.849	-1238
235.913	106
235.978	-318
236.043	-259
236.108	-557
236.173	-956
236.238	127
236.303	112
236.368	427
236.433	275
236.498	-1411
236.563	90
236.627	-524
236.692	1105
236.757	-515
236.822	-179
236.887	38
236.952	177
237.017	-1703
237.081	845
237.146	-1371
237.211	-136
237.276	-326
237.341	119
237.405	-696
237.470	-286
237.535	-352
237.600	-197
237.664	259
237.729	-1144
237.794	-996
237.859	515
237.923	-818
237.988	172
238.053	542
238.118	-1361
238.182	122
238.247	944
238.312	-860
238.376	519
238.441	-2229
238.506	10
238.570	-1107
238.635	868
238.700	464
238.764	-461
238.829	-553
238.893	-1179
238.958	446
239.023	-108
239.087	-334
239.152	377
239.216	-464
239.281	129
239.346	1393
239.410	115
239.475	-894
239.539	980
239.604	-245
239.668	1793
239.733	2574
239.797	6974
239.862	8650
239.926	9443
239.991	6219
240.055	3254
240.120	1041
240.184	2285
240.249	128
240.313	366
240.378	710
240.442	414
240.507	446
240.571	-14
240.635	-181
240.700	-326
240.764	-669
240.829	-568
240.893	-1472
240.957	670
241.022	487
241.086	462
241.151	-1457
241.215	-1290
241.279	622
241.344	-166
241.408	374
241.472	-1549
241.537	-1
241.601	-81
241.665	-743
241.730	-1184
241.794	92
241.858	-865
241.922	-193
241.987	-569
242.051	-358
242.115	-1399
242.179	242
242.244	-822
242.308	367
242.372	286
242.436	-928
242.501	13
242.565	-1292
242.629	-324
242.693	417
242.757	-1026
242.822	-475
242.886	426
242.950	284
243.014	-700
243.078	-155
243.142	-538
243.206	-1038
243.271	345
243.335	-834
243.399	-230
243.463	-800
243.527	-443
243.591	-322
243.655	-227
243.719	-1813
243.783	693
243.847	-303
243.911	-95
243.975	-939
244.040	-1309
244.104	1335
244.168	1045
244.232	-1110
244.296	-388
244.360	-239
244.424	-806
244.488	376
244.552	419
244.615	-1449
244.679	615
244.743	-225
244.807	-2061
244.871	32
244.935	368
244.999	-1333
245.063	-652
245.127	27
245.191	-772
245.255	-909
245.319	109
245.383	-1617
245.446	1055
245.510	-915
245.574	485
245.638	1222
245.702	-1324
245.766	-439
245.829	811
245.893	-1149
245.957	-805
246.021	272
246.085	-176
246.149	233
246.212	1205
246.276	-240
246.340	-898
246.404	-649
246.467	639
246.531	-2094
246.595	1084
246.659	120
246.722	-1027
246.786	-406
246.850	-533
246.913	49
246.977	-301
247.041	220
247.104	-56
247.168	-69
247.232	0
247.295	834
247.359	437
247.423	58
247.486	76
247.550	813
247.614	-694
247.677	553
247.741	184
247.804	11
247.868	864
247.932	-785
247.995	1612
248.059	-574
248.122	-794
248.186	391
248.249	1050
248.313	1053
248.376	2618
248.440	606
248.503	-838
248.567	637
248.630	-945
248.694	-685
248.757	273
248.821	1951
248.884	1713
248.948	-277
249.011	1623
249.075	2036
249.138	2232
249.202	118
249.265	-1022
249.328	122
249.392	-896
249.455	269
249.519	-44
249.582	-100
249.645	607
249.709	-644
249.772	286
249.835	261
249.899	-294
249.962	486
250.025	-676
250.089	-638
250.152	1289
250.215	-407
250.279	-407
250.342	159
250.405	-365
250.468	-922
250.532	-256
250.595	684
250.658	-731
250.721	911
250.785	9
250.848	974
250.911	-795
250.974	343
251.038	-319
251.101	831
251.164	-165
251.227	43
251.290	-37
251.354	-243
251.417	674
251.480	687
251.543	488
251.606	1802
251.669	1320
251.732	-301
251.795	-155
251.859	200
251.922	-164
251.985	48
252.048	692
252.111	292
252.174	-1762
252.237	338
252.300	1961
252.363	-55
252.426	2322
252.489	-155
252.552	547
252.615	-1367
252.678	565
252.741	1243
252.804	118
252.867	1723
252.930	708
252.993	957
253.056	740
253.119	-388
253.182	-134
253.245	63
253.308	238
253.371	-886
253.434	-29
253.497	351
253.559	1241
253.622	421
253.685	492
253.748	-388
253.811	-293
253.874	635
253.937	-851
254.000	234
254.062	391
254.125	733
254.188	900
254.251	-637
254.314	-22
254.376	-730
254.439	494
254.502	331
254.565	892
254.628	994
254.690	-115
254.753	-493
254.816	-593
254.878	334
254.941	706
255.004	323
255.067	390
255.129	-42
255.192	423
255.255	-1052
255.317	492
255.380	850
255.443	347
255.505	1089
255.568	-249
255.631	-225
255.693	68
255.756	-175
255.819	1786
255.881	1126
255.944	653
256.006	-1167
256.069	553
256.132	362
256.194	-330
256.257	1102
256.319	742
256.382	355
256.444	2529
256.507	1921
256.569	489
256.632	559
256.694	-1083
256.757	320
256.819	1244
256.882	-774
256.944	410
257.007	1123
257.069	-86
257.132	-367
257.194	728
257.257	-1027
257.319	-883
257.381	-916
257.444	1416
257.506	1218
257.569	704
257.631	798
257.693	193
257.756	-156
257.818	-654
257.880	-352
257.943	657
258.005	-289
258.067	251
258.130	-146
258.192	482
258.254	-14
258.317	-359
258.379	-354
258.441	289
258.503	326
258.566	452
258.628	984
258.690	-785
258.753	835
258.815	360
258.877	-416
258.939	845
259.001	353
259.064	328
259.126	-645
259.188	117
259.250	1092
259.312	250
259.375	596
259.437	416
259.499	-176
259.561	150
259.623	388
259.685	-86
259.747	-319
259.809	624
259.872	620
259.934	593
259.996	1036
260.058	172
260.120	718
260.182	667
260.244	422
260.306	211
260.368	-180
260.430	303
260.492	533
260.554	1131
260.616	263
260.678	336
260.740	-670
260.802	45
260.864	923
260.926	-1125
260.988	1463
261.050	81
261.112	288
261.174	1527
261.236	481
261.298	583
261.359	353
261.421	1329
261.483	396
261.545	1608
261.607	-747
261.669	1250
261.731	252
261.793	968
261.854	-433
261.916	1026
261.978	-269
262.040	594
262.102	1344
262.164	-75
262.225	848
262.287	324
262.349	-865
262.411	535
262.472	808
262.534	127
262.596	37
262.658	1380
262.719	-193
262.781	1731
262.843	-552
262.904	534
262.966	539
263.028	71
263.090	637
263.151	-22
263.213	372
263.275	455
263.336	430
263.398	1030
263.459	-463
263.521	483
263.583	319
263.644	357
263.706	339
263.767	734
263.829	887
263.891	255
263.952	565
264.014	281
264.075	163
264.137	103
264.198	957
264.260	-650
264.321	207
264.383	-44
264.444	546
264.506	528
264.567	788
264.629	991
264.690	-1037
264.752	117
264.813	1049
264.875	-472
264.936	1620
264.998	481
265.059	411
265.120	1572
265.182	233
265.243	405
265.305	638
265.366	1335
265.427	481
265.489	1951
265.550	-295
265.611	902
265.673	275
265.734	296
265.795	367
265.857	-320
265.918	-59
265.979	858
266.040	-36
266.102	260
266.163	877
266.224	236
266.286	-26
266.347	-185
266.408	8
266.469	743
266.530	733
266.592	583
266.653	555
266.714	497
266.775	969
266.836	412
266.898	-153
266.959	550
267.020	7
267.081	698
267.142	878
267.203	176
267.264	-804
267.326	1528
267.387	-21
267.448	-418
267.509	-172
267.570	121
267.631	-613
267.692	-309
267.753	799
267.814	-300
267.875	203
267.936	178
267.997	-243
268.058	-65
268.119	-403
268.180	890
268.241	395
268.302	710
268.363	342
268.424	-174
268.485	37
268.546	-98
268.607	1229
268.668	575
268.729	456
268.790	527
268.851	77
268.912	379
268.972	58
269.033	208
269.094	-305
269.155	1162
269.216	609
269.277	776
269.338	676
269.398	1279
269.459	496
269.520	212
269.581	137
269.642	828
269.702	47
269.763	388
269.824	216
269.885	417
269.945	272
270.006	803
270.067	-179
270.128	-273
270.188	-71
270.249	-608
270.310	954
270.370	988
270.431	541
270.492	655
270.553	628
270.613	794
270.674	1159
270.734	455
270.795	325
270.856	621
270.916	87
270.977	107
271.038	676
271.098	560
271.159	313
271.219	633
271.280	1225
271.340	1238
271.401	995
271.462	1106
271.522	397
271.583	758
271.643	1208
271.704	154
271.764	772
271.825	1500
271.885	2197
271.946	3456
272.006	873
272.066	1696
272.127	4250
272.187	8203
272.248	4821
272.308	1703
272.369	2282
272.429	1720
272.489	1563
272.550	1092
272.610	1672
272.671	950
272.731	1577
272.791	830
272.852	-112
272.912	1326
272.972	733
273.033	642
273.093	243
273.153	1399
273.214	586
273.274	807
273.334	924
273.394	1916
273.455	855
273.515	1023
273.575	934
273.635	1612
273.696	1880
273.756	1802
273.816	1619
273.876	1225
273.936	1395
273.997	1048
274.057	-8
274.117	903
274.177	1319
274.237	2510
274.297	1560
274.358	611
274.418	1642
274.478	1491
274.538	799
274.598	283
274.658	1116
274.718	1007
274.778	1081
274.838	1044
274.898	573
274.958	1864
275.018	1398
275.078	2025
275.138	856
275.198	886
275.258	1074
275.318	1458
275.378	992
275.438	367
275.498	992
275.558	1635
275.618	1410
275.678	1413
275.738	2167
275.798	1476
275.858	217
275.918	1328
275.978	1056
276.038	1749
276.098	709
276.157	1343
276.217	2105
276.277	1552
276.337	1069
276.397	1477
276.457	1301
276.517	1461
276.576	1498
276.636	1035
276.696	1343
276.756	1270
276.815	413
276.875	952
276.935	996
276.995	882
277.055	2375
277.114	2667
277.174	1241
277.234	902
277.293	1629
277.353	583
277.413	394
277.472	356
277.532	771
277.592	1558
277.651	1471
277.711	2371
277.771	1670
277.830	3597
277.890	2804
277.950	2135
278.009	7773
278.069	4699
278.128	2833
278.188	3354
278.248	1961
278.307	3272
278.367	2976
278.426	2076
278.486	1688
278.545	1440
278.605	1147
278.664	1229
278.724	1363
278.783	1686
278.843	3007
278.902	1923
278.962	1596
279.021	763
279.081	1939
279.140	1063
279.199	454
279.259	1842
279.318	1933
279.378	2190
279.437	2679
279.496	8802
279.556	16097
279.615	12930
279.675	3743
279.734	3010
279.793	3879
279.853	8029
279.912	4304
279.971	3508
280.031	3404
280.090	4066
280.149	7181
280.208	2893
280.268	8585
280.327	9671
280.386	2765
280.445	1682
280.505	1538
280.564	1374
280.623	1021
280.682	2071
280.742	2300
280.801	1254
280.860	1168
280.919	1448
280.978	1628
281.037	1236
281.097	590
281.156	2027
281.215	1535
281.274	1258
281.333	1754
281.392	1089
281.451	1150
281.510	1626
281.569	1080
281.628	1109
281.688	1203
281.747	1548
281.806	1912
281.865	1574
281.924	674
281.983	1558
282.042	1427
282.101	1298
282.160	1516
282.219	1755
282.278	1939
282.337	727
282.396	663
282.454	1756
282.513	1922
282.572	2145
282.631	1556
282.690	1921
282.749	337
282.808	1041
282.867	1642
282.926	1286
282.985	2094
283.043	285
283.102	1316
283.161	870
283.220	1707
283.279	2167
283.338	1672
283.396	773
283.455	1283
283.514	2079
283.573	1034
283.631	1798
283.690	1347
283.749	1392
283.808	1104
283.866	2063
283.925	1657
283.984	2132
284.043	1455
284.101	1088
284.160	452
284.219	1496
284.277	1378
284.336	1472
284.395	2429
284.453	1695
284.512	2079
284.570	1758
284.629	1209
284.688	2125
284.746	1327
284.805	1894
284.863	1830
284.922	3326
284.981	3653
285.039	4497
285.098	6767
285.156	15001
285.215	36456
285.273	40837
285.332	19289
285.390	9566
285.449	6199
285.507	4202
285.566	3257
285.624	3347
285.683	2996
285.741	2338
285.799	1908
285.858	1828
285.916	1383
285.975	1841
286.033	1592
286.091	1918
286.150	1874
286.208	1718
286.267	2262
286.325	1658
286.383	1062
286.442	2405
286.500	936
286.558	2093
286.616	1391
286.675	2441
286.733	1803
286.791	1176
286.850	1184
286.908	2745
286.966	2289
287.024	1958
287.083	1886
287.141	2319
287.199	2020
287.257	2466
287.315	2285
287.374	2458
287.432	1598
287.490	1849
287.548	453
287.606	1781
287.664	2055
287.723	1410
287.781	1783
287.839	1762
287.897	1541
287.955	2206
288.013	1581
288.071	1804
288.129	3254
288.187	6383
288.245	4536
288.303	2275
288.361	1378
288.419	1317
288.477	1757
288.535	2017
288.593	1661
288.651	1451
288.709	1439
288.767	1073
288.825	1260
288.883	2230
288.941	1337
288.999	1478
289.057	1677
289.115	1210
289.173	1972
289.231	2402
289.289	1768
289.346	2138
289.404	1919
289.462	2721
289.520	2119
289.578	2222
289.636	1410
289.694	1506
289.751	1959
289.809	1858
289.867	2593
289.925	3239
289.983	2019
290.040	2143
290.098	2230
290.156	1662
290.214	1775
290.271	1509
290.329	3076
290.387	2166
290.444	1579
290.502	2088
290.560	1781
290.617	2435
290.675	1914
290.733	2540
290.790	2046
290.848	2100
290.906	1866
290.963	1864
291.021	2092
291.078	1979
291.136	2002
291.194	1941
291.251	1636
291.309	1513
291.366	2032
291.424	2414
291.481	2167
291.539	1718
291.596	1921
291.654	2014
291.711	1605
291.769	1895
291.826	1732
291.884	3045
291.941	1083
291.999	1732
292.056	1976
292.114	1825
292.171	1819
292.228	2275
292.286	2877
292.343	2156
292.401	2055
292.458	1932
292.515	1738
292.573	2596
292.630	2356
292.687	1761
292.745	2001
292.802	1865
292.859	1916
292.917	2252
292.974	2996
293.031	1913
293.089	2121
293.146	2407
293.203	2191
293.260	2127
293.318	1730
293.375	2901
293.432	1600
293.489	2264
293.546	2345
293.604	2480
293.661	3071
293.718	3970
293.775	3531
293.832	2638
293.889	2059
293.947	2138
294.004	2116
294.061	2976
294.118	1082
294.175	2970
294.232	2738
294.289	2384
294.346	2246
294.403	2382
294.460	2423
294.517	2155
294.574	1616
294.631	2145
294.688	2562
294.745	2641
294.802	4653
294.859	2987
294.916	2714
294.973	1998
295.030	2214
295.087	2136
295.144	1588
295.201	2810
295.258	2015
295.315	2354
295.372	2791
295.429	3347
295.486	2439
295.542	1433
295.599	1929
295.656	1825
295.713	1874
295.770	3066
295.827	1959
295.883	2591
295.940	1990
295.997	2796
296.054	1935
296.111	1900
296.167	2632
296.224	1796
296.281	1854
296.338	2195
296.394	2031
296.451	1815
296.508	2140
296.564	2347
296.621	2742
296.678	4287
296.734	5444
296.791	3063
296.848	2149
296.904	2523
296.961	2190
297.018	3342
297.074	2629
297.131	2678
297.187	2591
297.244	2598
297.301	3213
297.357	5511
297.414	2629
297.470	3604
297.527	2059
297.583	1976
297.640	2376
297.696	2670
297.753	2024
297.809	1709
297.866	942
297.922	2134
297.979	1724
298.035	1262
298.092	1603
298.148	2986
298.204	2896
298.261	2046
298.317	2663
298.374	4871
298.430	3872
298.486	2468
298.543	1864
298.599	1957
298.656	1356
298.712	2032
298.768	2739
298.824	1556
298.881	1515
298.937	2496
298.993	2373
299.050	2324
299.106	1971
299.162	2677
299.218	2874
299.275	1665
299.331	2450
299.387	3855
299.443	7719
299.500	17856
299.556	17574
299.612	8974
299.668	7057
299.724	14944
299.780	21490
299.837	10006
299.893	7141
299.949	12159
300.005	19697
300.061	16319
300.117	23878
300.173	12582
300.229	5728
300.285	4340
300.341	4654
300.397	3951
300.453	3171
300.510	4527
300.566	4980
300.622	8480
300.678	23505
300.734	33693
300.790	16562
300.845	11018
300.901	14474
300.957	22449
301.013	11895
301.069	5836
301.125	4324
301.181	3142
301.237	4042
301.293	3095
301.349	3442
301.405	3242
301.461	1726
301.516	2607
301.572	2577
301.628	2266
301.684	1984
301.740	2010
301.796	2170
301.851	3022
301.907	2313
301.963	3426
302.019	4195
302.074	9130
302.130	11024
302.186	5786
302.242	3200
302.297	2247
302.353	2974
302.409	2536
302.464	2355
302.520	2436
302.576	2633
302.631	3299
302.687	2528
302.743	2848
302.798	2314
302.854	2365
302.910	1682
302.965	2510
303.021	2589
303.076	3319
303.132	1512
303.187	2405
303.243	1456
303.299	2486
303.354	1653
303.410	2518
303.465	1467
303.521	1986
303.576	2041
303.632	2247
303.687	2265
303.743	4219
303.798	4226
303.853	2457
303.909	1693
303.964	1964
304.020	2332
304.075	1818
304.130	1851
304.186	2465
304.241	3259
304.297	2944
304.352	2033
304.358	2092
304.407	2565
304.449	2475
304.463	2447
304.518	2024
304.539	1827
304.573	1489
304.629	1625
304.630	1645
304.684	2494
304.720	2806
304.739	2938
304.794	4737
304.811	4580
304.850	4150
304.902	2678
304.905	2590
304.960	2391
304.992	2512
305.015	2543
305.071	1787
305.083	1884
305.126	2270
305.173	2078
305.181	2052
305.236	2017
305.264	2117
305.292	2220
305.347	2566
305.354	2606
305.402	2834
305.445	2430
305.457	2329
305.512	2864
305.535	2676
305.567	2334
305.622	2414
305.626	2414
305.678	2594
305.716	3095
305.733	3300
305.788	3994
305.807	3939
305.843	3957
305.897	4197
305.898	4195
305.953	5095
305.988	4162
306.008	3679
306.063	2693
306.078	2627
306.118	2611
306.168	2935
306.173	2959
306.228	2701
306.259	2934
306.283	3164
306.338	2397
306.349	2435
306.393	2509
306.440	3080
306.448	3195
306.503	3417
306.530	2979
306.558	2597
306.613	2493
306.620	2508
306.668	2761
306.711	3602
306.723	3702
306.778	3341
306.801	3325
306.833	3496
306.888	2829
306.892	2846
306.943	3153
306.982	2949
306.997	2885
307.052	3284
307.072	3229
307.107	3132
307.162	2819
307.163	2813
307.217	2845
307.253	2851
307.272	2790
307.327	2679
307.343	2752
307.381	3049
307.434	2900
307.436	2907
307.491	3042
307.524	2888
307.546	2731
307.600	3710
307.614	3689
307.655	3339
307.704	3018
307.710	3052
307.765	2816
307.795	2987
307.819	2948
307.874	2954
307.885	2908
307.929	2966
307.975	3860
307.984	4049
308.038	4172
308.065	4077
308.093	4389
308.148	5887
308.156	6272
308.202	8713
308.246	11049
308.257	10930
308.312	7201
308.336	5572
308.366	4801
308.421	3881
308.426	3797
308.475	2959
308.517	2658
308.530	2702
308.585	3306
308.607	3195
308.639	2977
308.694	3218
308.697	3203
308.748	2922
308.787	2965
308.803	3062
308.857	3069
308.877	3081
308.912	3026
308.967	3178
308.967	3168
309.021	3745
309.058	3864
309.076	3925
309.130	5622
309.148	5868
309.185	9338
309.238	15337
309.239	15389
309.293	17696
309.328	16650
309.348	14752
309.402	8360
309.418	6733
309.457	5800
309.508	4934
309.511	4923
309.566	5373
309.598	5611
309.620	5972
309.674	6892
309.688	7108
309.729	6836
309.778	6246
309.783	6231
309.837	5882
309.868	5538
309.892	5537
309.946	5623
309.959	5769
310.001	6397
310.049	6611
310.055	6513
310.109	5587
310.139	4946
310.163	4767
310.218	4643
310.229	4558
310.272	4847
310.319	5479
310.326	5448
310.381	4577
310.409	4307
310.435	4654
310.489	5253
310.499	5360
310.543	5387
310.589	5192
310.598	5239
310.652	5638
310.679	5806
310.706	5983
310.760	6135
310.769	6159
310.814	6117
310.859	6045
310.868	6084
310.923	6046
310.948	6059
310.977	6548
311.031	7493
311.038	7606
311.085	6953
311.128	6088
311.139	6192
311.193	6875
311.218	7115
311.247	6839
311.301	6249
311.308	6163
311.356	6427
311.398	6590
311.410	6674
311.464	7020
311.488	7112
311.518	6803
311.572	6321
311.578	6240
311.626	6531
311.668	6780
311.680	6838
311.734	6934
311.758	6971
311.788	7195
311.842	7600
311.847	7614
311.896	7500
311.937	7384
311.950	7405
312.004	7378
312.027	7356
312.058	7287
312.112	7114
312.117	7073
312.165	7169
312.207	7210
312.297	7530
312.386	7235
312.476	7623
312.566	7948
312.656	8724
312.745	7894
312.835	8576
312.925	8594
313.015	8935
313.104	9334
313.194	10634
313.284	10506
313.374	10415
313.463	11028
313.553	11800
313.643	12489
313.732	12868
313.822	12468
313.912	14057
314.001	14551
314.091	14560
314.180	14780
314.270	15149
314.360	14982
314.449	14189
314.539	14409
314.628	15553
314.718	15020
314.808	15416
314.897	15987
314.987	18041
315.076	17497
315.166	17986
315.255	16380
315.345	16649
315.434	14507
315.524	15504
315.613	16549
315.703	17610
315.792	30123
315.881	78902
315.971	36854
316.060	18188
316.150	15382
316.239	15146
316.328	16243
316.418	17243
316.507	19433
316.597	21281
316.686	21928
316.775	19613
316.865	18759
316.954	16723
317.043	16080
317.133	13553
317.222	13768
317.311	12792
317.400	11388
317.490	13266
317.579	13063
317.668	15029
317.757	18974
317.847	40477
317.936	115395
318.025	47379
318.114	37005
318.203	24774
318.293	17574
318.382	26053
318.471	29380
318.560	24518
318.649	19834
318.738	15220
318.828	13339
318.917	11141
319.006	10852
319.095	9942
319.184	11576
319.273	11662
319.362	10838
319.451	11054
319.540	11130
319.629	11787
319.718	11743
319.807	11952
319.896	12101
319.985	13315
320.074	14021
320.163	13959
320.252	13870
320.341	14022
320.430	15637
320.519	17826
320.608	18292
320.697	20566
320.786	22164
320.875	24831
320.964	26439
321.053	27323
321.142	29250
321.230	31732
321.319	33557
321.408	36200
321.497	34573
321.586	31873
321.675	28294
321.764	28362
321.852	28805
321.941	31504
322.030	30240
322.119	32160
322.207	35794
322.296	39019
322.385	41909
322.474	44974
322.562	45779
322.651	37467
322.740	32409
322.829	29337
322.917	25806
323.006	23101
323.095	23416
323.183	21375
323.272	19897
323.361	19600
323.449	18600
323.538	17058
323.626	17251
323.715	17395
323.804	15799
323.892	16004
323.981	15197
324.069	15347
324.158	14633
324.246	14523
324.335	14170
324.424	14720
324.512	14175
324.601	14342
324.689	13394
324.778	13102
324.866	13542
324.954	12532
325.043	12008
325.131	11735
325.220	12401
325.308	12024
325.397	12478
325.485	12011
325.574	11982
325.662	11457
325.750	11122
325.839	12655
325.927	11357
326.015	11596
326.104	11032
326.192	10276
326.280	11024
326.369	10747
326.457	10657
326.545	11402
326.634	11241
326.722	11387
326.810	11229
326.898	14442
326.987	13801
327.075	12733
327.163	14484
327.251	12294
327.340	13636
327.428	16508
327.516	20811
327.604	18197
327.692	16156
327.781	13419
327.869	11617
327.957	10318
328.045	9430
328.133	10493
328.221	9879
328.309	10627
328.397	10692
328.485	12386
328.574	17397
328.662	24108
328.750	20242
328.838	15653
328.926	13759
329.014	12174
329.102	11289
329.190	11645
329.278	9774
329.366	11052
329.454	10732
329.542	10087
329.630	9259
329.718	11088
329.806	9327
329.893	10364
329.981	8488
330.069	10338
330.157	11166
330.245	12849
330.333	10792
330.421	10053
330.509	10153
330.597	10346
330.684	10703
330.772	10162
330.860	9854
330.948	9384
331.036	10191
331.123	9386
331.211	10529
331.299	10423
331.387	11170
331.475	9669
331.562	10770
331.650	10818
331.738	10751
331.825	10285
331.913	10471
332.001	10845
332.089	11265
332.176	11367
332.264	10773
332.352	10605
332.439	11799
332.527	10900
332.614	11319
332.702	12121
332.790	11719
332.877	12637
332.965	12856
333.052	13492
333.140	13698
333.228	14478
333.315	14465
333.403	14160
333.490	15880
333.578	15964
333.665	18729
333.753	19421
333.840	20034
333.928	23584
334.015	26859
334.103	31646
334.190	39091
334.278	47440
334.365	58835
334.452	59967
334.540	50343
334.627	53054
334.715	62512
334.802	76744
334.889	98932
334.977	111013
335.064	85230
335.151	56508
335.239	44662
335.326	40918
335.413	40437
335.501	40101
335.588	45434
335.675	51007
335.762	60527
335.850	74981
335.937	96643
336.024	124376
336.111	152188
336.199	135909
336.286	84176
336.373	57324
336.460	42742
336.547	35657
336.635	31422
336.722	26923
336.809	24201
336.896	22391
336.983	21791
337.070	20576
337.157	19736
337.245	19206
337.332	19772
337.419	19553
337.506	18889
337.593	18252
337.680	17583
337.767	17453
337.854	16371
337.941	15511
338.028	15120
338.115	14996
338.202	16867
338.289	17078
338.376	14700
338.463	14445
338.550	13635
338.637	13437
338.724	12669
338.811	13257
338.898	13965
338.984	13021
339.071	12178
339.158	13911
339.245	12485
339.332	12789
339.419	11848
339.506	12914
339.593	12763
339.679	13290
339.766	12962
339.853	12220
339.940	12510
340.027	12453
340.113	11795
340.200	11620
340.287	11191
340.374	11148
340.460	10852
340.547	10155
340.634	11769
340.720	12268
340.807	10815
340.894	11616
340.980	11484
341.067	11596
341.154	11757
341.240	12083
341.327	12402
341.414	12411
341.500	11551
341.587	12930
341.674	11975
341.760	12483
341.847	12165
341.933	11387
342.020	10658
342.106	11674
342.193	11335
342.279	11137
342.366	10681
342.452	12198
342.539	10358
342.625	11142
342.712	12327
342.798	10717
342.885	9873
342.971	11115
343.058	11646
343.144	10779
343.230	11277
343.317	11542
343.403	10477
343.490	11674
343.576	10047
343.662	11450
343.749	10772
343.835	11186
343.921	11570
344.008	17999
344.094	28109
344.180	13681
344.267	11082
344.353	11819
344.439	12670
344.525	10323
344.612	11210
344.698	10523
344.784	10126
344.870	10752
344.957	10186
345.043	11318
345.129	10589
345.215	10914
345.301	10895
345.387	11161
345.474	10302
345.560	10037
345.646	9631
345.732	11259
345.818	10333
345.904	10299
345.990	10552
346.076	10299
346.162	10860
346.249	11060
346.335	10084
346.421	11285
346.507	11670
346.593	14739
346.679	11382
346.765	14410
346.851	21908
346.937	20074
347.023	16076
347.108	12638
347.194	11790
347.280	13046
347.366	16565
347.452	35590
347.538	50209
347.624	30819
347.710	18799
347.796	14642
347.882	13920
347.967	12198
348.053	11938
348.139	12208
348.225	12248
348.311	11499
348.397	12219
348.482	13791
348.568	14442
348.654	20278
348.740	49898
348.825	64652
348.911	36401
348.997	22188
349.083	20545
349.168	14240
349.254	12846
349.340	12618
349.425	13022
349.511	12622
349.597	12754
349.682	12805
349.768	14476
349.854	12761
349.939	11461
350.025	12476
350.110	11931
350.196	12935
350.282	11246
350.367	12101
350.453	12890
350.538	11933
350.624	10832
350.709	12298
350.795	10696
350.880	10784
350.966	13108
351.051	11763
351.137	10761
351.222	11813
351.308	12693
351.393	13174
351.479	11693
351.564	11497
351.649	12043
351.735	11655
351.820	11151
351.906	10568
351.991	10913
352.076	11322
352.162	11839
352.247	11402
352.332	11044
352.418	11177
352.503	10596
352.588	13366
352.673	11468
352.759	11144
352.844	11241
352.929	11151
353.014	10238
353.100	11643
353.185	13479
353.270	11731
353.355	11117
353.441	11220
353.526	10352
353.611	10972
353.696	9729
353.781	11899
353.866	9841
353.952	12225
354.037	10914
354.122	11643
354.207	10597
354.292	11012
354.377	10623
354.462	11016
354.547	10828
354.632	11188
354.717	12230
354.802	13377
354.887	11183
354.972	11120
355.057	11449
355.142	10237
355.227	11131
355.312	10071
355.397	10514
355.482	11575
355.567	10894
355.652	12185
355.737	10896
355.822	13564
355.907	12390
355.991	12816
356.076	10671
356.161	12286
356.246	11329
356.331	12415
356.416	12079
356.501	18775
356.585	17153
356.670	12295
356.755	14340
356.840	13502
356.924	18675
357.009	29570
357.094	17332
357.179	11878
357.263	12320
357.348	12992
357.433	12648
357.517	12907
357.602	12170
357.687	12398
357.771	14754
357.856	12938
357.941	13324
358.025	16194
358.110	36202
358.195	21476
358.279	12874
358.364	12906
358.448	14623
358.533	17350
358.617	14542
358.702	15903
358.787	13813
358.871	12908
358.956	13217
359.040	12989
359.125	12569
359.209	13796
359.294	15141
359.378	24023
359.462	22409
359.547	15580
359.631	13262
359.716	13206
359.800	13009
359.885	13738
359.969	12401
360.053	13578
360.138	13867
360.222	12888
360.306	13358
360.391	14158
360.475	14077
360.559	14608
360.644	14586
360.728	14778
360.812	18383
360.896	24150
360.981	17042
361.065	15269
361.149	16721
361.233	16622
361.318	16634
361.402	17423
361.486	19408
361.570	19503
361.654	21066
361.739	22340
361.823	28920
361.907	38059
361.991	33294
362.075	40697
362.159	56231
362.243	90359
362.327	160240
362.411	187976
362.495	98955
362.580	67135
362.664	66994
362.748	81850
362.832	116655
362.916	190822
363.000	315054
363.084	334312
363.168	184652
363.252	92548
363.336	61651
363.420	50309
363.503	44452
363.587	40668
363.671	41804
363.755	44217
363.839	50703
363.923	58003
364.007	71527
364.091	97137
364.175	142040
364.258	229631
364.342	358485
364.426	421933
364.510	288127
364.594	149579
364.677	88505
364.761	64308
364.845	50345
364.929	37247
365.013	32051
365.096	28410
365.180	24602
365.264	24183
365.347	23053
365.431	19833
365.515	19266
365.598	18875
365.682	21200
365.766	18745
365.849	19303
365.933	20038
366.017	20134
366.100	19484
366.184	19077
366.267	20913
366.351	18813
366.435	18794
366.518	18605
366.602	17727
366.685	18177
366.769	17808
366.852	18004
366.936	17683
367.019	17822
367.103	16830
367.186	18400
367.270	16941
367.353	17264
367.436	20798
367.520	20364
367.603	20883
367.687	19343
367.770	18538
367.853	19652
367.937	20341
368.020	20090
368.104	16043
368.187	16954
368.270	15541
368.353	15841
368.437	15218
368.520	15452
368.603	14801
368.687	14460
368.770	17256
368.853	14787
368.936	15370
369.020	15262
369.103	15163
369.186	14865
369.269	14038
369.352	14384
369.436	13193
369.519	13642
369.602	12492
369.685	15492
369.768	12874
369.851	14407
369.934	13083
370.018	12252
370.101	12471
370.184	16045
370.267	15212
370.350	14140
370.433	15212
370.516	24313
370.599	50044
370.682	29213
370.765	19044
370.848	16551
370.931	17322
371.014	16282
371.097	13002
371.180	14604
371.263	13838
371.346	12571
371.429	14130
371.511	13050
371.594	12380
371.677	13654
371.760	14435
371.843	13149
371.926	21202
372.009	35075
372.091	20822
372.174	15124
372.257	20627
372.340	16892
372.423	14508
372.505	16434
372.588	14011
372.671	15448
372.754	15593
372.836	15535
372.919	14611
373.002	16209
373.085	14228
373.167	15746
373.250	15254
373.332	19539
373.415	26121
373.498	41207
373.580	31201
373.663	68794
373.746	75508
373.828	26335
373.911	20003
373.993	16541
374.076	17874
374.159	17025
374.241	17944
374.324	20270
374.406	20721
374.489	21571
374.571	34673
374.654	23347
374.736	21687
374.819	26495
374.901	33285
374.983	34120
375.066	20615
375.148	20046
375.231	20255
375.313	21482
375.395	22382
375.478	21684
375.560	21507
375.643	20481
375.725	20711
375.807	29598
375.890	27191
375.972	18361
376.054	19035
376.136	17615
376.219	16540
376.301	19324
376.383	23905
376.465	18933
376.548	16224
376.630	17123
376.712	21282
376.794	16722
376.877	15326
376.959	13318
377.041	14551
377.123	13814
377.205	14594
377.287	13576
377.369	15413
377.452	15120
377.534	14959
377.616	15778
377.698	14800
377.780	14929
377.862	15003
377.944	14861
378.026	13465
378.108	14866
378.190	15244
378.272	14234
378.354	14872
378.436	13611
378.518	12863
378.600	13541
378.682	13955
378.764	14837
378.846	14729
378.928	13285
379.010	12614
379.091	14064
379.173	14043
379.255	12631
379.337	13285
379.419	13412
379.501	17166
379.583	13695
379.664	13537
379.746	13234
379.828	15122
379.910	15260
379.991	15475
380.073	12890
380.155	13022
380.237	12186
380.318	12385
380.400	13272
380.482	13486
380.564	12981
380.645	14336
380.727	13463
380.809	13491
380.890	13266
380.972	11582
381.053	13138
381.135	13143
381.217	12746
381.298	14941
381.380	12977
381.461	13641
381.543	17787
381.624	19067
381.706	14064
381.787	14055
381.869	15001
381.951	16300
382.032	29514
382.113	24449
382.195	13093
382.276	15550
382.358	15471
382.439	20388
382.521	21976
382.602	28782
382.684	18853
382.765	20683
382.846	24982
382.928	32159
383.009	24741
383.090	23661
383.172	46755
383.253	57605
383.334	29945
383.416	27470
383.497	21898
383.578	19650
383.659	24495
383.741	48804
383.822	87582
383.903	50254
383.984	27632
384.066	29016
384.147	24173
384.228	22625
384.309	24095
384.390	26603
384.471	26102
384.553	23009
384.634	22381
384.715	22250
384.796	18739
384.877	19081
384.958	20975
385.039	20280
385.120	18197
385.201	19477
385.282	20430
385.363	22361
385.444	22002
385.525	24488
385.606	28845
385.687	28085
385.768	25433
385.849	24608
385.930	32414
386.011	41917
386.092	27888
386.173	26510
386.254	24774
386.335	26354
386.416	24507
386.496	25032
386.577	26803
386.658	25148
386.739	25702
386.820	26437
386.901	25761
386.981	26964
387.062	30001
387.143	32672
387.224	35966
387.304	38074
387.385	39347
387.466	38257
387.547	40436
387.627	40919
387.708	42048
387.789	44678
387.869	42435
387.950	37356
388.031	34736
388.111	30826
388.192	32274
388.273	31872
388.353	29172
388.434	26139
388.514	26417
388.595	31156
388.676	31042
388.756	26596
388.837	25757
388.917	23041
388.998	21119
389.078	22547
389.159	22228
389.239	20483
389.320	23303
389.400	19750
389.480	21844
389.561	22924
389.641	23077
389.722	20880
389.802	20419
389.883	22127
389.963	24849
390.043	22000
390.124	20465
390.204	22171
390.284	21806
390.365	21174
390.445	21456
390.525	21011
390.605	21036
390.686	20879
390.766	22640
390.846	23302
390.927	21312
391.007	20706
391.087	22339
391.167	22944
391.247	22852
391.328	24927
391.408	24208
391.488	25256
391.568	23684
391.648	26266
391.728	27944
391.808	30097
391.888	29251
391.969	31414
392.049	32925
392.129	35277
392.209	35690
392.289	42755
392.369	41769
392.449	45463
392.529	48898
392.609	55140
392.689	62838
392.769	72326
392.849	88244
392.929	109420
393.009	143161
393.089	193144
393.169	296225
393.248	448388
393.328	562892
393.408	549020
393.488	448667
393.568	292427
393.648	187686
393.728	130642
393.807	95349
393.887	76730
393.967	64291
394.047	53880
394.127	46499
394.206	43275
394.286	40886
394.366	51075
394.446	52308
394.525	35190
394.605	32313
394.685	32192
394.764	35296
394.844	59568
394.924	85478
395.003	49695
395.083	32195
395.163	29669
395.242	27088
395.322	27633
395.402	26715
395.481	31461
395.561	37437
395.640	82770
395.720	172522
395.799	110005
395.879	49226
395.958	39080
396.038	40889
396.117	65134
396.197	72158
396.276	54838
396.356	58999
396.435	73602
396.515	96367
396.594	136195
396.673	229963
396.753	402569
396.832	531426
396.912	477735
396.991	293770
397.070	168760
397.150	110947
397.229	93195
397.308	139159
397.388	243509
397.467	156106
397.546	68228
397.625	45437
397.705	39356
397.784	33721
397.863	31138
397.942	29715
398.022	26921
398.101	23930
398.180	23830
398.259	22434
398.338	22946
398.417	20564
398.497	19794
398.576	20748
398.655	19038
398.734	19246
398.813	17506
398.892	18001
398.971	17203
399.050	16102
399.129	16410
399.208	16462
399.287	17431
399.366	14819
399.445	16034
399.524	16000
399.603	14077
399.682	15196
399.761	15126
399.840	14965
399.919	15287
399.998	14448
400.077	13088
400.156	12835
400.235	15962
400.313	13415
400.392	12458
400.471	14031
400.550	14458
400.629	12198
400.708	14101
400.786	11879
400.865	12297
400.944	10918
401.023	13443
401.102	11962
401.180	12038
401.259	11588
401.338	11752
401.416	12003
401.495	10634
401.574	11775
401.652	10573
401.731	12287
401.810	11141
401.888	10833
401.967	10148
402.046	10538
402.124	10923
402.203	11158
402.281	11655
402.360	10587
402.438	11564
402.517	10348
402.596	10957
402.674	10990
402.753	11118
402.831	13090
402.910	13780
402.988	17262
403.066	38700
403.145	26486
403.223	19348
403.302	33790
403.380	28128
403.459	29178
403.537	18356
403.615	15447
403.694	13293
403.772	14048
403.850	14002
403.929	13775
404.007	12471
404.085	16309
404.164	14074
404.242	12812
404.320	14060
404.398	13433
404.477	13784
404.555	20656
404.633	18804
404.711	13315
404.789	12988
404.868	12343
404.946	11102
405.024	11559
405.102	10432
405.180	10391
405.258	9266
405.336	11464
405.415	10341
405.493	11435
405.571	12345
405.649	11039
405.727	10721
405.805	13902
405.883	13845
405.961	12708
406.039	10989
406.117	9900
406.195	11258
406.273	10001
406.351	15623
406.429	13854
406.507	10476
406.585	10256
406.663	10989
406.740	10752
406.818	10213
406.896	9634
406.974	11769
407.052	9459
407.130	13474
407.208	14864
407.285	12541
407.363	11571
407.441	12868
407.519	12450
407.596	15218
407.674	32630
407.752	110487
407.830	83866
407.907	22470
407.985	14165
408.063	12351
408.141	10553
408.218	12021
408.296	10862
408.373	13749
408.451	14821
408.529	15061
408.606	15478
408.684	16895
408.762	16973
408.839	17466
408.917	18656
408.994	20738
409.072	22862
409.149	27786
409.227	36802
409.304	50587
409.382	57983
409.459	63885
409.537	78001
409.614	76172
409.692	68983
409.769	67835
409.846	81162
409.924	92946
410.001	79590
410.079	66808
410.156	55901
410.233	46249
410.311	39100
410.388	35566
410.465	31433
410.543	28256
410.620	28466
410.697	25471
410.775	25137
410.852	22870
410.929	24827
411.006	24543
411.083	22156
411.161	20799
411.238	21503
411.315	19003
411.392	18129
411.469	18260
411.547	18171
411.624	15855
411.701	15028
411.778	15512
411.855	14950
411.932	14495
412.009	13539
412.086	13719
412.163	14133
412.240	12812
412.317	13179
412.394	12452
412.471	13322
412.548	11960
412.625	13071
412.702	12514
412.779	12529
412.856	11926
412.933	11481
413.010	11147
413.087	12079
413.164	10985
413.241	11679
413.318	11374
413.395	11887
413.471	10919
413.548	10900
413.625	11457
413.702	9690
413.779	9895
413.855	10261
413.932	9865
414.009	9659
414.086	9991
414.162	10815
414.239	10285
414.316	10600
414.393	12682
414.469	9238
414.546	9381
414.623	10288
414.699	9270
414.776	9780
414.853	9148
414.929	9765
415.006	8951
415.082	9815
415.159	9110
415.236	9443
415.312	9536
415.389	9822
415.465	9753
415.542	9917
415.618	8115
415.695	9791
415.771	9510
415.848	10433
415.924	9192
416.000	9448
416.077	10357
416.153	9578
416.230	9001
416.306	8817
416.383	9564
416.459	9330
416.535	8386
416.612	9324
416.688	9575
416.764	9098
416.841	8979
416.917	8823
416.993	9625
417.069	8827
417.146	9718
417.222	10038
417.298	10287
417.374	8917
417.451	9999
417.527	10373
417.603	9915
417.679	9571
417.755	9842
417.831	9581
417.908	11151
417.984	10555
418.060	10148
418.136	10832
418.212	11341
418.288	11047
418.364	11437
418.440	10479
418.516	11459
418.592	11401
418.668	12561
418.744	12845
418.820	12621
418.896	11772
418.972	12382
419.048	11924
419.124	14075
419.200	12697
419.276	13912
419.352	13899
419.428	14979
419.504	14865
419.579	16514
419.655	15718
419.731	17387
419.807	17450
419.883	17966
419.959	18748
420.034	20083
420.110	20821
420.186	21046
420.262	23841
420.337	22566
420.413	25113
420.489	26394
420.565	28318
420.640	29657
420.716	31522
420.792	32443
420.867	36018
420.943	36264
421.019	40185
421.094	41552
421.170	45832
421.245	49529
421.321	53414
421.397	60316
421.472	82103
421.548	129442
421.623	109032
421.699	91563
421.774	101094
421.850	111072
421.925	130437
422.001	150963
422.076	176980
422.152	212491
422.227	251059
422.302	299710
422.378	340735
422.453	362777
422.529	312076
422.604	197962
422.679	120419
422.755	186194
422.830	307131
422.905	356484
422.981	349065
423.056	311130
423.131	265189
423.207	222674
423.282	187469
423.357	161772
423.432	139041
423.508	121900
423.583	105413
423.658	93661
423.733	85907
423.808	77690
423.883	74161
423.959	71118
424.034	73701
424.109	68084
424.184	57777
424.259	50655
424.334	45921
424.409	40916
424.484	38842
424.559	36133
424.634	34310
424.709	31247
424.784	30088
424.859	29019
424.934	26912
425.009	26481
425.084	26212
425.159	22849
425.234	23730
425.309	21156
425.384	21172
425.459	19909
425.534	20435
425.609	18625
425.683	18998
425.758	18825
425.833	17366
425.908	17982
425.983	17502
426.058	18489
426.132	16508
426.207	15856
426.282	16151
426.357	14653
426.431	15276
426.506	14907
426.581	13748
426.655	13863
426.730	13892
426.805	11747
426.879	13440
426.954	12516
427.029	12934
427.103	14909
427.178	16480
427.253	14449
427.327	11904
427.402	11794
427.476	11972
427.551	12078
427.625	12460
427.700	12441
427.774	12135
427.849	13564
427.923	13269
427.998	16697
428.072	20329
428.147	35150
428.221	99724
428.296	218345
428.370	143860
428.444	45203
428.519	22556
428.593	18762
428.667	19734
428.742	23685
428.816	49753
428.890	149667
428.965	203506
429.039	79186
429.113	26586
429.188	18162
429.262	15169
429.336	15039
429.410	14868
429.485	14548
429.559	16457
429.633	18276
429.707	23364
429.781	47183
429.855	142684
429.930	187022
430.004	83363
430.078	64475
430.152	134224
430.226	272840
430.300	266322
430.374	120601
430.448	52424
430.522	34733
430.596	33274
430.670	67439
430.744	177550
430.818	182174
430.892	60026
430.966	22689
431.040	15593
431.114	12803
431.188	11767
431.262	11144
431.336	10111
431.410	11872
431.484	11307
431.557	13882
431.631	16835
431.705	29235
431.779	84723
431.853	210119
431.927	156260
432.000	45231
432.074	18497
432.148	12849
432.222	10142
432.295	8817
432.369	7414
432.443	6424
432.516	7520
432.590	10823
432.664	7872
432.737	5743
432.811	5801
432.885	5995
432.958	6627
433.032	5373
433.106	5186
433.179	6975
433.253	6460
433.326	6072
433.400	5814
433.473	6388
433.547	5276
433.620	7296
433.694	6171
433.767	7311
433.841	6496
433.914	7630
433.988	6960
434.061	7442
434.134	7116
434.208	6277
434.281	6259
434.355	6299
434.428	6417
434.501	7075
434.575	6657
434.648	6496
434.721	7044
434.795	6888
434.868	6476
434.941	7326
435.014	8220
435.088	8524
435.161	10109
435.234	10706
435.307	12730
435.381	15437
435.454	22261
435.527	33221
435.600	37412
435.673	35544
435.746	30469
435.819	26533
435.892	22602
435.966	18145
436.039	16257
436.112	14572
436.185	12091
436.258	11415
436.331	9936
436.404	10733
436.477	9301
436.550	9594
436.623	8305
436.696	7964
436.769	7908
436.842	7380
436.915	7275
436.987	7022
437.060	6586
437.133	6419
437.206	5990
437.279	6471
437.352	5743
437.425	5129
437.498	5511
437.570	4984
437.643	4693
437.716	5628
437.789	5039
437.861	5082
437.934	5453
438.007	4730
438.080	4911
438.152	4724
438.225	4797
438.298	7807
438.370	13021
438.443	8271
438.516	5612
438.588	5690
438.661	5207
438.734	4932
438.806	5625
438.879	5773
438.951	5711
439.024	5289
439.096	4723
439.169	4789
439.241	4719
439.314	4835
439.386	3784
439.459	5339
439.531	5100
439.604	5655
439.676	5534
439.749	4553
439.821	4192
439.893	5818
439.966	4862
440.038	5300
440.110	6056
440.183	5307
440.255	4845
440.327	6068
440.400	6858
440.472	8698
440.544	7728
440.617	6096
440.689	7611
440.761	6410
440.833	5595
440.905	6758
440.978	5590
441.050	6754
441.122	6556
441.194	6407
441.266	6202
441.338	5727
441.411	7190
441.483	8066
441.555	8372
441.627	8366
441.699	8643
441.771	8033
441.843	9436
441.915	10446
441.987	10512
442.059	11689
442.131	14469
442.203	17498
442.275	24960
442.347	39468
442.419	79930
442.491	203843
442.563	305937
442.635	180077
442.706	67447
442.778	35593
442.850	26519
442.922	23647
442.994	24410
443.066	27166
443.137	33392
443.209	44676
443.281	67932
443.353	121601
443.425	241069
443.496	371985
443.568	386480
443.640	253671
443.711	113096
443.783	59130
443.855	38094
443.926	28441
443.998	22215
444.070	18865
444.141	18054
444.213	16111
444.285	15185
444.356	15114
444.428	13733
444.499	14374
444.571	15250
444.642	15977
444.714	17022
444.785	18514
444.857	20971
444.928	23407
445.000	29198
445.071	36113
445.143	48174
445.214	69596
445.285	110242
445.357	199812
445.428	331796
445.500	390601
445.571	404984
445.642	334093
445.714	185610
445.785	85940
445.856	48859
445.928	35300
445.999	26979
446.070	19933
446.141	18005
446.213	15702
446.284	13205
446.355	12150
446.426	10277
446.497	9535
446.569	8759
446.640	8362
446.711	8172
446.782	7444
446.853	7184
446.924	7336
446.995	5331
447.066	6155
447.138	5083
447.209	5845
447.280	3694
447.351	4254
447.422	4375
447.493	4508
447.564	4550
447.635	3218
447.706	3872
447.777	4771
447.847	3423
447.918	3361
447.989	4164
448.060	3520
448.131	3936
448.202	3471
448.273	3356
448.344	3587
448.414	3403
448.485	3928
448.556	3698
448.627	3473
448.698	3620
448.768	3698
448.839	2998
448.910	2933
448.981	3873
449.051	3124
449.122	2593
449.193	3679
449.263	3747
449.334	2591
449.405	2302
449.475	2987
449.546	4550
449.616	5013
449.687	5296
449.758	3585
449.828	3441
449.899	3007
449.969	2523
450.040	3248
450.110	3496
450.181	3250
450.251	3555
450.322	3246
450.392	3476
450.463	3997
450.533	3376
450.604	3456
450.674	4017
450.744	4990
450.815	4826
450.885	6754
450.955	6994
451.026	6788
451.096	5526
451.166	6841
451.237	7054
451.307	8525
451.377	7857
451.447	5909
451.518	5167
451.588	4375
451.658	4812
451.728	3985
451.799	3602
451.869	4304
451.939	3427
452.009	4452
452.079	3493
452.149	4840
452.219	5163
452.289	6428
452.360	6461
452.430	8207
452.500	10133
452.570	16430
452.640	32797
452.710	68789
452.780	81339
452.850	56243
452.920	33087
452.990	21941
453.060	14781
453.129	9760
453.199	8432
453.269	6998
453.339	6669
453.409	6362
453.479	5481
453.549	4244
453.619	4322
453.688	4279
453.758	4772
453.828	3825
453.898	2600
453.968	3444
454.037	3034
454.087	3305
454.107	3400
454.168	3840
454.177	3887
454.247	2809
454.249	2851
454.316	3477
454.330	3385
454.386	2978
454.411	2822
454.456	2449
454.492	2671
454.525	2870
454.574	3370
454.595	3557
454.655	2756
454.665	2611
454.734	3666
454.736	3706
454.804	4184
454.817	4139
454.873	3915
454.898	3880
454.943	3837
454.979	3880
455.013	3829
455.060	3585
455.082	3439
455.141	3181
455.152	3109
455.221	3770
455.222	3795
455.291	3991
455.303	4044
455.360	4229
455.384	4732
455.430	5349
455.465	4894
455.499	4467
455.546	3861
455.569	3582
455.627	3402
455.638	3321
455.707	3650
455.708	3671
455.777	3318
455.789	3524
455.846	4486
455.869	4317
455.916	3878
455.950	4124
455.985	4310
456.031	3928
456.054	3705
456.112	4651
456.124	4843
456.193	4877
456.193	4850
456.262	4967
456.274	5015
456.332	5224
456.355	5347
456.401	5408
456.436	5172
456.470	4925
456.516	4671
456.540	4524
456.597	5416
456.609	5572
456.678	6239
456.678	6213
456.747	6398
456.759	6214
456.817	5517
456.840	5559
456.886	5372
456.920	5881
456.955	6408
457.001	7010
457.024	7180
457.082	7128
457.093	7131
457.162	7598
457.163	7628
457.232	8067
457.243	8061
457.301	7839
457.324	8020
457.370	8486
457.405	9606
457.439	10940
457.485	11602
457.508	11996
457.566	14672
457.577	15624
457.646	22146
457.647	22303
457.715	46896
457.727	52599
457.784	93336
457.808	121124
457.853	155286
457.889	186114
457.922	188413
457.969	140360
457.991	141024
458.050	151915
458.060	156276
458.129	246246
458.130	249203
458.198	261016
458.211	245353
458.267	164988
458.292	122817
458.336	85264
458.372	74290
458.405	84859
458.453	113854
458.474	140494
458.533	239646
458.543	247970
458.611	368206
458.614	371165
458.680	267773
458.694	227202
458.749	131338
458.775	95679
458.818	59667
458.855	44978
458.887	35946
458.936	28150
458.955	25494
459.016	20111
459.024	19580
459.093	17467
459.097	17387
459.162	15468
459.177	14938
459.230	13522
459.257	13346
459.299	12639
459.338	12166
459.368	12183
459.418	11452
459.437	11089
459.499	10953
459.505	10903
459.574	10761
459.579	10704
459.643	9830
459.659	9921
459.711	10687
459.740	10489
459.780	9879
459.820	10041
459.849	10182
459.900	10420
459.917	10468
459.981	10216
459.986	10178
460.054	9696
460.061	9696
460.123	9564
460.141	9665
460.191	10340
460.222	10357
460.260	10035
460.302	10329
460.328	10871
460.382	11329
460.397	11695
460.462	14113
460.465	14596
460.534	26356
460.543	27965
460.602	74359
460.623	92726
460.671	143820
460.703	191142
460.739	176432
460.783	139005
460.808	117203
460.864	33455
460.876	26162
460.944	13741
460.945	13620
461.013	11272
461.024	10926
461.081	9756
461.104	9830
461.150	9814
461.184	9365
461.218	9422
461.264	9886
461.286	9820
461.345	8938
461.355	8824
461.423	9261
461.425	9254
461.491	8869
461.505	9008
461.559	9339
461.585	9007
461.628	8748
461.665	8805
461.696	8739
461.745	8711
461.764	8845
461.825	9175
461.832	9222
461.901	10276
461.905	10278
461.969	9356
461.985	9249
462.037	9478
462.065	9718
462.105	9550
462.145	9335
462.173	9563
462.225	9702
462.241	9565
462.305	9084
462.310	9160
462.378	10157
462.385	10327
462.446	10544
462.465	10496
462.514	9860
462.545	9471
462.582	9352
462.625	9293
462.650	9183
462.705	8877
462.718	8924
462.785	8954
462.786	8951
462.854	8717
462.865	8654
462.922	8929
462.945	9105
462.990	9369
463.025	9519
463.058	9488
463.104	9440
463.126	9358
463.184	9103
463.194	9082
463.262	8624
463.264	8620
463.330	9295
463.344	9390
463.398	9834
463.424	9987
463.466	9363
463.504	8833
463.533	9222
463.583	9653
463.601	9464
463.663	9023
463.669	9024
463.737	8934
463.743	8938
463.805	9135
463.823	9111
463.873	9894
463.903	10388
463.940	9808
463.982	8981
464.008	8853
464.062	8871
464.076	8967
464.142	9200
464.144	9206
464.211	8905
464.221	8908
464.279	9589
464.301	9783
464.347	9913
464.381	9897
464.414	9340
464.461	8752
464.482	8974
464.540	9373
464.550	9317
464.617	8911
464.620	8881
464.685	9826
464.699	10074
464.753	10103
464.779	10049
464.820	9925
464.859	9757
464.888	9469
464.938	9078
464.956	9478
465.018	10710
465.023	10693
465.091	10355
465.098	10304
465.158	9941
465.177	9808
465.226	9673
465.257	9590
465.293	9593
465.336	9423
465.361	9514
465.416	9877
465.428	10007
465.495	10572
465.496	10584
465.563	9879
465.575	9767
465.631	9625
465.654	9545
465.698	9853
465.734	10130
465.765	10316
465.813	10311
465.833	10237
465.893	10239
465.900	10333
465.968	10815
465.972	10833
466.035	10169
466.052	9980
466.102	9963
466.131	9930
466.170	9484
466.210	8931
466.237	9536
466.290	10777
466.304	10628
466.369	9718
466.372	9740
466.439	10003
466.449	10006
466.506	11031
466.528	11420
466.573	11366
466.607	11293
466.641	11271
466.687	11171
466.708	11313
466.766	11621
466.775	11579
466.842	11144
466.845	11103
466.909	11685
466.925	11805
466.977	11766
467.004	11717
467.044	12318
467.083	12879
467.111	12581
467.163	11950
467.178	12170
467.242	12979
467.245	12987
467.312	12689
467.321	12628
467.379	12915
467.400	12981
467.446	13486
467.480	13807
467.559	14828
467.638	14075
467.717	14235
467.796	16949
467.875	16706
467.955	18128
468.034	20610
468.113	22870
468.192	28186
468.271	36792
468.350	50110
468.429	66004
468.508	68137
468.588	44555
468.667	29932
468.746	21894
468.825	20202
468.904	17318
468.983	14923
469.062	15441
469.141	15454
469.220	13396
469.299	13601
469.378	12720
469.456	12966
469.535	13423
469.614	12967
469.693	12875
469.772	14541
469.851	12716
469.930	12850
470.009	13168
470.088	14118
470.166	14468
470.245	14873
470.324	14275
470.403	14510
470.482	14195
470.560	12477
470.639	12534
470.718	13315
470.797	13109
470.875	13206
470.954	12205
471.033	12994
471.111	12362
471.190	12420
471.269	11880
471.347	11971
471.426	13547
471.505	12402
471.583	11877
471.662	12657
471.740	12105
471.819	12764
471.898	11932
471.976	12437
472.055	12647
472.133	17052
472.212	22486
472.290	14708
472.369	11352
472.447	11478
472.526	12120
472.604	12502
472.683	12406
472.761	12497
472.839	12890
472.918	13517
472.996	12732
473.075	13195
473.153	14011
473.231	13958
473.310	13934
473.388	13444
473.466	13479
473.545	14549
473.623	13413
473.701	14332
473.780	14469
473.858	13484
473.936	15225
474.014	14605
474.093	18188
474.171	22044
474.249	16854
474.327	14288
474.405	13294
474.484	14981
474.562	14092
474.640	12985
474.718	12575
474.796	13343
474.874	14072
474.952	12978
475.030	11983
475.108	13125
475.187	12383
475.265	14249
475.343	13667
475.421	15091
475.499	12526
475.577	13505
475.655	12689
475.733	12786
475.811	11704
475.889	12069
475.966	12585
476.044	12770
476.122	12140
476.200	14321
476.278	12468
476.356	12887
476.434	12162
476.512	12717
476.590	13959
476.667	12681
476.745	11426
476.823	13181
476.901	12341
476.979	12730
477.056	12760
477.134	12560
477.212	12407
477.290	12222
477.367	12242
477.445	12830
477.523	10881
477.601	12346
477.678	12157
477.756	11704
477.834	11889
477.911	12148
477.989	12322
478.066	12621
478.144	11767
478.222	13521
478.299	17560
478.377	20625
478.454	18843
478.532	12538
478.609	12154
478.687	12410
478.764	12389
478.842	11985
478.919	12793
478.997	11980
479.074	11688
479.152	12095
479.229	13131
479.307	12368
479.384	11927
479.461	12633
479.539	12021
479.616	11919
479.694	11434
479.771	12676
479.848	11773
479.926	11013
480.003	12971
480.080	13254
480.157	12716
480.235	13084
480.312	14133
480.389	13775
480.467	13463
480.544	14381
480.621	15199
480.698	17105
480.775	15081
480.853	14950
480.930	14835
481.007	15690
481.084	26332
481.161	45656
481.238	27375
481.315	13842
481.392	14163
481.470	15671
481.547	15440
481.624	15275
481.701	15265
481.778	16683
481.855	16105
481.932	18443
482.009	18501
482.086	19587
482.163	23211
482.240	26708
482.317	27610
482.393	24754
482.470	21654
482.547	21367
482.624	19330
482.701	19681
482.778	18368
482.855	19149
482.932	20559
483.009	21510
483.085	27919
483.162	41452
483.239	39048
483.316	28130
483.393	27610
483.469	23913
483.546	20230
483.623	19836
483.699	18332
483.776	17326
483.853	16070
483.930	17115
484.006	16229
484.083	18173
484.160	16842
484.236	18195
484.313	18268
484.389	20141
484.466	25055
484.543	29085
484.619	35004
484.696	37152
484.772	25670
484.849	19683
484.925	17794
485.002	17981
485.078	15946
485.155	14985
485.231	14448
485.308	14530
485.384	15039
485.461	17214
485.537	14290
485.614	14991
485.690	14077
485.766	13753
485.843	13545
485.919	13184
485.995	13289
486.072	14059
486.148	13930
486.224	13571
486.301	13425
486.377	14365
486.453	12609
486.530	14737
486.606	14918
486.682	15829
486.758	16537
486.835	19785
486.911	19525
486.987	20932
487.063	22328
487.139	31960
487.215	46992
487.292	45014
487.368	42655
487.444	55199
487.520	81466
487.596	129901
487.672	253750
487.748	714124
487.824	1129834
487.900	503598
487.976	168954
488.052	85503
488.128	54460
488.204	39762
488.280	31411
488.356	26884
488.432	23684
488.508	20743
488.584	20082
488.660	19199
488.736	18457
488.812	16205
488.888	15520
488.964	15540
489.039	14959
489.115	18301
489.191	20526
489.267	17480
489.343	14227
489.418	14740
489.494	13827
489.570	11484
489.646	14606
489.722	14055
489.797	14114
489.873	13636
489.949	14012
490.024	14402
490.100	13998
490.176	13956
490.251	14648
490.327	13789
490.403	13174
490.478	14417
490.554	12949
490.629	13577
490.705	13616
490.781	13465
490.856	12804
490.932	12003
491.007	13016
491.083	11448
491.158	12045
491.234	11259
491.309	12102
491.385	11724
491.460	10846
491.536	12314
491.611	11331
491.686	11108
491.762	11048
491.837	11614
491.913	11460
491.988	13245
492.063	10910
492.139	10867
492.214	9512
492.289	10933
492.365	10317
492.440	9976
492.515	9771
492.590	10777
492.666	9939
492.741	10906
492.816	10428
492.891	10917
492.967	11298
493.042	10851
493.117	9467
493.192	10668
493.267	10359
493.342	13094
493.418	13776
493.493	10083
493.568	10214
493.643	10803
493.718	10344
493.793	9571
493.868	9879
493.943	10427
494.018	10092
494.093	10036
494.168	10000
494.243	9824
494.318	10375
494.393	10845
494.468	9703
494.543	10714
494.618	9646
494.693	9985
494.768	10140
494.842	9460
494.917	10248
494.992	10015
495.067	9178
495.142	9390
495.217	9338
495.292	9707
495.366	9495
495.441	8925
495.516	10610
495.591	10125
495.665	12395
495.740	14873
495.815	11479
495.890	10838
495.964	8957
496.039	14157
496.114	19877
496.188	40891
496.263	30377
496.338	11128
496.412	8998
496.487	10338
496.561	10289
496.636	10609
496.710	12226
496.785	13656
496.860	10839
496.934	8755
497.009	9475
497.083	8943
497.158	9021
497.232	9960
497.307	9558
497.381	9423
497.455	9106
497.530	9495
497.604	9596
497.679	9758
497.753	8895
497.827	8384
497.902	8358
497.976	9721
498.050	9659
498.125	9853
498.199	9527
498.273	9399
498.348	8758
498.422	9235
498.496	9466
498.570	10473
498.645	8813
498.719	7740
498.793	9696
498.867	9605
498.941	8863
499.016	9910
499.090	9780
499.164	10907
499.238	10835
499.312	9596
499.386	10452
499.460	10798
499.534	10054
499.609	9690
499.683	9739
499.757	11257
499.831	9758
499.905	10914
499.979	9499
500.053	10228
500.127	10301
500.201	9571
500.275	11406
500.349	9958
500.422	10081
500.496	10180
500.570	10457
500.644	12018
500.718	11057
500.792	11106
500.866	10935
500.940	10652
501.013	11045
501.087	10917
501.161	11154
501.235	10452
501.309	13287
501.382	12083
501.456	12264
501.530	11321
501.603	9812
501.677	10070
501.751	9189
501.825	12720
501.898	10994
501.972	10323
502.046	10782
502.119	9932
502.193	9865
502.266	9787
502.340	10337
502.413	10401
502.487	10139
502.561	10619
502.634	11975
502.708	12010
502.781	11574
502.855	12251
502.928	10464
503.002	11757
503.075	11002
503.149	12636
503.222	12689
503.295	13412
503.369	13646
503.442	15068
503.516	18542
503.589	20554
503.662	24386
503.736	30702
503.809	39464
503.882	54807
503.956	82123
504.029	161740
504.102	414936
504.175	610878
504.249	294046
504.322	126311
504.395	68873
504.468	45766
504.542	31960
504.615	24721
504.688	21371
504.761	17500
504.834	17498
504.907	14522
504.980	13896
505.053	13505
505.127	9526
505.200	14224
505.273	10074
505.346	9952
505.419	8706
505.492	11565
505.565	9977
505.638	9490
505.711	9317
505.784	7969
505.857	8374
505.930	10819
506.003	8217
506.076	10080
506.149	7955
506.221	6878
506.294	10543
506.367	7100
506.440	8013
506.513	9495
506.586	8820
506.659	7485
506.731	7844
506.804	7432
506.877	7369
506.950	9234
507.022	8100
507.095	5723
507.168	7823
507.241	8044
507.313	6428
507.386	7040
507.459	8680
507.531	7808
507.604	6542
507.677	9038
507.749	5676
507.822	8029
507.894	6543
507.967	7971
508.040	6787
508.112	8442
508.185	7400
508.257	6230
508.330	8979
508.402	6408
508.475	7134
508.547	6916
508.620	7538
508.692	7536
508.765	7129
508.837	6922
508.909	7663
508.982	7339
509.054	7184
509.127	7400
509.199	6524
509.271	5924
509.344	6524
509.416	7741
509.488	7425
509.560	7897
509.633	6876
509.705	7089
509.777	6913
509.849	7793
509.922	5103
509.994	6498
510.066	8046
510.138	5259
510.210	8250
510.283	6566
510.355	7931
510.427	7970
510.499	7365
510.571	6908
510.643	5914
510.715	7635
510.787	5749
510.859	7828
510.931	7018
511.003	6911
511.076	7889
511.148	6305
511.219	5891
511.291	7292
511.363	7020
511.435	7199
511.507	5868
511.579	7679
511.651	7559
511.723	7078
511.795	6990
511.867	6970
511.939	7670
512.010	6412
512.082	7413
512.154	7303
512.226	6694
512.298	8202
512.369	7395
512.441	7934
512.513	7835
512.585	6044
512.656	8587
512.728	7125
512.800	7300
512.871	8295
512.943	7449
513.015	6008
513.086	8032
513.158	7363
513.230	6576
513.301	6542
513.373	7915
513.444	7629
513.516	6564
513.588	7142
513.659	7375
513.731	7649
513.802	5786
513.874	9387
513.945	6964
514.016	6758
514.088	7519
514.159	6147
514.231	7877
514.302	7810
514.374	7510
514.445	6306
514.516	9514
514.588	6270
514.659	7235
514.730	7554
514.802	7088
514.873	5928
514.944	9948
515.016	8017
515.087	6936
515.158	7083
515.229	8644
515.301	6301
515.372	8694
515.443	7262
515.514	7875
515.585	8754
515.656	10232
515.728	9523
515.799	7455
515.870	8193
515.941	7709
516.012	6947
516.083	8292
516.154	7146
516.225	9311
516.296	10710
516.367	8444
516.438	8645
516.509	9264
516.580	10445
516.651	17752
516.722	38027
516.793	21177
516.864	11413
516.935	11589
517.006	12716
517.077	12652
517.148	18018
517.219	53130
517.289	79934
517.360	18163
517.431	13377
517.502	10484
517.573	12018
517.643	11609
517.714	12037
517.785	12360
517.856	13434
517.926	16288
517.997	17676
518.068	17978
518.138	24511
518.209	29567
518.280	58123
518.350	158214
518.421	87801
518.492	58080
518.562	74531
518.633	102209
518.703	162531
518.774	335702
518.845	737968
518.915	679985
518.986	254001
519.056	115354
519.127	70093
519.197	49074
519.268	34539
519.338	28854
519.408	24105
519.479	19793
519.549	16934
519.620	16998
519.690	14995
519.760	14525
519.831	12541
519.901	11459
519.971	11946
520.042	10881
520.112	10579
520.182	10962
520.253	11379
520.323	9077
520.393	9689
520.463	10788
520.534	6457
520.604	11000
520.674	10330
520.744	8215
520.814	8743
520.885	9005
520.955	9129
521.025	8228
521.095	8456
521.165	9789
521.235	8600
521.305	8509
521.375	9845
521.445	8918
521.515	8023
521.585	10610
521.655	7814
521.725	9350
521.795	10300
521.865	7128
521.935	10835
522.005	9091
522.075	9376
522.145	9971
522.215	10144
522.285	10966
522.355	9601
522.424	9591
522.494	11666
522.564	11489
522.634	10767
522.704	12438
522.774	9284
522.843	10615
522.913	12064
522.983	10738
523.053	9622
523.122	10475
523.192	10734
523.262	10257
523.331	10164
523.401	9702
523.471	10973
523.540	10755
523.610	10202
523.680	11578
523.749	12215
523.819	14978
523.888	16404
523.958	11981
524.027	11718
524.097	11300
524.166	11872
524.236	10146
524.305	13397
524.375	11208
524.444	9838
524.514	12854
524.583	11087
524.653	10925
524.722	12884
524.791	10343
524.861	14927
524.930	12784
524.999	13272
525.069	15227
525.138	14194
525.207	14315
525.277	17776
525.346	16406
525.415	20198
525.484	23144
525.554	27122
525.623	36532
525.692	50525
525.761	52738
525.830	64189
525.900	83264
525.969	131484
526.038	252207
526.107	479475
526.176	1226769
526.245	977236
526.314	355402
526.383	654348
526.452	869206
526.522	1081193
526.591	967328
526.660	253804
526.729	141725
526.797	141717
526.867	193626
526.935	478027
527.004	1384686
527.073	956464
527.142	234628
527.211	100197
527.280	62514
527.349	45753
527.418	32931
527.487	30056
527.555	23222
527.624	20799
527.693	19151
527.762	20549
527.831	17353
527.899	18673
527.968	16528
528.037	13321
528.106	14794
528.174	14622
528.243	13720
528.312	14051
528.380	12436
528.449	12788
528.518	14939
528.586	11760
528.655	14069
528.723	12297
528.792	12412
528.861	11759
528.929	10932
528.998	13130
529.066	11067
529.135	11484
529.203	10765
529.272	10891
529.340	12036
529.409	12976
529.477	10985
529.545	10628
529.614	13911
529.682	9832
529.751	11109
529.819	14171
529.887	11398
529.956	11554
530.024	13200
530.092	10740
530.161	12461
530.229	12788
530.297	11688
530.365	14360
530.434	11711
530.502	12410
530.570	12130
530.638	11372
530.707	12355
530.775	13996
530.843	12370
530.911	12843
530.979	13092
531.047	12780
531.115	13355
531.183	12457
531.252	13155
531.320	12716
531.388	12320
531.456	13521
531.524	11601
531.592	14134
531.660	14789
531.728	12946
531.796	12704
531.864	13229
531.932	13053
532.000	12758
532.067	13204
532.135	14367
532.203	15835
532.271	16376
532.339	17292
532.407	17566
532.475	16780
532.542	16320
532.610	16414
532.678	16195
532.746	18689
532.814	21859
532.881	18587
532.949	17434
533.017	16945
533.084	15946
533.152	15452
533.220	16027
533.287	14614
533.355	16324
533.423	17001
533.490	15906
533.558	17275
533.625	17734
533.693	17829
533.761	17268
533.828	18095
533.896	16589
533.963	19538
534.031	20976
534.098	25292
534.166	29329
534.233	27479
534.300	32297
534.368	32760
534.435	32345
534.503	36362
534.570	39355
534.637	44758
534.705	53368
534.772	64896
534.840	131506
534.907	523292
534.974	632460
535.041	117179
535.109	49943
535.176	35479
535.243	32917
535.310	31225
535.378	28692
535.445	28756
535.512	30945
535.579	29849
535.646	27427
535.714	29967
535.781	31099
535.848	31609
535.915	31474
535.982	29209
536.049	29009
536.116	30807
536.183	28110
536.250	28395
536.317	28526
536.384	31016
536.451	31126
536.518	31389
536.585	30789
536.652	32091
536.719	33468
536.786	29028
536.853	30419
536.920	32007
536.987	30696
537.053	29577
537.120	34703
537.187	33944
537.254	33892
537.321	33236
537.388	34907
537.454	33356
537.521	33602
537.588	33109
537.654	34293
537.721	35930
537.788	37069
537.855	32920
537.921	34551
537.988	33205
538.055	32543
538.121	29217
538.188	29555
538.254	27037
538.321	29546
538.388	32427
538.454	37076
538.521	37276
538.587	37774
538.654	34852
538.720	35165
538.787	35123
538.853	34429
538.920	33430
538.986	30228
539.053	29312
539.119	33353
539.185	32216
539.252	34418
539.318	34351
539.385	39809
539.451	35858
539.517	36161
539.583	34846
539.650	33912
539.716	34688
539.782	32565
539.849	33014
539.915	33113
539.981	32834
540.047	32237
540.114	32664
540.180	34901
540.246	35295
540.312	38305
540.378	35381
540.444	36625
540.510	36353
540.576	38247
540.643	34906
540.709	31796
540.775	34592
540.841	34189
540.907	32174
540.973	33424
541.039	32675
541.105	34828
541.171	37543
541.237	38245
541.303	37290
541.369	37633
541.435	37403
541.500	35143
541.566	32347
541.632	32379
541.698	34110
541.764	36423
541.830	34448
541.896	35254
541.961	34652
542.027	34392
542.093	37637
542.159	38567
542.224	33573
542.290	36227
542.356	34530
542.421	34426
542.487	32852
542.553	32524
542.618	34003
542.684	35284
542.750	32982
542.815	35924
542.881	35068
542.947	37133
543.012	38146
543.078	34718
543.143	32293
543.209	34746
543.274	32881
543.340	33734
543.405	35035
543.471	36472
543.536	36193
543.602	36735
543.667	34135
543.732	36954
543.798	35827
543.863	37823
543.928	35881
543.994	36812
544.059	36747
544.124	39516
544.190	39314
544.255	40349
544.320	40304
544.386	38581
544.451	40148
544.516	40304
544.581	39458
544.646	41112
544.712	42037
544.777	42025
544.842	40977
544.907	40435
544.972	42739
545.037	44984
545.102	46891
545.168	45193
545.233	45376
545.298	46082
545.363	44435
545.428	48511
545.493	48750
545.558	48527
545.623	48258
545.688	48612
545.753	51250
545.818	52743
545.883	55129
545.947	57662
546.012	58619
546.077	59276
546.142	63845
546.207	67125
546.272	69947
546.337	70960
546.401	72582
546.466	76661
546.531	79318
546.596	85696
546.661	87746
546.725	94511
546.790	98502
546.855	108257
546.919	119062
546.984	132242
547.049	139057
547.113	158886
547.178	177861
547.243	198041
547.307	228969
547.372	254204
547.436	255042
547.501	266473
547.565	286495
547.630	263490
547.695	252439
547.759	254559
547.823	258435
547.888	264604
547.952	270274
548.017	282112
548.081	301361
548.146	289733
548.210	287922
548.274	313317
548.339	305473
548.403	278284
548.468	264116
548.532	262528
548.596	270713
548.660	273428
548.725	292001
548.789	315223
548.853	306247
548.917	294174
548.982	286647
549.046	258936
549.110	235492
549.174	240426
549.238	279879
549.303	305251
549.367	313057
549.431	300951
549.495	280199
549.559	280241
549.623	320878
549.687	349348
549.751	340884
549.815	400460
549.879	407759
549.943	394819
550.007	410697
550.071	407732
550.135	369347
550.199	353734
550.263	347933
550.327	331597
550.391	344180
550.455	379327
550.519	390884
550.582	410113
550.646	460099
550.710	467283
550.774	461011
550.838	468790
550.901	480978
550.965	505166
551.029	533307
551.093	566775
551.156	614371
551.220	659564
551.284	678139
551.347	570049
551.411	507155
551.475	483075
551.538	493752
551.602	463861
551.666	442751
551.729	420688
551.793	408388
551.856	402996
551.920	391649
551.983	393183
552.047	386832
552.110	391909
552.174	398264
552.237	404193
552.301	375691
552.364	361273
552.428	348609
552.491	361959
552.554	366297
552.618	364867
552.681	369830
552.745	356286
552.808	363937
552.871	380050
552.934	374781
552.998	367144
553.061	359618
553.124	346632
553.187	343855
553.251	354809
553.314	354109
553.377	357593
553.440	378580
553.503	385946
553.567	383365
553.630	380447
553.693	377378
553.756	376447
553.819	372132
553.882	358292
553.945	361138
554.008	364974
554.071	367537
554.134	368345
554.197	347990
554.260	341050
554.323	344703
554.386	348565
554.449	362628
554.512	362351
554.575	349905
554.638	347841
554.701	343837
554.764	343130
554.827	328797
554.889	320257
554.952	303308
555.015	296925
555.078	303010
555.141	305740
555.203	298203
555.266	297420
555.329	297879
555.391	286194
555.454	282367
555.517	271979
555.580	265180
555.642	255443
555.705	253492
555.768	248885
555.830	243718
555.893	232284
555.955	225248
556.018	223935
556.080	223618
556.143	229117
556.206	226540
556.268	219758
556.330	213932
556.393	209404
556.455	204253
556.518	201674
556.580	195472
556.643	186730
556.705	184495
556.767	180255
556.830	178923
556.892	175636
556.955	172456
557.017	168004
557.079	166721
557.142	163995
557.204	162055
557.266	160412
557.328	150383
557.391	142539
557.453	139710
557.515	139931
557.577	141831
557.639	142218
557.701	142253
557.764	143866
557.826	144461
557.888	147952
557.950	152408
558.012	166745
558.074	204481
558.136	382553
558.198	775083
558.260	351263
558.322	168455
558.384	160767
558.446	162881
558.508	173823
558.570	189871
558.632	217145
558.694	272336
558.756	423988
558.818	931544
558.880	1517138
558.942	895340
559.003	877876
559.065	477024
559.127	227647
559.189	203551
559.251	214219
559.312	287322
559.374	566420
559.436	1228473
559.498	755891
559.559	278438
559.621	210402
559.683	221334
559.744	322286
559.806	775100
559.868	1013164
559.929	363964
559.991	229866
560.052	324009
560.114	747607
560.176	530263
560.237	481364
560.299	687834
560.360	215454
560.422	99136
560.483	80933
560.545	74761
560.606	70731
560.667	65215
560.729	64291
560.790	60362
560.852	59253
560.913	57202
560.974	55969
561.036	54677
561.097	55396
561.158	53894
561.220	54228
561.281	50902
561.342	50984
561.403	50227
561.465	48101
561.526	48747
561.587	47903
561.648	45547
561.709	45535
561.771	45268
561.832	44225
561.893	43545
561.954	43389
562.015	41360
562.076	40718
562.137	41529
562.198	41034
562.259	41423
562.320	41251
562.381	41250
562.442	40908
562.503	39281
562.564	39757
562.625	37980
562.686	37580
562.747	38203
562.808	37449
562.869	36875
562.930	37304
562.991	35562
563.051	36022
563.112	35607
563.173	35542
563.234	34692
563.294	35769
563.355	35147
563.416	34819
563.477	34144
563.537	35104
563.598	33997
563.659	33428
563.720	33652
563.780	33053
563.841	32534
563.901	33685
563.962	33188
564.023	31839
564.083	32626
564.144	32827
564.204	32743
564.265	31167
564.325	30927
564.386	31957
564.446	30947
564.507	30752
564.567	30128
564.628	30296
564.688	30161
564.749	29941
564.809	30559
564.869	30065
564.930	30738
564.990	29952
565.050	28556
565.111	29606
565.171	30492
565.231	30029
565.292	30559
565.352	28863
565.412	29159
565.472	29187
565.532	29052
565.593	29291
565.653	28062
565.713	29512
565.773	30512
565.833	30787
565.893	32811
565.953	28017
566.013	28451
566.074	28525
566.134	27595
566.194	26810
566.254	27555
566.314	27233
566.374	26787
566.434	26868
566.494	27820
566.554	27343
566.614	28091
566.673	28641
566.733	30154
566.793	29392
566.853	29671
566.913	29782
566.973	27879
567.033	28752
567.092	28373
567.152	28035
567.212	29021
567.272	29311
567.331	30960
567.391	29708
567.451	31928
567.511	31915
567.570	30288
567.630	31366
567.690	29007
567.749	28499
567.809	28859
567.868	29282
567.928	27907
567.988	29129
568.047	30119
568.107	28677
568.166	29114
568.226	30624
568.285	30183
568.345	30711
568.404	30377
568.464	30070
568.523	28953
568.582	30294
568.642	29049
568.701	28015
568.761	27437
568.820	29027
568.879	27876
568.939	28984
568.998	30402
569.057	29069
569.116	28407
569.176	28909
569.235	28614
569.294	29152
569.353	27691
569.413	28284
569.472	27041
569.531	27493
569.590	26518
569.649	27397
569.708	27451
569.767	28225
569.827	27256
569.886	27061
569.945	26295
570.004	28730
570.063	27569
570.122	28190
570.181	28815
570.240	29409
570.299	30305
570.358	29435
570.417	29091
570.475	30819
570.534	30179
570.593	29615
570.652	30686
570.711	30632
570.770	28401
570.829	28982
570.887	28438
570.946	30114
571.005	29786
571.064	29753
571.122	29095
571.181	29054
571.240	28790
571.299	29106
571.357	28040
571.416	28185
571.475	27487
571.533	29830
571.592	32001
571.650	30510
571.709	32374
571.768	35616
571.826	37530
571.885	35424
571.943	31155
572.002	30181
572.060	29148
572.119	29102
572.177	28224
572.236	29359
572.294	30540
572.352	31311
572.411	30951
572.469	29562
572.528	28481
572.586	28689
572.644	28220
572.703	27739
572.761	26467
572.819	27248
572.877	25830
572.936	26255
572.994	24544
573.052	25713
573.110	26744
573.169	28388
573.227	28121
573.285	28939
573.343	27480
573.401	27245
573.459	27207
573.517	28013
573.576	28028
573.634	28543
573.692	29050
573.750	27438
573.808	27204
573.866	27872
573.924	26250
573.982	27512
574.040	27184
574.098	27552
574.155	26363
574.213	26144
574.271	28018
574.329	29389
574.387	27093
574.445	25884
574.503	24558
574.560	25477
574.618	24358
574.676	25168
574.734	23746
574.792	25451
574.849	22739
574.907	21632
574.965	22023
575.022	20538
575.080	19727
575.138	21018
575.195	20112
575.253	20140
575.311	19614
575.368	20358
575.426	18639
575.483	21108
575.541	21214
575.598	20830
575.656	21193
575.713	21648
575.771	21603
575.828	22532
575.886	21324
575.943	21118
576.001	19053
576.058	18831
576.115	19113
576.173	20692
576.230	20514
576.287	21339
576.345	19999
576.402	20533
576.459	21210
576.517	20411
576.574	19838
576.631	19684
576.688	17829
576.746	19460
576.803	18164
576.860	17887
576.917	18495
576.974	18836
577.031	18753
577.089	19487
577.146	18206
577.203	16975
577.260	18013
577.317	16785
577.374	17633
577.431	16889
577.488	17235
577.545	17490
577.602	17307
577.659	18075
577.716	17203
577.773	18596
577.830	17867
577.886	18250
577.943	16540
578.000	16698
578.057	16388
578.114	17464
578.171	17533
578.227	17902
578.284	17502
578.341	17574
578.398	16438
578.454	17878
578.511	16878
578.568	18833
578.625	17744
578.681	17944
578.738	17516
578.794	17991
578.851	17478
578.908	17992
578.964	17371
579.021	18149
579.077	17654
579.134	17989
579.190	17668
579.247	18685
579.303	16968
579.360	16576
579.416	17741
579.473	18262
579.529	17570
579.586	17279
579.642	18074
579.698	18624
579.755	17782
579.811	18821
579.867	17926
579.924	17996
579.980	17671
580.036	19233
580.093	18166
580.149	18090
580.205	18678
580.261	19503
580.317	19034
580.374	19106
580.430	20329
580.486	19671
580.542	19265
580.598	19648
580.619	19756
580.654	19952
580.692	19270
580.710	18943
580.765	20503
580.767	20558
580.823	20643
580.838	20530
580.879	20218
580.911	20593
580.935	20884
580.984	20201
580.991	20114
581.047	21836
581.057	21764
581.103	21467
581.130	21104
581.159	20671
581.203	19658
581.215	19422
581.270	19760
581.276	19704
581.326	19095
581.349	19272
581.382	19544
581.422	19157
581.438	18986
581.494	20233
581.494	20219
581.550	18615
581.567	18955
581.606	19736
581.640	19798
581.661	19795
581.713	21237
581.717	21353
581.773	20465
581.786	20498
581.829	20549
581.859	20495
581.885	20448
581.932	21207
581.940	21352
581.996	20347
582.004	20517
582.052	21281
582.077	21009
582.107	20766
582.150	20582
582.163	20494
582.219	19586
582.223	19645
582.274	20357
582.296	19858
582.330	19020
582.368	20226
582.386	20860
582.441	21496
582.441	21490
582.497	21924
582.514	21642
582.552	21195
582.587	21252
582.608	21275
582.659	20669
582.663	20612
582.719	21590
582.732	21707
582.774	22144
582.805	22130
582.830	21982
582.877	22209
582.885	22275
582.941	21906
582.950	21874
582.996	21564
583.023	21516
583.052	21631
583.095	22391
583.107	22530
583.162	22656
583.168	22629
583.218	22435
583.240	22467
583.273	22553
583.313	22723
583.328	22724
583.384	22887
583.385	22872
583.439	22533
583.458	22828
583.494	23668
583.531	23961
583.549	24039
583.603	23688
583.605	23675
583.660	24333
583.676	24430
583.715	24796
583.748	24935
583.770	25078
583.820	25428
583.825	25448
583.881	25774
583.893	25762
583.936	25641
583.965	25316
583.991	25115
584.038	26425
584.046	26698
584.101	25907
584.110	26007
584.156	26412
584.183	26558
584.211	26916
584.255	27894
584.266	28112
584.321	27618
584.328	27726
584.376	28727
584.400	29000
584.431	29561
584.472	30300
584.486	30491
584.541	31116
584.545	31167
584.596	33118
584.617	33582
584.651	33858
584.689	34259
584.706	34697
584.761	36172
584.762	36164
584.816	38074
584.834	38634
584.871	40015
584.906	41631
584.926	42663
584.978	45867
584.980	46070
585.035	51184
585.051	52496
585.090	56878
585.123	61336
585.145	64591
585.195	72304
585.200	73349
585.254	86744
585.267	90045
585.309	102726
585.340	112374
585.364	122018
585.412	143671
585.419	148203
585.473	189752
585.484	199802
585.528	265579
585.556	320250
585.583	427209
585.628	649994
585.637	724059
585.692	1272565
585.700	1356395
585.747	1605187
585.772	1526024
585.801	1178134
585.845	671698
585.856	586465
585.910	309464
585.917	280565
585.965	198205
585.989	163500
586.019	142231
586.061	117016
586.074	112348
586.128	95400
586.133	93970
586.183	86373
586.205	83047
586.237	79924
586.277	76723
586.292	76406
586.346	74184
586.349	74006
586.401	72752
586.421	72092
586.455	71650
586.493	70526
586.509	70814
586.564	71199
586.565	71116
586.618	76463
586.637	78799
586.672	88712
586.709	99600
586.727	105083
586.781	120413
586.781	120616
586.835	104032
586.853	98947
586.889	89311
586.925	80633
586.944	78299
586.996	73862
586.998	73980
587.052	71569
587.068	71125
587.106	71581
587.140	71334
587.161	71514
587.212	71801
587.215	71951
587.269	71196
587.284	71346
587.323	73373
587.356	74225
587.377	75107
587.427	77042
587.431	77371
587.485	78991
587.499	79413
587.539	81355
587.571	82694
587.593	84754
587.643	88743
587.648	89067
587.702	89608
587.715	89700
587.755	90966
587.786	90980
587.810	91213
587.858	91719
587.864	92071
587.917	93341
587.930	93319
587.971	93138
588.001	92595
588.025	93007
588.073	93271
588.079	93474
588.133	93369
588.145	93089
588.187	93585
588.217	93721
588.241	95116
588.288	97408
588.295	97980
588.348	100580
588.360	100941
588.402	101512
588.431	100934
588.456	101670
588.503	103485
588.510	104315
588.564	108714
588.575	109522
588.617	113965
588.646	116520
588.671	119000
588.718	123568
588.725	125258
588.778	137844
588.789	141002
588.832	183887
588.861	215677
588.886	291805
588.932	452800
588.939	469254
588.993	586180
589.004	589282
589.047	349419
589.075	205073
589.100	171652
589.147	126636
589.154	125877
589.207	119769
589.218	118290
589.261	119567
589.290	120301
589.314	122910
589.361	128641
589.368	131272
589.421	151544
589.433	156460
589.475	230880
589.504	287076
589.528	363898
589.576	523984
589.582	509621
589.635	305152
589.647	262705
589.689	177244
589.718	125911
589.742	122806
589.790	116923
589.795	117160
589.849	116177
589.861	115621
589.902	115817
589.932	115452
589.955	115428
590.004	114252
590.009	114623
590.062	114658
590.075	114376
590.115	114653
590.146	114207
590.168	114819
590.218	114867
590.222	115524
590.275	119755
590.289	120392
590.328	122214
590.360	123007
590.381	124202
590.431	125685
590.435	126204
590.488	127871
590.503	127983
590.541	129587
590.574	130046
590.594	132303
590.645	136802
590.647	137406
590.700	141150
590.716	141837
590.753	146221
590.787	149328
590.806	151435
590.859	155214
590.859	155777
590.912	157603
590.930	157651
590.965	160423
591.001	162216
591.018	162447
591.071	161010
591.072	160435
591.124	156786
591.143	154826
591.177	157878
591.214	160178
591.230	161883
591.283	165486
591.285	165040
591.336	163695
591.356	162354
591.389	162624
591.427	161607
591.442	161855
591.495	160658
591.498	159999
591.547	164109
591.569	165240
591.600	167987
591.640	169967
591.653	170916
591.706	172436
591.711	171971
591.759	177927
591.782	180096
591.811	185053
591.853	190565
591.864	191167
591.917	190477
591.924	189674
591.969	190037
591.995	189198
592.022	191518
592.066	193467
592.075	194968
592.127	199798
592.137	199952
592.180	204554
592.208	206329
592.233	209534
592.279	213266
592.285	214698
592.338	220020
592.350	220384
592.390	220904
592.421	219875
592.443	222782
592.491	226459
592.495	227614
592.548	231659
592.562	231897
592.600	232629
592.633	231611
592.653	233118
592.704	233406
592.705	234811
592.775	237547
592.846	248212
592.916	249276
592.987	247705
593.058	251038
593.128	256560
593.199	253883
593.270	258233
593.341	262160
593.411	272885
593.482	282358
593.553	287586
593.623	291123
593.694	303600
593.764	308657
593.835	306074
593.906	307189
593.976	315735
594.047	321666
594.117	339829
594.188	346245
594.258	345698
594.329	345413
594.399	356116
594.470	363610
594.540	378611
594.611	385976
594.681	382247
594.751	383206
594.822	398864
594.892	412482
594.963	423139
595.033	436431
595.103	448715
595.174	449490
595.244	460063
595.314	472521
595.384	484158
595.455	496627
595.525	510829
595.595	531090
595.665	529445
595.736	517010
595.806	526531
595.876	537210
595.946	540296
596.016	563154
596.087	579537
596.157	575112
596.227	582786
596.297	607121
596.367	647227
596.437	675679
596.507	672562
596.577	672045
596.647	694930
596.717	727943
596.787	739797
596.857	736402
596.927	743237
596.997	747418
597.067	752175
597.137	762754
597.207	770751
597.277	775209
597.347	745104
597.417	722405
597.487	721857
597.557	740333
597.626	756474
597.696	764688
597.766	756809
597.836	713160
597.906	681190
597.975	672463
598.045	682676
598.115	709368
598.185	754382
598.254	833607
598.324	895565
598.394	907072
598.464	883799
598.533	868575
598.603	817226
598.672	797821
598.742	816326
598.812	815794
598.881	842723
598.951	828216
599.020	847189
599.090	871657
599.159	884002
599.229	849357
599.299	837023
599.368	858618
599.437	847323
599.507	785342
599.576	757545
599.646	750680
599.715	739616
599.785	735615
599.854	712622
599.924	697856
599.993	699897
600.062	714924
600.132	729823
600.201	769482
600.270	877468
600.340	918678
600.409	904413
600.478	896042
600.547	911358
600.617	825876
600.686	677947
600.755	619876
600.824	584941
600.894	571032
600.963	576353
601.032	568637
601.101	543412
601.170	517913
601.239	504467
601.308	502358
601.378	501125
601.447	503828
601.516	506971
601.585	507580
601.654	517026
601.723	517855
601.792	530685
601.861	547227
601.930	562956
601.999	568176
602.068	564919
602.137	573531
602.206	582864
602.275	596186
602.343	593792
602.412	600855
602.481	604964
602.550	612596
602.619	630983
602.688	635156
602.756	638099
602.825	645412
602.894	661895
602.963	679145
603.032	686882
603.100	688009
603.169	688899
603.238	693012
603.307	698118
603.375	703853
603.444	717536
603.513	732829
603.581	743125
603.650	748991
603.719	746989
603.787	769701
603.856	787168
603.924	804269
603.993	831945
604.061	858046
604.130	889835
604.198	909872
604.267	920258
604.335	933979
604.404	947360
604.472	959002
604.541	962953
604.609	969282
604.678	971567
604.746	974544
604.815	1000910
604.883	1015512
604.951	1012441
605.020	1032847
605.088	1052861
605.156	1074837
605.225	1089265
605.293	1089464
605.361	1089100
605.429	1099384
605.498	1122285
605.566	1142912
605.634	1190751
605.702	1224781
605.771	1250537
605.839	1250150
605.907	1235533
605.975	1196102
606.043	1180289
606.111	1175426
606.180	1171918
606.248	1166623
606.316	1155637
606.384	1154427
606.452	1163804
606.520	1196263
606.588	1231350
606.656	1239956
606.724	1219941
606.792	1162891
606.860	1070330
606.928	996991
606.996	963692
607.064	950824
607.132	972180
607.200	1020376
607.267	1049352
607.335	1067587
607.403	1081475
607.471	1052645
607.539	1024844
607.607	1025059
607.674	929725
607.742	933560
607.810	925624
607.878	927907
607.946	947644
608.013	984240
608.081	995962
608.149	1004786
608.216	1039119
608.284	1064969
608.352	1061491
608.419	1054744
608.487	1030608
608.555	1018192
608.622	1047716
608.690	1103488
608.757	1194231
608.825	1211811
608.893	1183602
608.960	1125709
609.028	1086894
609.095	1089588
609.163	1083297
609.230	984370
609.298	912858
609.365	965668
609.432	1024825
609.500	1093554
609.567	1216720
609.635	1340068
609.702	1387942
609.769	1324169
609.837	1092896
609.904	998151
609.971	1030792
610.039	1108251
610.106	1320885
610.173	1948390
610.241	2974719
610.308	2429817
610.375	1411949
610.442	1157542
610.509	1066122
610.577	1049730
610.644	1053943
610.711	1081084
610.778	1094919
610.845	1133289
610.912	1181060
610.980	1219006
611.047	1217013
611.114	1200107
611.181	1168021
611.248	1166839
611.315	1213933
611.382	1243135
611.449	1275838
611.516	1289025
611.583	1277971
611.650	1288654
611.717	1308810
611.784	1332944
611.851	1381204
611.918	1445166
611.984	1615182
612.051	1964497
612.118	2695276
612.185	3454044
612.252	3219748
612.319	2244014
612.386	1792987
612.452	1586901
612.519	1479481
612.586	1431241
612.653	1432872
612.719	1453710
612.786	1407223
612.853	1327490
612.919	1301946
612.986	1317802
613.053	1258949
613.120	1198010
613.186	1168198
613.253	1171631
613.319	1173011
613.386	1176694
613.453	1192441
613.519	1192911
613.586	1172683
613.652	1186706
613.719	1171586
613.785	1188624
613.852	1201596
613.918	1196799
613.985	1200728
614.051	1244718
614.118	1226328
614.184	1189387
614.250	1193959
614.317	1213618
614.383	1199869
614.449	1223909
614.516	1208194
614.582	1212906
614.648	1197021
614.715	1187380
614.781	1166218
614.847	1166048
614.914	1158013
614.980	1139440
615.046	1138030
615.112	1167959
615.179	1170390
615.245	1186399
615.311	1175251
615.377	1189861
615.443	1201917
615.509	1222232
615.575	1259798
615.642	1264685
615.708	1283712
615.774	1334554
615.840	1403993
615.906	1490072
615.972	1694787
616.038	2148069
616.104	3014797
616.170	3589570
616.236	3482099
616.302	2819943
616.368	2347532
616.434	1864672
616.500	1642155
616.565	1722822
616.631	2044679
616.697	1850285
616.763	1778969
616.829	2257461
616.895	3149781
616.961	3121801
617.026	2175980
617.092	1577536
617.158	1372513
617.224	1284542
617.289	1184119
617.355	1121868
617.421	1101640
617.487	1082708
617.552	1036266
617.618	1032621
617.684	1027641
617.749	1025974
617.815	988025
617.880	970835
617.946	967097
618.012	980466
618.077	1001718
618.143	957424
618.208	964932
618.274	1025738
618.339	1018287
618.405	876302
618.470	872330
618.536	870499
618.601	856217
618.667	810968
618.732	766902
618.798	763489
618.863	758615
618.928	752763
618.994	757585
619.059	746541
619.124	752820
619.190	749312
619.255	742565
619.320	743854
619.386	750452
619.451	742389
619.516	717628
619.581	730557
619.647	753491
619.712	752654
619.777	718760
619.842	726532
619.907	739613
619.972	750928
620.038	743304
620.103	723868
620.168	726042
620.233	736528
620.298	739776
620.363	750853
620.428	767939
620.493	785962
620.558	789322
620.623	797907
620.688	792867
620.753	793684
620.818	803629
620.883	808888
620.948	806267
621.013	797647
621.078	787123
621.143	794204
621.207	803818
621.272	792685
621.337	769328
621.402	762136
621.467	754189
621.532	750715
621.596	758257
621.661	734478
621.726	729987
621.791	738061
621.855	734336
621.920	730774
621.985	744020
622.049	751430
622.114	754828
622.179	764126
622.243	780175
622.308	807737
622.373	828024
622.437	812638
622.502	771850
622.566	767117
622.631	767570
622.695	778824
622.760	769949
622.824	770672
622.889	774865
622.953	776017
623.018	817700
623.082	824917
623.147	820549
623.211	804102
623.276	802729
623.340	775723
623.404	756892
623.469	755460
623.533	766103
623.597	750764
623.662	746910
623.726	695513
623.790	662085
623.854	642563
623.919	655376
623.983	667813
624.047	677947
624.111	684338
624.176	695687
624.240	698238
624.304	716238
624.368	693532
624.432	697763
624.496	711066
624.560	745417
624.625	754508
624.689	743927
624.753	777136
624.817	742075
624.881	730725
624.945	664371
625.009	647048
625.073	658317
625.137	680226
625.201	705618
625.265	707723
625.329	678734
625.393	688816
625.456	697385
625.520	712796
625.584	720675
625.648	738107
625.712	753319
625.776	740213
625.839	701326
625.903	616970
625.967	581250
626.031	611467
626.095	716178
626.158	671021
626.222	544720
626.286	510948
626.349	495930
626.413	465737
626.477	459725
626.540	470969
626.604	467771
626.668	455334
626.731	451797
626.795	456350
626.858	456617
626.922	451998
626.986	442072
627.049	450810
627.113	465604
627.176	449310
627.240	439378
627.303	443213
627.366	437444
627.430	447467
627.493	437891
627.557	434677
627.620	439894
627.684	463528
627.747	463662
627.810	429785
627.874	386466
627.937	375461
628.000	385529
628.064	376457
628.127	344283
628.190	335197
628.253	329250
628.317	317875
628.380	301615
628.443	295187
628.506	293817
628.569	281620
628.632	269787
628.696	268393
628.759	267821
628.822	257367
628.885	253385
628.948	249395
629.011	243682
629.074	238571
629.137	231030
629.200	225697
629.263	222841
629.326	220509
629.389	223367
629.452	220129
629.515	214963
629.578	212446
629.641	217000
629.704	222440
629.767	216853
629.830	208755
629.892	205003
629.955	203193
630.018	208721
630.081	207258
630.144	206138
630.207	202010
630.269	204397
630.332	196002
630.395	196950
630.458	191164
630.520	186048
630.583	187509
630.646	191611
630.708	195211
630.771	198983
630.834	207216
630.896	205181
630.959	203539
631.021	199602
631.084	200293
631.146	200040
631.209	203279
631.272	203398
631.334	209562
631.397	209591
631.459	213437
631.522	222090
631.584	230619
631.646	243688
631.709	250942
631.771	248213
631.834	238327
631.896	229125
631.958	217691
632.021	210200
632.083	202077
632.145	199069
632.208	195257
632.270	193397
632.332	194618
632.395	189203
632.457	192094
632.519	186538
632.581	186589
632.643	186074
632.706	186022
632.768	180861
632.830	185489
632.892	191161
632.954	191054
633.016	194484
633.078	190212
633.141	190585
633.203	190025
633.265	189506
633.327	188122
633.389	190818
633.451	192042
633.513	191337
633.575	198871
633.637	195385
633.698	202417
633.760	210763
633.822	221281
633.884	226107
633.946	234130
634.008	240473
634.070	248084
634.132	260015
634.193	281147
634.255	300020
634.317	305553
634.379	298978
634.441	275471
634.502	253666
634.564	231459
634.626	215729
634.687	205271
634.749	195170
634.811	195754
634.873	191336
634.934	190621
634.996	189150
635.057	191690
635.119	196521
635.181	199836
635.242	200835
635.304	197991
635.365	202551
635.427	199451
635.488	200304
635.550	198128
635.611	202915
635.673	205072
635.734	220472
635.796	233129
635.857	249568
635.918	269599
635.980	292497
636.041	308921
636.102	325692
636.164	324325
636.225	309898
636.286	279381
636.348	252089
636.409	229524
636.470	214177
636.531	203320
636.593	194614
636.654	186850
636.715	177834
636.776	178680
636.838	171600
636.899	167537
636.960	164597
637.021	164104
637.082	157901
637.143	154406
637.204	151893
637.265	151537
637.326	153499
637.387	156841
637.448	153642
637.509	152894
637.570	153810
637.631	151119
637.692	145633
637.753	142712
637.814	143465
637.875	140733
637.936	141989
637.997	141433
638.058	143073
638.119	141520
638.179	140071
638.240	139185
638.301	141890
638.362	135000
638.423	131763
638.483	131187
638.544	129228
638.605	132910
638.666	130952
638.726	130694
638.787	129926
638.848	132019
638.908	127280
638.969	122031
639.030	120284
639.090	121540
639.151	123451
639.211	125494
639.272	124034
639.332	127984
639.393	132549
639.453	143869
639.514	144015
639.574	129572
639.635	119023
639.695	117833
639.756	115035
639.816	114647
639.877	114117
639.937	115345
639.997	115006
640.058	114612
640.118	115509
640.178	115943
640.239	115013
640.299	116647
640.359	120178
640.420	129698
640.480	142255
640.540	161440
640.600	167481
640.661	156413
640.721	156894
640.781	178509
640.841	180016
640.901	127985
640.961	121471
641.021	127774
641.082	137612
641.142	124258
641.202	114813
641.262	109162
641.322	110618
641.382	108171
641.442	109703
641.502	107975
641.562	111756
641.622	115262
641.682	124100
641.742	140997
641.802	134477
641.861	116494
641.921	108094
641.981	104136
642.041	100097
642.101	100514
642.161	98118
642.221	100865
642.280	101579
642.340	101450
642.400	104246
642.460	105399
642.519	107530
642.579	107090
642.639	108071
642.698	108544
642.758	112292
642.818	110939
642.877	109320
642.937	110401
642.997	110212
643.056	110597
643.116	109730
643.175	113524
643.235	115990
643.294	120591
643.354	126244
643.414	135820
643.473	152563
643.532	179406
643.592	225772
643.651	319652
643.711	497236
643.770	858962
643.830	1632549
643.889	2142880
643.948	1146003
644.008	447654
644.067	263271
644.126	192922
644.186	159023
644.245	140637
644.304	127034
644.363	124861
644.423	115482
644.482	117196
644.541	123400
644.600	128881
644.659	149615
644.719	180148
644.778	246943
644.837	388322
644.896	727893
644.955	1304137
645.014	563109
645.073	213880
645.132	157552
645.191	138552
645.250	131428
645.309	136667
645.368	150008
645.427	197593
645.486	342136
645.545	550030
645.604	186077
645.663	121224
645.722	119834
645.781	127146
645.840	137212
645.898	159591
645.957	203706
646.016	287818
646.075	460687
646.134	809323
646.192	1591924
646.251	1786884
646.310	724890
646.369	317547
646.427	244794
646.486	178617
646.545	136459
646.603	119699
646.662	111855
646.721	105719
646.779	103588
646.838	109446
646.896	126315
646.955	164242
647.014	243985
647.072	448765
647.131	1005877
647.189	524917
647.248	143797
647.306	105020
647.365	93595
647.423	84117
647.481	83573
647.540	80809
647.598	80162
647.657	80665
647.715	78939
647.773	76021
647.832	75053
647.890	69415
647.948	69017
648.007	68874
648.065	65210
648.123	65231
648.181	66091
648.240	65186
648.298	64204
648.356	63802
648.414	64678
648.472	62958
648.531	61369
648.589	60947
648.647	61009
648.705	63626
648.763	63812
648.821	65018
648.879	68160
648.937	74920
648.995	85245
649.053	103693
649.111	141199
649.169	215512
649.227	366359
649.285	721197
649.343	1419700
649.401	830982
649.459	233726
649.516	129562
649.574	101434
649.632	96035
649.690	102539
649.748	123966
649.806	178088
649.863	322451
649.921	786490
649.979	521675
650.037	115540
650.094	74279
650.152	65235
650.210	61432
650.268	63436
650.325	71593
650.383	88732
650.440	54975
650.498	48507
650.556	48046
650.613	47571
650.671	48703
650.728	50886
650.786	57176
650.843	83803
650.901	62929
650.958	44430
651.016	42778
651.073	42748
651.131	42090
651.188	40335
651.246	39279
651.303	39862
651.360	40261
651.418	38155
651.475	38976
651.532	38858
651.590	39688
651.647	37317
651.704	38849
651.762	37301
651.819	37516
651.876	35739
651.933	36224
651.990	37171
652.048	34107
652.105	35013
652.162	36493
652.219	33681
652.276	34167
652.333	34354
652.390	32704
652.448	34242
652.505	34487
652.562	33979
652.619	33486
652.676	32807
652.733	34146
652.790	31818
652.847	31391
652.904	32052
652.961	29965
653.017	30000
653.074	32377
653.131	32441
653.188	29835
653.245	31272
653.302	31734
653.359	30974
653.415	31938
653.472	29675
653.529	31476
653.586	31838
653.642	31975
653.699	32120
653.756	31085
653.813	31674
653.869	32964
653.926	33333
653.983	32215
654.039	32265
654.096	30920
654.152	31193
654.209	29189
654.266	29704
654.322	29323
654.379	30021
654.435	30719
654.492	29962
654.548	30817
654.605	30896
654.661	36128
654.717	30580
654.774	30880
654.830	31453
654.887	32090
654.943	34433
655.000	44159
655.056	36622
655.112	30746
655.168	30057
655.225	31393
655.281	31464
655.337	31147
655.394	29475
655.450	28320
655.506	29083
655.562	27006
655.618	29329
655.675	28809
655.731	27710
655.787	26312
655.843	29614
655.899	28316
655.955	29626
656.011	30194
656.067	28756
656.123	29524
656.179	29370
656.235	30496
656.291	29051
656.347	32087
656.403	29517
656.459	29461
656.515	28785
656.571	28120
656.627	26929
656.683	28250
656.739	28027
656.795	28337
656.850	27794
656.906	28514
656.962	30397
657.018	33337
657.074	39570
657.129	52838
657.185	82575
657.241	189686
657.297	100143
657.352	34646
657.408	28639
657.464	29334
657.519	26344
657.575	25659
657.630	24952
657.686	24098
657.742	25355
657.797	25499
657.853	24937
657.908	28063
657.964	25180
658.019	24738
658.075	24755
658.130	25611
658.186	23827
658.241	24841
658.297	23271
658.352	23535
658.407	23977
658.463	23386
658.518	23984
658.573	24415
658.629	23988
658.684	23065
658.739	24215
658.795	23548
658.850	23457
658.905	22980
658.960	23815
659.016	21881
659.071	22724
659.126	23568
659.181	22284
659.236	23259
659.291	22701
659.346	23085
659.401	22906
659.457	23498
659.512	22265
659.567	24370
659.622	22077
659.677	23495
659.732	20974
659.787	22046
659.842	21795
659.897	22521
659.952	22073
660.007	22682
660.061	22799
660.116	22069
660.171	21372
660.226	21888
660.281	22941
660.336	21475
660.391	21668
660.445	21099
660.500	21450
660.555	21835
660.610	21070
660.664	22363
660.719	20763
660.774	21572
660.828	21134
660.883	20970
660.938	21679
660.992	20199
661.047	21637
661.101	20587
661.156	20648
661.211	19661
661.265	20693
661.320	20258
661.374	21151
661.429	20879
661.483	21499
661.538	21277
661.592	23507
661.647	28080
661.701	39028
661.755	25083
661.810	20904
661.864	20931
661.919	20237
661.973	20518
662.027	20256
662.081	20517
662.136	20404
662.190	21365
662.244	20030
662.299	20222
662.353	20412
662.407	20668
662.461	19983
662.515	19850
662.569	19161
662.624	19008
662.678	18788
662.732	20524
662.786	19641
662.840	19823
662.894	19272
662.948	20056
663.002	19473
663.056	20105
663.110	18713
663.164	19194
663.218	20726
663.272	21132
663.326	19707
663.380	19697
663.434	20150
663.488	20052
663.542	20158
663.595	19636
663.649	19862
663.703	21666
663.757	19846
663.811	20125
663.864	19583
663.918	21101
663.972	20108
664.026	20169
664.079	19421
664.133	22431
664.187	22195
664.240	21121
664.294	22870
664.348	23607
664.401	19938
664.455	20833
664.508	19872
664.562	19627
664.615	19877
664.669	20603
664.722	19656
664.776	19456
664.829	20641
664.883	19350
664.936	20343
664.990	19823
665.043	21758
665.097	20723
665.150	20794
665.203	19856
665.257	20091
665.310	22207
665.363	21647
665.417	22212
665.470	21206
665.523	21724
665.576	21728
665.630	21091
665.683	22296
665.736	22677
665.789	21159
665.842	20931
665.895	20742
665.949	21555
666.002	20729
666.055	21534
666.108	22834
666.161	22018
666.214	22159
666.267	21700
666.320	22268
666.373	23274
666.426	23371
666.479	22653
666.532	24570
666.585	25125
666.638	24232
666.691	23987
666.744	23831
666.796	23493
666.849	22595
666.902	22717
666.955	22475
667.008	22793
667.060	21582
667.113	22900
667.166	23487
667.219	24522
667.271	24346
667.324	23555
667.377	22452
667.430	22302
667.482	22545
667.535	21851
667.587	21698
667.640	22217
667.693	21799
667.745	22454
667.798	23032
667.850	21455
667.903	23271
667.955	22533
668.008	22501
668.060	22814
668.113	21605
668.165	21434
668.218	21654
668.270	21151
668.322	21023
668.375	22178
668.427	21159
668.479	20836
668.532	23759
668.584	21328
668.636	20675
668.689	21483
668.741	21709
668.793	21484
668.845	21473
668.898	21894
668.950	20180
669.002	21370
669.054	20878
669.106	21005
669.158	20625
669.211	20387
669.263	20605
669.315	21973
669.367	19731
669.419	19608
669.471	20836
669.523	19862
669.575	19981
669.627	19877
669.679	19890
669.731	19463
669.783	19566
669.835	18726
669.886	18724
669.938	19937
669.990	19807
670.042	19143
670.094	18735
670.146	19415
670.197	18753
670.249	19629
670.301	18856
670.353	19295
670.404	19051
670.456	18666
670.508	20143
670.560	22079
670.611	21332
670.663	23143
670.715	30112
670.766	34977
670.818	24837
670.869	22954
670.921	24294
670.972	25352
671.024	23884
671.075	21931
671.127	23106
671.178	26663
671.230	28275
671.281	30822
671.333	35495
671.384	40852
671.436	52620
671.487	71240
671.538	101105
671.590	154072
671.641	246671
671.692	412332
671.744	672569
671.795	555314
671.846	288632
671.897	159029
671.949	103133
672.000	73694
672.051	55306
672.102	45681
672.153	38585
672.204	33839
672.256	31459
672.307	28171
672.358	26325
672.409	23816
672.460	22929
672.511	22115
672.562	19759
672.613	18535
672.664	18804
672.715	20106
672.766	18876
672.817	16995
672.868	17004
672.919	16355
672.970	15207
673.021	16158
673.071	15818
673.122	14936
673.173	15524
673.224	16072
673.275	15540
673.326	15167
673.376	14959
673.427	15468
673.478	15549
673.528	15245
673.579	15661
673.630	15540
673.680	16896
673.731	14876
673.782	15034
673.832	15779
673.883	16288
673.934	13977
673.984	15531
674.035	15963
674.085	15419
674.136	15530
674.186	16386
674.237	15887
674.287	15761
674.338	16826
674.388	18181
674.438	18489
674.489	19442
674.539	18368
674.589	19823
674.640	18716
674.690	17902
674.740	17561
674.791	17226
674.841	16677
674.891	15471
674.942	14235
674.992	13523
675.042	14881
675.092	12453
675.142	12509
675.193	12573
675.243	13415
675.293	14228
675.343	14648
675.393	15152
675.443	15780
675.493	14297
675.543	14220
675.593	13727
675.643	14441
675.693	14023
675.743	13990
675.793	12207
675.843	12080
675.893	12275
675.943	12241
675.993	11565
676.043	12001
676.093	11943
676.142	12214
676.192	12037
676.242	12252
676.292	12339
676.341	12386
676.391	11924
676.441	11841
676.491	10516
676.540	10616
676.590	10826
676.640	11102
676.689	10826
676.739	10068
676.789	9526
676.838	10593
676.888	9825
676.937	10529
676.987	10360
677.037	11150
677.086	10184
677.136	9974
677.185	10669
677.235	11089
677.284	10997
677.333	11423
677.383	9988
677.432	10499
677.482	9677
677.531	10208
677.580	8967
677.630	10184
677.679	10334
677.728	10108
677.778	9585
677.827	9442
677.876	10749
677.925	10777
677.975	11570
678.024	13041
678.073	12508
678.122	11841
678.171	13108
678.220	14776
678.269	15494
678.319	18079
678.368	17544
678.417	15056
678.466	12604
678.515	11216
678.564	10915
678.613	8938
678.662	9903
678.711	9603
678.760	10557
678.809	11369
678.857	12324
678.906	11850
678.955	11412
679.004	12082
679.053	14823
679.102	15056
679.151	11268
679.199	9593
679.248	9180
679.297	9914
679.346	8858
679.394	8511
679.443	8611
679.492	9510
679.540	9628
679.589	10260
679.638	10308
679.686	10716
679.735	12252
679.784	15578
679.832	16674
679.881	13734
679.929	11530
679.978	11457
680.026	11034
680.075	10568
680.123	8544
680.172	8654
680.220	9407
680.268	9560
680.317	8327
680.365	8232
680.414	7274
680.462	9499
680.510	9498
680.559	8862
680.607	8638
680.655	9443
680.703	8931
680.752	9304
680.800	9035
680.848	8990
680.896	8581
680.945	8790
680.993	7671
681.041	7641
681.089	7819
681.137	8284
681.185	8646
681.233	9190
681.258	8195
681.281	7227
681.329	7290
681.377	7175
681.380	7266
681.425	8455
681.473	9442
681.502	9299
681.521	9150
681.569	10099
681.617	9689
681.624	9608
681.665	8870
681.713	9580
681.745	9691
681.761	9713
681.809	8738
681.857	9999
681.867	9927
681.904	9571
681.952	9373
681.989	9233
682.000	9148
682.048	8576
682.096	9748
682.111	9573
682.143	9156
682.191	9626
682.233	9763
682.239	9752
682.286	9843
682.334	8866
682.354	9151
682.382	9492
682.430	10515
682.476	9504
682.477	9458
682.525	9578
682.572	10142
682.598	9513
682.620	8945
682.667	9690
682.715	10609
682.720	10586
682.763	10083
682.810	9561
682.841	10112
682.857	10370
682.905	9333
682.952	9388
682.963	9444
683.000	9493
683.047	10017
683.085	10401
683.095	10502
683.142	10153
683.190	9954
683.206	9754
683.237	9249
683.284	9991
683.328	9584
683.332	9534
683.379	9142
683.426	9363
683.449	9780
683.473	10194
683.521	10189
683.568	10212
683.571	10222
683.615	10030
683.662	10000
683.693	10124
683.709	10136
683.757	9456
683.804	9443
683.814	9492
683.851	9600
683.898	10207
683.936	10175
683.945	10163
683.992	9624
684.039	10025
684.057	10093
684.086	10159
684.133	10191
684.179	9889
684.180	9859
684.227	9863
684.274	10420
684.300	10035
684.321	9736
684.368	9991
684.415	10651
684.422	10653
684.462	10595
684.509	9632
684.543	10780
684.556	11176
684.603	10848
684.649	11432
684.665	11113
684.696	10376
684.743	11737
684.786	11770
684.790	11752
684.837	10553
684.883	10400
684.908	10941
684.930	11499
684.977	11647
685.023	11595
685.029	11614
685.070	11572
685.117	11225
685.150	11750
685.164	11897
685.210	11564
685.257	11695
685.272	11766
685.303	12031
685.350	12443
685.393	11991
685.396	11922
685.443	10533
685.490	11011
685.514	10820
685.536	10774
685.583	10637
685.629	10749
685.636	10825
685.675	11085
685.722	11403
685.757	11058
685.768	10966
685.815	10399
685.861	10994
685.878	11203
685.908	11591
685.954	11059
686.000	11979
686.000	11987
686.047	12608
686.093	11854
686.121	11984
686.139	12034
686.185	12137
686.232	11685
686.242	11985
686.278	12958
686.324	12413
686.363	12027
686.370	11931
686.416	12714
686.463	12452
686.484	12410
686.509	12404
686.555	12539
686.601	12557
686.606	12498
686.647	11861
686.693	11860
686.727	11742
686.739	11747
686.785	11635
686.831	11596
686.848	11887
686.877	12382
686.923	11879
686.969	12536
686.969	12539
687.015	12891
687.061	13504
687.090	13851
687.107	13894
687.153	14165
687.199	13844
687.211	13527
687.245	12611
687.291	12572
687.332	12854
687.336	12933
687.382	13188
687.428	14342
687.453	14098
687.474	13888
687.520	14989
687.565	15750
687.574	15828
687.611	17090
687.657	19332
687.695	21810
687.702	22650
687.748	29351
687.794	37822
687.816	37139
687.839	32224
687.885	25602
687.931	20333
687.937	19582
687.976	17456
688.022	15722
688.058	14731
688.067	14827
688.113	14114
688.158	13705
688.179	13681
688.204	13799
688.249	14183
688.295	14298
688.300	14302
688.340	14304
688.386	14836
688.421	14273
688.431	14144
688.477	14323
688.522	15225
688.542	15321
688.567	15562
688.613	15425
688.658	15792
688.663	15775
688.703	15352
688.749	14776
688.784	14967
688.794	15076
688.839	14950
688.884	15574
688.905	15682
688.930	15725
688.975	15154
689.020	14626
689.026	14676
689.065	15464
689.110	15603
689.146	15885
689.155	16058
689.201	17880
689.246	18762
689.267	18361
689.291	16972
689.336	16071
689.381	14488
689.388	14392
689.426	14989
689.471	14814
689.509	15422
689.516	15535
689.561	14935
689.606	15116
689.630	14915
689.651	14781
689.696	15054
689.741	15121
689.750	15277
689.785	16019
689.830	15415
689.871	15756
689.875	15755
689.920	15336
689.965	15426
689.992	14864
690.010	14635
690.054	14608
690.099	14672
690.112	14704
690.144	14973
690.189	15103
690.233	14338
690.233	14349
690.278	15035
690.323	15146
690.354	15324
690.367	15444
690.412	15367
690.457	15380
690.474	15312
690.501	15023
690.546	14458
690.590	14603
690.595	14522
690.635	14248
690.680	14246
690.716	14137
690.724	14165
690.769	14536
690.813	14891
690.836	15040
690.857	15252
690.902	15270
690.946	16105
690.957	16027
690.991	15580
691.035	15333
691.077	15863
691.080	15916
691.124	15798
691.168	15599
691.198	15415
691.213	15311
691.257	15622
691.301	15372
691.318	15278
691.346	15256
691.390	15468
691.434	15206
691.439	15221
691.478	15440
691.522	15293
691.559	15246
691.567	15379
691.611	16043
691.655	16884
691.680	17003
691.699	16776
691.743	16864
691.787	16621
691.800	16541
691.831	16581
691.875	16233
691.919	16515
691.921	16498
691.964	16830
692.008	17063
692.041	16664
692.052	16542
692.096	16721
692.139	16919
692.162	16913
692.183	16832
692.227	16368
692.271	16218
692.282	16132
692.315	16074
692.359	16007
692.402	15558
692.403	15580
692.447	15656
692.490	15828
692.523	15802
692.534	15841
692.578	15785
692.622	15867
692.643	15798
692.666	15547
692.709	15093
692.753	15203
692.763	15053
692.797	15357
692.840	15683
692.884	16105
692.884	16130
692.928	16091
692.971	15964
693.004	15435
693.015	15427
693.059	16140
693.102	16283
693.124	16487
693.146	16515
693.189	16109
693.233	15765
693.245	15698
693.276	15988
693.320	16465
693.363	16806
693.365	16787
693.407	16706
693.450	16424
693.485	16393
693.493	16475
693.537	16809
693.580	16797
693.605	17026
693.624	17075
693.667	16825
693.710	16432
693.725	16321
693.753	16369
693.797	16439
693.840	16460
693.845	16437
693.883	16364
693.926	16485
693.966	16029
693.970	16050
694.013	16546
694.056	16716
694.086	16963
694.099	16907
694.142	16252
694.185	16001
694.206	15639
694.229	15979
694.272	16994
694.315	18029
694.326	18154
694.358	17749
694.401	17538
694.444	17219
694.446	17157
694.487	17302
694.530	17664
694.566	17891
694.573	17919
694.616	17892
694.659	17821
694.686	17998
694.702	18258
694.745	18491
694.787	18829
694.806	18890
694.830	18763
694.873	18770
694.916	18366
694.926	18250
694.959	18710
695.002	19416
695.044	20309
695.046	20307
695.087	20574
695.130	20413
695.166	20238
695.172	20298
695.215	20599
695.258	20975
695.286	21181
695.301	21456
695.343	21779
695.386	22569
695.406	22752
695.428	23681
695.471	25709
695.514	27719
695.526	28323
695.556	29859
695.599	31708
695.641	32900
695.646	33000
695.684	31488
695.726	29884
695.766	28243
695.769	28242
695.811	27617
695.854	26740
695.886	26170
695.896	26395
695.938	26766
695.981	27516
696.005	27827
696.023	28559
696.065	30379
696.108	32034
696.125	32699
696.150	33248
696.192	33958
696.235	34449
696.245	34578
696.277	34837
696.319	34972
696.361	34945
696.365	34889
696.404	34286
696.446	33478
696.485	32657
696.488	32708
696.530	32489
696.572	32208
696.604	31987
696.614	32097
696.656	32413
696.698	32323
696.724	32423
696.740	32659
696.783	33065
696.825	33324
696.844	33401
696.867	33687
696.909	34220
696.951	34489
696.964	34587
696.992	34852
697.034	34777
697.076	35102
697.083	35069
697.118	36350
697.160	37638
697.202	39019
697.203	38973
697.244	38090
697.286	37163
697.323	36106
697.327	36245
697.369	37013
697.411	37641
697.442	38045
697.453	38027
697.494	37690
697.536	37283
697.562	36917
697.578	37040
697.620	37183
697.661	37417
697.682	37402
697.703	38142
697.744	39564
697.786	40959
697.801	41353
697.828	41117
697.869	40560
697.911	40080
697.921	39880
697.952	39619
697.994	39106
698.035	38551
698.040	38413
698.077	39144
698.118	39827
698.160	40544
698.160	40461
698.201	41610
698.243	42738
698.279	43714
698.284	43925
698.325	44891
698.367	45907
698.399	46621
698.408	46911
698.449	47757
698.491	48594
698.518	49020
698.532	49160
698.573	49282
698.614	49394
698.638	49366
698.656	49202
698.697	48537
698.738	47893
698.757	47468
698.779	47704
698.820	47975
698.862	48232
698.877	48224
698.903	48172
698.944	47910
698.985	47650
698.996	47472
699.026	47592
699.067	47609
699.116	47523
699.235	47620
699.354	47417
699.474	43899
699.593	43485
699.713	43485
699.832	43456
699.951	47591
700.070	45520
700.190	43072
700.309	41082
700.428	40209
700.547	40088
700.667	38794
700.786	40212
700.905	39068
701.024	39229
701.143	37788
701.262	41715
701.381	41596
701.500	41768
701.619	40699
701.738	42526
701.857	41170
701.976	38059
702.095	39333
702.214	40278
702.333	38593
702.452	41924
702.571	41459
702.690	40518
702.809	40777
702.928	39228
703.047	36656
703.165	38935
703.284	36689
703.403	38312
703.522	36271
703.640	35498
703.759	35601
703.878	34724
703.997	35302
704.115	36725
704.234	36335
704.353	37131
704.471	33789
704.590	32923
704.708	31964
704.827	32301
704.946	31593
705.064	33508
705.183	31340
705.301	33308
705.420	29946
705.538	30566
705.656	28009
705.775	28737
705.893	31234
706.012	31007
706.130	29535
706.249	31372
706.367	28874
706.485	29714
706.604	28023
706.722	31253
706.840	42990
706.958	77214
707.077	48415
707.195	29051
707.313	27636
707.431	26433
707.549	25311
707.668	23805
707.786	29180
707.904	26510
708.022	28103
708.140	26213
708.258	25138
708.376	28626
708.494	24703
708.612	29791
708.730	28393
708.848	28375
708.966	27688
709.084	28418
709.202	26346
709.320	24306
709.438	23731
709.556	25206
709.674	22229
709.791	23270
709.909	21781
710.027	23027
710.145	22307
710.263	22098
710.380	22750
710.498	21696
710.616	20853
710.733	20774
710.851	21103
710.969	20872
711.086	20481
711.204	22674
711.322	21568
711.439	22019
711.557	19060
711.674	21458
711.792	20628
711.909	19971
712.027	19396
712.144	19745
712.262	19988
712.379	21464
712.497	20648
712.614	19905
712.732	20628
712.849	19414
712.966	20724
713.084	22506
713.201	18816
713.318	21697
713.436	23504
713.553	23514
713.670	28270
713.787	26320
713.905	23359
714.022	27603
714.139	30749
714.256	41863
714.373	68266
714.490	133544
714.608	364171
714.725	1187018
714.842	1016434
714.959	164435
715.076	63572
715.193	43794
715.310	34685
715.427	25749
715.544	25896
715.661	24559
715.778	20829
715.895	22362
716.011	21329
716.128	21113
716.245	20478
716.362	19131
716.479	17224
716.596	18834
716.713	19152
716.829	17481
716.946	15350
717.063	16404
717.180	14971
717.296	14771
717.413	16035
717.530	15653
717.646	14819
717.763	14951
717.880	14967
717.996	13870
718.113	13827
718.229	14287
718.346	13355
718.462	13601
718.579	14561
718.695	14911
718.812	13523
718.928	14559
719.045	13824
719.161	14423
719.277	15726
719.394	16764
719.510	17205
719.626	20641
719.743	29439
719.859	52888
719.975	125470
720.092	482597
720.208	856887
720.324	130231
720.440	36815
720.557	23580
720.673	20197
720.789	17361
720.905	16340
721.021	15253
721.137	13701
721.253	12637
721.369	13227
721.486	14023
721.602	11740
721.718	12797
721.834	12372
721.950	12353
722.066	11715
722.181	12388
722.297	12376
722.413	12688
722.529	11548
722.645	13129
722.761	12266
722.877	13740
722.993	16589
723.108	26168
723.224	21517
723.340	14451
723.456	12333
723.571	11137
723.687	10457
723.803	12268
723.918	12243
724.034	10195
724.150	10502
724.265	11773
724.381	9754
724.497	10680
724.612	9953
724.728	11083
724.843	9610
724.959	11478
725.074	9999
725.190	11190
725.305	10133
725.421	10795
725.536	11147
725.651	10885
725.767	10804
725.882	11097
725.997	9920
726.113	10599
726.228	10021
726.343	11304
726.459	10471
726.574	10373
726.689	10809
726.804	10025
726.920	10096
727.035	10115
727.150	10447
727.265	9340
727.380	9765
727.495	10698
727.610	10049
727.725	10531
727.841	9082
727.956	10349
728.071	9880
728.186	10021
728.301	9450
728.416	11207
728.531	10154
728.645	9526
728.760	10053
728.875	10947
728.990	10305
729.105	9873
729.220	9422
729.335	11325
729.449	10570
729.564	10377
729.679	10179
729.794	10641
729.908	9895
730.023	11594
730.138	10896
730.253	11137
730.367	10477
730.482	11701
730.596	11718
730.711	16750
730.826	27494
730.940	30722
731.055	16468
731.169	17443
731.284	18513
731.398	19116
731.513	19912
731.627	25011
731.742	32970
731.856	41213
731.970	45000
732.085	62424
732.199	99905
732.313	188850
732.428	464365
732.542	1010608
732.656	550024
732.771	144811
732.885	75246
732.999	59828
733.113	54898
733.227	49764
733.342	46114
733.456	43797
733.570	41289
733.684	38368
733.798	35630
733.912	38231
734.026	36664
734.140	36485
734.254	34151
734.368	34106
734.482	34026
734.596	34965
734.710	32025
734.824	31605
734.938	32446
735.052	32642
735.166	31263
735.280	30339
735.393	30461
735.507	32053
735.621	30038
735.735	27187
735.849	30547
735.962	28698
736.076	29380
736.190	29563
736.303	28940
736.417	28935
736.531	27561
736.644	27530
736.758	27407
736.872	26373
736.985	28570
737.099	25861
737.212	26004
737.326	24582
737.439	27956
737.553	24822
737.666	26273
737.780	24346
737.893	26130
738.007	25383
738.120	26938
738.233	24329
738.347	24647
738.460	23195
738.573	26118
738.687	24929
738.800	23907
738.913	26280
739.026	23159
739.140	22755
739.253	23609
739.366	22971
739.479	23205
739.592	23451
739.705	21090
739.818	24691
739.932	20882
740.045	24339
740.158	21330
740.271	23579
740.384	20709
740.497	20355
740.610	21639
740.723	21004
740.836	20715
740.949	21608
741.062	23274
741.174	20869
741.287	20849
741.400	21313
741.513	19481
741.626	21909
741.739	18896
741.851	20115
741.964	21589
742.077	18933
742.189	17482
742.302	22669
742.415	19306
742.527	20976
742.640	19308
742.753	17414
742.865	20289
742.978	18216
743.090	17697
743.203	19748
743.316	17493
743.428	18576
743.541	17917
743.653	15903
743.766	17820
743.878	18496
743.990	16261
744.103	18775
744.215	17254
744.327	16511
744.440	20827
744.552	16306
744.664	16256
744.777	19743
744.889	15480
745.001	15863
745.113	18956
745.226	15417
745.338	15160
745.450	19687
745.562	15574
745.674	14986
745.786	18854
745.898	16452
746.010	15316
746.122	17017
746.234	16325
746.347	16912
746.459	15833
746.570	13614
746.682	18519
746.794	19355
746.906	13501
747.018	15987
747.130	16622
747.242	13319
747.354	14327
747.466	16800
747.577	13444
747.689	15392
747.801	14992
747.913	13516
748.024	13870
748.136	13557
748.248	13544
748.359	13701
748.471	15389
748.583	12106
748.694	12506
748.806	14623
748.918	12521
749.029	14022
749.141	14606
749.252	13967
749.364	11684
749.475	12403
749.587	11180
749.698	12049
749.809	12961
749.921	12397
750.032	11426
750.144	11946
750.255	10369
750.366	12193
750.478	11551
750.589	12600
750.700	11369
750.811	12040
750.923	10927
751.034	10269
751.145	13410
751.256	11351
751.367	11154
751.479	11585
751.590	11080
751.701	10715
751.812	10565
751.923	10582
752.034	13360
752.145	12750
752.256	11737
752.367	12178
752.478	10762
752.589	11992
752.700	11181
752.811	10514
752.922	11030
753.032	12960
753.143	11575
753.254	11274
753.365	14956
753.476	13901
753.586	11047
753.697	11221
753.808	10086
753.919	10548
754.029	10430
754.140	9340
754.251	10577
754.361	11005
754.472	11598
754.582	9942
754.693	11284
754.804	13441
754.914	9911
755.025	8266
755.135	10272
755.246	11061
755.356	9401
755.466	8626
755.577	9934
755.687	10269
755.798	9283
755.908	8465
756.018	9422
756.129	10116
756.239	10116
756.349	11760
756.460	13028
756.570	13909
756.680	10568
756.790	10666
756.900	9845
757.011	9486
757.121	8276
757.231	10200
757.341	9750
757.451	8621
757.561	8984
757.671	10167
757.781	8568
757.891	10025
758.001	9340
758.111	10431
758.221	12064
758.331	11868
758.441	10492
758.551	12018
758.661	12582
758.771	13615
758.880	12025
758.990	12130
759.100	11545
759.210	11599
759.320	11889
759.429	13023
759.539	14023
759.649	15894
759.758	19131
759.868	19924
759.978	19749
760.087	21912
760.197	21698
760.307	21660
760.416	18590
760.526	17166
760.635	18798
760.745	20255
760.854	21308
760.964	26813
761.073	24665
761.182	24510
761.292	19596
761.401	16515
761.511	13659
761.620	12817
761.729	12164
761.839	9829
761.948	10389
762.057	10172
762.166	11939
762.276	9648
762.385	10730
762.494	10356
762.603	7905
762.712	9922
762.822	8045
762.931	6947
763.040	7341
763.149	8336
763.258	7453
763.367	8286
763.476	6641
763.585	7223
763.694	6370
763.803	7199
763.912	8258
764.021	7824
764.130	6978
764.238	8671
764.347	8739
764.456	9697
764.565	8267
764.674	7054
764.783	6459
764.891	7628
765.000	7068
765.109	6321
765.217	4952
765.326	6575
765.435	6256
765.543	7154
765.652	5715
765.761	6288
765.869	5446
765.978	6769
766.086	7725
766.195	7095
766.303	9210
766.412	22605
766.520	16190
766.629	6724
766.737	7358
766.846	6932
766.954	5681
767.062	7502
767.171	6621
767.279	9612
767.387	6669
767.496	5851
767.604	5709
767.712	6084
767.820	5498
767.928	5971
768.037	5591
768.145	6033
768.253	5819
768.361	5949
768.469	5534
768.577	5198
768.685	6788
768.793	7057
768.901	6176
769.009	6527
769.117	6166
769.225	6553
769.333	7140
769.441	7501
769.549	7004
769.657	8394
769.765	10724
769.873	18109
769.981	8950
770.088	7808
770.196	6690
770.304	8927
770.412	9064
770.519	8848
770.627	9331
770.735	8969
770.842	8588
770.950	10396
771.058	10662
771.165	14996
771.273	15243
771.380	16978
771.488	25024
771.595	26280
771.703	22808
771.810	20764
771.918	22468
772.025	29123
772.133	30464
772.240	29682
772.348	33407
772.455	31101
772.562	27982
772.670	27522
772.777	28897
772.884	28705
772.991	26209
773.099	27356
773.206	27471
773.313	27562
773.420	26856
773.528	26891
773.635	25370
773.742	27895
773.849	24549
773.956	26810
774.063	25287
774.170	25851
774.277	25567
774.384	23532
774.491	23983
774.598	24873
774.705	24075
774.812	24272
774.919	23011
775.026	24726
775.133	24193
775.239	23804
775.346	22122
775.453	24676
775.560	20465
775.667	24574
775.773	21491
775.880	23289
775.987	20315
776.093	24550
776.200	23503
776.307	17985
776.413	21027
776.520	26163
776.627	18760
776.733	19396
776.840	19311
776.946	27457
777.053	21498
777.159	23292
777.266	19613
777.372	22868
777.478	24032
777.585	20564
777.691	17199
777.798	22110
777.904	17070
778.010	19247
778.117	18938
778.223	18843
778.329	19340
778.435	17256
778.542	20601
778.648	18103
778.754	17188
778.860	20861
778.966	17794
779.072	17196
779.178	17419
779.284	14412
779.391	18639
779.497	18088
779.603	18721
779.708	14267
779.815	13837
779.920	17854
780.026	14562
780.132	17925
780.238	14727
780.344	14905
780.450	20089
780.556	12222
780.661	16446
780.767	17619
780.873	10719
780.979	16218
781.085	16231
781.190	14605
781.296	13370
781.402	16881
781.507	14401
781.613	11233
781.719	16040
781.824	16104
781.930	13080
782.035	16205
782.141	16538
782.246	11374
782.352	13126
782.457	15193
782.563	14116
782.668	14560
782.773	12111
782.879	12178
782.984	13536
783.090	13165
783.195	14760
783.300	15663
783.405	12543
783.511	10963
783.616	12863
783.721	13903
783.826	11705
783.932	11508
784.037	12662
784.142	13532
784.247	12078
784.352	13084
784.457	9585
784.562	13861
784.667	12720
784.772	9842
784.877	9393
784.982	14089
785.087	12425
785.192	11455
785.297	11019
785.402	13537
785.507	12077
785.611	11352
785.716	9715
785.821	12386
785.926	11373
786.031	10263
786.135	10397
786.240	10978
786.345	8494
786.450	10624
786.554	10529
786.659	10873
786.763	10338
786.868	11424
786.973	11203
787.077	9366
787.182	8513
787.286	11734
787.391	12368
787.495	7533
787.600	7193
787.704	10351
787.809	10537
787.913	9824
788.017	9957
788.122	11964
788.226	8306
788.330	6563
788.435	10396
788.539	11088
788.643	6972
788.747	7102
788.852	10228
788.956	9038
789.060	10539
789.164	9794
789.268	9057
789.372	11135
789.476	8592
789.580	7622
789.684	8139
789.788	10247
789.892	8568
789.996	6226
790.100	6827
790.204	10830
790.308	10105
790.412	6880
790.516	6177
790.620	8961
790.724	9793
790.828	7503
790.931	5502
791.035	8267
791.139	7931
791.242	8831
791.346	8096
791.450	9067
791.554	7130
791.657	6159
791.761	8931
791.864	8838
791.968	9767
792.072	7952
792.175	6005
792.279	6760
792.382	5669
792.486	6819
792.589	7184
792.693	8602
792.796	5722
792.899	8781
793.003	7602
793.106	6709
793.209	5428
793.313	6261
793.416	4385
793.519	6688
793.623	9498
793.726	7075
793.829	5192
793.932	4632
794.035	5201
794.138	9663
794.242	8451
794.345	5366
794.448	4910
794.551	5078
794.654	8190
794.757	7531
794.860	5749
794.963	7894
795.066	5504
795.169	7878
795.272	6431
795.375	8300
795.477	5182
795.580	5632
795.683	5279
795.786	7253
795.889	5508
795.991	6525
796.094	6461
796.197	5903
796.300	8315
796.402	6996
796.505	5032
796.608	5326
796.710	6070
796.813	7736
796.915	7857
797.018	7654
797.120	6854
797.223	5693
797.326	8568
797.428	5884
797.530	4358
797.633	5957
797.735	8181
797.838	7302
797.940	8306
798.042	6316
798.145	5529
798.247	6273
798.349	4519
798.452	6920
798.554	7543
798.656	8348
798.758	9756
798.860	8190
798.962	5343
799.065	4961
799.167	4896
799.269	6715
799.371	7727
799.473	10929
799.575	9313
799.677	7529
799.779	6764
799.881	6212
799.983	7898
800.085	6307
800.187	5392
800.289	3418
800.390	5728
800.492	7730
800.594	6134
800.696	4946
800.798	4399
800.899	5102
801.001	6173
801.103	5730
801.205	5800
801.306	7102
801.408	5423
801.509	6079
801.611	6141
801.713	6190
801.814	3763
801.916	4039
802.017	3648
802.119	3862
802.220	5074
802.322	4056
802.423	5649
802.525	3645
802.626	4136
802.727	6277
802.829	5249
802.930	1739
803.031	4828
803.133	5299
803.234	5166
803.335	6318
803.436	3689
803.538	5276
803.639	3284
803.740	5754
803.841	4282
803.942	5856
804.043	5047
804.144	3433
804.245	4317
804.346	4930
804.447	3968
804.548	4487
804.649	5924
804.750	4380
804.851	3479
804.952	4057
805.053	3927
805.154	3368
805.255	5104
805.355	4279
805.456	3902
805.557	3409
805.658	3293
805.758	4371
805.859	4481
805.960	3832
806.061	3343
806.161	4327
806.262	3078
806.362	3286
806.463	3624
806.564	5500
806.664	5238
806.765	3387
806.865	3185
806.966	3625
807.066	2709
807.166	4148
807.267	4924
807.367	3264
807.468	4402
807.568	2063
807.668	3659
807.769	5824
807.869	3957
807.969	4770
808.069	2795
808.170	4154
808.270	3715
808.370	4073
808.470	4257
808.570	3414
808.670	3276
808.770	3857
808.870	2609
808.970	4056
809.070	2392
809.170	4054
809.271	3549
809.370	3896
809.470	4066
809.570	2720
809.670	2549
809.770	3290
809.870	3966
809.970	4647
810.070	2889
810.169	4634
810.269	2902
810.369	4754
810.469	3444
810.568	4081
810.668	2948
810.768	3056
810.867	2908
810.967	2911
811.066	3286
811.166	3673
811.265	4476
811.365	3518
811.464	2360
811.564	3143
811.663	3785
811.763	2784
811.862	3484
811.962	4211
812.061	3227
812.160	3351
812.260	3476
812.359	3269
812.458	3090
812.557	4250
812.657	3299
812.756	3858
812.855	3095
812.954	3311
813.053	2798
813.153	3828
813.252	2371
813.351	4984
813.450	3904
813.549	3053
813.648	4698
813.747	3556
813.846	4048
813.945	5015
814.044	4268
814.143	4179
814.242	4304
814.341	4482
814.439	5256
814.538	5601
814.637	5332
814.736	5447
814.835	5923
814.933	6589
815.032	7538
815.131	10617
815.229	20355
815.328	25656
815.427	17847
815.525	16865
815.624	16695
815.722	17695
815.821	16521
815.919	17641
816.018	15902
816.116	17188
816.215	16435
816.313	19436
816.412	22456
816.510	22155
816.609	24292
816.707	24950
816.805	22299
816.904	23818
817.002	22665
817.100	24172
817.198	24700
817.296	22875
817.395	23277
817.493	22369
817.591	20621
817.689	21119
817.787	21058
817.885	19577
817.983	19369
818.081	20427
818.179	21416
818.277	27792
818.375	23949
818.473	20303
818.571	17483
818.669	21065
818.767	20405
818.865	17633
818.963	15507
819.061	19783
819.158	18158
819.256	21958
819.354	20931
819.452	31683
819.549	25766
819.647	21658
819.745	15685
819.842	17833
819.940	17914
820.038	16549
820.135	14263
820.233	19060
820.330	15756
820.428	15824
820.525	17575
820.623	14612
820.720	15032
820.818	17025
820.915	16039
821.012	14597
821.110	13831
821.207	15721
821.304	14838
821.402	16370
821.499	16089
821.596	14212
821.693	14911
821.791	15432
821.888	13683
821.985	15708
822.082	10999
822.179	15687
822.276	14291
822.373	11377
822.470	13722
822.567	14796
822.664	12118
822.761	14351
822.858	15115
822.955	13193
823.052	11742
823.149	14312
823.246	14299
823.343	11387
823.440	11934
823.536	15168
823.633	13523
823.730	11547
823.827	14220
823.923	12960
824.020	11860
824.117	15002
824.213	13510
824.310	11823
824.407	10002
824.503	14911
824.600	10416
824.696	11924
824.793	14566
824.889	14578
824.986	10858
825.082	9702
825.179	9828
825.275	14946
825.371	15135
825.468	8884
825.564	7373
825.660	14212
825.757	15073
825.853	11652
825.949	8589
826.045	10186
826.142	11568
826.238	12183
826.334	12095
826.430	10806
826.526	7581
826.622	8298
826.718	13430
826.814	14049
826.910	9744
827.006	7473
827.102	7313
827.198	12073
827.294	12631
827.390	11987
827.486	8238
827.582	6849
827.678	8552
827.774	12744
827.869	7652
827.965	9930
828.061	8060
828.157	13150
828.252	11763
828.348	9203
828.444	8018
828.539	8995
828.635	9949
828.731	10034
828.826	8283
828.922	11543
829.017	12159
829.113	12348
829.208	9493
829.304	11220
829.399	14177
829.495	10565
829.590	10002
829.685	9587
829.781	10922
829.876	10427
829.971	5278
830.066	6677
830.162	10119
830.257	13337
830.352	8214
830.447	7892
830.543	8095
830.638	10925
830.733	11541
830.828	8227
830.923	10299
831.018	10749
831.113	11430
831.208	6254
831.303	5885
831.398	7000
831.493	10296
831.588	13597
831.683	6887
831.778	5937
831.873	7582
831.967	10540
832.062	9910
832.157	7882
832.252	7865
832.346	8378
832.441	10352
832.536	9246
832.631	8941
832.725	6326
832.820	7740
832.914	7895
833.009	5823
833.104	6263
833.198	7052
833.293	7784
833.387	9801
833.482	8045
833.576	7951
833.670	8703
833.765	8994
833.859	11202
833.954	9206
834.048	8264
834.142	5898
834.237	5311
834.331	7622
834.425	8215
834.519	5923
834.613	6672
834.708	5946
834.802	6299
834.896	7025
834.990	7567
835.084	4978
835.178	5548
835.272	7088
835.366	9032
835.460	8189
835.554	6464
835.648	4914
835.742	4493
835.836	5510
835.930	6450
836.024	6900
836.117	7001
836.211	5299
836.305	5904
836.399	5409
836.493	6532
836.586	6737
836.680	5959
836.774	4538
836.867	6095
836.961	4162
837.055	4638
837.148	5134
837.242	5624
837.335	5364
837.429	4915
837.522	4568
837.616	5203
837.709	5161
837.803	5369
837.896	7049
837.989	6699
838.083	3382
838.176	3196
838.269	2440
838.363	5229
838.456	4699
838.549	6570
838.642	4376
838.735	3849
838.829	5143
838.922	5543
839.015	5342
839.108	4591
839.201	5796
839.294	5807
839.387	4229
839.480	4632
839.573	3883
839.666	3192
839.759	4887
839.852	4092
839.945	5665
840.038	4579
840.131	3382
840.223	4538
840.316	4402
840.409	6780
840.502	5254
840.594	7261
840.687	2322
840.780	3347
840.873	2464
840.965	3278
841.058	5160
841.150	5729
841.243	2522
841.336	4810
841.428	3381
841.521	4619
841.613	4165
841.706	4276
841.798	3636
841.890	4472
841.983	2984
842.075	3963
842.167	3659
842.260	4906
842.352	5460
842.444	4445
842.537	2477
842.629	2846
842.721	3073
842.813	4864
842.905	3008
842.997	4775
843.090	4166
843.182	3352
843.274	2493
843.366	3227
843.458	4285
843.550	5238
843.642	3798
843.734	4168
843.826	2176
843.918	3292
844.009	3771
844.101	3738
844.193	4638
844.285	4769
844.377	4368
844.469	3481
844.560	2800
844.652	3685
844.744	2751
844.835	3396
844.927	4905
845.019	3575
845.110	3105
845.202	3915
845.293	3083
845.385	2706
845.476	3840
845.568	4002
845.659	2948
845.751	3988
845.842	3243
845.934	3447
846.025	3408
846.116	3341
846.208	3849
846.299	2497
846.390	2103
846.482	3686
846.573	4220
846.664	4566
846.755	3923
846.846	3977
846.937	2059
847.029	3263
847.120	2948
847.211	4505
847.302	5111
847.393	3424
847.484	4060
847.575	2050
847.666	1887
847.757	2527
847.847	3818
847.938	4968
848.029	4387
848.120	3889
848.211	3613
848.302	2390
848.392	2065
848.483	4008
848.574	3822
848.664	4034
848.755	3444
848.846	3412
848.936	3202
849.027	4743
849.118	4700
849.208	4515
849.299	7989
849.389	13457
849.480	22404
849.570	44498
849.661	81226
849.751	123692
849.841	50065
849.932	12372
850.022	6035
850.112	5706
850.203	4282
850.293	4274
850.383	3343
850.474	4062
850.564	2843
850.654	3578
850.744	3163
850.834	3589
850.924	4133
851.014	5550
851.104	3723
851.194	2284
851.284	3021
851.374	3712
851.464	3090
851.554	3804
851.644	3048
851.734	4659
851.824	3416
851.914	2839
852.004	4186
852.094	2680
852.183	3015
852.273	3738
852.363	3008
852.452	4373
852.542	4476
852.632	3684
852.721	3576
852.811	4053
852.901	5280
852.990	6576
853.080	5573
853.169	5878
853.259	6192
853.348	7540
853.438	8883
853.527	12790
853.617	17267
853.706	28340
853.795	47603
853.885	86242
853.974	143864
854.063	233123
854.152	276747
854.242	154307
854.331	60111
854.420	30919
854.509	20253
854.598	14577
854.687	11084
854.777	9990
854.866	6357
854.955	7239
855.044	5463
855.133	5757
855.222	4853
855.311	4962
855.400	3976
855.488	4483
855.577	4050
855.666	3382
855.755	4674
855.844	3512
855.933	3373
856.021	3535
856.110	2882
856.199	2920
856.288	2215
856.376	2849
856.465	2355
856.554	3915
856.642	3506
856.731	4960
856.819	3509
856.908	3756
856.996	2850
857.085	2775
857.173	2021
857.262	2262
857.350	1732
857.438	2965
857.527	3303
857.615	3293
857.703	4304
857.792	2413
857.880	2380
857.968	2106
858.056	3037
858.145	2720
858.233	3377
858.321	2706
858.409	3026
858.497	3485
858.585	2464
858.673	2322
858.761	1447
858.849	2685
858.937	1779
859.025	3367
859.113	3058
859.201	3525
859.289	4028
859.377	3135
859.465	2544
859.552	3268
859.640	2024
859.728	3283
859.816	2256
859.903	2481
859.991	1213
860.079	3627
860.166	2706
860.254	2816
860.342	2391
860.429	2871
860.517	2741
860.604	3425
860.692	2037
860.779	2044
860.867	2648
860.954	3351
861.042	3906
861.129	4357
861.216	3060
861.304	3906
861.391	2328
861.478	3537
861.565	2962
861.653	3682
861.740	2045
861.827	3210
861.914	2613
862.001	2964
862.089	3660
862.176	3982
862.263	2701
862.350	3398
862.437	2562
862.524	2945
862.611	3405
862.698	4006
862.785	3904
862.871	4501
862.958	3935
863.045	3408
863.132	3336
863.219	3579
863.306	1888
863.392	2994
863.479	3141
863.566	3219
863.652	3413
863.739	3287
863.826	3830
863.912	4240
863.999	3325
864.086	5062
864.172	4556
864.259	5961
864.345	4999
864.432	5601
864.518	5516
864.604	5891
864.691	5488
864.777	6387
864.863	8876
864.950	13453
865.036	16660
865.122	27525
865.209	26813
865.295	24607
865.381	23473
865.467	24012
865.553	25458
865.639	30031
865.726	39750
865.812	60472
865.898	94073
865.984	133255
866.070	199749
866.156	196683
866.242	92754
866.328	44448
866.414	30118
866.499	25041
866.585	23168
866.671	21478
866.757	20298
866.843	19750
866.928	19710
867.014	19538
867.100	18171
867.186	18476
867.271	16429
867.357	17882
867.442	16478
867.528	18173
867.614	17119
867.699	16179
867.785	17423
867.870	17174
867.956	16994
868.041	17069
868.127	14816
868.212	15672
868.297	16226
868.383	15786
868.468	15421
868.553	17021
868.639	14942
868.724	16011
868.809	15605
868.894	14885
868.979	14838
869.065	15377
869.150	12288
869.235	15846
869.320	15033
869.405	12923
869.490	16416
869.575	13898
869.660	11597
869.745	16724
869.830	15228
869.915	13533
870.000	13465
870.085	13415
870.169	17012
870.254	15423
870.339	10390
870.424	12058
870.509	14571
870.593	17299
870.678	15289
870.763	12738
870.847	11534
870.932	15363
871.016	13934
871.101	10735
871.186	14575
871.270	16346
871.355	9987
871.439	13242
871.523	14241
871.608	11463
871.692	11451
871.777	15225
871.861	13586
871.945	12414
872.030	13072
872.114	12531
872.198	10448
872.282	11779
872.367	11373
872.451	11406
872.535	11150
872.619	12078
872.703	11418
872.787	13601
872.871	12377
872.955	9984
873.039	8735
873.123	12301
873.207	11347
873.291	8452
873.375	10190
873.459	14109
873.543	10500
873.627	10157
873.711	8928
873.794	12352
873.878	9914
873.962	9242
874.045	9605
874.129	10270
874.137	10324
874.213	10859
874.245	10565
874.296	10098
874.352	9074
874.380	8581
874.460	9942
874.464	9998
874.547	8955
874.568	9576
874.631	11457
874.676	10953
874.714	10494
874.784	11459
874.798	11665
874.881	8812
874.892	8731
874.965	8240
874.999	9153
875.048	10350
875.107	9962
875.131	9788
875.215	7259
875.215	7259
875.298	8296
875.323	8909
875.381	10369
875.430	11815
875.465	12765
875.538	9627
875.548	9184
875.631	7899
875.646	7573
875.714	6277
875.753	7578
875.798	9074
875.861	10266
875.881	10593
875.964	8614
875.968	8545
876.047	7420
876.076	8042
876.130	9179
876.183	9388
876.213	9511
876.291	9431
876.296	9416
876.379	8257
876.398	8140
876.462	7804
876.506	7197
876.545	6698
876.613	7626
876.628	7843
876.711	8169
876.721	8386
876.794	10076
876.828	9444
876.877	8209
876.935	7431
876.960	7220
877.043	6283
877.043	6294
877.125	8960
877.150	9358
877.208	10130
877.258	8535
877.291	7329
877.365	6489
877.374	6417
877.456	6779
877.472	6602
877.539	5967
877.579	7287
877.622	8692
877.687	8095
877.704	7921
877.787	8431
877.794	8406
877.869	8140
877.901	8194
877.952	7928
878.008	6163
878.034	5474
878.115	6106
878.117	6122
878.199	6480
878.222	7060
878.282	8847
878.329	9326
878.364	9327
878.437	8198
878.447	8039
878.529	6340
878.544	6290
878.611	6175
878.651	6568
878.694	7255
878.758	7723
878.776	7783
878.858	7908
878.865	7851
878.941	6597
878.972	5932
879.023	5156
879.078	5605
879.105	6086
879.185	7849
879.187	7868
879.269	8122
879.292	8011
879.351	7496
879.399	6815
879.433	6438
879.506	6464
879.516	6508
879.598	6601
879.613	6497
879.680	5622
879.720	6228
879.762	7189
879.827	6671
879.844	6354
879.926	6266
879.933	6189
880.007	6135
880.040	5832
880.089	5119
880.147	6215
880.171	6897
880.253	7744
880.254	7744
880.335	6672
880.360	6805
880.417	7773
880.467	7736
880.499	7356
880.574	6960
880.580	6996
880.662	7377
880.680	7174
880.744	5548
880.787	5397
880.825	5710
880.893	6217
880.907	6210
880.989	5573
881.000	5683
881.070	7509
881.106	7531
881.152	6532
881.213	5532
881.233	5422
881.315	5755
881.319	5745
881.396	5618
881.426	5705
881.478	6179
881.532	7750
881.559	8352
881.639	6186
881.641	6115
881.722	5594
881.745	5408
881.803	6136
881.852	6773
881.885	6649
881.958	5200
881.966	5079
882.047	5997
882.064	5738
882.129	4689
882.171	4386
882.210	3876
882.277	3633
882.291	3875
882.372	6160
882.383	6323
882.454	7020
882.489	7229
882.535	7175
882.596	7371
882.616	7395
882.697	6244
882.702	6187
882.778	4745
882.808	4672
882.859	4613
882.914	3985
882.940	4205
883.020	5409
883.021	5414
883.102	5827
883.127	6115
883.183	7410
883.233	7385
883.264	6267
883.339	4053
883.345	3963
883.426	3817
883.445	3698
883.507	4203
883.551	4708
883.587	5416
883.657	6976
883.668	7102
883.749	6895
883.763	6872
883.830	5093
883.869	4111
883.910	3824
883.975	4123
883.991	4470
884.072	5593
884.081	5793
884.152	7348
884.187	7645
884.233	7685
884.292	7277
884.314	6440
884.394	3825
884.398	3721
884.475	3611
884.504	3514
884.555	3568
884.610	3639
884.636	3967
884.716	5529
884.716	5541
884.797	7190
884.821	7542
884.877	7078
884.927	6561
884.958	5826
885.033	4276
885.038	4209
885.118	3217
885.139	2948
885.199	3105
885.244	3664
885.279	4624
885.350	6115
885.359	6234
885.439	7642
885.456	7558
885.520	5414
885.561	4740
885.600	4420
885.667	3928
885.680	4096
885.760	4851
885.773	4933
885.840	3658
885.878	3202
885.920	3359
885.984	3754
886.000	4026
886.080	4885
886.089	5005
886.160	5966
886.195	6180
886.240	5585
886.300	5010
886.320	5083
886.400	5675
886.406	5671
886.480	4226
886.511	3831
886.560	3926
886.616	3814
886.640	3759
886.720	3919
886.722	3917
886.800	3763
886.827	3789
886.879	4391
886.932	4819
886.959	5278
887.038	6775
887.039	6768
887.119	5511
887.143	5204
887.198	5619
887.248	5900
887.278	5517
887.354	4500
887.358	4525
887.437	4858
887.459	5038
887.517	5336
887.564	5377
887.596	4871
887.669	3890
887.676	3778
887.755	2365
887.774	2031
887.835	3088
887.880	3975
887.914	4240
887.985	4771
887.994	4916
888.073	6131
888.090	6348
888.153	6769
888.195	6907
888.232	6062
888.300	4905
888.311	4685
888.391	2944
888.405	2642
888.470	3172
888.510	3458
888.549	3513
888.615	3726
888.628	4101
888.708	6232
888.720	6568
888.787	6058
888.825	5699
888.866	4456
888.930	2651
888.945	2767
889.024	3364
889.035	3438
889.103	5419
889.140	6482
889.182	5397
889.245	3858
889.261	4071
889.340	4998
889.349	5108
889.419	4730
889.454	4529
889.498	4153
889.559	3668
889.577	3906
889.656	4949
889.664	5055
889.735	5037
889.768	5020
889.814	4562
889.873	3939
889.978	4556
890.083	3209
890.187	4818
890.292	5843
890.397	4366
890.501	3070
890.606	3407
890.710	4136
890.815	7336
890.919	4071
891.024	4737
891.128	3574
891.233	2497
891.337	4884
891.442	6049
891.546	4104
891.650	2622
891.755	2340
891.859	5071
891.963	5505
892.068	5141
892.172	3352
892.276	2767
892.380	3386
892.484	5659
892.589	5270
892.693	4753
892.797	2037
892.901	2594
893.005	2827
893.109	6038
893.213	6173
893.317	4065
893.421	2645
893.525	2060
893.629	2966
893.733	6213
893.837	5186
893.941	5122
894.045	3018
894.148	2263
894.252	3058
894.356	5641
894.460	7310
894.564	4176
894.667	3060
894.771	2579
894.875	2426
894.978	4065
895.082	4357
895.186	5688
895.289	3391
895.393	2991
895.496	4718
895.600	3342
895.703	2164
895.807	3341
895.910	3378
896.014	4730
896.117	2593
896.221	3420
896.324	3942
896.427	3061
896.531	2361
896.634	3573
896.737	2958
896.840	4260
896.944	5070
897.047	5123
897.150	4261
897.253	2735
897.356	1957
897.460	2614
897.563	2609
897.666	4914
897.769	4209
897.872	2435
897.975	2346
898.078	4337
898.181	2059
898.284	3506
898.387	5291
898.490	3922
898.593	3513
898.695	2962
898.798	2656
898.901	3037
899.004	3272
899.107	4273
899.209	2824
899.312	6079
899.415	2986
899.518	2041
899.620	1999
899.723	2787
899.826	3809
899.928	2545
900.031	2666
900.133	5192
900.236	3349
900.338	1440
900.441	2673
900.543	3310
900.646	3779
900.748	3637
900.851	4560
900.953	3037
901.055	2083
901.158	3406
901.260	2551
901.362	1513
901.465	1988
901.567	3427
901.669	4172
901.771	2335
901.873	3079
901.976	3571
902.078	2247
902.180	2464
902.282	2328
902.384	2277
902.486	4765
902.588	4340
902.690	2112
902.792	1965
902.894	2742
902.996	4696
903.098	3607
903.200	2982
903.302	2481
903.404	1718
903.505	2033
903.607	3174
903.709	5397
903.811	5828
903.913	2978
904.014	2043
904.116	1967
904.218	2781
904.319	3603
904.421	5981
904.523	4660
904.624	3412
904.726	2294
904.827	2558
904.929	2994
905.030	3210
905.132	5477
905.233	4116
905.335	1765
905.436	2450
905.537	1958
905.639	2547
905.740	3040
905.841	5193
905.943	3580
906.044	3341
906.145	2133
906.247	1496
906.348	2058
906.449	2889
906.550	4025
906.651	2212
906.752	2746
906.854	2573
906.955	1584
907.056	2940
907.157	4327
907.258	4832
907.359	1950
907.460	2624
907.561	2078
907.662	1413
907.762	3193
907.863	3422
907.964	3917
908.065	3353
908.166	2162
908.267	1837
908.367	2489
908.468	1950
908.569	2248
908.670	3908
908.770	2176
908.871	3554
908.971	2732
909.072	2002
909.173	2259
909.273	2530
909.374	3409
909.474	2730
909.575	1657
909.675	1633
909.776	2989
909.876	2029
909.977	1868
910.077	3316
910.177	3221
910.278	3054
910.378	1471
910.478	2540
910.579	3337
910.679	3692
910.779	3112
910.879	3703
910.980	3189
911.080	3666
911.180	1663
911.280	2528
911.380	1570
911.480	2434
911.580	1442
911.680	3025
911.780	2012
911.880	3212
911.980	1670
912.080	2348
912.180	3018
912.280	2725
912.380	2339
912.480	2346
912.580	1496
912.679	2425
912.779	3314
912.879	3767
912.979	1881
913.078	1962
913.178	1410
913.278	2478
913.377	2005
913.477	1937
913.577	2069
913.676	3549
913.776	3169
913.875	2765
913.975	2341
914.074	2036
914.174	3570
914.273	2230
914.373	2501
914.472	2385
914.572	1484
914.671	2050
914.770	2034
914.870	2180
914.969	1487
915.068	3467
915.167	3579
915.267	2214
915.366	2874
915.465	2737
915.564	2964
915.663	3507
915.763	2534
915.862	3310
915.961	3255
916.060	2834
916.159	1721
916.258	1717
916.357	2192
916.456	3671
916.555	3058
916.654	3429
916.752	4053
916.851	3495
916.950	3236
917.049	2702
917.148	1932
917.247	2017
917.345	1700
917.444	2105
917.543	2140
917.642	3338
917.740	2837
917.839	5521
917.937	5024
918.036	5112
918.135	2719
918.233	3022
918.332	3142
918.430	2760
918.529	2013
918.627	3632
918.726	3680
918.824	3527
918.923	2915
919.021	2703
919.119	2066
919.218	1961
919.316	3178
919.414	3183
919.512	4091
919.611	4207
919.709	3640
919.807	4970
919.905	5751
920.003	5421
920.102	4335
920.200	5013
920.298	5081
920.396	5416
920.494	4405
920.592	4943
920.690	3598
920.788	3940
920.886	4411
920.984	4546
921.082	5756
921.180	6099
921.277	6016
921.375	7098
921.473	9662
921.571	9593
921.669	8777
921.766	7503
921.864	8570
921.962	8549
922.060	7511
922.157	8157
922.255	8168
922.352	9312
922.450	9703
922.548	9887
922.645	10595
922.743	14686
922.840	23111
922.938	27123
923.035	23013
923.133	22850
923.230	26293
923.327	33004
923.425	29777
923.522	29080
923.619	26212
923.717	24195
923.814	22930
923.911	22663
924.008	24422
924.106	22538
924.203	21961
924.300	23221
924.397	22832
924.494	23279
924.591	22983
924.688	21025
924.786	23254
924.883	23335
924.979	22855
925.077	22592
925.173	21200
925.270	21847
925.367	22359
925.464	23747
925.561	23512
925.658	24803
925.755	18609
925.852	23742
925.948	22271
926.045	22463
926.142	21696
926.239	24332
926.335	18571
926.432	21761
926.529	22079
926.625	25010
926.722	19561
926.818	18949
926.915	22172
927.011	20560
927.108	19949
927.204	21774
927.301	18728
927.397	22270
927.494	24090
927.590	16017
927.687	16638
927.783	23030
927.879	22623
927.976	18796
928.072	17005
928.168	20246
928.264	19935
928.361	18591
928.457	22409
928.553	18085
928.649	18442
928.745	20233
928.841	17013
928.937	18230
929.033	19043
929.129	16463
929.225	20945
929.321	17444
929.417	15947
929.513	20513
929.609	17025
929.705	15315
929.801	19933
929.897	16798
929.993	15733
930.089	17372
930.184	14588
930.280	17531
930.376	21384
930.471	15962
930.567	13576
930.663	17024
930.758	14930
930.854	16756
930.950	16567
931.045	15254
931.141	15163
931.236	19424
931.332	16782
931.427	12037
931.523	19457
931.618	17800
931.714	11774
931.809	13676
931.905	17825
932.000	12379
932.095	11167
932.191	17899
932.286	19911
932.381	16552
932.476	11249
932.572	15410
932.667	13194
932.762	12472
932.857	14769
932.952	18294
933.047	14756
933.142	11894
933.237	14426
933.332	16181
933.427	16835
933.522	13478
933.617	12034
933.712	12906
933.807	16082
933.902	18299
933.997	18116
934.092	11585
934.187	13456
934.282	14952
934.376	14219
934.471	17403
934.566	11641
934.661	12265
934.755	14799
934.850	17173
934.945	12964
935.039	11162
935.134	10049
935.228	11879
935.323	20469
935.417	12723
935.512	8806
935.606	9340
935.701	13900
935.795	15189
935.890	13317
935.984	10855
936.079	7881
936.173	13143
936.267	10906
936.362	10334
936.456	12649
936.550	18065
936.644	13226
936.738	10138
936.833	9787
936.927	8174
937.021	9992
937.115	11933
937.209	13029
937.303	11941
937.397	8784
937.491	12260
937.585	14054
937.679	12175
937.773	8608
937.867	9413
937.961	8162
938.055	14461
938.149	12927
938.243	7632
938.337	7426
938.430	9939
938.524	15661
938.618	13255
938.712	8813
938.805	10581
938.899	12563
938.993	15664
939.086	9395
939.180	7706
939.274	10460
939.367	12803
939.461	13592
939.554	8921
939.648	7762
939.741	9447
939.835	9525
939.928	15071
940.022	12146
940.115	10451
940.208	11719
940.302	13088
940.395	14982
940.488	9988
940.582	8818
940.675	8073
940.768	7979
940.861	12340
940.954	13083
941.048	7831
941.141	6869
941.234	8777
941.327	9379
941.420	10622
941.513	10289
941.606	8105
941.699	7784
941.792	11141
941.885	9519
941.978	9793
942.071	10486
942.164	7674
942.257	6591
942.349	8470
942.442	10820
942.535	6107
942.628	8273
942.721	9345
942.813	8524
942.906	9592
942.999	7411
943.091	6880
943.184	8526
943.277	8658
943.369	7211
943.462	4521
943.554	7859
943.647	9496
943.739	10295
943.832	12232
943.924	4611
944.017	6191
944.109	6138
944.201	7573
944.294	7685
944.386	7922
944.478	7277
944.571	6556
944.663	6822
944.755	7319
944.847	9074
944.940	8159
945.032	4979
945.124	4620
945.216	7007
945.308	8541
945.400	7796
945.492	6375
945.584	9906
945.676	10891
945.768	8215
945.860	9507
945.952	11172
946.044	7966
946.136	6481
946.228	7488
946.320	6299
946.412	8720
946.503	8921
946.595	10447
946.687	5791
946.779	5346
946.870	4607
946.962	6015
947.054	6013
947.145	8642
947.237	6147
947.329	7336
947.420	8457
947.512	6780
947.603	3478
947.695	5599
947.786	6919
947.878	6535
947.969	6710
948.061	8737
948.152	7061
948.243	4242
948.335	3876
948.426	5645
948.517	7198
948.609	8312
948.700	7106
948.791	6233
948.882	3731
948.973	4462
949.065	6866
949.156	7213
949.247	3581
949.338	6049
949.429	3428
949.520	4851
949.611	5921
949.702	7424
949.793	5046
949.884	6609
949.975	5362
950.066	3962
950.157	4365
950.247	5166
950.338	4334
950.429	4804
950.520	5659
950.611	3602
950.701	5356
950.792	8401
950.883	6300
950.973	5706
951.064	6360
951.155	6966
951.245	6578
951.336	8003
951.427	7462
951.517	8740
951.608	6011
951.698	6518
951.788	4902
951.879	4032
951.969	4367
952.060	5378
952.150	6105
952.240	7668
952.331	6307
952.421	7605
952.511	4428
952.602	3444
952.692	3265
952.782	3494
952.872	4083
952.962	6800
953.052	4778
953.143	3930
953.233	4291
953.323	5187
953.413	5981
953.503	7296
953.593	6235
953.683	5342
953.773	2925
953.863	3523
953.953	3126
954.042	4678
954.132	5832
954.222	5569
954.312	3456
954.402	4138
954.492	4277
954.581	4955
954.671	5677
954.761	4606
954.850	5886
954.940	1909
955.030	2941
955.119	3015
955.209	3190
955.298	5119
955.388	5562
955.477	7245
955.567	2527
955.656	3839
955.746	4280
955.835	3982
955.925	3459
956.014	5083
956.103	7070
956.193	8073
956.282	6533
956.371	4812
956.461	4245
956.550	5007
956.639	4634
956.728	4831
956.817	4542
956.906	5164
956.995	5918
957.085	4139
957.174	4200
957.263	3862
957.352	3936
957.441	4635
957.530	4341
957.619	4045
957.708	4282
957.796	4259
957.885	4307
957.974	3951
958.063	4085
958.152	2610
958.241	3179
958.329	3612
958.418	3115
958.507	4616
958.596	6501
958.684	4310
958.773	4888
958.861	3010
958.950	3250
959.039	3567
959.127	3309
959.216	4930
959.304	3476
959.393	4343
959.481	4522
959.570	3367
959.658	2474
959.746	3436
959.835	2617
959.923	3291
960.011	2795
960.100	4659
960.188	4965
960.276	4511
960.365	2678
960.453	2887
960.541	2334
960.629	3243
960.717	2021
960.805	1451
960.893	3251
960.981	4299
961.069	5898
961.158	6482
961.245	6784
961.333	6252
961.421	3359
961.509	3815
961.597	4350
961.685	3486
961.773	3535
961.861	4657
961.949	4960
962.036	3590
962.124	3433
962.212	3694
962.299	3984
962.387	2370
962.475	2718
962.562	2907
962.650	4893
962.738	3047
962.825	1949
962.913	3058
963.000	2650
963.088	4733
963.175	4222
963.263	3616
963.350	2750
963.438	3441
963.525	2313
963.612	3839
963.700	2249
963.787	4669
963.874	3257
963.962	3335
964.049	1549
964.136	2830
964.223	2427
964.310	2713
964.398	2759
964.485	3299
964.572	3638
964.659	4105
964.746	2703
964.833	2109
964.920	2138
965.007	2800
965.094	2625
965.181	3134
965.268	3394
965.355	3301
965.441	2952
965.528	2857
965.615	4093
965.702	3490
965.789	2767
965.875	4292
965.962	5431
966.049	2707
966.136	4975
966.222	4848
966.309	5140
966.395	4414
966.482	4552
966.569	4216
966.655	3703
966.742	2787
966.828	3444
966.915	2107
967.001	2503
967.087	2064
967.174	2445
967.260	3348
967.347	2663
967.433	2537
967.519	3411
967.605	3918
967.692	3729
967.778	3857
967.864	3056
967.950	2808
968.036	2220
968.123	3269
968.209	3240
968.295	1323
968.381	4541
968.467	2416
968.553	1374
968.639	3499
968.725	2385
968.811	4102
968.897	3777
968.983	3922
969.069	2539
969.154	2981
969.240	2674
969.326	2090
969.412	1522
969.497	3151
969.583	2463
969.669	4490
969.755	4177
969.840	3205
969.926	6546
970.012	7791
970.097	8405
970.183	7879
970.268	4801
970.354	3432
970.439	2272
970.525	3642
970.610	1514
970.696	4654
970.781	3507
970.866	1755
970.952	3258
971.037	3060
971.122	3057
971.208	3691
971.293	3490
971.378	2455
971.463	2826
971.549	3588
971.634	2227
971.719	3174
971.804	2679
971.889	2906
971.974	2581
972.059	3373
972.144	3563
972.229	4119
972.314	2598
972.399	2837
972.484	1859
972.569	2282
972.654	1630
972.739	3487
972.824	2397
972.908	3131
972.993	1773
973.078	2859
973.163	3235
973.247	3186
973.332	1484
973.417	3978
973.501	1911
973.586	3542
973.671	2624
973.755	2177
973.840	3300
973.924	4722
974.009	5176
974.093	5892
974.178	5672
974.262	5486
974.346	2235
974.431	3726
974.515	3006
974.600	3202
974.684	3024
974.768	2993
974.852	4333
974.937	2556
975.021	2911
975.105	3787
975.189	2860
975.273	2711
975.358	1984
975.442	2084
975.526	3319
975.610	2900
975.694	2751
975.778	3520
975.862	2902
975.946	1362
976.030	4509
976.114	3312
976.198	3004
976.281	2826
976.365	3937
976.449	2171
976.533	3173
976.617	2955
976.700	2522
976.784	2670
976.868	1705
976.951	2972
977.035	2541
977.119	3414
977.202	2452
977.286	3732
977.369	4321
977.453	8378
977.536	6698
977.620	5459
977.703	4677
977.787	3365
977.870	4780
977.953	5136
978.037	2319
978.120	3711
978.203	2430
978.287	5451
978.370	3854
978.453	2820
978.536	2938
978.620	3741
978.703	3339
978.786	2930
978.869	2640
978.952	2797
979.035	4881
979.118	4289
979.201	2710
979.284	4432
979.367	3323
979.450	4316
979.533	2874
979.616	2957
979.699	2718
979.782	4321
979.865	3755
979.948	3015
980.030	3207
980.113	3498
980.196	2340
980.279	4414
980.361	2718
980.444	3615
980.526	4184
980.609	8038
980.692	8976
980.774	7768
980.857	4854
980.939	6535
981.022	5014
981.104	4115
981.187	3403
981.269	5308
981.352	4743
981.434	3390
981.516	4159
981.599	5425
981.681	4305
981.763	2993
981.846	3663
981.928	3759
982.010	4250
982.092	3459
982.174	4407
982.256	4539
982.339	3327
982.421	4606
982.503	3966
982.585	2170
982.667	3875
982.749	3701
982.831	2637
982.913	3467
982.995	4393
983.077	3594
983.158	5375
983.240	4053
983.322	5530
983.404	9916
983.486	7902
983.568	7110
983.649	6581
983.731	6526
983.813	5608
983.894	5162
983.976	4951
984.058	6293
984.139	6453
984.221	3921
984.302	5684
984.384	6243
984.465	5384
984.547	5697
984.628	4674
984.710	6396
984.791	5037
984.872	5629
984.954	4625
985.035	5834
985.116	5671
985.198	4595
985.279	6430
985.360	5484
985.441	5658
985.522	6472
985.604	5909
985.685	4021
985.766	5734
985.847	6483
985.928	5162
986.009	5258
986.090	4578
986.171	6426
986.252	6028
986.333	5767
986.414	5342
986.495	6212
986.576	5713
986.656	6231
986.737	7012
986.818	7271
986.899	5387
986.980	6382
987.060	6635
987.141	6699
987.222	8042
987.302	8616
987.383	9298
987.464	7891
987.544	8725
987.625	7656
987.705	9080
987.786	9350
987.866	8056
987.947	8476
988.027	8739
988.108	7007
988.188	7093
988.268	7252
988.349	7761
988.429	7705
988.509	6419
988.589	6668
988.670	5187
988.750	8162
988.830	6329
988.910	7194
988.990	7703
989.070	6853
989.151	5858
989.231	6327
989.311	7292
989.391	6224
989.471	5488
989.551	7029
989.631	4921
989.711	6970
989.791	5722
989.870	5669
989.950	7000
990.030	6395
990.110	6233
990.190	5618
990.269	4166
990.349	5625
990.429	6899
990.509	5459
990.588	3534
990.668	5117
990.747	5854
990.827	5878
990.907	5701
990.986	6506
991.066	5582
991.145	4116
991.225	5658
991.304	5881
991.383	5042
991.463	5232
991.542	6184
991.622	4672
991.701	4375
991.780	4987
991.859	4039
991.939	4750
992.018	4672
992.097	5830
992.176	3920
992.256	3997
992.335	3988
992.414	4914
992.493	3912
992.572	4160
992.651	5271
992.730	5298
992.809	3417
992.888	3663
992.967	4259
993.046	5243
993.125	3439
993.203	3324
993.282	4176
993.361	5138
993.440	3170
993.519	3327
993.597	3742
993.676	2875
993.755	5046
993.834	3537
993.912	2753
993.991	3999
994.069	2867
994.148	4732
994.226	2310
994.305	3382
994.384	3454
994.462	5490
994.540	2570
994.619	2232
994.697	3832
994.776	3498
994.854	4115
994.932	2793
995.011	2892
995.089	3025
995.167	2557
995.245	2855
995.324	2295
995.402	3769
995.480	2294
995.558	3335
995.636	2489
995.714	2503
995.792	3703
995.870	2359
995.948	1428
996.026	2317
996.104	1595
996.182	3182
996.260	1775
996.338	2840
996.416	2047
996.494	2558
996.572	2908
996.649	2121
996.727	1559
996.805	3374
996.883	2501
996.960	2155
997.038	2583
997.116	3172
997.193	1670
997.271	3148
997.348	991
997.426	2123
997.504	2661
997.581	3354
997.658	1644
997.736	60
997.813	443
997.891	2654
997.968	1525
998.046	1687
998.123	1362
998.200	3191
998.277	2267
998.355	2170
998.432	888
998.509	1274
998.586	2323
998.663	1770
998.741	1592
998.818	1651
998.895	932
998.972	1943
999.049	2934
999.126	1955
999.203	1580
999.280	1147
999.357	1376
999.434	1025
999.511	1388
999.587	860
999.664	182
999.741	2186
999.818	1503
999.895	1400
999.971	1819
1000.048	1460
1000.125	2028
1000.202	1205
1000.278	1864
1000.355	2000
1000.431	641
1000.508	96
1000.584	-1
1000.661	1283
1000.738	654
1000.814	1249
1000.890	1198
1000.967	1877
1001.043	1180
1001.120	601
1001.196	1688
1001.272	336
1001.349	1316
1001.425	2112
1001.501	916
1001.577	1066
1001.654	1272
1001.730	675
1001.806	717
1001.882	886
1001.958	2079
1002.034	2062
1002.110	729
1002.186	-254
1002.262	-312
1002.338	-188
1002.414	1593
1002.490	2038
1002.566	210
1002.642	-887
1002.718	766
1002.794	487
1002.870	556
1002.945	1054
1003.021	278
1003.097	984
1003.173	553
1003.248	-26
1003.324	451
1003.400	227
1003.475	-314
1003.551	98
1003.626	151
1003.702	-149
1003.777	-192
1003.853	3
1003.928	-1087
1004.004	-35
1004.079	354
1004.155	1468
1004.230	-237
1004.305	1328
1004.381	-471
1004.456	-299
1004.531	-324
1004.607	206
1004.682	354
1004.757	434
1004.832	270
1004.907	254
1004.982	-320
1005.057	838
1005.133	-151
1005.208	-33
1005.283	-57
1005.358	751
1005.433	-905
1005.508	-380
1005.583	-611
1005.657	273
1005.732	484
1005.807	137
1005.882	-1399
1005.957	280
1006.032	-196
1006.106	364
1006.181	-543
1006.256	805
1006.331	-574
1006.405	-756
1006.480	-3
1006.554	-432
1006.629	51
1006.704	-1212
1006.778	198
1006.853	9
1006.927	-958
1007.002	-814
1007.076	-773
1007.150	-229
1007.225	-385
1007.299	270
1007.373	-867
1007.448	522
1007.522	-235
1007.596	-432
1007.671	-274
1007.745	291
1007.819	-696
1007.893	127
1007.967	129
1008.041	-711
1008.115	517
1008.190	-608
1008.264	0
1008.338	-959
1008.412	-927
1008.486	-134
1008.560	155
1008.633	-1162
1008.707	-551
1008.781	701
1008.855	-650
1008.929	-449
1009.003	-1351
1009.076	-1473
1009.150	-196
1009.224	-75
1009.298	-743
1009.371	-1664
1009.445	121
1009.519	-35
1009.592	-2123
1009.666	-961
1009.739	-635
1009.813	-1493
1009.886	-114
1009.960	-988
1010.033	-560
1010.107	242
1010.180	-759
1010.253	-643
1010.327	-798
1010.400	-400
1010.473	-1221
1010.547	792
1010.620	-563
1010.693	89
1010.766	-716
1010.840	244
1010.913	79
1010.986	-858
1011.059	-1363
1011.132	-784
1011.205	238
1011.278	-916
1011.351	-1281
1011.424	322
1011.497	-1398
1011.570	-821
1011.643	-900
1011.716	-730
1011.789	-1716
1011.862	-1681
1011.934	-1109
1012.007	-917
1012.080	-825
1012.153	-518
1012.225	-460
1012.298	-1854
1012.371	-841
1012.443	303
1012.516	-1581
1012.588	146
1012.661	-262
1012.733	-929
1012.806	-495
1012.879	-973
1012.951	-828
1013.023	-1468
1013.096	-587
1013.168	-1238
1013.241	-557
1013.313	-1138
1013.385	-1522
1013.458	-827
1013.530	-710
1013.602	-1203
1013.674	-609
1013.746	-579
1013.819	-2152
1013.891	-471
1013.963	-1220
1014.035	-649
1014.107	-562
1014.179	-701
1014.251	-1764
1014.323	-740
1014.395	-650
1014.467	-191
1014.539	-282
1014.611	-1093
1014.683	-495
1014.754	-666
1014.826	-1376
1014.898	-921
1014.970	-1915
1015.042	-402
1015.113	335
1015.185	-471
1015.257	-1223
1015.328	-961
1015.400	-1994
1015.471	-840
1015.543	-1056
1015.615	-629
1015.686	-544
1015.757	-829
1015.829	-1250
1015.901	-370
1015.972	-1362
1016.043	-925
1016.115	-599
1016.186	-925
1016.257	-1337
1016.328	-928
1016.400	-56
1016.471	-1626
1016.542	-1406
1016.613	-704
1016.685	-1229
1016.756	-830
1016.827	-648
1016.898	-1300
1016.969	-1238
1017.040	-1087
1017.111	-2094
1017.182	-1317
1017.253	-1801
1017.324	-1123
1017.395	-1024
1017.466	-976
1017.537	-1714
1017.608	-529
1017.678	-770
1017.749	-1385
1017.820	-1567
1017.891	-1729
1017.961	-856
1018.032	-261
1018.103	-1545
1018.173	-1704
1018.244	-1798
1018.315	-2020
1018.385	-1227
1018.456	-1045
1018.526	-1749
1018.597	-1317
1018.667	-1381
1018.738	-1503
1018.808	-1049
1018.878	-1147
1018.949	-1050
1019.019	-901
1019.089	-2482
1019.160	-1265
1019.230	-1879
1019.300	-881
1019.371	-1931
1019.441	-445
1019.511	-1194
1019.581	-538
1019.651	-1387
1019.721	-1304
1019.791	-1846
1019.861	-1019
1019.931	-1564
1020.001	-2251
1020.071	-1546
1020.141	-1342
1020.211	-2189
1020.281	-1494
1020.351	-1907
1020.421	-534
1020.491	-790
1020.560	-1072
1020.630	-1542
1020.700	-1415
1020.770	-1843
1020.839	-1323
1020.909	-1967
1020.979	-1680
1021.048	-2150
1021.118	-1157
1021.187	-1829
1021.257	-1688
1021.326	-1049
1021.396	-1714
1021.465	-863
1021.535	-1337
1021.604	-1908
1021.674	-1372
1021.743	-1543
1021.812	-1170
1021.882	-2132
1021.951	-931
1022.020	-867
1022.089	-369
1022.159	-1011
1022.228	-89
1022.297	-1336
1022.366	-777
1022.435	-1885
1022.504	-1093
1022.573	-1856
1022.642	-742
1022.711	-1064
1022.781	-1246
1022.849	-1483
1022.918	-2425
1022.987	-1596
1023.056	-1794
1023.125	-1521
1023.194	-1249
1023.263	-1061
1023.331	-852
1023.400	-2379
1023.469	-2156
1023.538	-1564
1023.606	-1775
1023.675	-1943
1023.744	-1586
1023.812	-1358
1023.881	-656
1023.949	-1681
1024.018	-1673
1024.086	-1696
1024.155	-1427
1024.223	-2690
1024.292	-1056
1024.360	-1462
1024.429	-2521
1024.497	-2295
1024.565	-1703
1024.634	-2223
1024.702	-1053
1024.770	-1914
1024.838	-1229
1024.907	-1361
1024.975	-2483
1025.043	-1271
1025.111	-2330
1025.179	-2056
1025.247	-1556
1025.315	-1580
1025.383	-2045
1025.451	-2246
1025.519	-1677
1025.587	-1887
1025.655	-1594
1025.723	-2788
1025.791	-1518
1025.859	-1330
1025.927	-1727
1025.995	-1690
1026.062	-1281
1026.130	-2047
1026.198	-1298
1026.266	-2528
1026.333	-2392
1026.401	-2097
1026.469	-2323
1026.536	-1949
1026.604	-2163
1026.671	-2124
1026.739	-1295
1026.806	-1691
1026.874	-1433
1026.941	-1599
1027.009	-1355
1027.076	-2027
1027.144	-1078
1027.211	-2160
1027.278	-1195
1027.345	-2025
1027.413	-1695
1027.480	-1511
1027.547	-1673
1027.614	-2021
1027.682	-778
1027.749	-2276
1027.816	-1339
1027.883	-2560
1027.950	-883
1028.017	-2920
1028.084	-1606
1028.151	-2158
1028.218	-1468
1028.285	-1941
1028.352	-1555
1028.419	-2389
1028.486	-2444
1028.553	-1925
1028.619	-2719
1028.686	-1552
1028.753	-1916
1028.820	-2056
1028.886	-1903
1028.953	-1701
1029.020	-1764
1029.086	-1823
1029.153	-1811
1029.220	-2118
1029.286	-1738
1029.353	-2415
1029.419	-2139
1029.486	-1812
1029.552	-2412
1029.619	-2532
1029.685	-2482
1029.751	-2206
1029.818	-923
1029.884	-3248
1029.951	-1103
1030.017	-2271
1030.083	-2612
1030.149	-2475
1030.216	-2457
1030.282	-1860
1030.348	-1925
1030.414	-1848
1030.480	-2262
1030.546	-3063
1030.612	-1378
1030.678	-1835
1030.744	-1679
1030.810	-2341
1030.876	-2127
1030.942	-723
1031.008	-1561
1031.074	-2368
1031.140	-2672
1031.206	-1405
1031.272	-2107
1031.337	-2191
1031.403	-1615
1031.469	-2187
1031.534	-2226
1031.600	-1643
1031.666	-2342
1031.731	-2289
1031.797	-2316
1031.863	-2378
1031.928	-1692
1031.994	-2449
1032.059	-2206
1032.125	-2498
1032.190	-1758
1032.256	-2804
1032.321	-2654
1032.386	-2413
1032.452	-1086
1032.517	-2110
1032.582	-1657
1032.647	-2225
1032.713	-1711
1032.778	-1870
1032.843	-2416
1032.908	-2893
1032.974	-2101
1033.039	-2631
1033.104	-1407
1033.169	-2002
1033.234	-2387
1033.299	-2317
1033.364	-1643
1033.429	-2172
1033.494	-1230
1033.559	-2649
1033.624	-2047
1033.688	-1709
1033.753	-1850
1033.818	-1566
1033.883	-1206
1033.948	-677
1034.013	-972
1034.077	-380
1034.142	285
1034.207	572
1034.271	3151
1034.336	3281
1034.400	2095
1034.465	132
1034.530	-1358
1034.594	-1192
1034.658	-1696
1034.723	-2653
1034.787	-1057
1034.852	-1846
1034.916	-1913
1034.981	-2649
1035.045	-1259
1035.109	-1632
1035.173	-1923
1035.238	-2732
1035.302	-1491
1035.366	-1994
1035.430	-1390
1035.495	-2615
1035.559	-1830
1035.623	-2249
1035.687	-1897
1035.751	-1835
1035.815	-1579
1035.879	-2280
1035.943	-1933
1036.007	-2372
1036.071	-1866
1036.135	-2352
1036.198	-1539
1036.262	-2525
1036.326	-2336
1036.390	-1849
1036.454	-2007
1036.517	-2620
1036.581	-2908
1036.645	-2682
1036.709	-1853
1036.772	-2270
1036.836	-2746
1036.900	-2031
1036.963	-2012
1037.026	-2536
1037.090	-1908
1037.154	-1388
1037.217	-2268
1037.280	-2288
1037.344	-2370
1037.407	-2710
1037.471	-1384
1037.534	-1818
1037.597	-1059
1037.661	-754
1037.724	-2044
1037.787	-1815
1037.850	-2580
1037.913	-2691
1037.977	-1521
1038.040	-1836
1038.103	-1869
1038.166	-2445
1038.229	-1218
1038.292	-2683
1038.355	-2478
1038.418	-2519
1038.481	-2011
1038.544	-2171
1038.607	-1490
1038.670	-2319
1038.732	-1908
1038.795	-1963
1038.858	-2180
1038.921	-1865
1038.984	-1407
1039.046	-2647
1039.109	-1536
1039.172	-2141
1039.234	-2348
1039.297	-3184
1039.360	-1682
1039.422	-2139
1039.485	-2014
1039.547	-2345
1039.610	-1978
1039.672	-2947
1039.734	-2049
1039.797	-2468
1039.859	-2228
1039.922	-2052
1039.984	-2321
1040.046	-2295
1040.109	-2163
1040.171	-3164
1040.233	-1939
1040.295	-2804
1040.358	-2238
1040.420	-2236
1040.482	-2417
1040.544	-2305
1040.606	-2377
1040.668	-2307
1040.730	-1765
1040.792	-2626
1040.854	-2506
1040.916	-2156
1040.978	-1977
1041.040	-1758
1041.102	-2244
1041.164	-2591
1041.225	-2117
1041.287	-2758
1041.349	-2641
1041.411	-2330
1041.472	-2177
1041.534	-2270
1041.596	-2478
1041.657	-2688
1041.719	-2074
1041.781	-2912
1041.842	-1923
1041.904	-2848
1041.965	-2501
1042.027	-2323
1042.088	-2480
1042.150	-2342
1042.211	-2177
1042.272	-2568
1042.334	-2297
1042.395	-2875
1042.456	-2076
1042.518	-1923
1042.579	-2163
1042.640	-2973
1042.701	-2638
1042.763	-3246
1042.824	-2265
1042.885	-2322
1042.946	-2832
1043.007	-1660
1043.068	-2574
1043.129	-2527
1043.190	-1829
1043.251	-1937
1043.312	-1391
1043.373	-1865
1043.434	-2034
1043.495	-2162
1043.556	-2050
1043.616	-2285
1043.677	-2589
1043.738	-2751
1043.799	-3076
1043.859	-2323
1043.920	-2880
1043.981	-1922
1044.041	-1747
1044.102	-2246
1044.162	-2198
1044.223	-3313
1044.284	-2096
1044.344	-2436
1044.405	-2534
1044.465	-2762
1044.525	-1787
1044.586	-1830
1044.646	-1680
1044.707	-1089
1044.767	-1981
1044.827	-2226
1044.887	-2381
1044.948	-2188
1045.008	-2029
1045.068	-2626
1045.128	-1743
1045.188	-3015
1045.249	-2003
1045.309	-3005
1045.369	-2222
1045.429	-1837
1045.489	-2086
1045.549	-2415
1045.609	-2214
1045.669	-2509
1045.729	-2233
1045.789	-2385
1045.848	-1207
1045.908	-2623
1045.968	-2004
1046.028	-2013
1046.088	-1637
1046.147	-1909
1046.207	-2292
1046.267	-3012
1046.326	-1567
1046.386	-1736
1046.446	-1477
1046.505	-1675
1046.565	-843
1046.624	-1285
1046.684	-1171
1046.743	-937
1046.803	-81
1046.862	-1284
1046.922	0
