'Start Wavelength	183.907
'End Wavelength	1046.922
'Gate Delay	5.000
'Gate Width (ms)	1.050
'Laser Output Level	0.000
'X Position	0.000
'Y Position	0.000
'Z Position	0.000
'Grid Point Number	1.000
'Shot Number	100.000
183.907	298.000
183.977	-103.000
184.047	154
184.116	97
184.186	-88
184.256	56
184.325	-1150
184.395	-655
184.465	832
184.534	-96
184.604	-768
184.674	964
184.743	-220
184.813	501
184.883	-466
184.952	578
185.022	-455
185.092	-370
185.161	-1059
185.231	132
185.301	-594
185.370	472
185.440	-199
185.509	-355
185.579	57
185.649	309
185.718	-145
185.788	98
185.857	125
185.927	-101
185.996	-496
186.066	262
186.136	-279
186.205	122
186.275	14
186.344	237
186.414	-562
186.483	490
186.553	1100
186.622	1284
186.692	1439
186.761	709
186.831	754
186.900	59
186.970	945
187.039	681
187.109	391
187.178	1014
187.248	262
187.317	85
187.387	164
187.456	582
187.526	-518
187.595	191
187.664	344
187.734	708
187.803	474
187.873	508
187.942	30
188.012	752
188.081	225
188.150	788
188.220	939
188.289	877
188.358	504
188.428	604
188.497	-452
188.567	567
188.636	-192
188.705	911
188.775	-161
188.844	-40
188.913	466
188.983	-116
189.052	67
189.121	139
189.191	-336
189.260	370
189.329	7
189.399	366
189.468	-386
189.537	-154
189.606	-67
189.676	1040
189.745	-83
189.814	796
189.883	-394
189.953	-65
190.022	-101
190.091	945
190.161	-14
190.230	335
190.299	-92
190.368	414
190.437	-1087
190.507	651
190.576	-9
190.645	745
190.714	-314
190.783	377
190.853	-58
190.922	1158
190.991	340
191.060	923
191.129	-391
191.198	688
191.268	-197
191.337	1133
191.406	696
191.475	-1152
191.544	-281
191.613	1483
191.682	339
191.752	484
191.821	511
191.890	566
191.959	-472
192.028	633
192.097	-443
192.166	112
192.235	61
192.304	1020
192.373	-231
192.442	1352
192.511	-309
192.580	393
192.650	-99
192.719	124
192.788	464
192.857	106
192.926	16
192.995	445
193.064	244
193.133	1575
193.202	-217
193.271	577
193.340	108
193.409	511
193.478	244
193.547	692
193.615	-285
193.684	344
193.753	-402
193.822	195
193.891	-471
193.960	579
194.029	-393
194.098	252
194.167	-709
194.236	889
194.305	219
194.374	-303
194.443	-336
194.512	405
194.580	58
194.649	503
194.718	312
194.787	41
194.856	-367
194.925	494
194.994	-597
195.062	926
195.131	-262
195.200	138
195.269	-82
195.338	1202
195.407	71
195.475	-725
195.544	84
195.613	-543
195.682	-24
195.751	366
195.819	-301
195.888	-28
195.957	591
196.026	584
196.094	381
196.163	79
196.232	381
196.301	613
196.369	100
196.438	96
196.507	290
196.576	-71
196.644	-124
196.713	579
196.782	-448
196.850	-128
196.919	599
196.988	587
197.056	-536
197.125	194
197.194	-265
197.262	-212
197.331	-852
197.400	616
197.468	-433
197.537	-69
197.606	-49
197.674	862
197.743	-675
197.812	468
197.880	-525
197.949	-53
198.017	165
198.086	405
198.155	2
198.223	417
198.292	-503
198.360	-176
198.429	-1248
198.497	541
198.566	-18
198.635	931
198.703	226
198.772	440
198.840	260
198.909	243
198.977	-23
199.046	653
199.114	-575
199.183	633
199.251	458
199.320	-631
199.388	545
199.457	14
199.525	-273
199.594	504
199.662	57
199.731	544
199.799	238
199.867	934
199.936	-91
200.004	1280
200.073	850
200.141	759
200.210	-213
200.278	-190
200.346	387
200.415	1067
200.483	-169
200.552	957
200.620	520
200.688	756
200.757	195
200.825	242
200.893	148
200.962	166
201.030	-730
201.098	263
201.167	649
201.235	-143
201.303	-280
201.372	449
201.440	101
201.508	496
201.577	354
201.645	1072
201.713	-479
201.781	466
201.850	-82
201.918	384
201.986	-417
202.055	42
202.123	-407
202.191	497
202.259	-88
202.327	758
202.396	136
202.464	-239
202.532	10
202.600	1411
202.669	727
202.737	73
202.805	-257
202.873	636
202.941	144
203.009	-612
203.078	-105
203.146	303
203.214	-147
203.282	-172
203.350	526
203.418	189
203.487	485
203.555	30
203.623	-497
203.691	484
203.759	-474
203.827	341
203.895	175
203.963	557
204.031	-4
204.099	1175
204.168	-934
204.236	243
204.304	-458
204.372	95
204.440	483
204.508	539
204.576	-945
204.644	249
204.712	-47
204.780	-107
204.848	145
204.916	48
204.984	-687
205.052	196
205.120	166
205.188	-51
205.256	-386
205.324	282
205.392	-491
205.460	587
205.528	-627
205.596	-24
205.664	-563
205.732	135
205.799	-241
205.867	437
205.935	-1266
206.003	731
206.071	-90
206.139	368
206.207	-484
206.275	482
206.343	-116
206.411	-275
206.478	-160
206.546	569
206.614	4
206.682	526
206.750	444
206.818	1262
206.885	1018
206.953	-585
207.021	643
207.089	1085
207.157	-814
207.225	174
207.292	-495
207.360	-464
207.428	-857
207.496	-762
207.563	21
207.631	-146
207.699	-201
207.767	392
207.834	-800
207.902	211
207.970	-34
208.038	397
208.105	133
208.173	-150
208.241	-15
208.309	170
208.376	-562
208.444	755
208.512	165
208.579	-205
208.647	561
208.715	1525
208.782	-422
208.850	538
208.918	-327
208.985	581
209.053	-471
209.120	321
209.188	-373
209.256	547
209.323	-970
209.391	462
209.459	1106
209.526	265
209.594	-344
209.661	680
209.729	106
209.796	203
209.864	678
209.932	-306
209.999	1333
210.067	57
210.134	70
210.202	660
210.269	1289
210.337	2013
210.404	1056
210.472	1245
210.539	111
210.607	184
210.674	-522
210.742	-26
210.809	-205
210.877	115
210.944	-241
211.012	-1011
211.079	452
211.146	798
211.214	101
211.281	1979
211.349	1796
211.416	916
211.484	438
211.551	-217
211.618	-56
211.686	1643
211.753	-240
211.821	1365
211.888	44
211.955	802
212.023	-204
212.090	50
212.157	-3
212.225	-471
212.292	-365
212.359	-605
212.427	715
212.494	734
212.561	-159
212.629	-189
212.696	-268
212.763	247
212.831	-412
212.898	795
212.965	-1187
213.032	653
213.100	308
213.167	-179
213.234	-197
213.301	653
213.369	901
213.436	548
213.503	-635
213.570	918
213.638	3
213.705	449
213.772	-985
213.839	-18
213.906	404
213.973	605
214.041	-460
214.108	210
214.175	-18
214.242	-242
214.309	-345
214.376	9
214.444	-708
214.511	259
214.578	-355
214.645	1018
214.712	730
214.779	-49
214.846	18
214.913	885
214.980	1208
215.048	2543
215.115	771
215.182	2060
215.249	591
215.316	101
215.383	931
215.450	992
215.517	-1162
215.584	854
215.651	-61
215.718	690
215.785	-503
215.852	-157
215.919	70
215.986	438
216.053	-454
216.120	-68
216.187	129
216.254	716
216.321	-320
216.388	153
216.455	-537
216.522	329
216.589	-156
216.656	346
216.722	978
216.789	268
216.856	-295
216.923	677
216.990	339
217.057	499
217.124	123
217.191	-518
217.258	-155
217.324	108
217.391	-206
217.458	357
217.525	133
217.592	388
217.659	-1327
217.725	1200
217.792	-224
217.859	782
217.926	-989
217.993	171
218.059	-27
218.126	-69
218.193	-85
218.260	80
218.327	-283
218.393	573
218.460	-611
218.527	-60
218.594	-464
218.660	911
218.727	-618
218.794	95
218.860	384
218.927	-578
218.994	-427
219.061	236
219.127	-526
219.194	665
219.261	344
219.327	471
219.394	811
219.461	139
219.527	-35
219.594	464
219.661	-234
219.727	593
219.794	1052
219.860	1080
219.927	1533
219.994	3549
220.060	4795
220.127	5680
220.193	4118
220.260	1629
220.326	1471
220.393	586
220.460	748
220.526	698
220.593	-610
220.659	1368
220.726	-346
220.792	1217
220.859	492
220.925	179
220.992	-402
221.058	83
221.125	713
221.191	376
221.258	-760
221.324	376
221.391	-328
221.457	-127
221.524	-597
221.590	-79
221.657	1055
221.723	686
221.789	93
221.856	728
221.922	-311
221.989	969
222.055	-78
222.121	268
222.188	1660
222.254	825
222.321	1074
222.387	377
222.453	551
222.520	517
222.586	-432
222.652	442
222.719	-33
222.785	91
222.851	-434
222.918	-479
222.984	41
223.050	573
223.116	-1480
223.183	1639
223.249	-498
223.315	-833
223.382	-837
223.448	-656
223.514	-1298
223.580	241
223.647	-945
223.713	-631
223.779	-1180
223.845	41
223.911	-266
223.978	-243
224.044	-655
224.110	239
224.176	-396
224.242	-13
224.309	-978
224.375	298
224.441	-182
224.507	-135
224.573	-1343
224.639	686
224.705	-197
224.772	337
224.838	-680
224.904	684
224.970	-629
225.036	-548
225.102	-1789
225.168	1311
225.234	603
225.300	542
225.366	381
225.432	415
225.499	-132
225.565	-33
225.631	-363
225.697	484
225.763	331
225.829	-210
225.895	-285
225.961	203
226.027	401
226.093	-36
226.159	812
226.225	1762
226.291	628
226.357	-335
226.423	238
226.489	744
226.554	-53
226.620	76
226.686	-317
226.752	295
226.818	-238
226.884	570
226.950	290
227.016	48
227.082	1912
227.148	552
227.214	636
227.279	1045
227.345	1967
227.411	4436
227.477	7063
227.543	8711
227.609	10139
227.674	10535
227.740	5516
227.806	3955
227.872	1692
227.938	2304
228.003	578
228.069	848
228.135	83
228.201	840
228.267	-402
228.332	635
228.398	-395
228.464	660
228.530	326
228.595	784
228.661	266
228.727	319
228.792	-75
228.858	-328
228.924	-2016
228.990	2302
229.055	-1223
229.121	402
229.187	-205
229.252	148
229.318	-505
229.384	706
229.449	-791
229.515	-1356
229.581	-853
229.646	1324
229.712	-276
229.777	-144
229.843	-293
229.909	948
229.974	455
230.040	437
230.105	-112
230.171	-461
230.236	-573
230.302	90
230.368	-879
230.433	-833
230.499	-265
230.564	1126
230.630	-1091
230.695	459
230.761	589
230.826	-1717
230.892	-235
230.957	-281
231.023	-1105
231.088	-185
231.154	-962
231.219	523
231.284	-959
231.350	1084
231.415	-715
231.481	640
231.546	-920
231.612	392
231.677	-518
231.742	-1268
231.808	996
231.873	-480
231.939	-2251
232.004	857
232.069	458
232.135	-636
232.200	-989
232.265	316
232.331	-792
232.396	-690
232.461	-904
232.527	-512
232.592	-1141
232.657	1190
232.723	108
232.788	896
232.853	-398
232.918	661
232.984	-500
233.049	-391
233.114	-164
233.179	518
233.245	1408
233.310	750
233.375	-1349
233.440	575
233.506	-522
233.571	-233
233.636	-250
233.701	-132
233.766	-764
233.832	-693
233.897	-926
233.962	-1364
234.027	539
234.092	472
234.157	646
234.222	-53
234.288	118
234.353	931
234.418	110
234.483	203
234.548	-537
234.613	434
234.678	-19
234.743	-106
234.808	1173
234.873	-681
234.938	138
235.004	-636
235.069	-307
235.134	-52
235.199	-899
235.264	215
235.329	-1118
235.394	400
235.459	668
235.524	-490
235.589	212
235.654	104
235.719	-1182
235.784	429
235.849	-819
235.913	415
235.978	-36
236.043	-24
236.108	-196
236.173	-253
236.238	549
236.303	-472
236.368	-964
236.433	479
236.498	-1316
236.563	8
236.627	-193
236.692	1124
236.757	102
236.822	327
236.887	-947
236.952	338
237.017	-2128
237.081	1086
237.146	-972
237.211	299
237.276	-605
237.341	691
237.405	-409
237.470	-33
237.535	-579
237.600	627
237.664	537
237.729	-534
237.794	-1113
237.859	134
237.923	-214
237.988	-40
238.053	638
238.118	302
238.182	254
238.247	2254
238.312	-533
238.376	718
238.441	-1677
238.506	1215
238.570	-1062
238.635	1057
238.700	233
238.764	679
238.829	-168
238.893	-618
238.958	794
239.023	924
239.087	-138
239.152	1847
239.216	732
239.281	1205
239.346	684
239.410	591
239.475	186
239.539	2200
239.604	964
239.668	3822
239.733	5715
239.797	12786
239.862	17857
239.926	19090
239.991	11306
240.055	6922
240.120	3210
240.184	3055
240.249	1145
240.313	327
240.378	911
240.442	1368
240.507	406
240.571	1103
240.635	-44
240.700	991
240.764	-103
240.829	-231
240.893	-799
240.957	1624
241.022	771
241.086	1818
241.151	-1317
241.215	-730
241.279	575
241.344	-385
241.408	212
241.472	-787
241.537	698
241.601	505
241.665	-763
241.730	-3
241.794	1462
241.858	-353
241.922	-907
241.987	-190
242.051	-682
242.115	-895
242.179	-88
242.244	-891
242.308	624
242.372	-31
242.436	-892
242.501	829
242.565	-1137
242.629	359
242.693	-157
242.757	-484
242.822	-532
242.886	-218
242.950	-101
243.014	-741
243.078	-562
243.142	-49
243.206	-719
243.271	284
243.335	-372
243.399	226
243.463	563
243.527	2806
243.591	316
243.655	-447
243.719	-743
243.783	391
243.847	209
243.911	-113
243.975	-1388
244.040	-841
244.104	982
244.168	-43
244.232	-1845
244.296	61
244.360	-497
244.424	-797
244.488	-514
244.552	622
244.615	-1608
244.679	516
244.743	-1163
244.807	-205
244.871	-431
244.935	30
244.999	-840
245.063	152
245.127	699
245.191	335
245.255	-436
245.319	236
245.383	-1523
245.446	1304
245.510	-1573
245.574	593
245.638	-142
245.702	-1371
245.766	442
245.829	1418
245.893	-807
245.957	47
246.021	775
246.085	-70
246.149	75
246.212	1989
246.276	1781
246.340	1095
246.404	505
246.467	997
246.531	-1659
246.595	923
246.659	806
246.722	-373
246.786	580
246.850	12
246.913	-287
246.977	-218
247.041	62
247.104	782
247.168	-9
247.232	1068
247.295	2842
247.359	2485
247.423	-163
247.486	161
247.550	596
247.614	-46
247.677	-57
247.741	184
247.804	788
247.868	2294
247.932	-4
247.995	4440
248.059	1183
248.122	-422
248.186	2313
248.249	1304
248.313	4762
248.376	6974
248.440	2970
248.503	167
248.567	1561
248.630	670
248.694	778
248.757	2440
248.821	6455
248.884	4371
248.948	1907
249.011	4805
249.075	6528
249.138	6414
249.202	1340
249.265	995
249.328	1336
249.392	-122
249.455	847
249.519	568
249.582	815
249.645	1235
249.709	796
249.772	695
249.835	426
249.899	1091
249.962	1619
250.025	530
250.089	1267
250.152	3083
250.215	281
250.279	195
250.342	1045
250.405	496
250.468	-151
250.532	825
250.595	791
250.658	3185
250.721	9478
250.785	2560
250.848	2350
250.911	226
250.974	1219
251.038	1140
251.101	3690
251.164	1368
251.227	545
251.290	543
251.354	762
251.417	6178
251.480	7910
251.543	3956
251.606	12571
251.669	10318
251.732	2198
251.795	3357
251.859	3926
251.922	7908
251.985	4599
252.048	1026
252.111	641
252.174	15
252.237	1955
252.300	7318
252.363	3987
252.426	12858
252.489	3786
252.552	1969
252.615	357
252.678	1719
252.741	4894
252.804	4639
252.867	12067
252.930	7960
252.993	2581
253.056	2734
253.119	668
253.182	226
253.245	186
253.308	1834
253.371	182
253.434	1422
253.497	827
253.559	2552
253.622	963
253.685	1263
253.748	1902
253.811	927
253.874	1612
253.937	946
254.000	343
254.062	1497
254.125	2899
254.188	2572
254.251	860
254.314	798
254.376	920
254.439	1487
254.502	1124
254.565	1633
254.628	4848
254.690	1026
254.753	180
254.816	280
254.878	805
254.941	2324
255.004	2677
255.067	880
255.129	-486
255.192	1204
255.255	-549
255.317	966
255.380	404
255.443	991
255.505	1691
255.568	299
255.631	151
255.693	2127
255.756	1192
255.819	3013
255.881	1564
255.944	1403
256.006	561
256.069	1036
256.132	351
256.194	148
256.257	1065
256.319	1408
256.382	2527
256.444	5637
256.507	2760
256.569	2045
256.632	451
256.694	1044
256.757	698
256.819	992
256.882	-75
256.944	719
257.007	1478
257.069	-84
257.132	247
257.194	1542
257.257	385
257.319	81
257.381	-990
257.444	1248
257.506	418
257.569	2837
257.631	4037
257.693	2179
257.756	95
257.818	616
257.880	272
257.943	1534
258.005	474
258.067	674
258.130	-253
258.192	495
258.254	427
258.317	599
258.379	290
258.441	2313
258.503	2036
258.566	1604
258.628	1261
258.690	164
258.753	914
258.815	1055
258.877	551
258.939	1047
259.001	1157
259.064	1063
259.126	-956
259.188	741
259.250	885
259.312	1029
259.375	2480
259.437	2436
259.499	453
259.561	1703
259.623	713
259.685	918
259.747	803
259.809	1446
259.872	2109
259.934	3486
259.996	3004
260.058	1126
260.120	466
260.182	858
260.244	1385
260.306	1121
260.368	666
260.430	560
260.492	453
260.554	2476
260.616	2610
260.678	1741
260.740	1873
260.802	729
260.864	1528
260.926	-337
260.988	1815
261.050	815
261.112	-262
261.174	2903
261.236	2327
261.298	1387
261.359	844
261.421	2845
261.483	644
261.545	1532
261.607	-289
261.669	2139
261.731	1334
261.793	2285
261.854	434
261.916	1312
261.978	1094
262.040	1704
262.102	1515
262.164	1097
262.225	2039
262.287	1468
262.349	796
262.411	2267
262.472	1643
262.534	1228
262.596	990
262.658	1243
262.719	187
262.781	1620
262.843	693
262.904	1466
262.966	578
263.028	1153
263.090	1708
263.151	4570
263.213	2499
263.275	732
263.336	1035
263.398	1606
263.459	-205
263.521	1361
263.583	1759
263.644	1737
263.706	459
263.767	698
263.829	1317
263.891	1206
263.952	549
264.014	448
264.075	815
264.137	1032
264.198	1608
264.260	1363
264.321	1066
264.383	738
264.444	1620
264.506	1080
264.567	1292
264.629	2020
264.690	-503
264.752	2005
264.813	23
264.875	994
264.936	1925
264.998	1290
265.059	1350
265.120	2435
265.182	944
265.243	1595
265.305	1929
265.366	1625
265.427	1069
265.489	2237
265.550	534
265.611	1886
265.673	496
265.734	928
265.795	1015
265.857	1080
265.918	384
265.979	1316
266.040	883
266.102	1277
266.163	1121
266.224	1787
266.286	494
266.347	603
266.408	1230
266.469	576
266.530	776
266.592	897
266.653	1628
266.714	2735
266.775	1520
266.836	962
266.898	391
266.959	1163
267.020	1321
267.081	2440
267.142	1133
267.203	1110
267.264	-288
267.326	3201
267.387	833
267.448	1445
267.509	1853
267.570	1882
267.631	595
267.692	986
267.753	2139
267.814	1156
267.875	791
267.936	2707
267.997	1304
268.058	1547
268.119	1343
268.180	1262
268.241	-174
268.302	1025
268.363	1197
268.424	1999
268.485	1900
268.546	983
268.607	1378
268.668	1008
268.729	963
268.790	1275
268.851	840
268.912	1663
268.972	1930
269.033	777
269.094	409
269.155	925
269.216	1315
269.277	1084
269.338	1372
269.398	1450
269.459	844
269.520	1790
269.581	849
269.642	1728
269.702	1057
269.763	1597
269.824	957
269.885	1222
269.945	1521
270.006	1622
270.067	1134
270.128	1359
270.188	1202
270.249	978
270.310	1073
270.370	1841
270.431	1290
270.492	1865
270.553	1132
270.613	2215
270.674	1831
270.734	1905
270.795	1330
270.856	1864
270.916	619
270.977	1930
271.038	1399
271.098	1890
271.159	1081
271.219	2033
271.280	1156
271.340	1669
271.401	932
271.462	1880
271.522	1216
271.583	1480
271.643	1164
271.704	2185
271.764	1918
271.825	2528
271.885	6137
271.946	10769
272.006	3404
272.066	5255
272.127	11047
272.187	16119
272.248	9596
272.308	3978
272.369	6037
272.429	4645
272.489	2791
272.550	2714
272.610	2800
272.671	2230
272.731	2015
272.791	1844
272.852	1541
272.912	2508
272.972	1130
273.033	2849
273.093	2208
273.153	1894
273.214	1828
273.274	2091
273.334	2746
273.394	6428
273.455	3384
273.515	3313
273.575	4255
273.635	3427
273.696	3850
273.756	6513
273.816	3509
273.876	3057
273.936	2517
273.997	3709
274.057	1809
274.117	2742
274.177	2557
274.237	6783
274.297	6992
274.358	3906
274.418	4526
274.478	4382
274.538	2187
274.598	2313
274.658	2838
274.718	3790
274.778	2245
274.838	2803
274.898	2287
274.958	4853
275.018	6957
275.078	6514
275.138	3266
275.198	2785
275.258	2804
275.318	3170
275.378	2406
275.438	3417
275.498	2650
275.558	3416
275.618	6370
275.678	5871
275.738	4173
275.798	4180
275.858	2283
275.918	3017
275.978	2208
276.038	3993
276.098	3684
276.157	4005
276.217	4383
276.277	3576
276.337	2444
276.397	3239
276.457	3793
276.517	4038
276.576	2498
276.636	3000
276.696	3281
276.756	4109
276.815	3262
276.875	3518
276.935	2399
276.995	3825
277.055	4513
277.114	6098
277.174	4072
277.234	5260
277.293	2328
277.353	3124
277.413	2027
277.472	2399
277.532	2020
277.592	3506
277.651	5889
277.711	12414
277.771	6121
277.830	12324
277.890	11467
277.950	8009
278.009	24651
278.069	13303
278.128	9398
278.188	14951
278.248	7512
278.307	14733
278.367	11407
278.426	4825
278.486	4231
278.545	3571
278.605	2230
278.664	3436
278.724	2943
278.783	4999
278.843	8750
278.902	4527
278.962	3052
279.021	3804
279.081	3179
279.140	4307
279.199	3011
279.259	3766
279.318	4791
279.378	5008
279.437	7669
279.496	25506
279.556	57073
279.615	49711
279.675	14202
279.734	7699
279.793	10410
279.853	21270
279.912	10925
279.971	6851
280.031	5956
280.090	10487
280.149	18164
280.208	11992
280.268	33785
280.327	42666
280.386	10904
280.445	7361
280.505	5539
280.564	5525
280.623	3252
280.682	5051
280.742	4529
280.801	3661
280.860	4231
280.919	4058
280.978	3642
281.037	3768
281.097	2233
281.156	3524
281.215	3148
281.274	4411
281.333	5648
281.392	5914
281.451	3751
281.510	3898
281.569	2606
281.628	3132
281.688	3036
281.747	3426
281.806	3483
281.865	4327
281.924	3507
281.983	3312
282.042	3136
282.101	3113
282.160	3126
282.219	3205
282.278	3439
282.337	3917
282.396	3153
282.454	3380
282.513	3178
282.572	5014
282.631	3886
282.690	2744
282.749	2910
282.808	3888
282.867	2972
282.926	3175
282.985	4030
283.043	3870
283.102	2799
283.161	4171
283.220	3783
283.279	5863
283.338	3985
283.396	3792
283.455	3698
283.514	4047
283.573	3616
283.631	4657
283.690	2832
283.749	3357
283.808	4021
283.866	3913
283.925	3646
283.984	4818
284.043	4186
284.101	4860
284.160	2592
284.219	4323
284.277	4462
284.336	4272
284.395	6352
284.453	6483
284.512	4403
284.570	5720
284.629	5030
284.688	4917
284.746	5611
284.805	6414
284.863	6978
284.922	9047
284.981	10363
285.039	15585
285.098	24648
285.156	50685
285.215	95491
285.273	97115
285.332	64123
285.390	33836
285.449	21106
285.507	15779
285.566	11262
285.624	10192
285.683	8621
285.741	6943
285.799	6669
285.858	5818
285.916	5173
285.975	5262
286.033	4173
286.091	4742
286.150	4227
286.208	5164
286.267	4859
286.325	5237
286.383	4697
286.442	4976
286.500	3398
286.558	4631
286.616	4258
286.675	5295
286.733	4313
286.791	4560
286.850	4472
286.908	4684
286.966	4384
287.024	4215
287.083	3529
287.141	3525
287.199	4418
287.257	4437
287.315	4441
287.374	4455
287.432	3855
287.490	4895
287.548	3477
287.606	4220
287.664	4519
287.723	4707
287.781	4491
287.839	4628
287.897	3848
287.955	4607
288.013	4550
288.071	6030
288.129	11779
288.187	39785
288.245	21362
288.303	8689
288.361	5877
288.419	5509
288.477	4237
288.535	4608
288.593	4638
288.651	4823
288.709	3480
288.767	4472
288.825	3564
288.883	4251
288.941	4392
288.999	3792
289.057	4065
289.115	4169
289.173	3337
289.231	4456
289.289	3484
289.346	4098
289.404	4230
289.462	5105
289.520	4154
289.578	4838
289.636	4072
289.694	4499
289.751	3754
289.809	5257
289.867	3901
289.925	5436
289.983	3862
290.040	5106
290.098	4293
290.156	4615
290.214	3688
290.271	4392
290.329	4334
290.387	5475
290.444	4077
290.502	4243
290.560	4319
290.617	4441
290.675	4878
290.733	4571
290.790	5224
290.848	4962
290.906	3731
290.963	4801
291.021	3708
291.078	4779
291.136	3518
291.194	5096
291.251	5289
291.309	4753
291.366	3771
291.424	4227
291.481	4050
291.539	4369
291.596	4681
291.654	4173
291.711	5107
291.769	4381
291.826	4256
291.884	4424
291.941	3715
291.999	5202
292.056	4303
292.114	4002
292.171	4124
292.228	6061
292.286	5002
292.343	5796
292.401	4205
292.458	5844
292.515	4190
292.573	5799
292.630	5037
292.687	5068
292.745	3705
292.802	4084
292.859	5054
292.917	6409
292.974	5720
293.031	4828
293.089	4959
293.146	4293
293.203	4850
293.260	4774
293.318	3421
293.375	5693
293.432	3716
293.489	5470
293.546	4642
293.604	5192
293.661	5556
293.718	11846
293.775	7932
293.832	6138
293.889	6399
293.947	7594
294.004	5714
294.061	5565
294.118	5458
294.175	7204
294.232	6306
294.289	5596
294.346	4380
294.403	5809
294.460	5122
294.517	5201
294.574	4486
294.631	5785
294.688	5050
294.745	6143
294.802	10147
294.859	9432
294.916	5148
294.973	6930
295.030	4906
295.087	5512
295.144	4025
295.201	5148
295.258	4562
295.315	5638
295.372	6494
295.429	9626
295.486	6293
295.542	5152
295.599	4810
295.656	5229
295.713	5092
295.770	7993
295.827	5681
295.883	5213
295.940	4149
295.997	4959
296.054	4764
296.111	5116
296.167	4355
296.224	4887
296.281	3832
296.338	4872
296.394	4821
296.451	4266
296.508	5524
296.564	7273
296.621	6708
296.678	10280
296.734	15435
296.791	8538
296.848	5892
296.904	6322
296.961	6598
297.018	8583
297.074	8002
297.131	5683
297.187	5088
297.244	6388
297.301	10463
297.357	18637
297.414	9898
297.470	6709
297.527	4814
297.583	6251
297.640	6338
297.696	5116
297.753	4324
297.809	5164
297.866	4184
297.922	5146
297.979	4318
298.035	4920
298.092	4990
298.148	6371
298.204	7456
298.261	6549
298.317	6722
298.374	12545
298.430	10499
298.486	7158
298.543	5798
298.599	5937
298.656	5496
298.712	5456
298.768	6797
298.824	6717
298.881	5793
298.937	6718
298.993	6249
299.050	5708
299.106	5248
299.162	5316
299.218	4966
299.275	6026
299.331	6192
299.387	9229
299.443	16958
299.500	39637
299.556	37581
299.612	18813
299.668	15336
299.724	32306
299.780	45373
299.837	22154
299.893	15076
299.949	27486
300.005	43078
300.061	33733
300.117	49391
300.173	28755
300.229	13674
300.285	10325
300.341	10084
300.397	8897
300.453	8246
300.510	8836
300.566	10806
300.622	18903
300.678	47390
300.734	68345
300.790	36834
300.845	25365
300.901	30499
300.957	46921
301.013	25924
301.069	14266
301.125	9904
301.181	8727
301.237	7508
301.293	7245
301.349	7673
301.405	7197
301.461	5907
301.516	6350
301.572	5299
301.628	5773
301.684	5765
301.740	6668
301.796	7231
301.851	7213
301.907	7174
301.963	8135
302.019	10525
302.074	26197
302.130	29382
302.186	16665
302.242	8619
302.297	8021
302.353	6951
302.409	7609
302.464	6982
302.520	7101
302.576	9166
302.631	12627
302.687	8442
302.743	6211
302.798	5446
302.854	4990
302.910	5051
302.965	5265
303.021	5536
303.076	5932
303.132	5858
303.187	5986
303.243	5350
303.299	5785
303.354	5265
303.410	5906
303.465	4424
303.521	4589
303.576	5642
303.632	5474
303.687	6917
303.743	10666
303.798	10997
303.853	7791
303.909	5293
303.964	5287
304.020	5307
304.075	5732
304.130	6356
304.186	6335
304.241	7220
304.297	6569
304.352	5607
304.358	5689
304.407	6360
304.449	5822
304.463	5641
304.518	5491
304.539	5634
304.573	5864
304.629	6154
304.630	6136
304.684	5510
304.720	7787
304.739	8913
304.794	13384
304.811	12167
304.850	9255
304.902	6554
304.905	6378
304.960	5044
304.992	4255
305.015	3728
305.071	5096
305.083	4994
305.126	4570
305.173	4581
305.181	4586
305.236	3623
305.264	4455
305.292	5277
305.347	5703
305.354	5694
305.402	5726
305.445	5035
305.457	4812
305.512	5321
305.535	5050
305.567	4735
305.622	5100
305.626	5073
305.678	4955
305.716	7616
305.733	8621
305.788	9516
305.807	9118
305.843	8648
305.897	10436
305.898	10450
305.953	11836
305.988	9158
306.008	7672
306.063	5463
306.078	5130
306.118	4379
306.168	4474
306.173	4504
306.228	4154
306.259	4348
306.283	4403
306.338	4180
306.349	4205
306.393	4441
306.440	3991
306.448	3890
306.503	5135
306.530	4664
306.558	4283
306.613	5115
306.620	5148
306.668	5558
306.711	7327
306.723	7644
306.778	7659
306.801	6819
306.833	5752
306.888	4720
306.892	4668
306.943	4401
306.982	4194
306.997	4067
307.052	4181
307.072	4150
307.107	4209
307.162	4787
307.163	4787
307.217	4685
307.253	4296
307.272	4043
307.327	4189
307.343	4108
307.381	4043
307.434	3345
307.436	3335
307.491	4759
307.524	4998
307.546	4947
307.600	6056
307.614	5910
307.655	5204
307.704	4119
307.710	4042
307.765	3476
307.795	3752
307.819	3929
307.874	3463
307.885	3631
307.929	4669
307.975	4899
307.984	4884
308.038	5142
308.065	4994
308.093	5451
308.148	6978
308.156	7466
308.202	10042
308.246	12361
308.257	12414
308.312	8302
308.336	6896
308.366	5872
308.421	4924
308.426	4844
308.475	4608
308.517	4427
308.530	4284
308.585	4156
308.607	3746
308.639	3434
308.694	3745
308.697	3761
308.748	3994
308.787	4191
308.803	4216
308.857	3815
308.877	3828
308.912	4147
308.967	4460
308.967	4469
309.021	5523
309.058	5905
309.076	6206
309.130	8177
309.148	8778
309.185	13023
309.238	19817
309.239	19865
309.293	23832
309.328	22949
309.348	20841
309.402	12823
309.418	10867
309.457	9347
309.508	8179
309.511	8166
309.566	8544
309.598	8960
309.620	9742
309.674	12422
309.688	13213
309.729	13873
309.778	13739
309.783	13576
309.837	10911
309.868	9632
309.892	9601
309.946	9292
309.959	9421
310.001	9764
310.049	9944
310.055	9756
310.109	7967
310.139	6633
310.163	5959
310.218	5070
310.229	4839
310.272	5019
310.319	5712
310.326	5646
310.381	4933
310.409	4642
310.435	4874
310.489	5097
310.499	5177
310.543	5203
310.589	5131
310.598	5123
310.652	5320
310.679	5304
310.706	5321
310.760	5255
310.769	5275
310.814	5769
310.859	6104
310.868	6081
310.923	5885
310.948	5929
310.977	5966
311.031	5663
311.038	5669
311.085	5569
311.128	5088
311.139	5118
311.193	5627
311.218	5723
311.247	5681
311.301	5950
311.308	5943
311.356	5525
311.398	5289
311.410	5341
311.464	5382
311.488	5519
311.518	5494
311.572	5270
311.578	5254
311.626	5678
311.668	5978
311.680	5963
311.734	5917
311.758	5894
311.788	5699
311.842	5398
311.847	5360
311.896	5872
311.937	6364
311.950	6330
312.004	6150
312.027	6081
312.058	5936
312.112	5661
312.117	5630
312.165	5902
312.207	6135
312.297	5792
312.386	6519
312.476	6008
312.566	6933
312.656	6575
312.745	6039
312.835	6886
312.925	6828
313.015	7107
313.104	8068
313.194	8498
313.284	7624
313.374	8489
313.463	9201
313.553	9403
313.643	9279
313.732	10225
313.822	10482
313.912	11367
314.001	12736
314.091	12902
314.180	12299
314.270	12925
314.360	12016
314.449	12500
314.539	12443
314.628	12201
314.718	12805
314.808	13212
314.897	14243
314.987	15433
315.076	15558
315.166	15757
315.255	14547
315.345	14374
315.434	13337
315.524	15178
315.613	16846
315.703	22751
315.792	60701
315.881	187355
315.971	70631
316.060	22227
316.150	15280
316.239	14154
316.328	13440
316.418	15156
316.507	16058
316.597	18612
316.686	19525
316.775	17340
316.865	15272
316.954	13739
317.043	13466
317.133	12187
317.222	11682
317.311	11463
317.400	10326
317.490	13440
317.579	15196
317.668	19431
317.757	32573
317.847	98026
317.936	259736
318.025	99957
318.114	92895
318.203	44590
318.293	18865
318.382	23435
318.471	25830
318.560	20945
318.649	17235
318.738	12871
318.828	11530
318.917	8057
319.006	8834
319.095	9030
319.184	9953
319.273	10456
319.362	9745
319.451	8651
319.540	8965
319.629	9258
319.718	10093
319.807	9317
319.896	9381
319.985	10009
320.074	11021
320.163	9729
320.252	10190
320.341	11223
320.430	11326
320.519	12615
320.608	13674
320.697	16402
320.786	17521
320.875	19953
320.964	20809
321.053	21969
321.142	25032
321.230	26527
321.319	28939
321.408	31937
321.497	29259
321.586	26734
321.675	22750
321.764	23199
321.852	22947
321.941	24605
322.030	25226
322.119	27909
322.207	33027
322.296	34555
322.385	36705
322.474	40508
322.562	40787
322.651	32079
322.740	26592
322.829	25944
322.917	21331
323.006	19211
323.095	19989
323.183	16835
323.272	15608
323.361	15042
323.449	14312
323.538	13320
323.626	14371
323.715	13013
323.804	10833
323.892	11086
323.981	11269
324.069	11097
324.158	11628
324.246	10716
324.335	10932
324.424	11322
324.512	10446
324.601	9595
324.689	9792
324.778	9756
324.866	10326
324.954	9744
325.043	9109
325.131	8419
325.220	9313
325.308	8556
325.397	8853
325.485	8893
325.574	8675
325.662	9058
325.750	7773
325.839	8858
325.927	8000
326.015	8225
326.104	7864
326.192	7800
326.280	8533
326.369	8121
326.457	8206
326.545	8942
326.634	7888
326.722	8623
326.810	9525
326.898	10621
326.987	10813
327.075	9828
327.163	10953
327.251	10126
327.340	10578
327.428	13725
327.516	16975
327.604	13814
327.692	11632
327.781	9392
327.869	8394
327.957	7727
328.045	7656
328.133	7671
328.221	6832
328.309	7906
328.397	7674
328.485	9280
328.574	15549
328.662	21266
328.750	15993
328.838	10282
328.926	9434
329.014	7978
329.102	7832
329.190	6590
329.278	7076
329.366	6921
329.454	6845
329.542	7427
329.630	6707
329.718	7574
329.806	7384
329.893	6744
329.981	6872
330.069	7552
330.157	7961
330.245	7535
330.333	7361
330.421	7571
330.509	7411
330.597	9431
330.684	8025
330.772	7628
330.860	6392
330.948	6914
331.036	7022
331.123	7471
331.211	7980
331.299	6710
331.387	7181
331.475	8210
331.562	7604
331.650	8124
331.738	7721
331.825	7264
331.913	7288
332.001	7305
332.089	7153
332.176	7584
332.264	8011
332.352	7953
332.439	8664
332.527	7407
332.614	7480
332.702	9028
332.790	8443
332.877	8968
332.965	10262
333.052	10376
333.140	9976
333.228	13013
333.315	10442
333.403	10413
333.490	10430
333.578	11192
333.665	16423
333.753	15611
333.840	14662
333.928	16339
334.015	19135
334.103	23747
334.190	30040
334.278	38875
334.365	48788
334.452	49765
334.540	39315
334.627	39671
334.715	48758
334.802	65693
334.889	89466
334.977	103950
335.064	73404
335.151	44714
335.239	33656
335.326	29304
335.413	27883
335.501	29553
335.588	31998
335.675	36288
335.762	46386
335.850	59589
335.937	82694
336.024	114728
336.111	146447
336.199	125061
336.286	71995
336.373	45172
336.460	33368
336.547	26060
336.635	22603
336.722	19737
336.809	17151
336.896	16063
336.983	16013
337.070	15113
337.157	14642
337.245	14861
337.332	14739
337.419	14492
337.506	13536
337.593	12484
337.680	13065
337.767	13572
337.854	11200
337.941	10897
338.028	12556
338.115	11460
338.202	11567
338.289	12022
338.376	11197
338.463	10884
338.550	10095
338.637	10078
338.724	9237
338.811	8955
338.898	9742
338.984	9609
339.071	7981
339.158	9037
339.245	9100
339.332	8927
339.419	8625
339.506	9280
339.593	8309
339.679	9417
339.766	8174
339.853	8801
339.940	8550
340.027	9197
340.113	7458
340.200	8475
340.287	6887
340.374	7774
340.460	7627
340.547	7402
340.634	7901
340.720	10187
340.807	9076
340.894	8825
340.980	7882
341.067	8146
341.154	9219
341.240	9409
341.327	8316
341.414	8919
341.500	8132
341.587	8671
341.674	8144
341.760	9003
341.847	8181
341.933	7196
342.020	6809
342.106	8154
342.193	7912
342.279	8383
342.366	7072
342.452	7946
342.539	7757
342.625	8177
342.712	9152
342.798	8135
342.885	7299
342.971	7873
343.058	7612
343.144	8202
343.230	7930
343.317	7739
343.403	7479
343.490	7644
343.576	7313
343.662	7548
343.749	7574
343.835	7751
343.921	9180
344.008	21896
344.094	35210
344.180	12771
344.267	8600
344.353	10759
344.439	10724
344.525	7822
344.612	8206
344.698	6987
344.784	7494
344.870	7130
344.957	6765
345.043	8210
345.129	7249
345.215	8172
345.301	7659
345.387	7293
345.474	7276
345.560	6778
345.646	6768
345.732	7583
345.818	7040
345.904	8087
345.990	8045
346.076	7646
346.162	7396
346.249	8042
346.335	7889
346.421	10201
346.507	10799
346.593	15544
346.679	8292
346.765	10879
346.851	17534
346.937	15331
347.023	10887
347.108	9280
347.194	8739
347.280	9963
347.366	13986
347.452	32836
347.538	46533
347.624	24486
347.710	14666
347.796	10280
347.882	9096
347.967	8583
348.053	8673
348.139	7872
348.225	8235
348.311	8962
348.397	8657
348.482	10046
348.568	11197
348.654	16853
348.740	47024
348.825	54432
348.911	25794
348.997	18603
349.083	19846
349.168	9943
349.254	9488
349.340	8218
349.425	8868
349.511	9081
349.597	8782
349.682	8954
349.768	12284
349.854	9642
349.939	9577
350.025	8421
350.110	9012
350.196	7862
350.282	7891
350.367	8920
350.453	8137
350.538	8959
350.624	8000
350.709	7910
350.795	8381
350.880	7452
350.966	9058
351.051	8542
351.137	8743
351.222	7629
351.308	9199
351.393	11032
351.479	8536
351.564	7817
351.649	7959
351.735	8109
351.820	8005
351.906	8024
351.991	7946
352.076	9300
352.162	10782
352.247	8371
352.332	7607
352.418	7843
352.503	8380
352.588	11696
352.673	10202
352.759	8491
352.844	7796
352.929	7746
353.014	6895
353.100	8876
353.185	10635
353.270	8100
353.355	8471
353.441	8725
353.526	7789
353.611	7772
353.696	7504
353.781	8522
353.866	7061
353.952	8600
354.037	8268
354.122	9108
354.207	8983
354.292	7212
354.377	8531
354.462	7712
354.547	7987
354.632	8176
354.717	9674
354.802	11007
354.887	8594
354.972	8351
355.057	8307
355.142	7266
355.227	8657
355.312	8127
355.397	8825
355.482	10056
355.567	9113
355.652	9482
355.737	8679
355.822	12507
355.907	9860
355.991	9676
356.076	8293
356.161	7925
356.246	8385
356.331	8736
356.416	9307
356.501	21784
356.585	19256
356.670	8687
356.755	11524
356.840	10498
356.924	21658
357.009	42507
357.094	18582
357.179	9121
357.263	8757
357.348	9376
357.433	9516
357.517	9692
357.602	8335
357.687	8681
357.771	10264
357.856	9960
357.941	9986
358.025	17730
358.110	50631
358.195	24404
358.279	9956
358.364	10308
358.448	12210
358.533	17649
358.617	14740
358.702	14455
358.787	10887
358.871	9642
358.956	9660
359.040	9860
359.125	9096
359.209	9539
359.294	12117
359.378	20216
359.462	17269
359.547	10758
359.631	9840
359.716	9214
359.800	9411
359.885	10023
359.969	7845
360.053	10297
360.138	9856
360.222	9816
360.306	10116
360.391	10914
360.475	10620
360.559	11842
360.644	12954
360.728	11585
360.812	18563
360.896	28326
360.981	14904
361.065	12828
361.149	13117
361.233	12451
361.318	11434
361.402	13560
361.486	14564
361.570	13672
361.654	14437
361.739	16758
361.823	28297
361.907	37851
361.991	25189
362.075	28952
362.159	42263
362.243	74579
362.327	146266
362.411	170067
362.495	81222
362.580	49258
362.664	48027
362.748	59183
362.832	91915
362.916	165872
363.000	323227
363.084	349820
363.168	170598
363.252	72750
363.336	46039
363.420	35899
363.503	31581
363.587	28719
363.671	29441
363.755	30271
363.839	36359
363.923	40048
364.007	50696
364.091	71529
364.175	109330
364.258	204007
364.342	377573
364.426	479241
364.510	280790
364.594	121600
364.677	67925
364.761	56482
364.845	41780
364.929	26506
365.013	23072
365.096	20956
365.180	17889
365.264	17294
365.347	17173
365.431	15587
365.515	13580
365.598	13421
365.682	15744
365.766	13932
365.849	13777
365.933	13601
366.017	15970
366.100	13470
366.184	14482
366.267	14688
366.351	14179
366.435	12770
366.518	12178
366.602	13441
366.685	13412
366.769	12990
366.852	12828
366.936	14169
367.019	12955
367.103	12043
367.186	14137
367.270	13155
367.353	13562
367.436	16257
367.520	15745
367.603	15551
367.687	14256
367.770	15522
367.853	15864
367.937	16926
368.020	18063
368.104	12353
368.187	12369
368.270	12275
368.353	11750
368.437	10713
368.520	11274
368.603	11151
368.687	12513
368.770	15716
368.853	11177
368.936	10884
369.020	11746
369.103	10493
369.186	9919
369.269	9265
369.352	10720
369.436	10280
369.519	10189
369.602	8578
369.685	11241
369.768	8733
369.851	11145
369.934	8976
370.018	9067
370.101	10089
370.184	12601
370.267	11933
370.350	11791
370.433	14348
370.516	41930
370.599	120839
370.682	59318
370.765	19404
370.848	16626
370.931	18725
371.014	13765
371.097	9102
371.180	10927
371.263	10462
371.346	8260
371.429	10155
371.511	9681
371.594	9463
371.677	10601
371.760	11348
371.843	10998
371.926	26153
372.009	41529
372.091	19223
372.174	13360
372.257	20612
372.340	13485
372.423	11283
372.505	11968
372.588	10507
372.671	13153
372.754	16486
372.836	12785
372.919	11111
373.002	11782
373.085	10858
373.167	13448
373.250	15717
373.332	21047
373.415	34172
373.498	60962
373.580	49674
373.663	161149
373.746	156031
373.828	34839
373.911	19892
373.993	15443
374.076	14216
374.159	14310
374.241	16230
374.324	20150
374.406	18657
374.489	24842
374.571	43029
374.654	22324
374.736	19431
374.819	30998
374.901	43290
374.983	42463
375.066	20602
375.148	16849
375.231	17535
375.313	18125
375.395	17926
375.478	17439
375.560	17472
375.643	16735
375.725	20508
375.807	35674
375.890	27098
375.972	14704
376.054	15276
376.136	14230
376.219	12872
376.301	17698
376.383	26400
376.465	16873
376.548	12254
376.630	14739
376.712	23879
376.794	14192
376.877	11529
376.959	9125
377.041	11593
377.123	10021
377.205	10574
377.287	10902
377.369	10952
377.452	10835
377.534	11564
377.616	9792
377.698	10526
377.780	10208
377.862	10431
377.944	10722
378.026	9669
378.108	11588
378.190	9959
378.272	11123
378.354	10063
378.436	9647
378.518	9291
378.600	10590
378.682	10999
378.764	12300
378.846	12722
378.928	10252
379.010	9746
379.091	9877
379.173	10278
379.255	8207
379.337	9841
379.419	10642
379.501	16490
379.583	10832
379.664	10022
379.746	9618
379.828	13842
379.910	14205
379.991	15226
380.073	10072
380.155	10578
380.237	9088
380.318	9485
380.400	9357
380.482	10289
380.564	11023
380.645	11903
380.727	11505
380.809	10847
380.890	9311
380.972	8839
381.053	9885
381.135	10535
381.217	10976
381.298	14432
381.380	11145
381.461	12023
381.543	22598
381.624	24483
381.706	12267
381.787	11153
381.869	12588
381.951	18774
382.032	42266
382.113	28714
382.195	11929
382.276	14722
382.358	16340
382.439	23139
382.521	27984
382.602	39025
382.684	22256
382.765	29593
382.846	41716
382.928	65633
383.009	40943
383.090	41632
383.172	104584
383.253	130402
383.334	49702
383.416	38067
383.497	28028
383.578	23794
383.659	39399
383.741	107478
383.822	206697
383.903	102667
383.984	38193
384.066	38211
384.147	27726
384.228	22691
384.309	24010
384.390	24824
384.471	24135
384.553	22126
384.634	19993
384.715	18816
384.796	17262
384.877	16951
384.958	20357
385.039	20608
385.120	17616
385.201	17372
385.282	17332
385.363	19501
385.444	20336
385.525	22121
385.606	28793
385.687	28129
385.768	22475
385.849	22101
385.930	35509
386.011	47073
386.092	26623
386.173	23409
386.254	21676
386.335	22225
386.416	20257
386.496	22634
386.577	24274
386.658	21333
386.739	21381
386.820	23055
386.901	22503
386.981	25600
387.062	29092
387.143	30348
387.224	34496
387.304	37622
387.385	34850
387.466	34236
387.547	37178
387.627	37357
387.708	38374
387.789	44321
387.869	43112
387.950	35655
388.031	29987
388.111	27309
388.192	28834
388.273	29309
388.353	26389
388.434	22481
388.514	23197
388.595	32446
388.676	32058
388.756	22532
388.837	22403
388.917	20638
388.998	17606
389.078	18915
389.159	19076
389.239	17261
389.320	19756
389.400	16712
389.480	18710
389.561	21418
389.641	20189
389.722	18110
389.802	17536
389.883	19916
389.963	23771
390.043	20163
390.124	17352
390.204	19054
390.284	21876
390.365	19188
390.445	19471
390.525	21646
390.605	22781
390.686	18685
390.766	20192
390.846	21357
390.927	19524
391.007	19980
391.087	21913
391.167	20659
391.247	21021
391.328	22883
391.408	24481
391.488	24149
391.568	23616
391.648	26326
391.728	28015
391.808	30544
391.888	29920
391.969	35142
392.049	37639
392.129	38215
392.209	40905
392.289	49329
392.369	49779
392.449	52733
392.529	57258
392.609	67041
392.689	79353
392.769	93007
392.849	113398
392.929	146358
393.009	195943
393.089	280547
393.169	447152
393.248	712633
393.328	884639
393.408	860214
393.488	667650
393.568	411157
393.648	252812
393.728	170556
393.807	124379
393.887	97226
393.967	78955
394.047	65819
394.127	56256
394.206	50881
394.286	47549
394.366	55765
394.446	53052
394.525	37500
394.605	35363
394.685	35538
394.764	39106
394.844	62950
394.924	79254
395.003	44839
395.083	32150
395.163	30663
395.242	29129
395.322	29745
395.402	28298
395.481	33489
395.561	39908
395.640	92151
395.720	167923
395.799	93493
395.879	46384
395.958	41267
396.038	46544
396.117	68016
396.197	76875
396.276	63692
396.356	70874
396.435	94135
396.515	126388
396.594	195122
396.673	346740
396.753	627164
396.832	826768
396.912	714930
396.991	409524
397.070	219612
397.150	137643
397.229	112381
397.308	160061
397.388	251596
397.467	138908
397.546	62650
397.625	43435
397.705	40551
397.784	34251
397.863	31459
397.942	28168
398.022	26507
398.101	24230
398.180	23487
398.259	21200
398.338	22247
398.417	19535
398.497	18631
398.576	19078
398.655	17733
398.734	17770
398.813	16757
398.892	15991
398.971	16472
399.050	14657
399.129	14092
399.208	14675
399.287	14828
399.366	13187
399.445	13330
399.524	14303
399.603	11413
399.682	13411
399.761	13821
399.840	13531
399.919	13100
399.998	11389
400.077	10680
400.156	10044
400.235	13218
400.313	10715
400.392	9665
400.471	12867
400.550	13620
400.629	10038
400.708	10839
400.786	9006
400.865	9670
400.944	8195
401.023	11392
401.102	9377
401.180	10086
401.259	9727
401.338	9395
401.416	9135
401.495	8041
401.574	9982
401.652	8474
401.731	9298
401.810	9032
401.888	8476
401.967	8462
402.046	7651
402.124	8410
402.203	7767
402.281	9122
402.360	7951
402.438	8145
402.517	7830
402.596	8387
402.674	8254
402.753	9137
402.831	9345
402.910	12022
402.988	17859
403.066	40755
403.145	25103
403.223	19071
403.302	34067
403.380	28506
403.459	28373
403.537	17219
403.615	12648
403.694	11021
403.772	11393
403.850	11207
403.929	10009
404.007	9822
404.085	13501
404.164	12625
404.242	10684
404.320	10249
404.398	11763
404.477	13030
404.555	28138
404.633	22605
404.711	11426
404.789	10027
404.868	9445
404.946	8875
405.024	8058
405.102	7670
405.180	8092
405.258	6649
405.336	8376
405.415	7105
405.493	8978
405.571	9888
405.649	7796
405.727	8722
405.805	11358
405.883	11403
405.961	11118
406.039	8683
406.117	8322
406.195	9497
406.273	10201
406.351	21015
406.429	14812
406.507	7922
406.585	7016
406.663	7946
406.740	8453
406.818	7100
406.896	8429
406.974	9254
407.052	7768
407.130	15510
407.208	16373
407.285	10407
407.363	8601
407.441	10225
407.519	10136
407.596	14600
407.674	45928
407.752	147894
407.830	99669
407.907	21868
407.985	11290
408.063	10042
408.141	8381
408.218	9622
408.296	9231
408.373	10561
408.451	10581
408.529	11259
408.606	11101
408.684	11422
408.762	12494
408.839	13488
408.917	14253
408.994	15764
409.072	17699
409.149	22305
409.227	33919
409.304	46640
409.382	54135
409.459	61785
409.537	74317
409.614	72093
409.692	62328
409.769	62802
409.846	77407
409.924	89163
410.001	74585
410.079	59057
410.156	46607
410.233	37495
410.311	30780
410.388	25770
410.465	24383
410.543	21138
410.620	20019
410.697	18841
410.775	18897
410.852	16935
410.929	19001
411.006	18748
411.083	17726
411.161	16479
411.238	15229
411.315	14695
411.392	14039
411.469	13828
411.547	12794
411.624	11230
411.701	11003
411.778	11561
411.855	10574
411.932	9207
412.009	9675
412.086	9628
412.163	9346
412.240	8609
412.317	9429
412.394	9071
412.471	9205
412.548	8639
412.625	7920
412.702	8758
412.779	8337
412.856	8113
412.933	7397
413.010	7170
413.087	8286
413.164	8916
413.241	9569
413.318	7520
413.395	7939
413.471	7358
413.548	7268
413.625	8201
413.702	5434
413.779	6499
413.855	5935
413.932	6345
414.009	5531
414.086	6142
414.162	7046
414.239	6153
414.316	7895
414.393	10426
414.469	7030
414.546	6800
414.623	5967
414.699	5614
414.776	5815
414.853	5966
414.929	6451
415.006	6081
415.082	6235
415.159	6326
415.236	5800
415.312	7135
415.389	6452
415.465	5146
415.542	5776
415.618	6044
415.695	6756
415.771	4980
415.848	6091
415.924	6143
416.000	6399
416.077	7399
416.153	5629
416.230	5396
416.306	5009
416.383	5107
416.459	6077
416.535	5464
416.612	6167
416.688	5347
416.764	5287
416.841	5742
416.917	5499
416.993	5841
417.069	6314
417.146	5543
417.222	5699
417.298	6641
417.374	6072
417.451	5963
417.527	5601
417.603	6656
417.679	5345
417.755	6077
417.831	5652
417.908	7084
417.984	5610
418.060	5451
418.136	6747
418.212	6222
418.288	7076
418.364	7207
418.440	6415
418.516	7976
418.592	7248
418.668	7143
418.744	7976
418.820	7617
418.896	7826
418.972	7538
419.048	8073
419.124	9121
419.200	7060
419.276	8365
419.352	7744
419.428	8099
419.504	8758
419.579	9586
419.655	9769
419.731	10248
419.807	10243
419.883	11629
419.959	12021
420.034	12799
420.110	12585
420.186	14651
420.262	14541
420.337	13189
420.413	14870
420.489	15178
420.565	17715
420.640	16613
420.716	19104
420.792	17102
420.867	21040
420.943	21049
421.019	23273
421.094	24308
421.170	26415
421.245	28037
421.321	31946
421.397	37155
421.472	68691
421.548	131965
421.623	88437
421.699	55089
421.774	58388
421.850	65667
421.925	77756
422.001	90937
422.076	108759
422.152	136540
422.227	171522
422.302	225504
422.378	292036
422.453	378252
422.529	413803
422.604	315916
422.679	215961
422.755	325275
422.830	410646
422.905	368363
422.981	295534
423.056	230503
423.131	182384
423.207	144248
423.282	116574
423.357	98897
423.432	81269
423.508	72669
423.583	62959
423.658	55414
423.733	50562
423.808	45757
423.883	45787
423.959	47610
424.034	51312
424.109	47129
424.184	37329
424.259	31101
424.334	28081
424.409	24985
424.484	22244
424.559	21807
424.634	19601
424.709	18256
424.784	18459
424.859	16547
424.934	15851
425.009	16996
425.084	17179
425.159	13916
425.234	14538
425.309	12902
425.384	13125
425.459	11643
425.534	11799
425.609	10503
425.683	12127
425.758	11625
425.833	11341
425.908	11624
425.983	10032
426.058	12283
426.132	11545
426.207	10205
426.282	11046
426.357	9451
426.431	8672
426.506	8997
426.581	9375
426.655	9152
426.730	7920
426.805	7912
426.879	9078
426.954	8276
427.029	8567
427.103	11534
427.178	17271
427.253	11451
427.327	8898
427.402	7823
427.476	7138
427.551	7510
427.625	7907
427.700	9141
427.774	8833
427.849	9638
427.923	9699
427.998	12451
428.072	14991
428.147	31352
428.221	110344
428.296	249769
428.370	140515
428.444	34490
428.519	16604
428.593	13755
428.667	14751
428.742	19461
428.816	49319
428.890	170685
428.965	220396
429.039	69073
429.113	19583
429.188	12399
429.262	11182
429.336	11032
429.410	11533
429.485	11424
429.559	11736
429.633	13417
429.707	18257
429.781	45656
429.855	163083
429.930	200787
430.004	72689
430.078	56631
430.152	143627
430.226	336293
430.300	300439
430.374	104874
430.448	40680
430.522	26975
430.596	29291
430.670	69953
430.744	209896
430.818	195558
430.892	52007
430.966	16982
431.040	11892
431.114	9335
431.188	8966
431.262	8005
431.336	7783
431.410	9275
431.484	9218
431.557	11013
431.631	13339
431.705	27387
431.779	94182
431.853	246045
431.927	161758
432.000	38350
432.074	14517
432.148	8303
432.222	7103
432.295	6880
432.369	5067
432.443	5584
432.516	8300
432.590	14405
432.664	7728
432.737	5035
432.811	3608
432.885	4094
432.958	4618
433.032	3664
433.106	4155
433.179	4657
433.253	4522
433.326	4224
433.400	4013
433.473	5013
433.547	4523
433.620	4811
433.694	4546
433.767	5722
433.841	5073
433.914	5464
433.988	5436
434.061	5856
434.134	5540
434.208	5105
434.281	4160
434.355	4228
434.428	5493
434.501	4409
434.575	4815
434.648	5215
434.721	5097
434.795	5784
434.868	5680
434.941	6442
435.014	7278
435.088	7666
435.161	8211
435.234	10309
435.307	12069
435.381	15140
435.454	22988
435.527	35501
435.600	40798
435.673	37264
435.746	30980
435.819	26138
435.892	20592
435.966	17325
436.039	13868
436.112	12422
436.185	10893
436.258	9173
436.331	8308
436.404	8352
436.477	7457
436.550	6710
436.623	6524
436.696	5497
436.769	5697
436.842	5634
436.915	4585
436.987	4112
437.060	5549
437.133	4333
437.206	4340
437.279	5393
437.352	4045
437.425	3797
437.498	2994
437.570	4526
437.643	3656
437.716	3231
437.789	3602
437.861	3800
437.934	3628
438.007	3648
438.080	2940
438.152	3755
438.225	4514
438.298	10361
438.370	23005
438.443	11063
438.516	4654
438.588	4444
438.661	3385
438.734	3259
438.806	3764
438.879	4161
438.951	3870
439.024	4288
439.096	3439
439.169	4078
439.241	4007
439.314	3752
439.386	3294
439.459	3641
439.531	3139
439.604	3655
439.676	4600
439.749	3274
439.821	3334
439.893	3744
439.966	3650
440.038	2826
440.110	3283
440.183	3324
440.255	4382
440.327	4706
440.400	6056
440.472	13511
440.544	9741
440.617	5563
440.689	5592
440.761	4647
440.833	4247
440.905	5188
440.978	4092
441.050	4889
441.122	5571
441.194	4882
441.266	4785
441.338	4582
441.411	6145
441.483	8259
441.555	9244
441.627	6883
441.699	6689
441.771	6977
441.843	7138
441.915	7316
441.987	9622
442.059	10664
442.131	12249
442.203	16452
442.275	22679
442.347	38441
442.419	86514
442.491	255341
442.563	403747
442.635	209519
442.706	70985
442.778	35947
442.850	25540
442.922	21390
442.994	21143
443.066	25205
443.137	31838
443.209	42485
443.281	67864
443.353	132318
443.425	311001
443.496	555132
443.568	549597
443.640	308107
443.711	124601
443.783	60481
443.855	37517
443.926	27625
443.998	21250
444.070	18225
444.141	16660
444.213	14754
444.285	14390
444.356	13421
444.428	13269
444.499	13006
444.571	13462
444.642	15024
444.714	15882
444.785	17623
444.857	19569
444.928	22621
445.000	26836
445.071	35801
445.143	47059
445.214	71799
445.285	117761
445.357	241261
445.428	477894
445.500	605277
445.571	573699
445.642	439127
445.714	218881
445.785	95925
445.856	52355
445.928	36630
445.999	26801
446.070	22339
446.141	17925
446.213	16386
446.284	13010
446.355	11428
446.426	10297
446.497	9790
446.569	8791
446.640	7495
446.711	7696
446.782	7434
446.853	7462
446.924	6985
446.995	5419
447.066	5429
447.138	5054
447.209	4698
447.280	3826
447.351	4289
447.422	3746
447.493	4284
447.564	3548
447.635	3079
447.706	3589
447.777	3938
447.847	3903
447.918	3140
447.989	4071
448.060	2865
448.131	2985
448.202	3521
448.273	2876
448.344	2778
448.414	3529
448.485	3752
448.556	4167
448.627	2148
448.698	4075
448.768	2762
448.839	2437
448.910	2538
448.981	3722
449.051	3509
449.122	1871
449.193	3118
449.263	3579
449.334	3663
449.405	3552
449.475	3550
449.546	4223
449.616	5139
449.687	4565
449.758	4553
449.828	3717
449.899	3112
449.969	3826
450.040	3557
450.110	2891
450.181	3392
450.251	3159
450.322	3334
450.392	2493
450.463	2770
450.533	3332
450.604	4305
450.674	4479
450.744	5977
450.815	6338
450.885	7325
450.955	7678
451.026	7812
451.096	7776
451.166	6724
451.237	9187
451.307	10981
451.377	9014
451.447	7084
451.518	6321
451.588	5133
451.658	5793
451.728	4675
451.799	3518
451.869	4962
451.939	4837
452.009	5148
452.079	4566
452.149	5613
452.219	5789
452.289	6810
452.360	8039
452.430	9333
452.500	13899
452.570	22353
452.640	44611
452.710	92341
452.780	109577
452.850	76390
452.920	44886
452.990	28228
453.060	19598
453.129	13832
453.199	10753
453.269	9335
453.339	8004
453.409	6710
453.479	6472
453.549	5909
453.619	5326
453.688	4651
453.758	4499
453.828	4357
453.898	4198
453.968	4347
454.037	4019
454.087	3812
454.107	3698
454.168	3239
454.177	3133
454.247	4478
454.249	4466
454.316	3279
454.330	3391
454.386	3728
454.411	3467
454.456	2896
454.492	3298
454.525	3626
454.574	3870
454.595	3942
454.655	3524
454.665	3411
454.734	5234
454.736	5283
454.804	5399
454.817	5345
454.873	4924
454.898	4662
454.943	4144
454.979	3994
455.013	3817
455.060	4321
455.082	4474
455.141	4466
455.152	4515
455.221	5928
455.222	6011
455.291	9576
455.303	11703
455.360	19338
455.384	27982
455.430	40831
455.465	31878
455.499	24178
455.546	12164
455.569	6774
455.627	5779
455.638	5572
455.707	4452
455.708	4491
455.777	4360
455.789	4481
455.846	4880
455.869	5182
455.916	5611
455.950	5493
455.985	5339
456.031	5186
456.054	5054
456.112	5133
456.124	5141
456.193	5733
456.193	5689
456.262	5194
456.274	5437
456.332	6577
456.355	6534
456.401	6276
456.436	6441
456.470	6653
456.516	6725
456.540	6650
456.597	6762
456.609	6712
456.678	7335
456.678	7293
456.747	7571
456.759	7556
456.817	7268
456.840	7622
456.886	8218
456.920	8564
456.955	8931
457.001	9181
457.024	9122
457.082	9506
457.093	9567
457.162	10644
457.163	10694
457.232	10570
457.243	10827
457.301	12334
457.324	12740
457.370	13334
457.405	14820
457.439	16588
457.485	18122
457.508	18967
457.566	22845
457.577	24404
457.646	35300
457.647	35561
457.715	74223
457.727	83468
457.784	148790
457.808	193060
457.853	249180
457.889	293378
457.922	291633
457.969	224454
457.991	226984
458.050	241817
458.060	248425
458.129	385986
458.130	390369
458.198	408252
458.211	386942
458.267	261644
458.292	197042
458.336	140556
458.372	121062
458.405	136626
458.453	181279
458.474	221491
458.533	374246
458.543	386680
458.611	566044
458.614	570144
458.680	423817
458.694	367184
458.749	215852
458.775	157246
458.818	99288
458.855	73814
458.887	58857
458.936	45971
458.955	41939
459.016	33239
459.024	32282
459.093	27572
459.097	27350
459.162	22567
459.177	21914
459.230	20694
459.257	20387
459.299	19671
459.338	18900
459.368	18624
459.418	17657
459.437	16944
459.499	15716
459.505	15688
459.574	15683
459.579	15698
459.643	14916
459.659	14797
459.711	15103
459.740	15283
459.780	15122
459.820	15123
459.849	15124
459.900	15488
459.917	15506
459.981	14447
459.986	14364
460.054	14504
460.061	14495
460.123	14173
460.141	14290
460.191	14998
460.222	15106
460.260	14896
460.302	14940
460.328	15486
460.382	16810
460.397	17507
460.462	20641
460.465	21311
460.534	37562
460.543	39934
460.602	101991
460.623	126178
460.671	191858
460.703	252238
460.739	233245
460.783	187345
460.808	158657
460.864	49692
460.876	40384
460.944	19099
460.945	18910
461.013	15630
461.024	15419
461.081	14818
461.104	14762
461.150	14792
461.184	14734
461.218	14759
461.264	14732
461.286	14525
461.345	13829
461.355	13691
461.423	13445
461.425	13431
461.491	12976
461.505	13033
461.559	13431
461.585	13337
461.628	13061
461.665	13150
461.696	13166
461.745	12918
461.764	12858
461.825	12793
461.832	12833
461.901	12953
461.905	12983
461.969	12581
461.985	12411
462.037	13035
462.065	13601
462.105	13259
462.145	12718
462.173	12760
462.225	12603
462.241	12585
462.305	12966
462.310	13037
462.378	14108
462.385	14208
462.446	14498
462.465	14594
462.514	14714
462.545	14953
462.582	14499
462.625	13367
462.650	13093
462.705	12739
462.718	12713
462.785	12868
462.786	12870
462.854	12649
462.865	12551
462.922	12759
462.945	12953
462.990	12631
463.025	12252
463.058	12749
463.104	13622
463.126	13541
463.184	13295
463.194	13357
463.262	13386
463.264	13389
463.330	13629
463.344	13628
463.398	14117
463.424	14336
463.466	13325
463.504	12509
463.533	13298
463.583	14233
463.601	13823
463.663	12757
463.669	12733
463.737	12356
463.743	12304
463.805	13864
463.823	14280
463.873	13903
463.903	13613
463.940	13113
463.982	12751
464.008	13142
464.062	13726
464.076	13591
464.142	12925
464.144	12945
464.211	13134
464.221	13151
464.279	13364
464.301	13435
464.347	13438
464.381	13486
464.414	13339
464.461	13037
464.482	13076
464.540	12941
464.550	12938
464.617	12997
464.620	12991
464.685	13841
464.699	13919
464.753	13844
464.779	13915
464.820	13902
464.859	13707
464.888	13277
464.938	12596
464.956	13066
465.018	14595
465.023	14569
465.091	14032
465.098	13960
465.158	14627
465.177	14806
465.226	14681
465.257	14584
465.293	14551
465.336	14406
465.361	14479
465.416	14531
465.428	14585
465.495	14932
465.496	14948
465.563	13764
465.575	13568
465.631	14265
465.654	14538
465.698	14251
465.734	13927
465.765	14423
465.813	15127
465.833	15129
465.893	15044
465.900	15089
465.968	15284
465.972	15268
466.035	14739
466.052	14587
466.102	15045
466.131	15268
466.170	14961
466.210	14527
466.237	14718
466.290	15064
466.304	15094
466.369	15061
466.372	15097
466.439	15416
466.449	15427
466.506	15083
466.528	14945
466.573	15499
466.607	15816
466.641	16393
466.687	17172
466.708	17257
466.766	17328
466.775	17401
466.842	17750
466.845	17733
466.909	16863
466.925	16615
466.977	17247
467.004	17539
467.044	17473
467.083	17358
467.111	18109
467.163	19402
467.178	19430
467.242	19370
467.245	19423
467.312	19779
467.321	19791
467.379	19857
467.400	19820
467.446	20556
467.480	21019
467.559	21177
467.638	22157
467.717	22748
467.796	25822
467.875	27196
467.955	29141
468.034	33932
468.113	39295
468.192	48084
468.271	60923
468.350	83167
468.429	108897
468.508	110036
468.588	73904
468.667	48984
468.746	37036
468.825	32177
468.904	28079
468.983	25092
469.062	23306
469.141	24586
469.220	21742
469.299	21660
469.378	19216
469.456	20627
469.535	20048
469.614	19293
469.693	18094
469.772	20204
469.851	19946
469.930	19989
470.009	19302
470.088	19434
470.166	21550
470.245	23991
470.324	24974
470.403	23135
470.482	20639
470.560	19409
470.639	18952
470.718	19062
470.797	19566
470.875	18795
470.954	18283
471.033	19330
471.111	17345
471.190	17521
471.269	17375
471.347	17653
471.426	17942
471.505	17626
471.583	17246
471.662	17407
471.740	17679
471.819	18040
471.898	18324
471.976	18505
472.055	19115
472.133	26647
472.212	34217
472.290	21293
472.369	17220
472.447	16653
472.526	17514
472.604	18079
472.683	18138
472.761	18698
472.839	19199
472.918	19172
472.996	18566
473.075	18412
473.153	19364
473.231	19315
473.310	19272
473.388	18905
473.466	18632
473.545	19754
473.623	20530
473.701	21028
473.780	21660
473.858	20221
473.936	21693
474.014	21306
474.093	26822
474.171	35760
474.249	25094
474.327	19589
474.405	20314
474.484	21178
474.562	19393
474.640	19682
474.718	18535
474.796	18991
474.874	18163
474.952	18949
475.030	18817
475.108	18229
475.187	18032
475.265	19142
475.343	22930
475.421	22582
475.499	17739
475.577	18947
475.655	18468
475.733	18280
475.811	17448
475.889	16973
475.966	17613
476.044	17309
476.122	19163
476.200	21072
476.278	18317
476.356	16400
476.434	17248
476.512	18706
476.590	20836
476.667	19774
476.745	16861
476.823	17272
476.901	16606
476.979	16699
477.056	16568
477.134	17220
477.212	16852
477.290	16595
477.367	16165
477.445	17225
477.523	15366
477.601	16111
477.678	16284
477.756	16789
477.834	16569
477.911	15783
477.989	16959
478.066	17365
478.144	17599
478.222	19591
478.299	28201
478.377	33338
478.454	27002
478.532	17448
478.609	16007
478.687	16920
478.764	17019
478.842	17116
478.919	16506
478.997	17615
479.074	16644
479.152	16761
479.229	17136
479.307	16192
479.384	16332
479.461	17707
479.539	16817
479.616	17829
479.694	17241
479.771	17480
479.848	17943
479.926	16288
480.003	18879
480.080	18203
480.157	17978
480.235	17833
480.312	19242
480.389	19820
480.467	19956
480.544	21873
480.621	24071
480.698	24478
480.775	23499
480.853	22331
480.930	21538
481.007	25358
481.084	42588
481.161	74963
481.238	42836
481.315	22233
481.392	21225
481.470	23285
481.547	22413
481.624	23089
481.701	24290
481.778	24790
481.855	25719
481.932	28900
482.009	29874
482.086	32914
482.163	37268
482.240	44493
482.317	49042
482.393	42650
482.470	33653
482.547	34104
482.624	31701
482.701	31961
482.778	31496
482.855	30633
482.932	32849
483.009	36603
483.085	46573
483.162	69127
483.239	64083
483.316	46066
483.393	43964
483.469	38677
483.546	35215
483.623	32602
483.699	28787
483.776	27431
483.853	26875
483.930	27041
484.006	26129
484.083	27270
484.160	28135
484.236	29200
484.313	30712
484.389	33492
484.466	39863
484.543	47196
484.619	57909
484.696	58943
484.772	41229
484.849	31112
484.925	28033
485.002	25821
485.078	24452
485.155	23492
485.231	21800
485.308	21540
485.384	21995
485.461	25004
485.537	23102
485.614	21504
485.690	19523
485.766	20207
485.843	19789
485.919	20087
485.995	20725
486.072	19885
486.148	19968
486.224	20598
486.301	20570
486.377	19894
486.453	20486
486.530	21431
486.606	23225
486.682	23372
486.758	25563
486.835	28799
486.911	31378
486.987	32890
487.063	37540
487.139	52266
487.215	78521
487.292	73297
487.368	71328
487.444	92905
487.520	139042
487.596	223388
487.672	427621
487.748	1109972
487.824	1586276
487.900	873140
487.976	307024
488.052	153396
488.128	98209
488.204	68595
488.280	53806
488.356	44936
488.432	39187
488.508	35556
488.584	31695
488.660	29621
488.736	27098
488.812	23930
488.888	24432
488.964	23931
489.039	25417
489.115	31488
489.191	33604
489.267	26382
489.343	20737
489.418	21226
489.494	20231
489.570	19236
489.646	21793
489.722	20814
489.797	20917
489.873	20731
489.949	22335
490.024	22425
490.100	20933
490.176	21782
490.251	20478
490.327	21362
490.403	19887
490.478	20369
490.554	20184
490.629	20207
490.705	18952
490.781	19832
490.856	19216
490.932	19693
491.007	18730
491.083	18478
491.158	17156
491.234	17315
491.309	18036
491.385	15941
491.460	15970
491.536	17730
491.611	15262
491.686	16312
491.762	16643
491.837	17609
491.913	19584
491.988	20575
492.063	22704
492.139	16759
492.214	14877
492.289	16040
492.365	14216
492.440	15362
492.515	14700
492.590	15373
492.666	15401
492.741	15228
492.816	14658
492.891	14811
492.967	17073
493.042	17741
493.117	16068
493.192	18200
493.267	27510
493.342	77526
493.418	102244
493.493	23257
493.568	16161
493.643	14692
493.718	13984
493.793	14529
493.868	14861
493.943	14974
494.018	14808
494.093	14085
494.168	14059
494.243	13551
494.318	13886
494.393	13310
494.468	13018
494.543	13722
494.618	13102
494.693	12913
494.768	14082
494.842	13207
494.917	13754
494.992	13848
495.067	13389
495.142	14067
495.217	13832
495.292	13632
495.366	13254
495.441	13618
495.516	13680
495.591	14248
495.665	20052
495.740	30406
495.815	19960
495.890	14455
495.964	14320
496.039	20279
496.114	30490
496.188	67130
496.263	46091
496.338	16347
496.412	13799
496.487	15287
496.561	14734
496.636	14916
496.710	17635
496.785	21853
496.860	14573
496.934	13437
497.009	14140
497.083	12786
497.158	12661
497.232	12888
497.307	12521
497.381	13332
497.455	13011
497.530	13311
497.604	12761
497.679	13465
497.753	12800
497.827	12820
497.902	12091
497.976	13417
498.050	13692
498.125	15462
498.199	16466
498.273	13213
498.348	12601
498.422	13405
498.496	12518
498.570	14938
498.645	13308
498.719	11699
498.793	13401
498.867	13696
498.941	12416
499.016	14507
499.090	15540
499.164	14662
499.238	14780
499.312	15378
499.386	14732
499.460	15791
499.534	15495
499.609	15585
499.683	14287
499.757	15015
499.831	14230
499.905	14863
499.979	14334
500.053	13627
500.127	14196
500.201	14565
500.275	15236
500.349	15287
500.422	14036
500.496	15418
500.570	17412
500.644	17372
500.718	18011
500.792	16960
500.866	16460
500.940	15652
501.013	15855
501.087	16467
501.161	17852
501.235	16195
501.309	19439
501.382	18478
501.456	18610
501.530	17342
501.603	15620
501.677	15149
501.751	14308
501.825	17133
501.898	16250
501.972	15663
502.046	16002
502.119	14962
502.193	15168
502.266	15932
502.340	15138
502.413	15302
502.487	15777
502.561	15617
502.634	17308
502.708	18099
502.781	17053
502.855	19228
502.928	16889
503.002	18088
503.075	16348
503.149	18567
503.222	18599
503.295	19689
503.369	21647
503.442	24717
503.516	28502
503.589	34437
503.662	42076
503.736	52004
503.809	69684
503.882	94382
503.956	143851
504.029	280638
504.102	686118
504.175	985663
504.249	508825
504.322	220796
504.395	121085
504.468	78832
504.542	55353
504.615	42603
504.688	35475
504.761	28144
504.834	27282
504.907	23823
504.980	22255
505.053	19730
505.127	15648
505.200	19470
505.273	15986
505.346	16656
505.419	13960
505.492	16534
505.565	14662
505.638	15008
505.711	13135
505.784	12250
505.857	12406
505.930	15134
506.003	10585
506.076	14125
506.149	12020
506.221	9508
506.294	12318
506.367	10301
506.440	11282
506.513	11788
506.586	10878
506.659	9950
506.731	10438
506.804	10535
506.877	9683
506.950	11358
507.022	10271
507.095	9488
507.168	11075
507.241	10660
507.313	9690
507.386	8420
507.459	10169
507.531	9783
507.604	9234
507.677	11269
507.749	9559
507.822	11091
507.894	9152
507.967	10199
508.040	8595
508.112	10570
508.185	10508
508.257	8288
508.330	11145
508.402	9529
508.475	9076
508.547	9682
508.620	9033
508.692	9411
508.765	9834
508.837	9617
508.909	8971
508.982	8937
509.054	9962
509.127	10189
509.199	8023
509.271	8576
509.344	9411
509.416	9345
509.488	8844
509.560	10108
509.633	9169
509.705	9044
509.777	9334
509.849	9627
509.922	8042
509.994	9601
510.066	10491
510.138	7419
510.210	10645
510.283	9801
510.355	9189
510.427	9282
510.499	9973
510.571	8493
510.643	7690
510.715	10014
510.787	7685
510.859	10394
510.931	9045
511.003	9234
511.076	9799
511.148	9319
511.219	8189
511.291	9432
511.363	9371
511.435	8930
511.507	8781
511.579	9525
511.651	9767
511.723	8667
511.795	9175
511.867	8726
511.939	9715
512.010	8791
512.082	9685
512.154	8790
512.226	8503
512.298	10503
512.369	9415
512.441	9560
512.513	10724
512.585	7895
512.656	10030
512.728	9446
512.800	8872
512.871	10607
512.943	9447
513.015	8267
513.086	9370
513.158	10432
513.230	8840
513.301	9568
513.373	10285
513.444	9497
513.516	9665
513.588	9312
513.659	10052
513.731	9943
513.802	8837
513.874	13416
513.945	11584
514.016	9241
514.088	10694
514.159	9164
514.231	10441
514.302	9704
514.374	10130
514.445	8487
514.516	12236
514.588	9273
514.659	9330
514.730	10547
514.802	10550
514.873	7754
514.944	12410
515.016	10631
515.087	10184
515.158	10261
515.229	11284
515.301	9440
515.372	11248
515.443	9764
515.514	11152
515.585	13302
515.656	14543
515.728	13276
515.799	10089
515.870	13002
515.941	12001
516.012	10838
516.083	12219
516.154	10349
516.225	12844
516.296	15637
516.367	14206
516.438	14522
516.509	16708
516.580	20129
516.651	43717
516.722	124065
516.793	60466
516.864	20856
516.935	20950
517.006	23250
517.077	26169
517.148	46218
517.219	171938
517.289	273280
517.360	52042
517.431	22619
517.502	17362
517.573	18673
517.643	18686
517.714	18896
517.785	22539
517.856	22948
517.926	28228
517.997	32540
518.068	37658
518.138	49003
518.209	63702
518.280	151639
518.350	471368
518.421	241517
518.492	111498
518.562	132064
518.633	181646
518.703	285118
518.774	572873
518.845	1154292
518.915	1086623
518.986	434841
519.056	198761
519.127	120295
519.197	84186
519.268	61768
519.338	47977
519.408	37384
519.479	32979
519.549	28007
519.620	27385
519.690	23187
519.760	20739
519.831	20513
519.901	18084
519.971	17853
520.042	17362
520.112	16422
520.182	16882
520.253	16822
520.323	14404
520.393	13693
520.463	15658
520.534	11492
520.604	16059
520.674	14800
520.744	12500
520.814	13365
520.885	13725
520.955	13114
521.025	13468
521.095	12440
521.165	14596
521.235	12206
521.305	13233
521.375	13130
521.445	14186
521.515	13228
521.585	14232
521.655	12376
521.725	14492
521.795	13852
521.865	10717
521.935	14963
522.005	12149
522.075	13996
522.145	15587
522.215	17648
522.285	15613
522.355	13848
522.424	15626
522.494	16384
522.564	16440
522.634	14727
522.704	20985
522.774	15576
522.843	15424
522.913	18452
522.983	17479
523.053	13577
523.122	15839
523.192	14778
523.262	16707
523.331	15656
523.401	15998
523.471	14685
523.540	15510
523.610	13995
523.680	16591
523.749	17949
523.819	23152
523.888	23965
523.958	18443
524.027	17831
524.097	16735
524.166	17129
524.236	15632
524.305	17360
524.375	15810
524.444	15317
524.514	18668
524.583	17351
524.653	15984
524.722	18199
524.791	16937
524.861	19975
524.930	19087
524.999	20274
525.069	22151
525.138	20931
525.207	22323
525.277	25911
525.346	26966
525.415	29934
525.484	35903
525.554	41925
525.623	55465
525.692	77942
525.761	82710
525.830	100723
525.900	133596
525.969	212715
526.038	413123
526.107	741565
526.176	1628928
526.245	1388397
526.314	563669
526.383	985618
526.452	1269027
526.522	1459731
526.591	1383021
526.660	404788
526.729	227434
526.797	225572
526.867	315822
526.935	748697
527.004	1763751
527.073	1377656
527.142	374974
527.211	159909
527.280	98814
527.349	69932
527.418	52255
527.487	45369
527.555	35579
527.624	32453
527.693	28826
527.762	28854
527.831	25517
527.899	25225
527.968	22129
528.037	20118
528.106	22251
528.174	21539
528.243	20416
528.312	19533
528.380	18983
528.449	17945
528.518	19292
528.586	16843
528.655	17942
528.723	18516
528.792	17258
528.861	17570
528.929	16457
528.998	17499
529.066	18856
529.135	24006
529.203	22408
529.272	25939
529.340	30485
529.409	28341
529.477	25660
529.545	25355
529.614	28561
529.682	28586
529.751	31187
529.819	35998
529.887	36525
529.956	33263
530.024	32166
530.092	31184
530.161	31700
530.229	30920
530.297	33986
530.365	33866
530.434	35438
530.502	34963
530.570	33073
530.638	27909
530.707	29528
530.775	29161
530.843	29418
530.911	32187
530.979	30906
531.047	35816
531.115	33947
531.183	31560
531.252	31021
531.320	30017
531.388	29390
531.456	33790
531.524	32549
531.592	35875
531.660	39286
531.728	34902
531.796	33851
531.864	33936
531.932	32889
532.000	32933
532.067	37072
532.135	38039
532.203	39492
532.271	42874
532.339	42146
532.407	42449
532.475	40722
532.542	38822
532.610	38905
532.678	39566
532.746	47038
532.814	57744
532.881	46213
532.949	41769
533.017	38849
533.084	38903
533.152	35571
533.220	36109
533.287	35559
533.355	39436
533.423	39376
533.490	40226
533.558	39547
533.625	38678
533.693	36738
533.761	37578
533.828	38006
533.896	35281
533.963	40065
534.031	42484
534.098	49559
534.166	52582
534.233	49367
534.300	54315
534.368	53976
534.435	54473
534.503	59518
534.570	66526
534.637	75369
534.705	87596
534.772	108699
534.840	206623
534.907	775618
534.974	954899
535.041	181872
535.109	77068
535.176	58147
535.243	52785
535.310	50089
535.378	47269
535.445	45378
535.512	45892
535.579	43989
535.646	42109
535.714	44770
535.781	45890
535.848	46505
535.915	44502
535.982	42262
536.049	41822
536.116	43111
536.183	39600
536.250	38768
536.317	39912
536.384	41269
536.451	42992
536.518	44164
536.585	42574
536.652	44169
536.719	43317
536.786	40992
536.853	40954
536.920	41918
536.987	41343
537.053	39541
537.120	47981
537.187	48577
537.254	46099
537.321	45343
537.388	45754
537.454	43965
537.521	43603
537.588	42394
537.654	43198
537.721	45187
537.788	45447
537.855	42836
537.921	43640
537.988	43147
538.055	42177
538.121	37538
538.188	37543
538.254	35509
538.321	36817
538.388	40782
538.454	45857
538.521	46018
538.587	46097
538.654	43335
538.720	42098
538.787	42953
538.853	43349
538.920	40895
538.986	37546
539.053	36643
539.119	39681
539.185	38815
539.252	42561
539.318	43457
539.385	48013
539.451	43409
539.517	42599
539.583	42823
539.650	41866
539.716	43899
539.782	39787
539.849	39448
539.915	40958
539.981	39820
540.047	39083
540.114	39089
540.180	41582
540.246	43145
540.312	45726
540.378	44710
540.444	44367
540.510	44419
540.576	48330
540.643	40524
540.709	39174
540.775	41575
540.841	39976
540.907	39531
540.973	38810
541.039	39461
541.105	41733
541.171	43423
541.237	44540
541.303	44255
541.369	44967
541.435	43824
541.500	41823
541.566	38220
541.632	39502
541.698	40421
541.764	42261
541.830	40253
541.896	40102
541.961	40124
542.027	40406
542.093	43552
542.159	44899
542.224	39642
542.290	42314
542.356	40632
542.421	40595
542.487	38956
542.553	38198
542.618	38922
542.684	39171
542.750	39935
542.815	42170
542.881	42043
542.947	45896
543.012	45784
543.078	39816
543.143	36765
543.209	39933
543.274	38116
543.340	39497
543.405	41934
543.471	44033
543.536	41337
543.602	41361
543.667	40267
543.732	42446
543.798	40926
543.863	42359
543.928	42083
543.994	42052
544.059	43446
544.124	43413
544.190	43994
544.255	45688
544.320	44935
544.386	45317
544.451	46369
544.516	45897
544.581	45252
544.646	48419
544.712	50429
544.777	47648
544.842	47374
544.907	47305
544.972	47839
545.037	50349
545.102	54433
545.168	52005
545.233	51496
545.298	52524
545.363	51552
545.428	55174
545.493	55618
545.558	55806
545.623	54791
545.688	55772
545.753	57713
545.818	59513
545.883	64108
545.947	64994
546.012	65758
546.077	67556
546.142	72467
546.207	75092
546.272	76602
546.337	81118
546.401	82918
546.466	86267
546.531	87657
546.596	97340
546.661	100526
546.725	103967
546.790	110502
546.855	121098
546.919	132893
546.984	147738
547.049	158974
547.113	177976
547.178	197162
547.243	222616
547.307	255339
547.372	281407
547.436	280936
547.501	296654
547.565	314948
547.630	290864
547.695	279933
547.759	282623
547.823	287451
547.888	292067
547.952	300586
548.017	315456
548.081	342948
548.146	319138
548.210	320123
548.274	343856
548.339	338235
548.403	307530
548.468	292391
548.532	290435
548.596	297125
548.660	297852
548.725	320260
548.789	346785
548.853	334645
548.917	321633
548.982	310820
549.046	283520
549.110	258598
549.174	266503
549.238	310868
549.303	339024
549.367	344756
549.431	328637
549.495	310346
549.559	312158
549.623	354400
549.687	387110
549.751	375562
549.815	442815
549.879	450082
549.943	430694
550.007	450192
550.071	444881
550.135	403466
550.199	388866
550.263	383630
550.327	363703
550.391	382088
550.455	420699
550.519	434072
550.582	456545
550.646	511787
550.710	518830
550.774	515706
550.838	527409
550.901	545167
550.965	577282
551.029	611332
551.093	661222
551.156	731595
551.220	815681
551.284	855211
551.347	690426
551.411	579662
551.475	539631
551.538	547769
551.602	512754
551.666	483238
551.729	456729
551.793	443071
551.856	436015
551.920	428170
551.983	425325
552.047	419251
552.110	424598
552.174	432712
552.237	436438
552.301	405120
552.364	387058
552.428	374778
552.491	388411
552.554	396338
552.618	391885
552.681	397710
552.745	383015
552.808	394416
552.871	412874
552.934	406470
552.998	398650
553.061	388434
553.124	372574
553.187	368736
553.251	384243
553.314	382884
553.377	387622
553.440	416851
553.503	463480
553.567	487296
553.630	413311
553.693	401913
553.756	402526
553.819	391003
553.882	375749
553.945	377475
554.008	384677
554.071	386988
554.134	387193
554.197	364980
554.260	354466
554.323	363098
554.386	367888
554.449	383221
554.512	381150
554.575	369659
554.638	362689
554.701	364811
554.764	360428
554.827	348633
554.889	337130
554.952	316869
555.015	311488
555.078	319064
555.141	321942
555.203	313773
555.266	313466
555.329	316296
555.391	300492
555.454	297884
555.517	290628
555.580	282768
555.642	273912
555.705	268190
555.768	265438
555.830	256634
555.893	245522
555.955	240550
556.018	237470
556.080	241670
556.143	247013
556.206	243603
556.268	238013
556.330	231276
556.393	224413
556.455	219797
556.518	217341
556.580	209898
556.643	202970
556.705	199821
556.767	195645
556.830	195407
556.892	189974
556.955	187707
557.017	184460
557.079	185051
557.142	179698
557.204	179663
557.266	181400
557.328	169377
557.391	158110
557.453	153207
557.515	155813
557.577	158198
557.639	160655
557.701	162498
557.764	165544
557.826	168689
557.888	176663
557.950	185622
558.012	207303
558.074	268847
558.136	540995
558.198	1117538
558.260	503543
558.322	215771
558.384	204593
558.446	210802
558.508	226451
558.570	253708
558.632	300593
558.694	390980
558.756	624079
558.818	1320363
558.880	2003947
558.942	1342061
559.003	1274788
559.065	714762
559.127	318808
559.189	282715
559.251	305827
559.312	420647
559.374	835568
559.436	1682173
559.498	1154841
559.559	402704
559.621	295154
559.683	318251
559.744	476849
559.806	1123266
559.868	1467421
559.929	546254
559.991	333897
560.052	480790
560.114	1111453
560.176	806500
560.237	711336
560.299	1038721
560.360	315676
560.422	130369
560.483	103599
560.545	91910
560.606	86331
560.667	81788
560.729	75963
560.790	71325
560.852	69848
560.913	68147
560.974	64547
561.036	64461
561.097	64937
561.158	63723
561.220	62153
561.281	59442
561.342	58133
561.403	57207
561.465	58317
561.526	59558
561.587	58178
561.648	53417
561.709	53648
561.771	52406
561.832	51748
561.893	50561
561.954	50614
562.015	49904
562.076	50111
562.137	48575
562.198	48682
562.259	48927
562.320	48438
562.381	47430
562.442	47806
562.503	46529
562.564	46028
562.625	45344
562.686	44182
562.747	44161
562.808	45077
562.869	43812
562.930	43551
562.991	42259
563.051	41938
563.112	41999
563.173	42269
563.234	40868
563.294	40644
563.355	40057
563.416	39916
563.477	39978
563.537	40752
563.598	40101
563.659	39575
563.720	38989
563.780	39033
563.841	39008
563.901	39140
563.962	38307
564.023	37497
564.083	36668
564.144	37301
564.204	37233
564.265	35792
564.325	36095
564.386	36202
564.446	35745
564.507	36902
564.567	34321
564.628	34899
564.688	34019
564.749	33970
564.809	35091
564.869	35003
564.930	33900
564.990	34953
565.050	33566
565.111	34958
565.171	34506
565.231	33569
565.292	35001
565.352	32437
565.412	34343
565.472	34042
565.532	33885
565.593	34318
565.653	33227
565.713	33343
565.773	34358
565.833	36215
565.893	35994
565.953	33696
566.013	31470
566.074	32633
566.134	31579
566.194	30606
566.254	31543
566.314	31986
566.374	30594
566.434	31004
566.494	31442
566.554	32613
566.614	31850
566.673	33211
566.733	34903
566.793	34157
566.853	34485
566.913	35009
566.973	33716
567.033	34486
567.092	34007
567.152	33538
567.212	33712
567.272	34832
567.331	34684
567.391	34985
567.451	36568
567.511	36404
567.570	35963
567.630	35601
567.690	34441
567.749	33433
567.809	34279
567.868	34169
567.928	32627
567.988	35211
568.047	35299
568.107	35189
568.166	35305
568.226	35508
568.285	35924
568.345	36531
568.404	35503
568.464	35362
568.523	34115
568.582	35533
568.642	34805
568.701	33781
568.761	32363
568.820	34068
568.879	32749
568.939	35227
568.998	34698
569.057	34294
569.116	33997
569.176	35324
569.235	35263
569.294	34764
569.353	34265
569.413	33134
569.472	31925
569.531	33305
569.590	33066
569.649	33272
569.708	32720
569.767	33752
569.827	32549
569.886	33770
569.945	32336
570.004	34334
570.063	33447
570.122	35019
570.181	35647
570.240	36412
570.299	36239
570.358	37395
570.417	36151
570.475	36788
570.534	37360
570.593	36435
570.652	37110
570.711	38215
570.770	35856
570.829	36052
570.887	36127
570.946	38005
571.005	37260
571.064	37394
571.122	36710
571.181	38300
571.240	37293
571.299	35341
571.357	34710
571.416	34681
571.475	34730
571.533	37821
571.592	41649
571.650	40298
571.709	42404
571.768	48659
571.826	52240
571.885	47474
571.943	42361
572.002	38381
572.060	37568
572.119	36062
572.177	35735
572.236	36827
572.294	38027
572.352	39917
572.411	39992
572.469	39614
572.528	36940
572.586	35837
572.644	35619
572.703	35582
572.761	34606
572.819	33217
572.877	32427
572.936	32962
572.994	33504
573.052	33710
573.110	34577
573.169	37814
573.227	37395
573.285	36177
573.343	35509
573.401	35761
573.459	36601
573.517	38337
573.576	41390
573.634	39960
573.692	39596
573.750	41281
573.808	38328
573.866	36221
573.924	36156
573.982	35060
574.040	36132
574.098	36580
574.155	35610
574.213	35148
574.271	38458
574.329	42499
574.387	39552
574.445	36312
574.503	34126
574.560	34310
574.618	33968
574.676	34552
574.734	34511
574.792	33318
574.849	30596
574.907	29003
574.965	27128
575.022	28679
575.080	27939
575.138	28023
575.195	27102
575.253	26748
575.311	26434
575.368	27212
575.426	26405
575.483	27280
575.541	29151
575.598	28993
575.656	28421
575.713	30006
575.771	33046
575.828	32560
575.886	28797
575.943	28726
576.001	26216
576.058	25898
576.115	27643
576.173	27734
576.230	28489
576.287	30217
576.345	29069
576.402	29811
576.459	31468
576.517	28195
576.574	28018
576.631	27148
576.688	25588
576.746	25302
576.803	24462
576.860	24484
576.917	24914
576.974	25457
577.031	25706
577.089	25353
577.146	23946
577.203	22950
577.260	23407
577.317	23229
577.374	23732
577.431	24304
577.488	23558
577.545	23734
577.602	25462
577.659	25020
577.716	25264
577.773	27904
577.830	24978
577.886	24260
577.943	24006
578.000	24292
578.057	24055
578.114	24340
578.171	23481
578.227	23409
578.284	22597
578.341	23535
578.398	24112
578.454	25060
578.511	24133
578.568	24873
578.625	24787
578.681	25189
578.738	24122
578.794	23612
578.851	24857
578.908	25308
578.964	24453
579.021	25760
579.077	24899
579.134	25590
579.190	25521
579.247	26328
579.303	24064
579.360	24932
579.416	24300
579.473	25934
579.529	25486
579.586	25944
579.642	26368
579.698	26679
579.755	25589
579.811	25475
579.867	26092
579.924	26756
579.980	28138
580.036	27341
580.093	28333
580.149	26704
580.205	28680
580.261	29169
580.317	30224
580.374	30695
580.430	31238
580.486	31167
580.542	30625
580.598	30889
580.619	30914
580.654	30989
580.692	30721
580.710	30632
580.765	30883
580.767	30919
580.823	31642
580.838	31611
580.879	31616
580.911	32594
580.935	33364
580.984	33087
580.991	33083
581.047	32779
581.057	32667
581.103	32261
581.130	31646
581.159	31064
581.203	30300
581.215	30125
581.270	31652
581.276	31510
581.326	30426
581.349	30579
581.382	30760
581.422	30303
581.438	30161
581.494	30920
581.494	30899
581.550	30412
581.567	30447
581.606	30526
581.640	31164
581.661	31565
581.713	32380
581.717	32468
581.773	31202
581.786	31497
581.829	32454
581.859	32090
581.885	31865
581.932	32272
581.940	32323
581.996	32291
582.004	32480
582.052	33720
582.077	33419
582.107	33023
582.150	33528
582.163	33691
582.219	32065
582.223	32135
582.274	33113
582.296	33201
582.330	33475
582.368	34020
582.386	34290
582.441	35120
582.441	35126
582.497	35576
582.514	35462
582.552	35417
582.587	36078
582.608	36406
582.659	36077
582.663	36047
582.719	36934
582.732	36876
582.774	36936
582.805	37561
582.830	38016
582.877	38225
582.885	38303
582.941	39684
582.950	39920
582.996	41226
583.023	42719
583.052	44338
583.095	44135
583.107	43931
583.162	43102
583.168	42920
583.218	41086
583.240	40168
583.273	39084
583.313	38423
583.328	38200
583.384	38226
583.385	38206
583.439	37420
583.458	37275
583.494	37110
583.531	37039
583.549	37167
583.603	38087
583.605	38100
583.660	37224
583.676	37372
583.715	37772
583.748	37368
583.770	37232
583.820	37916
583.825	37950
583.881	38774
583.893	38379
583.936	37263
583.965	37723
583.991	38050
584.038	39397
584.046	39639
584.101	39388
584.110	39443
584.156	39855
584.183	40368
584.211	40806
584.255	40797
584.266	40865
584.321	42223
584.328	42336
584.376	43103
584.400	43418
584.431	43840
584.472	44086
584.486	44255
584.541	46150
584.545	46287
584.596	48221
584.617	48189
584.651	48470
584.689	50237
584.706	50910
584.761	52680
584.762	52697
584.816	55202
584.834	56125
584.871	57888
584.906	60142
584.926	61656
584.978	65545
584.980	65702
585.035	71672
585.051	73519
585.090	79058
585.123	85009
585.145	89289
585.195	98368
585.200	99435
585.254	116808
585.267	121632
585.309	139936
585.340	154563
585.364	166800
585.412	194821
585.419	199868
585.473	248387
585.484	262557
585.528	343866
585.556	418165
585.583	543193
585.628	830981
585.637	919043
585.692	1613631
585.700	1713989
585.747	2034452
585.772	1906909
585.801	1496206
585.845	820423
585.856	696952
585.910	351124
585.917	320023
585.965	222743
585.989	187542
586.019	161637
586.061	135129
586.074	129181
586.128	110825
586.133	109428
586.183	98449
586.205	94928
586.237	91368
586.277	87354
586.292	86430
586.346	83126
586.349	82969
586.401	80412
586.421	79546
586.455	78615
586.493	77602
586.509	77645
586.564	77250
586.565	77268
586.618	82569
586.637	85070
586.672	94624
586.709	108220
586.727	114947
586.781	132022
586.781	132079
586.835	110885
586.853	104115
586.889	91197
586.925	81365
586.944	78536
586.996	73696
586.998	73664
587.052	71338
587.068	70801
587.106	70491
587.140	69667
587.161	69247
587.212	69527
587.215	69637
587.269	69474
587.284	69766
587.323	70357
587.356	70636
587.377	71384
587.427	73589
587.431	73742
587.485	74550
587.499	74639
587.539	75994
587.571	77234
587.593	78611
587.643	82309
587.648	82515
587.702	82894
587.715	82907
587.755	83378
587.786	83467
587.810	83824
587.858	84514
587.864	84635
587.917	85092
587.930	85074
587.971	85188
588.001	85008
588.025	84646
588.073	84032
588.079	84073
588.133	83247
588.145	83078
588.187	82934
588.217	83142
588.241	84861
588.288	87449
588.295	87584
588.348	88355
588.360	88428
588.402	88826
588.431	88979
588.456	89639
588.503	90630
588.510	91177
588.564	96158
588.575	97033
588.617	100272
588.646	102600
588.671	104275
588.718	107580
588.725	108724
588.778	119847
588.789	122665
588.832	156201
588.861	183739
588.886	252125
588.932	400199
588.939	415711
588.993	539580
589.004	538448
589.047	301330
589.075	165255
589.100	135344
589.147	103899
589.154	103315
589.207	99630
589.218	99077
589.261	100946
589.290	102254
589.314	103602
589.361	107309
589.368	109385
589.421	127537
589.433	132422
589.475	194109
589.504	241986
589.528	310722
589.576	462631
589.582	450375
589.635	254990
589.647	215262
589.689	141148
589.718	101732
589.742	99841
589.790	97220
589.795	97107
589.849	94469
589.861	93879
589.902	94655
589.932	94846
589.955	94728
590.004	94224
590.009	94311
590.062	93874
590.075	93622
590.115	93635
590.146	93492
590.168	93675
590.218	93902
590.222	94272
590.275	97404
590.289	98113
590.328	99600
590.360	100210
590.381	100724
590.431	101810
590.435	101994
590.488	102352
590.503	102354
590.541	104338
590.574	105766
590.594	106658
590.645	108797
590.647	109149
590.700	113765
590.716	115096
590.753	117453
590.787	119384
590.806	120903
590.859	124046
590.859	124261
590.912	125091
590.930	125161
590.965	127064
591.001	128605
591.018	127926
591.071	124791
591.072	124561
591.124	123436
591.143	122829
591.177	124971
591.214	127019
591.230	127721
591.283	129410
591.285	129245
591.336	128695
591.356	128373
591.389	128432
591.427	127654
591.442	127675
591.495	127013
591.498	126776
591.547	128437
591.569	128896
591.600	131158
591.640	133441
591.653	133980
591.706	135422
591.711	135342
591.759	138242
591.782	139501
591.811	142272
591.853	145447
591.864	145796
591.917	146231
591.924	146040
591.969	145111
591.995	144160
592.022	146236
592.066	149093
592.075	150100
592.127	154792
592.137	155350
592.180	156473
592.208	156802
592.233	159640
592.279	164201
592.285	164888
592.338	168143
592.350	168553
592.390	167667
592.421	166506
592.443	168427
592.491	171675
592.495	172181
592.548	174753
592.562	175131
592.600	174981
592.633	174266
592.653	175346
592.704	176324
592.705	177368
592.775	179007
592.846	185688
592.916	187788
592.987	186643
593.058	191295
593.128	194637
593.199	194778
593.270	195840
593.341	200284
593.411	207680
593.482	212523
593.553	221578
593.623	221920
593.694	232476
593.764	234900
593.835	232492
593.906	234578
593.976	238396
594.047	248098
594.117	259659
594.188	265423
594.258	262203
594.329	264734
594.399	274754
594.470	280108
594.540	291786
594.611	297441
594.681	294381
594.751	296159
594.822	307489
594.892	321171
594.963	326966
595.033	335173
595.103	345482
595.174	347150
595.244	353825
595.314	366198
595.384	377232
595.455	386384
595.525	399380
595.595	414964
595.665	414341
595.736	403289
595.806	411817
595.876	419159
595.946	422255
596.016	439779
596.087	453322
596.157	452531
596.227	457101
596.297	479427
596.367	514008
596.437	536770
596.507	532019
596.577	531016
596.647	552831
596.717	580702
596.787	585784
596.857	586204
596.927	589220
596.997	593049
597.067	599802
597.137	610540
597.207	616595
597.277	616471
597.347	591087
597.417	577038
597.487	574928
597.557	590120
597.626	606315
597.696	613048
597.766	607700
597.836	575667
597.906	548473
597.975	538019
598.045	547512
598.115	568270
598.185	609679
598.254	675137
598.324	729190
598.394	738701
598.464	719660
598.533	708469
598.603	664886
598.672	643896
598.742	663400
598.812	665509
598.881	685513
598.951	680843
599.020	693293
599.090	716599
599.159	726357
599.229	700954
599.299	686298
599.368	709740
599.437	698495
599.507	647253
599.576	629793
599.646	623103
599.715	614414
599.785	612989
599.854	594490
599.924	587278
599.993	589007
600.062	603635
600.132	618255
600.201	652410
600.270	742179
600.340	779549
600.409	766591
600.478	761275
600.547	777410
600.617	710196
600.686	590518
600.755	542973
600.824	521071
600.894	513627
600.963	518195
601.032	514287
601.101	499567
601.170	484496
601.239	472703
601.308	476568
601.378	476195
601.447	479238
601.516	487292
601.585	492941
601.654	502247
601.723	502359
601.792	520640
601.861	537346
601.930	556991
601.999	562518
602.068	560571
602.137	567103
602.206	574853
602.275	581403
602.343	585195
602.412	589063
602.481	597066
602.550	599362
602.619	613934
602.688	619251
602.756	625282
602.825	629331
602.894	644947
602.963	652555
603.032	662610
603.100	663316
603.169	659977
603.238	676453
603.307	667567
603.375	674497
603.444	688916
603.513	686022
603.581	699787
603.650	711708
603.719	675627
603.787	687204
603.856	708430
603.924	717530
603.993	744241
604.061	766181
604.130	795125
604.198	804169
604.267	820816
604.335	834901
604.404	846254
604.472	853249
604.541	862981
604.609	873501
604.678	879716
604.746	885445
604.815	918039
604.883	916034
604.951	912179
605.020	928197
605.088	930918
605.156	934698
605.225	945153
605.293	943693
605.361	948562
605.429	953627
605.498	970207
605.566	985575
605.634	1028257
605.702	1056698
605.771	1081757
605.839	1085776
605.907	1061081
605.975	1036097
606.043	1015000
606.111	1010997
606.180	1024025
606.248	1004040
606.316	993056
606.384	1002302
606.452	977982
606.520	980404
606.588	1013966
606.656	1019197
606.724	1000442
606.792	945073
606.860	870440
606.928	802364
606.996	770566
607.064	761057
607.132	781256
607.200	819761
607.267	847298
607.335	862233
607.403	881449
607.471	852702
607.539	831504
607.607	832148
607.674	745504
607.742	747992
607.810	738633
607.878	740473
607.946	755070
608.013	785640
608.081	802370
608.149	804919
608.216	837340
608.284	854101
608.352	857915
608.419	849588
608.487	826661
608.555	816629
608.622	843428
608.690	892253
608.757	972321
608.825	984773
608.893	960640
608.960	906454
609.028	875199
609.095	877641
609.163	873920
609.230	786340
609.298	728367
609.365	769225
609.432	822518
609.500	881929
609.567	999059
609.635	1114855
609.702	1163330
609.769	1104029
609.837	890544
609.904	799522
609.971	827252
610.039	902326
610.106	1105236
610.173	1729692
610.241	2802123
610.308	2181513
610.375	1126169
610.442	914749
610.509	847784
610.577	835951
610.644	839748
610.711	861493
610.778	880196
610.845	917143
610.912	959998
610.980	990032
611.047	998894
611.114	974039
611.181	945847
611.248	945052
611.315	991801
611.382	1015496
611.449	1047005
611.516	1057998
611.583	1049662
611.650	1060644
611.717	1068376
611.784	1092347
611.851	1140051
611.918	1197227
611.984	1359365
612.051	1703922
612.118	2472376
612.185	3446965
612.252	3063708
612.319	1899519
612.386	1485053
612.452	1306568
612.519	1219927
612.586	1178815
612.653	1185493
612.719	1214878
612.786	1167570
612.853	1095467
612.919	1078533
612.986	1087079
613.053	1032706
613.120	984059
613.186	953342
613.253	952171
613.319	958285
613.386	960495
613.453	973006
613.519	976989
613.586	956738
613.652	972058
613.719	960053
613.785	975572
613.852	985492
613.918	979681
613.985	985054
614.051	1031142
614.118	1032009
614.184	1002021
614.250	979483
614.317	998700
614.383	989255
614.449	1003523
614.516	994701
614.582	999744
614.648	983123
614.715	979891
614.781	958866
614.847	961141
614.914	954989
614.980	932870
615.046	935717
615.112	958986
615.179	968974
615.245	979316
615.311	966898
615.377	978840
615.443	994792
615.509	1008086
615.575	1045526
615.642	1040389
615.708	1061293
615.774	1109515
615.840	1176008
615.906	1250606
615.972	1447855
616.038	1907059
616.104	2803817
616.170	3641208
616.236	3475821
616.302	2493018
616.368	2020372
616.434	1554368
616.500	1367380
616.565	1464057
616.631	1780976
616.697	1575513
616.763	1531762
616.829	2035616
616.895	2941001
616.961	2923411
617.026	1885606
617.092	1293319
617.158	1127643
617.224	1058943
617.289	975013
617.355	925315
617.421	912794
617.487	900077
617.552	856296
617.618	849021
617.684	848115
617.749	845294
617.815	811626
617.880	795058
617.946	797062
618.012	812999
618.077	825208
618.143	793533
618.208	794383
618.274	847750
618.339	848935
618.405	718472
618.470	720584
618.536	718943
618.601	709061
618.667	662157
618.732	630684
618.798	624420
618.863	624067
618.928	619478
618.994	624467
619.059	614591
619.124	623750
619.190	613736
619.255	615829
619.320	612913
619.386	619960
619.451	616145
619.516	595774
619.581	603565
619.647	623216
619.712	625240
619.777	596392
619.842	599555
619.907	610574
619.972	623586
620.038	618621
620.103	601971
620.168	607291
620.233	613299
620.298	614228
620.363	623932
620.428	637479
620.493	650232
620.558	656224
620.623	669127
620.688	661998
620.753	661293
620.818	671978
620.883	674708
620.948	674813
621.013	664843
621.078	655669
621.143	667994
621.207	670969
621.272	658009
621.337	639440
621.402	632944
621.467	629120
621.532	632007
621.596	634139
621.661	615022
621.726	612483
621.791	618159
621.855	618212
621.920	611356
621.985	621650
622.049	633254
622.114	632134
622.179	642197
622.243	653263
622.308	675906
622.373	696162
622.437	679313
622.502	648673
622.566	644345
622.631	640766
622.695	656970
622.760	650784
622.824	650877
622.889	654431
622.953	654711
623.018	687979
623.082	693786
623.147	687594
623.211	675280
623.276	672934
623.340	650817
623.404	635571
623.469	631436
623.533	638996
623.597	625469
623.662	625319
623.726	583534
623.790	552985
623.854	540358
623.919	553431
623.983	558069
624.047	568905
624.111	574043
624.176	582387
624.240	584657
624.304	600437
624.368	581929
624.432	582372
624.496	594105
624.560	623281
624.625	631049
624.689	621938
624.753	652185
624.817	622025
624.881	606208
624.945	553639
625.009	538120
625.073	549355
625.137	564024
625.201	588370
625.265	588611
625.329	566929
625.393	570580
625.456	574349
625.520	588918
625.584	598360
625.648	612130
625.712	624734
625.776	614902
625.839	579407
625.903	506966
625.967	476820
626.031	503285
626.095	589003
626.158	548024
626.222	445518
626.286	419498
626.349	405174
626.413	380513
626.477	376207
626.540	384829
626.604	381340
626.668	369206
626.731	367901
626.795	369290
626.858	368654
626.922	365871
626.986	359258
627.049	361749
627.113	375216
627.176	362580
627.240	351723
627.303	353774
627.366	350656
627.430	357188
627.493	350501
627.557	346524
627.620	351227
627.684	365315
627.747	366912
627.810	338665
627.874	305947
627.937	297103
628.000	304321
628.064	296631
628.127	269952
628.190	263834
628.253	254288
628.317	248078
628.380	237930
628.443	231903
628.506	230025
628.569	220084
628.632	210116
628.696	209732
628.759	210486
628.822	201455
628.885	197231
628.948	191744
629.011	189591
629.074	184544
629.137	179738
629.200	175652
629.263	171602
629.326	170901
629.389	173594
629.452	169840
629.515	165789
629.578	164121
629.641	166307
629.704	167432
629.767	165354
629.830	160189
629.892	157547
629.955	158132
630.018	159765
630.081	157769
630.144	159452
630.207	154281
630.269	157469
630.332	150066
630.395	151318
630.458	146307
630.520	143264
630.583	144867
630.646	147154
630.708	147329
630.771	151134
630.834	160112
630.896	155902
630.959	154657
631.021	151633
631.084	152117
631.146	154007
631.209	155488
631.272	156593
631.334	162110
631.397	165396
631.459	166312
631.522	176400
631.584	184832
631.646	196524
631.709	202464
631.771	203317
631.834	193614
631.896	184436
631.958	171331
632.021	166389
632.083	155627
632.145	153501
632.208	149128
632.270	149587
632.332	146237
632.395	146375
632.457	145863
632.519	144150
632.581	141457
632.643	142470
632.706	141087
632.768	138540
632.830	141765
632.892	146514
632.954	145190
633.016	148258
633.078	146214
633.141	145227
633.203	145982
633.265	145014
633.327	144230
633.389	145675
633.451	147511
633.513	148116
633.575	151693
633.637	151454
633.698	157496
633.760	165663
633.822	171700
633.884	177345
633.946	185258
634.008	191673
634.070	202375
634.132	218239
634.193	234671
634.255	253831
634.317	258166
634.379	249771
634.441	229268
634.502	205277
634.564	187618
634.626	173492
634.687	161781
634.749	155517
634.811	152827
634.873	150120
634.934	149616
634.996	151241
635.057	149852
635.119	155640
635.181	156820
635.242	158719
635.304	156605
635.365	161447
635.427	157936
635.488	159007
635.550	158690
635.611	162712
635.673	166143
635.734	180316
635.796	192603
635.857	209075
635.918	228945
635.980	250466
636.041	269190
636.102	284055
636.164	284097
636.225	273033
636.286	238851
636.348	213522
636.409	190130
636.470	176628
636.531	166037
636.593	157569
636.654	150369
636.715	142207
636.776	140217
636.838	134672
636.899	132553
636.960	129336
637.021	128352
637.082	124992
637.143	122029
637.204	120202
637.265	119991
637.326	122983
637.387	124595
637.448	122470
637.509	120547
637.570	119943
637.631	117842
637.692	115753
637.753	111407
637.814	112459
637.875	111021
637.936	109435
637.997	111995
638.058	111160
638.119	110988
638.179	109715
638.240	108652
638.301	109681
638.362	105462
638.423	103647
638.483	101903
638.544	100502
638.605	104705
638.666	103748
638.726	103155
638.787	104309
638.848	103568
638.908	99116
638.969	96160
639.030	95518
639.090	94264
639.151	96311
639.211	99612
639.272	101368
639.332	102958
639.393	106949
639.453	116355
639.514	120140
639.574	103358
639.635	94789
639.695	94951
639.756	91171
639.816	89914
639.877	91404
639.937	93114
639.997	94901
640.058	91785
640.118	92732
640.178	92272
640.239	92657
640.299	94279
640.359	96872
640.420	104470
640.480	118355
640.540	136834
640.600	143140
640.661	130615
640.721	128087
640.781	141185
640.841	141968
640.901	102219
640.961	99004
641.021	105697
641.082	113813
641.142	99513
641.202	93151
641.262	86475
641.322	88111
641.382	86509
641.442	86496
641.502	86865
641.562	88914
641.622	93557
641.682	103382
641.742	120371
641.802	111216
641.861	94832
641.921	88546
641.981	83346
642.041	81463
642.101	79679
642.161	80147
642.221	80292
642.280	81209
642.340	81781
642.400	82458
642.460	85767
642.519	86666
642.579	86434
642.639	87794
642.698	86602
642.758	92629
642.818	89164
642.877	88777
642.937	89041
642.997	88763
643.056	87991
643.116	86563
643.175	90698
643.235	92851
643.294	97164
643.354	102381
643.414	110657
643.473	126413
643.532	149663
643.592	192886
643.651	276408
643.711	437274
643.770	777300
643.830	1544869
643.889	2156748
643.948	1044219
644.008	357770
644.067	208159
644.126	152240
644.186	127797
644.245	111726
644.304	100721
644.363	100068
644.423	92956
644.482	96599
644.541	100312
644.600	105103
644.659	128489
644.719	155924
644.778	220375
644.837	352502
644.896	670437
644.955	1258449
645.014	515667
645.073	177320
645.132	129579
645.191	114640
645.250	109043
645.309	111541
645.368	126041
645.427	166053
645.486	291469
645.545	476333
645.604	156597
645.663	98701
645.722	96038
645.781	102156
645.840	112780
645.898	134973
645.957	176096
646.016	252748
646.075	409858
646.134	730391
646.192	1536581
646.251	1794681
646.310	628127
646.369	249975
646.427	193030
646.486	141007
646.545	107359
646.603	94684
646.662	88977
646.721	85112
646.779	85448
646.838	90652
646.896	107370
646.955	140916
647.014	214895
647.072	401485
647.131	943895
647.189	483307
647.248	116332
647.306	83268
647.365	73865
647.423	66515
647.481	66631
647.540	64342
647.598	64066
647.657	62410
647.715	62846
647.773	59640
647.832	59260
647.890	55122
647.948	54352
648.007	54153
648.065	52298
648.123	53457
648.181	53232
648.240	55224
648.298	52185
648.356	50781
648.414	51439
648.472	49244
648.531	48795
648.589	48603
648.647	49162
648.705	49035
648.763	50401
648.821	52869
648.879	55329
648.937	61045
648.995	72854
649.053	88630
649.111	125824
649.169	192768
649.227	331764
649.285	663931
649.343	1404460
649.401	785691
649.459	191809
649.516	108648
649.574	88392
649.632	96721
649.690	105241
649.748	111367
649.806	165272
649.863	298612
649.921	730498
649.979	484630
650.037	95416
650.094	57175
650.152	52164
650.210	47988
650.268	49711
650.325	54571
650.383	66831
650.440	43288
650.498	38218
650.556	37393
650.613	36492
650.671	38147
650.728	39204
650.786	43080
650.843	66281
650.901	49032
650.958	35269
651.016	32917
651.073	33053
651.131	31293
651.188	31233
651.246	30206
651.303	29824
651.360	30067
651.418	29502
651.475	29946
651.532	28836
651.590	29593
651.647	28567
651.704	28491
651.762	28691
651.819	28784
651.876	26558
651.933	26493
651.990	27029
652.048	25186
652.105	26426
652.162	26570
652.219	25499
652.276	26088
652.333	26615
652.390	24204
652.448	25944
652.505	25601
652.562	25755
652.619	25826
652.676	29906
652.733	28954
652.790	25659
652.847	22171
652.904	23915
652.961	22555
653.017	22142
653.074	24391
653.131	24317
653.188	22784
653.245	24737
653.302	23086
653.359	24229
653.415	23565
653.472	22579
653.529	23092
653.586	22525
653.642	22965
653.699	24706
653.756	23226
653.813	23307
653.869	25180
653.926	25529
653.983	22751
654.039	25141
654.096	22359
654.152	23491
654.209	20852
654.266	21469
654.322	20292
654.379	22286
654.435	21840
654.492	21636
654.548	22479
654.605	22115
654.661	25952
654.717	22037
654.774	22413
654.830	22858
654.887	23354
654.943	26916
655.000	33481
655.056	27654
655.112	23774
655.168	22243
655.225	24126
655.281	24131
655.337	23166
655.394	22044
655.450	20861
655.506	21772
655.562	20303
655.618	21758
655.675	20147
655.731	20634
655.787	20111
655.843	22299
655.899	20236
655.955	21676
656.011	22544
656.067	20436
656.123	21655
656.179	22201
656.235	22825
656.291	22564
656.347	23364
656.403	22668
656.459	21734
656.515	22483
656.571	20601
656.627	20916
656.683	20750
656.739	21110
656.795	21027
656.850	21087
656.906	20855
656.962	22545
657.018	24211
657.074	29636
657.129	39894
657.185	62689
657.241	143371
657.297	76698
657.352	25079
657.408	20375
657.464	20467
657.519	19439
657.575	18181
657.630	19091
657.686	19000
657.742	19185
657.797	18759
657.853	19526
657.908	19755
657.964	18099
658.019	18979
658.075	18635
658.130	18985
658.186	18236
658.241	18802
658.297	17537
658.352	17045
658.407	18988
658.463	16525
658.518	17928
658.573	17442
658.629	17782
658.684	16819
658.739	17192
658.795	16730
658.850	18602
658.905	16619
658.960	18032
659.016	16594
659.071	16372
659.126	16644
659.181	15682
659.236	17889
659.291	17904
659.346	16584
659.401	17075
659.457	19449
659.512	20086
659.567	18871
659.622	17364
659.677	16962
659.732	15915
659.787	15932
659.842	16971
659.897	15969
659.952	15874
660.007	16714
660.061	16081
660.116	14179
660.171	16658
660.226	16372
660.281	17063
660.336	15382
660.391	16738
660.445	15173
660.500	15928
660.555	15650
660.610	15724
660.664	16421
660.719	15298
660.774	15384
660.828	15653
660.883	15008
660.938	15776
660.992	14482
661.047	16375
661.101	14876
661.156	14764
661.211	14967
661.265	15198
661.320	14995
661.374	15990
661.429	14799
661.483	15426
661.538	15294
661.592	18490
661.647	20136
661.701	28780
661.755	18426
661.810	14943
661.864	14671
661.919	14194
661.973	14884
662.027	15858
662.081	14240
662.136	14488
662.190	14831
662.244	15387
662.299	14688
662.353	15246
662.407	13876
662.461	15132
662.515	14929
662.569	14353
662.624	14519
662.678	13935
662.732	14342
662.786	15177
662.840	14598
662.894	15114
662.948	14384
663.002	15519
663.056	14729
663.110	13972
663.164	14139
663.218	15553
663.272	14584
663.326	16124
663.380	14447
663.434	15809
663.488	13992
663.542	15793
663.595	14939
663.649	14424
663.703	15087
663.757	15209
663.811	13817
663.864	14954
663.918	14821
663.972	15538
664.026	14615
664.079	15146
664.133	15611
664.187	16489
664.240	15901
664.294	17942
664.348	17818
664.401	15798
664.455	15218
664.508	15097
664.562	15310
664.615	15691
664.669	14666
664.722	15226
664.776	14220
664.829	15746
664.883	13864
664.936	14462
664.990	14879
665.043	16205
665.097	14450
665.150	16575
665.203	14765
665.257	15537
665.310	16183
665.363	17176
665.417	16325
665.470	17089
665.523	16751
665.576	17799
665.630	15532
665.683	16981
665.736	17338
665.789	17137
665.842	16001
665.895	15550
665.949	16635
666.002	16260
666.055	16922
666.108	17214
666.161	16361
666.214	17441
666.267	17150
666.320	17768
666.373	17526
666.426	18467
666.479	17710
666.532	19373
666.585	18722
666.638	19506
666.691	18421
666.744	18532
666.796	17371
666.849	17486
666.902	17723
666.955	17297
667.008	16936
667.060	16044
667.113	16656
667.166	17809
667.219	18600
667.271	19097
667.324	17553
667.377	17265
667.430	16878
667.482	18563
667.535	16687
667.587	16883
667.640	17066
667.693	16113
667.745	17169
667.798	17796
667.850	16686
667.903	17400
667.955	17953
668.008	18507
668.060	16891
668.113	17996
668.165	16130
668.218	16485
668.270	15375
668.322	15403
668.375	15676
668.427	16767
668.479	15326
668.532	16519
668.584	15397
668.636	16820
668.689	16296
668.741	15717
668.793	15817
668.845	16300
668.898	16038
668.950	15396
669.002	16217
669.054	16165
669.106	15649
669.158	15921
669.211	14817
669.263	15553
669.315	16247
669.367	16598
669.419	15435
669.471	15953
669.523	14641
669.575	15262
669.627	13925
669.679	14733
669.731	15224
669.783	14820
669.835	14383
669.886	14430
669.938	14753
669.990	15346
670.042	14223
670.094	14441
670.146	13899
670.197	14935
670.249	13859
670.301	14300
670.353	14598
670.404	14832
670.456	14688
670.508	15859
670.560	17332
670.611	18930
670.663	21399
670.715	36231
670.766	44600
670.818	22406
670.869	17592
670.921	18617
670.972	20348
671.024	18772
671.075	15943
671.127	18563
671.178	19865
671.230	21456
671.281	23661
671.333	29110
671.384	34606
671.436	45707
671.487	63115
671.538	90071
671.590	134628
671.641	217899
671.692	369218
671.744	619054
671.795	516298
671.846	252727
671.897	129858
671.949	83347
672.000	57843
672.051	43797
672.102	35286
672.153	30010
672.204	25202
672.256	24247
672.307	20965
672.358	20029
672.409	18470
672.460	16603
672.511	15782
672.562	15800
672.613	13635
672.664	14869
672.715	15497
672.766	12428
672.817	12891
672.868	13584
672.919	11299
672.970	11733
673.021	11910
673.071	11673
673.122	11330
673.173	11607
673.224	12379
673.275	12941
673.326	11503
673.376	11571
673.427	10215
673.478	11745
673.528	11619
673.579	11646
673.630	11607
673.680	13076
673.731	11216
673.782	11305
673.832	10849
673.883	12953
673.934	10908
673.984	10929
674.035	10965
674.085	12062
674.136	11932
674.186	11954
674.237	12907
674.287	12615
674.338	12628
674.388	14197
674.438	14390
674.489	14596
674.539	15620
674.589	15874
674.640	14718
674.690	14149
674.740	13916
674.791	13373
674.841	12802
674.891	11162
674.942	10449
674.992	10643
675.042	9599
675.092	10062
675.142	9438
675.193	9954
675.243	10029
675.293	10885
675.343	10827
675.393	10941
675.443	10954
675.493	10748
675.543	10155
675.593	10742
675.643	11301
675.693	10682
675.743	10604
675.793	8635
675.843	8456
675.893	9509
675.943	9173
675.993	8822
676.043	7786
676.093	8775
676.142	8731
676.192	9149
676.242	8657
676.292	8641
676.341	8305
676.391	8893
676.441	7339
676.491	8782
676.540	7115
676.590	8613
676.640	6954
676.689	7368
676.739	6487
676.789	7721
676.838	7338
676.888	8090
676.937	7662
676.987	8761
677.037	7748
677.086	7556
677.136	6193
677.185	7048
677.235	7509
677.284	7957
677.333	7666
677.383	7344
677.432	6154
677.482	7174
677.531	7248
677.580	7057
677.630	7250
677.679	7484
677.728	7206
677.778	7475
677.827	5522
677.876	7883
677.925	8912
677.975	8663
678.024	8711
678.073	9547
678.122	8872
678.171	10546
678.220	10724
678.269	13734
678.319	14939
678.368	15836
678.417	12594
678.466	9717
678.515	8269
678.564	7396
678.613	7032
678.662	7989
678.711	6964
678.760	7704
678.809	7209
678.857	9189
678.906	9144
678.955	8695
679.004	8539
679.053	9953
679.102	11234
679.151	8245
679.199	6989
679.248	7385
679.297	6949
679.346	6594
679.394	6023
679.443	6784
679.492	7386
679.540	7666
679.589	7991
679.638	7724
679.686	7599
679.735	9824
679.784	10588
679.832	13820
679.881	10930
679.929	8541
679.978	7056
680.026	7420
680.075	8356
680.123	6583
680.172	5861
680.220	7622
680.268	6584
680.317	5401
680.365	5498
680.414	5833
680.462	5778
680.510	7191
680.559	5992
680.607	5625
680.655	5385
680.703	6806
680.752	6583
680.800	6717
680.848	5622
680.896	6137
680.945	6244
680.993	5651
681.041	5204
681.089	5634
681.137	5137
681.185	5513
681.233	4897
681.258	5360
681.281	5739
681.329	4900
681.377	5871
681.380	5928
681.425	5874
681.473	6830
681.502	6817
681.521	6697
681.569	8017
681.617	6759
681.624	6941
681.665	7600
681.713	7183
681.745	7576
681.761	7673
681.809	7058
681.857	8368
681.867	8275
681.904	7717
681.952	8002
681.989	7927
682.000	7812
682.048	8567
682.096	8315
682.111	8321
682.143	8172
682.191	7919
682.233	9097
682.239	9212
682.286	8200
682.334	9458
682.354	8985
682.382	8229
682.430	10138
682.476	8761
682.477	8672
682.525	9642
682.572	8988
682.598	9279
682.620	9490
682.667	9497
682.715	10051
682.720	10052
682.763	9383
682.810	9848
682.841	10272
682.857	10416
682.905	9765
682.952	9194
682.963	9414
683.000	10035
683.047	9746
683.085	10608
683.095	10780
683.142	10800
683.190	10640
683.206	10516
683.237	10108
683.284	10915
683.328	10487
683.332	10405
683.379	11260
683.426	10615
683.449	11250
683.473	11874
683.521	10987
683.568	12486
683.571	12522
683.615	12224
683.662	12274
683.693	11648
683.709	11233
683.757	11675
683.804	10738
683.814	10963
683.851	11656
683.898	11514
683.936	11788
683.945	11808
683.992	11785
684.039	12188
684.057	12261
684.086	12219
684.133	12188
684.179	11684
684.180	11634
684.227	12179
684.274	12686
684.300	12779
684.321	12793
684.368	13114
684.415	13188
684.422	13199
684.462	13127
684.509	13544
684.543	13969
684.556	14072
684.603	14407
684.649	13747
684.665	13831
684.696	13883
684.743	14512
684.786	15475
684.790	15511
684.837	14254
684.883	13473
684.908	13896
684.930	14403
684.977	15356
685.023	15282
685.029	15333
685.070	15215
685.117	15218
685.150	15410
685.164	15474
685.210	14953
685.257	15333
685.272	15360
685.303	15394
685.350	16042
685.393	14994
685.396	14857
685.443	14969
685.490	15142
685.514	14634
685.536	14345
685.583	14619
685.629	15241
685.636	15315
685.675	15684
685.722	16390
685.757	16022
685.768	15817
685.815	15389
685.861	15466
685.878	15523
685.908	15811
685.954	15745
686.000	16729
686.000	16731
686.047	17152
686.093	17627
686.121	17698
686.139	17593
686.185	17938
686.232	16967
686.242	16991
686.278	17127
686.324	17096
686.363	17478
686.370	17517
686.416	17899
686.463	18074
686.484	17924
686.509	17809
686.555	18238
686.601	17945
686.606	17986
686.647	18077
686.693	17741
686.727	17337
686.739	17199
686.785	17865
686.831	17852
686.848	17798
686.877	17837
686.923	18299
686.969	18468
686.969	18467
687.015	19128
687.061	19730
687.090	20253
687.107	20457
687.153	20237
687.199	20291
687.211	20224
687.245	19745
687.291	19866
687.332	19684
687.336	19738
687.382	21129
687.428	20970
687.453	21301
687.474	21626
687.520	23402
687.565	23741
687.574	23937
687.611	26769
687.657	30770
687.695	33489
687.702	34646
687.748	44816
687.794	55533
687.816	57382
687.839	51471
687.885	41622
687.931	33434
687.937	32144
687.976	28865
688.022	25567
688.058	22892
688.067	22821
688.113	22733
688.158	21763
688.179	21625
688.204	21759
688.249	21875
688.295	22241
688.300	22196
688.340	22245
688.386	22819
688.421	22716
688.431	22590
688.477	22590
688.522	22928
688.542	22948
688.567	23666
688.613	24480
688.658	25457
688.663	25535
688.703	24696
688.749	24153
688.784	23391
688.794	23430
688.839	24244
688.884	24566
688.905	24440
688.930	24117
688.975	24045
689.020	24267
689.026	24216
689.065	24735
689.110	25787
689.146	25846
689.155	25942
689.201	28226
689.246	28678
689.267	29009
689.291	28079
689.336	26326
689.381	24727
689.388	24381
689.426	24164
689.471	24631
689.509	24864
689.516	24934
689.561	24395
689.606	24823
689.630	24820
689.651	24657
689.696	23886
689.741	24052
689.750	24010
689.785	24587
689.830	24985
689.871	24992
689.875	24953
689.920	24875
689.965	24280
689.992	24150
690.010	24324
690.054	24192
690.099	24376
690.112	24444
690.144	24468
690.189	24290
690.233	24112
690.233	24142
690.278	24206
690.323	24363
690.354	24275
690.367	24359
690.412	24467
690.457	24730
690.474	24762
690.501	24641
690.546	24461
690.590	24553
690.595	24482
690.635	24118
690.680	23223
690.716	23651
690.724	23909
690.769	23497
690.813	24545
690.836	24285
690.857	24186
690.902	25458
690.946	25619
690.957	25764
690.991	25938
691.035	25613
691.077	25937
691.080	26010
691.124	26116
691.168	26379
691.198	26175
691.213	26051
691.257	26300
691.301	26157
691.318	26303
691.346	26582
691.390	25792
691.434	25972
691.439	25844
691.478	25486
691.522	26530
691.559	26547
691.567	26632
691.611	27002
691.655	27240
691.680	27579
691.699	27751
691.743	27308
691.787	27998
691.800	27848
691.831	27764
691.875	27770
691.919	28425
691.921	28382
691.964	28059
692.008	27973
692.041	27429
692.052	27341
692.096	26874
692.139	27069
692.162	26795
692.183	26821
692.227	27351
692.271	27271
692.282	27305
692.315	27365
692.359	26740
692.402	26876
692.403	26926
692.447	26668
692.490	26854
692.523	26843
692.534	26860
692.578	26932
692.622	26723
692.643	26621
692.666	26790
692.709	26918
692.753	27399
692.763	27373
692.797	27353
692.840	27657
692.884	27304
692.884	27351
692.928	27250
692.971	26986
693.004	26917
693.015	27054
693.059	26998
693.102	27539
693.124	27534
693.146	27671
693.189	28049
693.233	28182
693.245	28232
693.276	28428
693.320	28369
693.363	28431
693.365	28375
693.407	28432
693.450	28586
693.485	28481
693.493	28444
693.537	28590
693.580	27685
693.605	27677
693.624	27846
693.667	27576
693.710	27154
693.725	27003
693.753	27025
693.797	27204
693.840	27200
693.845	27148
693.883	27290
693.926	27517
693.966	27616
693.970	27705
694.013	28028
694.056	28241
694.086	28388
694.099	28416
694.142	28244
694.185	27909
694.206	27923
694.229	28472
694.272	29124
694.315	29846
694.326	29900
694.358	29801
694.401	30284
694.444	29863
694.446	29799
694.487	29787
694.530	29581
694.566	29394
694.573	29511
694.616	29949
694.659	30507
694.686	30498
694.702	30633
694.745	31416
694.787	31869
694.806	31965
694.830	31713
694.873	31169
694.916	30967
694.926	30719
694.959	31376
695.002	32648
695.044	33647
695.046	33620
695.087	34100
695.130	34183
695.166	34465
695.172	34548
695.215	34320
695.258	34466
695.286	34307
695.301	34770
695.343	35921
695.386	37276
695.406	37754
695.428	39202
695.471	41991
695.514	44980
695.526	45660
695.556	48229
695.599	51754
695.641	55043
695.646	55283
695.684	52394
695.726	49291
695.766	46057
695.769	46083
695.811	45113
695.854	44045
695.886	43268
695.896	43567
695.938	44351
695.981	44858
696.005	45260
696.023	46595
696.065	49392
696.108	52570
696.125	53565
696.150	54232
696.192	55570
696.235	56454
696.245	56641
696.277	56629
696.319	56152
696.361	55860
696.365	55691
696.404	55076
696.446	54522
696.485	53662
696.488	53755
696.530	53360
696.572	53010
696.604	52796
696.614	52976
696.656	52911
696.698	52996
696.724	52899
696.740	53312
696.783	54286
696.825	54960
696.844	55175
696.867	55511
696.909	55994
696.951	56364
696.964	56332
696.992	56757
697.034	57314
697.076	57871
697.083	57836
697.118	58816
697.160	59662
697.202	60600
697.203	60481
697.244	60201
697.286	60003
697.323	59347
697.327	59482
697.369	59636
697.411	59643
697.442	59631
697.453	59842
697.494	59928
697.536	60231
697.562	60182
697.578	60458
697.620	60938
697.661	61279
697.682	61351
697.703	62497
697.744	64404
697.786	66419
697.801	66941
697.828	66779
697.869	66265
697.911	65804
697.921	65542
697.952	65218
697.994	64447
698.035	63763
698.040	63531
698.077	64103
698.118	64510
698.160	64816
698.160	64657
698.201	66575
698.243	68244
698.279	69605
698.284	69902
698.325	71031
698.367	72205
698.399	72918
698.408	73310
698.449	74322
698.491	75270
698.518	75750
698.532	75682
698.573	74900
698.614	74108
698.638	73458
698.656	73948
698.697	74707
698.738	75435
698.757	75594
698.779	75834
698.820	75933
698.862	76031
698.877	75877
698.903	75785
698.944	75347
698.985	74882
698.996	74570
699.026	75276
699.067	75992
699.116	76656
699.235	74587
699.354	74877
699.474	68267
699.593	68162
699.713	69233
699.832	69930
699.951	73510
700.070	71960
700.190	66220
700.309	63772
700.428	64670
700.547	61331
700.667	61105
700.786	61735
700.905	59473
701.024	60571
701.143	58519
701.262	63947
701.381	63391
701.500	65415
701.619	63281
701.738	63765
701.857	62116
701.976	58529
702.095	61368
702.214	63044
702.333	60411
702.452	64328
702.571	64473
702.690	63290
702.809	64297
702.928	59927
703.047	55733
703.165	57510
703.284	58736
703.403	56976
703.522	56313
703.640	52355
703.759	54177
703.878	52455
703.997	54645
704.115	57337
704.234	56927
704.353	57819
704.471	52714
704.590	51519
704.708	50828
704.827	49549
704.946	49089
705.064	49941
705.183	49128
705.301	50332
705.420	48482
705.538	47321
705.656	45858
705.775	49108
705.893	72742
706.012	75846
706.130	46880
706.249	48150
706.367	43738
706.485	46671
706.604	44661
706.722	49229
706.840	68711
706.958	133611
707.077	83834
707.195	45871
707.313	43538
707.431	39710
707.549	39809
707.668	37150
707.786	44240
707.904	40272
708.022	42392
708.140	40350
708.258	40111
708.376	42661
708.494	39542
708.612	45277
708.730	45501
708.848	43369
708.966	43735
709.084	42844
709.202	40862
709.320	37114
709.438	35887
709.556	38221
709.674	34864
709.791	34311
709.909	34610
710.027	34129
710.145	32443
710.263	34327
710.380	33601
710.498	32470
710.616	33617
710.733	32327
710.851	32292
710.969	33078
711.086	31363
711.204	33081
711.322	32957
711.439	32604
711.557	30095
711.674	31406
711.792	33130
711.909	32950
712.027	35920
712.144	31170
712.262	31441
712.379	31769
712.497	31436
712.614	29964
712.732	31703
712.849	30042
712.966	34039
713.084	34518
713.201	30487
713.318	34427
713.436	38685
713.553	38556
713.670	45125
713.787	42288
713.905	39618
714.022	44446
714.139	51645
714.256	72782
714.373	119441
714.490	240576
714.608	653837
714.725	2102612
714.842	1802840
714.959	304978
715.076	115307
715.193	75602
715.310	59153
715.427	42027
715.544	41536
715.661	39030
715.778	34718
715.895	34705
716.011	35468
716.128	33362
716.245	32239
716.362	28328
716.479	26841
716.596	28694
716.713	30618
716.829	27031
716.946	25544
717.063	24358
717.180	23738
717.296	24249
717.413	24207
717.530	23658
717.646	22297
717.763	22991
717.880	23036
717.996	22465
718.113	22607
718.229	22552
718.346	21338
718.462	21424
718.579	23189
718.695	22529
718.812	21743
718.928	21719
719.045	21574
719.161	23856
719.277	24681
719.394	27027
719.510	28145
719.626	36445
719.743	49702
719.859	94922
719.975	223068
720.092	861233
720.208	1533569
720.324	241081
720.440	63471
720.557	40913
720.673	34041
720.789	27017
720.905	24808
721.021	23372
721.137	22142
721.253	20492
721.369	20964
721.486	20513
721.602	19522
721.718	18966
721.834	19971
721.950	19202
722.066	18642
722.181	17725
722.297	18754
722.413	18170
722.529	18300
722.645	18436
722.761	20298
722.877	21756
722.993	28721
723.108	46007
723.224	37269
723.340	23949
723.456	19392
723.571	16652
723.687	17442
723.803	17617
723.918	17327
724.034	16244
724.150	17207
724.265	16913
724.381	14745
724.497	15505
724.612	15671
724.728	15533
724.843	14631
724.959	15505
725.074	16412
725.190	15927
725.305	15561
725.421	15031
725.536	16374
725.651	16626
725.767	15146
725.882	16315
725.997	16534
726.113	15722
726.228	15296
726.343	15112
726.459	15778
726.574	15581
726.689	15203
726.804	15229
726.920	14704
727.035	15635
727.150	16023
727.265	14775
727.380	15355
727.495	14993
727.610	14654
727.725	14989
727.841	18203
727.956	31020
728.071	21926
728.186	14814
728.301	15042
728.416	15494
728.531	15387
728.645	14481
728.760	15872
728.875	16175
728.990	15219
729.105	15952
729.220	15458
729.335	17062
729.449	15006
729.564	15315
729.679	14941
729.794	17158
729.908	15585
730.023	15533
730.138	16850
730.253	17703
730.367	16669
730.482	17091
730.596	18598
730.711	23630
730.826	41349
730.940	50925
731.055	25948
731.169	25526
731.284	27589
731.398	28657
731.513	31959
731.627	37573
731.742	47250
731.856	60238
731.970	73303
732.085	106166
732.199	173962
732.313	334433
732.428	826967
732.542	1774469
732.656	986651
732.771	260299
732.885	126081
732.999	90830
733.113	77568
733.227	67896
733.342	59323
733.456	56166
733.570	51867
733.684	48960
733.798	45471
733.912	46108
734.026	46050
734.140	44023
734.254	42992
734.368	41752
734.482	40085
734.596	41903
734.710	39425
734.824	38723
734.938	39246
735.052	38276
735.166	38493
735.280	37363
735.393	36059
735.507	36984
735.621	35632
735.735	34220
735.849	36192
735.962	33869
736.076	36602
736.190	33926
736.303	33792
736.417	34376
736.531	32881
736.644	33939
736.758	33327
736.872	32629
736.985	33039
737.099	31288
737.212	31850
737.326	30859
737.439	32384
737.553	28592
737.666	30883
737.780	28954
737.893	31844
738.007	29546
738.120	31498
738.233	27264
738.347	30501
738.460	26854
738.573	31255
738.687	27687
738.800	29690
738.913	30975
739.026	29756
739.140	28194
739.253	29828
739.366	27189
739.479	27559
739.592	28214
739.705	25372
739.818	29495
739.932	26023
740.045	27981
740.158	26159
740.271	27877
740.384	27021
740.497	24162
740.610	27861
740.723	25179
740.836	26468
740.949	26057
741.062	29012
741.174	25085
741.287	25425
741.400	25909
741.513	23286
741.626	26545
741.739	25326
741.851	24028
741.964	25630
742.077	22823
742.189	21818
742.302	24377
742.415	24572
742.527	24096
742.640	24173
742.753	20521
742.865	23891
742.978	23742
743.090	22527
743.203	24013
743.316	21201
743.428	22093
743.541	22954
743.653	19832
743.766	23279
743.878	22404
743.990	20264
744.103	23279
744.215	22944
744.327	19515
744.440	25562
744.552	20596
744.664	19931
744.777	23374
744.889	21672
745.001	20199
745.113	22505
745.226	20886
745.338	19192
745.450	23542
745.562	21811
745.674	19095
745.786	23672
745.898	21845
746.010	19054
746.122	21484
746.234	21045
746.347	20565
746.459	20523
746.570	17653
746.682	22727
746.794	25454
746.906	18648
747.018	18907
747.130	21273
747.242	17527
747.354	18299
747.466	20039
747.577	17394
747.689	18811
747.801	19028
747.913	16808
748.024	17728
748.136	18688
748.248	16745
748.359	17779
748.471	18564
748.583	15425
748.694	17255
748.806	20052
748.918	16304
749.029	16341
749.141	17561
749.252	17680
749.364	15530
749.475	15361
749.587	15506
749.698	14176
749.809	17737
749.921	15583
750.032	15774
750.144	14581
750.255	14332
750.366	16057
750.478	14034
750.589	15237
750.700	13698
750.811	15200
750.923	14329
751.034	13995
751.145	17195
751.256	14367
751.367	13436
751.479	15261
751.590	14552
751.701	13151
751.812	13814
751.923	12845
752.034	17921
752.145	16909
752.256	15227
752.367	14448
752.478	13841
752.589	15455
752.700	14932
752.811	14132
752.922	14268
753.032	16046
753.143	15254
753.254	15311
753.365	19695
753.476	18382
753.586	15272
753.697	12855
753.808	13844
753.919	13013
754.029	13626
754.140	11982
754.251	13044
754.361	14314
754.472	16057
754.582	12034
754.693	14081
754.804	16078
754.914	13529
755.025	11671
755.135	13189
755.246	14516
755.356	12566
755.466	11599
755.577	11341
755.687	12974
755.798	13044
755.908	10981
756.018	12586
756.129	13727
756.239	14465
756.349	15148
756.460	18756
756.570	20463
756.680	15746
756.790	14233
756.900	13470
757.011	11405
757.121	11888
757.231	12754
757.341	13000
757.451	12039
757.561	11352
757.671	12620
757.781	13308
757.891	12813
758.001	11884
758.111	14019
758.221	16394
758.331	17463
758.441	17551
758.551	18054
758.661	21441
758.771	19887
758.880	18596
758.990	16917
759.100	17959
759.210	17812
759.320	16630
759.429	18944
759.539	22612
759.649	24583
759.758	29890
759.868	32134
759.978	33791
760.087	37205
760.197	36404
760.307	34156
760.416	30635
760.526	27534
760.635	29584
760.745	32418
760.854	37313
760.964	44479
761.073	44679
761.182	39783
761.292	33211
761.401	26605
761.511	21659
761.620	18403
761.729	18350
761.839	14774
761.948	14773
762.057	15848
762.166	16609
762.276	13223
762.385	15231
762.494	14500
762.603	13949
762.712	13296
762.822	13505
762.931	10821
763.040	10371
763.149	9952
763.258	11074
763.367	9922
763.476	10170
763.585	9341
763.694	9305
763.803	9547
763.912	10437
764.021	9821
764.130	9816
764.238	12112
764.347	13745
764.456	13825
764.565	11846
764.674	9895
764.783	9430
764.891	9974
765.000	9579
765.109	8602
765.217	8386
765.326	8963
765.435	8432
765.543	9366
765.652	9052
765.761	8894
765.869	8935
765.978	8666
766.086	11444
766.195	13296
766.303	23985
766.412	80845
766.520	72244
766.629	11832
766.737	10465
766.846	9482
766.954	8575
767.062	10901
767.171	15268
767.279	11929
767.387	8127
767.496	8681
767.604	7509
767.712	7825
767.820	8673
767.928	7569
768.037	7200
768.145	8375
768.253	8178
768.361	7523
768.469	7407
768.577	7568
768.685	7654
768.793	8636
768.901	8301
769.009	8728
769.117	7729
769.225	7935
769.333	9936
769.441	10407
769.549	10559
769.657	12025
769.765	27037
769.873	67038
769.981	18917
770.088	9995
770.196	9513
770.304	10375
770.412	10438
770.519	10577
770.627	11636
770.735	10498
770.842	10577
770.950	12503
771.058	12422
771.165	15522
771.273	16516
771.380	16705
771.488	24144
771.595	27833
771.703	23729
771.810	22025
771.918	23383
772.025	27174
772.133	31623
772.240	29026
772.348	35325
772.455	32337
772.562	29622
772.670	27643
772.777	29524
772.884	28805
772.991	27416
773.099	28949
773.206	26983
773.313	27768
773.420	27037
773.528	28558
773.635	25248
773.742	29382
773.849	25351
773.956	27498
774.063	25109
774.170	26472
774.277	26651
774.384	24516
774.491	25307
774.598	25550
774.705	25044
774.812	25275
774.919	23981
775.026	24985
775.133	25658
775.239	24368
775.346	24192
775.453	24472
775.560	22883
775.667	24441
775.773	22817
775.880	22958
775.987	22821
776.093	23064
776.200	26184
776.307	18085
776.413	20566
776.520	25638
776.627	21638
776.733	20612
776.840	19750
776.946	26918
777.053	24131
777.159	25117
777.266	21412
777.372	23616
777.478	25040
777.585	23292
777.691	17424
777.798	22915
777.904	20258
778.010	20298
778.117	21094
778.223	19940
778.329	20333
778.435	17234
778.542	21863
778.648	19023
778.754	17477
778.860	19453
778.966	19800
779.072	18141
779.178	18989
779.284	16023
779.391	17774
779.497	18626
779.603	18705
779.708	16606
779.815	15470
779.920	19219
780.026	15867
780.132	17532
780.238	17829
780.344	14691
780.450	22192
780.556	14049
780.661	15224
780.767	18161
780.873	12736
780.979	15779
781.085	19364
781.190	15797
781.296	14666
781.402	16189
781.507	16525
781.613	12448
781.719	15930
781.824	18286
781.930	14925
782.035	15897
782.141	17737
782.246	12737
782.352	13388
782.457	16637
782.563	15569
782.668	15051
782.773	14199
782.879	12977
782.984	15470
783.090	14326
783.195	15428
783.300	16168
783.405	13774
783.511	12470
783.616	13990
783.721	14892
783.826	12539
783.932	12251
784.037	13788
784.142	14496
784.247	12962
784.352	13148
784.457	11206
784.562	13995
784.667	14956
784.772	11391
784.877	9599
784.982	14218
785.087	13787
785.192	10235
785.297	12454
785.402	14440
785.507	13882
785.611	12399
785.716	10325
785.821	11945
785.926	12703
786.031	11749
786.135	12534
786.240	12394
786.345	9695
786.450	10410
786.554	11814
786.659	9431
786.763	10571
786.868	10762
786.973	12813
787.077	9092
787.182	9967
787.286	12763
787.391	14725
787.495	9313
787.600	8831
787.704	10750
787.809	12142
787.913	10398
788.017	11454
788.122	12426
788.226	10153
788.330	7959
788.435	10604
788.539	12236
788.643	9149
788.747	7111
788.852	9663
788.956	9325
789.060	11210
789.164	11205
789.268	9559
789.372	11618
789.476	9908
789.580	7851
789.684	8608
789.788	11477
789.892	10661
789.996	7720
790.100	7404
790.204	10198
790.308	12507
790.412	7817
790.516	7488
790.620	9410
790.724	12475
790.828	9588
790.931	6209
791.035	9696
791.139	9096
791.242	9441
791.346	9466
791.450	10017
791.554	8377
791.657	6191
791.761	9188
791.864	9647
791.968	10301
792.072	10192
792.175	7771
792.279	7243
792.382	7420
792.486	7392
792.589	7906
792.693	9214
792.796	7835
792.899	9490
793.003	10063
793.106	7651
793.209	7744
793.313	7558
793.416	5155
793.519	7361
793.623	10389
793.726	9128
793.829	6963
793.932	5380
794.035	6124
794.138	9633
794.242	11065
794.345	6581
794.448	6539
794.551	5899
794.654	9313
794.757	8134
794.860	5548
794.963	8335
795.066	6898
795.169	8759
795.272	7688
795.375	9273
795.477	6591
795.580	6398
795.683	6069
795.786	8586
795.889	6390
795.991	7654
796.094	8479
796.197	6556
796.300	9187
796.402	8697
796.505	7704
796.608	6878
796.710	7761
796.813	10761
796.915	11077
797.018	10592
797.120	9718
797.223	7941
797.326	9947
797.428	7024
797.530	6656
797.633	8600
797.735	11195
797.838	9769
797.940	10447
798.042	8092
798.145	6717
798.247	7328
798.349	6226
798.452	9089
798.554	8788
798.656	11337
798.758	13703
798.860	10812
798.962	8077
799.065	7480
799.167	6336
799.269	9474
799.371	11354
799.473	15893
799.575	13868
799.677	10151
799.779	9254
799.881	7724
799.983	9892
800.085	7248
800.187	7598
800.289	5506
800.390	6803
800.492	8544
800.594	7905
800.696	5773
800.798	6395
800.899	6182
801.001	7629
801.103	8819
801.205	9325
801.306	8896
801.408	7087
801.509	8160
801.611	7401
801.713	7318
801.814	4939
801.916	5194
802.017	5176
802.119	4473
802.220	6272
802.322	5825
802.423	6829
802.525	4293
802.626	5810
802.727	7751
802.829	6910
802.930	3627
803.031	6964
803.133	5960
803.234	6525
803.335	6775
803.436	4804
803.538	6266
803.639	5467
803.740	7012
803.841	6102
803.942	6660
804.043	6372
804.144	5650
804.245	6813
804.346	6403
804.447	6239
804.548	6318
804.649	7643
804.750	4606
804.851	4584
804.952	6643
805.053	5296
805.154	3742
805.255	6020
805.355	5427
805.456	5007
805.557	4310
805.658	4375
805.758	5228
805.859	5585
805.960	4923
806.061	4673
806.161	4662
806.262	5319
806.362	4559
806.463	4424
806.564	6200
806.664	5980
806.765	4078
806.865	4587
806.966	2900
807.066	4309
807.166	5697
807.267	6043
807.367	2675
807.468	5956
807.568	3032
807.668	5528
807.769	5349
807.869	4553
807.969	5380
808.069	4536
808.170	4347
808.270	3872
808.370	4710
808.470	4967
808.570	4337
808.670	4827
808.770	4562
808.870	3414
808.970	4267
809.070	3428
809.170	3773
809.271	5874
809.370	4155
809.470	4544
809.570	3215
809.670	3902
809.770	3238
809.870	4378
809.970	4490
810.070	5388
810.169	5615
810.269	3286
810.369	5477
810.469	4185
810.568	4521
810.668	4091
810.768	4182
810.867	3836
810.967	3682
811.066	3784
811.166	3887
811.265	5331
811.365	4446
811.464	4610
811.564	5022
811.663	4980
811.763	4384
811.862	5364
811.962	5531
812.061	5018
812.160	3517
812.260	4309
812.359	4236
812.458	3369
812.557	5516
812.657	4405
812.756	4078
812.855	4905
812.954	3750
813.053	4502
813.153	4602
813.252	4473
813.351	4926
813.450	5028
813.549	4349
813.648	4504
813.747	3334
813.846	5101
813.945	4975
814.044	5093
814.143	5008
814.242	6315
814.341	4128
814.439	6473
814.538	5219
814.637	6837
814.736	6406
814.835	6702
814.933	7008
815.032	8564
815.131	11448
815.229	20713
815.328	27346
815.427	20268
815.525	17239
815.624	17237
815.722	16441
815.821	19565
815.919	18511
816.018	18007
816.116	19624
816.215	19442
816.313	21098
816.412	25203
816.510	23922
816.609	26262
816.707	28775
816.805	25780
816.904	26834
817.002	27442
817.100	28608
817.198	29405
817.296	26357
817.395	26866
817.493	25001
817.591	23737
817.689	22215
817.787	24566
817.885	21942
817.983	20625
818.081	22353
818.179	22093
818.277	28198
818.375	24176
818.473	21944
818.571	18984
818.669	20785
818.767	24129
818.865	20105
818.963	16679
819.061	20637
819.158	19290
819.256	24287
819.354	21784
819.452	28032
819.549	25151
819.647	22847
819.745	18391
819.842	18672
819.940	19648
820.038	17652
820.135	17223
820.233	20046
820.330	18186
820.428	16188
820.525	20308
820.623	17932
820.720	16603
820.818	18980
820.915	19234
821.012	17040
821.110	15553
821.207	18055
821.304	15796
821.402	17869
821.499	18884
821.596	15443
821.693	16783
821.791	17884
821.888	16468
821.985	18046
822.082	13932
822.179	17730
822.276	17186
822.373	14031
822.470	15125
822.567	16208
822.664	13763
822.761	14969
822.858	17182
822.955	14917
823.052	12655
823.149	15418
823.246	16510
823.343	12654
823.440	12919
823.536	15857
823.633	15804
823.730	13846
823.827	16173
823.923	15083
824.020	13146
824.117	16924
824.213	15849
824.310	13383
824.407	12341
824.503	15236
824.600	13036
824.696	11991
824.793	17785
824.889	16487
824.986	13473
825.082	10243
825.179	11405
825.275	14931
825.371	17656
825.468	12386
825.564	8060
825.660	15424
825.757	18137
825.853	12634
825.949	11489
826.045	11466
826.142	13679
826.238	13728
826.334	14075
826.430	12310
826.526	8662
826.622	8738
826.718	15386
826.814	15471
826.910	12528
827.006	7660
827.102	10299
827.198	13355
827.294	14253
827.390	14431
827.486	10432
827.582	8688
827.678	9402
827.774	15239
827.869	9436
827.965	10415
828.061	9402
828.157	13590
828.252	12748
828.348	11804
828.444	9962
828.539	10998
828.635	13371
828.731	12558
828.826	11057
828.922	13220
829.017	15151
829.113	16297
829.208	11675
829.304	15214
829.399	17198
829.495	14113
829.590	12364
829.685	13072
829.781	13628
829.876	14350
829.971	8157
830.066	7040
830.162	11014
830.257	17067
830.352	12652
830.447	9743
830.543	11303
830.638	12709
830.733	15936
830.828	12547
830.923	12516
831.018	13972
831.113	14522
831.208	9525
831.303	8062
831.398	9502
831.493	11966
831.588	17249
831.683	10711
831.778	9049
831.873	11160
831.967	13217
832.062	13774
832.157	10981
832.252	11269
832.346	11299
832.441	12961
832.536	10910
832.631	10767
832.725	7688
832.820	9334
832.914	9845
833.009	8430
833.104	7275
833.198	8742
833.293	11194
833.387	12141
833.482	11589
833.576	11882
833.670	12342
833.765	14078
833.859	15158
833.954	12680
834.048	9717
834.142	9262
834.237	7156
834.331	8157
834.425	9540
834.519	8339
834.613	8014
834.708	7607
834.802	7604
834.896	8835
834.990	9303
835.084	8269
835.178	7440
835.272	8776
835.366	11023
835.460	12435
835.554	8596
835.648	6703
835.742	5200
835.836	6246
835.930	7795
836.024	9267
836.117	8262
836.211	8043
836.305	6241
836.399	6635
836.493	7235
836.586	8516
836.680	8158
836.774	6866
836.867	6194
836.961	6096
837.055	5961
837.148	6260
837.242	7558
837.335	7444
837.429	6065
837.522	6280
837.616	5889
837.709	6657
837.803	6580
837.896	8537
837.989	8435
838.083	5284
838.176	3949
838.269	3993
838.363	6347
838.456	5754
838.549	6917
838.642	6862
838.735	6040
838.829	6488
838.922	6107
839.015	5825
839.108	5264
839.201	6005
839.294	7845
839.387	6128
839.480	4216
839.573	5913
839.666	5594
839.759	6395
839.852	5483
839.945	7611
840.038	4999
840.131	4507
840.223	5117
840.316	6373
840.409	8128
840.502	7472
840.594	7441
840.687	4292
840.780	3595
840.873	4038
840.965	4592
841.058	6238
841.150	7287
841.243	4051
841.336	4955
841.428	5025
841.521	5324
841.613	6145
841.706	6073
841.798	4680
841.890	5953
841.983	4150
842.075	5069
842.167	5509
842.260	5639
842.352	7655
842.444	6482
842.537	4390
842.629	3317
842.721	3123
842.813	5778
842.905	5030
842.997	5913
843.090	6624
843.182	5180
843.274	3554
843.366	4638
843.458	5807
843.550	6434
843.642	4967
843.734	6277
843.826	4913
843.918	5029
844.009	5580
844.101	5260
844.193	5861
844.285	6208
844.377	6931
844.469	4544
844.560	3848
844.652	4293
844.744	4182
844.835	5265
844.927	6124
845.019	6219
845.110	4299
845.202	6415
845.293	4162
845.385	3049
845.476	5264
845.568	5321
845.659	4770
845.751	5077
845.842	4552
845.934	5181
846.025	4188
846.116	5234
846.208	4773
846.299	4193
846.390	3844
846.482	5130
846.573	5695
846.664	5891
846.755	4571
846.846	4964
846.937	4086
847.029	3520
847.120	3889
847.211	4736
847.302	5908
847.393	5223
847.484	5982
847.575	3900
847.666	2962
847.757	4056
847.847	4958
847.938	7202
848.029	6686
848.120	5001
848.211	4007
848.302	4166
848.392	4479
848.483	5420
848.574	5389
848.664	5974
848.755	5468
848.846	5752
848.936	6394
849.027	7214
849.118	8372
849.208	9121
849.299	14461
849.389	24327
849.480	46635
849.570	86639
849.661	160788
849.751	229695
849.841	96535
849.932	24079
850.022	13403
850.112	10270
850.203	8704
850.293	6955
850.383	6351
850.474	5930
850.564	5240
850.654	4082
850.744	4219
850.834	4314
850.924	6305
851.014	7471
851.104	6449
851.194	4990
851.284	4136
851.374	5472
851.464	4867
851.554	5869
851.644	5876
851.734	5325
851.824	7009
851.914	5302
852.004	6297
852.094	4784
852.183	5218
852.273	5851
852.363	5622
852.452	6593
852.542	6512
852.632	6100
852.721	7312
852.811	7543
852.901	9754
852.990	9679
853.080	11448
853.169	12120
853.259	13542
853.348	15422
853.438	19004
853.527	26470
853.617	37967
853.706	58433
853.795	97627
853.885	171635
853.974	279453
854.063	439458
854.152	493649
854.242	285755
854.331	123035
854.420	63076
854.509	39966
854.598	30237
854.687	23206
854.777	19416
854.866	14689
854.955	11884
855.044	10252
855.133	11087
855.222	9626
855.311	7889
855.400	7983
855.488	6897
855.577	6924
855.666	6646
855.755	7698
855.844	6927
855.933	7541
856.021	6926
856.110	5625
856.199	5177
856.288	4674
856.376	4162
856.465	4036
856.554	5259
856.642	5477
856.731	6617
856.819	6305
856.908	5113
856.996	4987
857.085	3721
857.173	4367
857.262	3966
857.350	4799
857.438	4508
857.527	4690
857.615	4338
857.703	5566
857.792	4234
857.880	3714
857.968	4769
858.056	4705
858.145	4703
858.233	5151
858.321	3228
858.409	4586
858.497	5122
858.585	3860
858.673	4058
858.761	3969
858.849	4171
858.937	4305
859.025	4411
859.113	5269
859.201	4560
859.289	5383
859.377	4948
859.465	4607
859.552	4132
859.640	4157
859.728	4473
859.816	4881
859.903	4448
859.991	3118
860.079	4394
860.166	5017
860.254	4494
860.342	5200
860.429	4742
860.517	3795
860.604	3925
860.692	3866
860.779	3792
860.867	4122
860.954	5335
861.042	5121
861.129	5908
861.216	5611
861.304	5716
861.391	5642
861.478	5194
861.565	3354
861.653	4689
861.740	3542
861.827	3996
861.914	4718
862.001	4046
862.089	5372
862.176	5377
862.263	3419
862.350	4000
862.437	4798
862.524	4342
862.611	5041
862.698	5108
862.785	5178
862.871	7474
862.958	6892
863.045	4983
863.132	5639
863.219	5704
863.306	5253
863.392	5000
863.479	4499
863.566	5136
863.652	5829
863.739	5897
863.826	6358
863.912	6773
863.999	5489
864.086	6456
864.172	8462
864.259	8241
864.345	7376
864.432	7598
864.518	7296
864.604	8373
864.691	8223
864.777	9270
864.863	11409
864.950	14286
865.036	21054
865.122	32831
865.209	33929
865.295	32176
865.381	31768
865.467	32556
865.553	38404
865.639	48149
865.726	68141
865.812	108497
865.898	170467
865.984	246307
866.070	364282
866.156	344377
866.242	165063
866.328	76387
866.414	48548
866.499	38274
866.585	33590
866.671	29829
866.757	29695
866.843	26140
866.928	25157
867.014	23455
867.100	23538
867.186	22397
867.271	20946
867.357	22388
867.442	20405
867.528	21596
867.614	21234
867.699	21250
867.785	21279
867.870	20077
867.956	21014
868.041	20689
868.127	18921
868.212	19762
868.297	19470
868.383	20662
868.468	18294
868.553	19624
868.639	18514
868.724	20295
868.809	18593
868.894	17855
868.979	18543
869.065	18447
869.150	15484
869.235	17945
869.320	17919
869.405	16117
869.490	18149
869.575	17436
869.660	13918
869.745	17920
869.830	19093
869.915	16453
870.000	16279
870.085	15783
870.169	19052
870.254	20768
870.339	12877
870.424	14175
870.509	17563
870.593	18808
870.678	17948
870.763	15482
870.847	14359
870.932	18869
871.016	17982
871.101	13069
871.186	16925
871.270	19270
871.355	13615
871.439	14270
871.523	17664
871.608	13470
871.692	13390
871.777	17428
871.861	16132
871.945	14851
872.030	16150
872.114	15166
872.198	12715
872.282	13406
872.367	12510
872.451	13998
872.535	13968
872.619	14554
872.703	13700
872.787	15336
872.871	14817
872.955	11887
873.039	10045
873.123	14889
873.207	14267
873.291	9718
873.375	12355
873.459	15672
873.543	14451
873.627	12527
873.711	11663
873.794	14524
873.878	12565
873.962	11145
874.045	12187
874.129	13125
874.137	13205
874.213	14010
874.245	13345
874.296	12278
874.352	11517
874.380	11148
874.460	12336
874.464	12387
874.547	11329
874.568	11890
874.631	13581
874.676	13061
874.714	12601
874.784	13129
874.798	13238
874.881	11595
874.892	11399
874.965	10151
874.999	10887
875.048	11827
875.107	11654
875.131	11583
875.215	9294
875.215	9293
875.298	9662
875.323	10327
875.381	11821
875.430	14034
875.465	15553
875.538	13448
875.548	13154
875.631	9564
875.646	9424
875.714	8894
875.753	9307
875.798	9865
875.861	11739
875.881	12235
875.964	10085
875.968	9985
876.047	8456
876.076	9313
876.130	10919
876.183	11184
876.213	11311
876.291	11713
876.296	11730
876.379	10361
876.398	10060
876.462	9084
876.506	8824
876.545	8685
876.613	8692
876.628	8718
876.711	10175
876.721	10396
876.794	11855
876.828	11271
876.877	10257
876.935	9123
876.960	8797
877.043	8569
877.043	8577
877.125	10291
877.150	10746
877.208	11385
877.258	9997
877.291	9156
877.365	8800
877.374	8749
877.456	8538
877.472	8337
877.539	7858
877.579	9350
877.622	10778
877.687	10537
877.704	10454
877.787	9936
877.794	9988
877.869	10684
877.901	10348
877.952	9349
878.008	7564
878.034	6876
878.115	7280
878.117	7292
878.199	8044
878.222	8304
878.282	9287
878.329	10614
878.364	11303
878.437	10066
878.447	9829
878.529	6877
878.544	6904
878.611	7454
878.651	7941
878.694	8813
878.758	9808
878.776	9942
878.858	9568
878.865	9488
878.941	7940
878.972	7109
879.023	6423
879.078	8147
879.105	8964
879.185	9973
879.187	9985
879.269	9677
879.292	9777
879.351	9749
879.399	8614
879.433	7776
879.506	8097
879.516	8197
879.598	7444
879.613	7465
879.680	7854
879.720	8670
879.762	9278
879.827	8523
879.844	8184
879.926	7805
879.933	7787
880.007	8588
880.040	8303
880.089	7368
880.147	8035
880.171	8590
880.253	9766
880.254	9767
880.335	8784
880.360	9420
880.417	11471
880.467	12334
880.499	12484
880.574	11859
880.580	11828
880.662	10864
880.680	10462
880.744	7912
880.787	7058
880.825	7069
880.893	7641
880.907	7683
880.989	6525
881.000	6735
881.070	8798
881.106	8983
881.152	8470
881.213	6830
881.233	6308
881.315	7071
881.319	7062
881.396	8047
881.426	8229
881.478	8243
881.532	9401
881.559	9837
881.639	7904
881.641	7847
881.722	7008
881.745	7086
881.803	8005
881.852	7927
881.885	7440
881.958	6350
881.966	6357
882.047	7919
882.064	7892
882.129	6781
882.171	6291
882.210	5787
882.277	5236
882.291	5413
882.372	7629
882.383	7910
882.454	10009
882.489	9899
882.535	8694
882.596	8897
882.616	9100
882.697	8173
882.702	8135
882.778	6618
882.808	6110
882.859	5757
882.914	5636
882.940	5689
883.020	6667
883.021	6679
883.102	7754
883.127	8234
883.183	9779
883.233	10011
883.264	8487
883.339	5542
883.345	5459
883.426	4433
883.445	4439
883.507	5735
883.551	6532
883.587	7195
883.657	8564
883.668	8679
883.749	8935
883.763	8776
883.830	6463
883.869	5546
883.910	5310
883.975	5862
883.991	6154
884.072	6830
884.081	6940
884.152	8810
884.187	9670
884.233	10355
884.292	10138
884.314	8963
884.394	4863
884.398	4691
884.475	4195
884.504	4158
884.555	4529
884.610	4704
884.636	5071
884.716	6944
884.716	6957
884.797	8623
884.821	9001
884.877	8636
884.927	8304
884.958	7564
885.033	5701
885.038	5629
885.118	4727
885.139	4563
885.199	5113
885.244	5508
885.279	6186
885.350	7881
885.359	8166
885.439	10502
885.456	10693
885.520	7679
885.561	6082
885.600	5688
885.667	5720
885.680	5998
885.760	7102
885.773	7203
885.840	5718
885.878	5282
885.920	5475
885.984	5687
886.000	5913
886.080	6670
886.089	6816
886.160	8014
886.195	8147
886.240	7277
886.300	6733
886.320	6926
886.400	7205
886.406	7214
886.480	5237
886.511	4671
886.560	5398
886.616	5878
886.640	5753
886.720	5604
886.722	5595
886.800	5955
886.827	6167
886.879	6233
886.932	6396
886.959	7058
887.038	8561
887.039	8547
887.119	6994
887.143	6496
887.198	6581
887.248	6663
887.278	6565
887.354	6393
887.358	6399
887.437	6399
887.459	6429
887.517	7044
887.564	7345
887.596	6693
887.669	5233
887.676	5123
887.755	3904
887.774	3634
887.835	4163
887.880	4676
887.914	5066
887.985	5570
887.994	5837
888.073	8568
888.090	9020
888.153	9886
888.195	10462
888.232	8773
888.300	5845
888.311	5820
888.391	5561
888.405	5514
888.470	5002
888.510	4746
888.549	4981
888.615	5398
888.628	5806
888.708	8189
888.720	8540
888.787	7708
888.825	7190
888.866	5907
888.930	4101
888.945	4230
889.024	4928
889.035	5006
889.103	6764
889.140	7705
889.182	6907
889.245	5803
889.261	6031
889.340	7064
889.349	7178
889.419	6143
889.454	5628
889.498	5424
889.559	5171
889.577	5414
889.656	6467
889.664	6572
889.735	6589
889.768	6578
889.814	6473
889.873	6310
889.978	5790
890.083	5815
890.187	6629
890.292	7052
890.397	6027
890.501	5024
890.606	5307
890.710	5365
890.815	8314
890.919	6542
891.024	6844
891.128	5341
891.233	4159
891.337	7753
891.442	7168
891.546	6143
891.650	5175
891.755	5086
891.859	6348
891.963	8322
892.068	5982
892.172	5063
892.276	3324
892.380	5005
892.484	7291
892.589	8001
892.693	6282
892.797	4124
892.901	3961
893.005	4901
893.109	8242
893.213	7222
893.317	5809
893.421	3996
893.525	3437
893.629	3608
893.733	6801
893.837	6209
893.941	5404
894.045	3153
894.148	2209
894.252	4424
894.356	7236
894.460	8528
894.564	4850
894.667	4604
894.771	3182
894.875	3168
894.978	5655
895.082	5988
895.186	7758
895.289	4914
895.393	4680
895.496	7172
895.600	4698
895.703	3897
895.807	4729
895.910	5068
896.014	5467
896.117	3809
896.221	6122
896.324	5483
896.427	3738
896.531	3101
896.634	5049
896.737	4586
896.840	5818
896.944	6407
897.047	7264
897.150	5191
897.253	4127
897.356	3057
897.460	2884
897.563	3466
897.666	6840
897.769	6225
897.872	3000
897.975	4554
898.078	5105
898.181	3387
898.284	4578
898.387	6603
898.490	7658
898.593	4403
898.695	4791
898.798	5308
898.901	3752
899.004	4425
899.107	5097
899.209	4165
899.312	7780
899.415	4282
899.518	2498
899.620	2216
899.723	2853
899.826	3924
899.928	3677
900.031	4720
900.133	6290
900.236	5005
900.338	3274
900.441	3036
900.543	4434
900.646	4853
900.748	4329
900.851	6196
900.953	4340
901.055	3297
901.158	4221
901.260	3863
901.362	2859
901.465	3086
901.567	4765
901.669	6782
901.771	4901
901.873	5107
901.976	3351
902.078	4583
902.180	2639
902.282	4008
902.384	3378
902.486	6725
902.588	5680
902.690	3915
902.792	1597
902.894	4764
902.996	5971
903.098	4427
903.200	3697
903.302	2723
903.404	3449
903.505	3884
903.607	3994
903.709	7094
903.811	6608
903.913	5328
904.014	2857
904.116	2395
904.218	3565
904.319	5045
904.421	7734
904.523	5476
904.624	4125
904.726	3903
904.827	2938
904.929	3416
905.030	3982
905.132	6367
905.233	5340
905.335	3049
905.436	3785
905.537	3421
905.639	3890
905.740	4160
905.841	5939
905.943	4408
906.044	4054
906.145	3197
906.247	2643
906.348	3408
906.449	3979
906.550	5131
906.651	3573
906.752	3860
906.854	3434
906.955	3590
907.056	3974
907.157	6182
907.258	5683
907.359	2202
907.460	3200
907.561	2094
907.662	2482
907.762	4084
907.863	4439
907.964	6456
908.065	3574
908.166	3071
908.267	4040
908.367	3237
908.468	3137
908.569	3545
908.670	5522
908.770	4415
908.871	4149
908.971	4812
909.072	4025
909.173	2542
909.273	4318
909.374	4729
909.474	4969
909.575	3553
909.675	3790
909.776	4496
909.876	4798
909.977	3941
910.077	5455
910.177	6205
910.278	5434
910.378	4727
910.478	3696
910.579	5542
910.679	5632
910.779	5690
910.879	5381
910.980	5221
911.080	4728
911.180	3805
911.280	3310
911.380	3078
911.480	2322
911.580	3985
911.680	4665
911.780	4624
911.880	5155
911.980	3476
912.080	3483
912.180	5364
912.280	4203
912.380	3852
912.480	3101
912.580	2991
912.679	4401
912.779	4635
912.879	4809
912.979	3479
913.078	3909
913.178	3288
913.278	3640
913.377	3541
913.477	3455
913.577	3521
913.676	5195
913.776	5970
913.875	4817
913.975	3953
914.074	4038
914.174	4758
914.273	2711
914.373	5216
914.472	3879
914.572	3438
914.671	3751
914.770	4113
914.870	3501
914.969	3685
915.068	5456
915.167	4355
915.267	3956
915.366	3704
915.465	4389
915.564	4457
915.663	5433
915.763	4560
915.862	5034
915.961	5154
916.060	3554
916.159	3585
916.258	2948
916.357	3334
916.456	5298
916.555	4623
916.654	4453
916.752	5788
916.851	5873
916.950	2881
917.049	2943
917.148	2931
917.247	3511
917.345	4133
917.444	3245
917.543	3155
917.642	3708
917.740	5310
917.839	7083
917.937	7218
918.036	6511
918.135	3510
918.233	4042
918.332	3952
918.430	3792
918.529	5131
918.627	4811
918.726	6280
918.824	5513
918.923	3569
919.021	4728
919.119	3757
919.218	3853
919.316	4525
919.414	5020
919.512	6361
919.611	6040
919.709	5511
919.807	6023
919.905	7552
920.003	6300
920.102	5693
920.200	6945
920.298	6914
920.396	6498
920.494	6628
920.592	6334
920.690	6358
920.788	5937
920.886	6981
920.984	8262
921.082	8081
921.180	8160
921.277	8261
921.375	9950
921.473	13416
921.571	12917
921.669	11833
921.766	10511
921.864	11390
921.962	11592
922.060	10781
922.157	11385
922.255	12193
922.352	11475
922.450	12293
922.548	12967
922.645	14606
922.743	19690
922.840	29113
922.938	31977
923.035	29216
923.133	28036
923.230	31991
923.327	38129
923.425	34542
923.522	36047
923.619	33089
923.717	29438
923.814	29130
923.911	28615
924.008	30018
924.106	27857
924.203	27649
924.300	29117
924.397	28262
924.494	28140
924.591	28233
924.688	26176
924.786	27732
924.883	28731
924.979	28511
925.077	28201
925.173	26687
925.270	27609
925.367	26841
925.464	29739
925.561	29411
925.658	30678
925.755	25567
925.852	30338
925.948	28360
926.045	27242
926.142	27791
926.239	29043
926.335	22595
926.432	27201
926.529	27830
926.625	29839
926.722	23753
926.818	24840
926.915	27719
927.011	25382
927.108	24796
927.204	25807
927.301	22565
927.397	26648
927.494	29135
927.590	20368
927.687	21933
927.783	29125
927.879	27953
927.976	24599
928.072	22221
928.168	26419
928.264	26420
928.361	23015
928.457	26574
928.553	22390
928.649	23190
928.745	25126
928.841	20639
928.937	23222
929.033	23961
929.129	21785
929.225	27089
929.321	21834
929.417	19910
929.513	25236
929.609	20825
929.705	19817
929.801	24040
929.897	20184
929.993	22186
930.089	22228
930.184	20097
930.280	23122
930.376	27672
930.471	19472
930.567	17550
930.663	21132
930.758	19346
930.854	21070
930.950	21140
931.045	19226
931.141	19520
931.236	24486
931.332	21808
931.427	16107
931.523	24128
931.618	22011
931.714	15972
931.809	17853
931.905	22925
932.000	15737
932.095	14328
932.191	23224
932.286	25222
932.381	20954
932.476	15735
932.572	19515
932.667	17119
932.762	16932
932.857	19321
932.952	23188
933.047	18885
933.142	15746
933.237	18699
933.332	21272
933.427	21881
933.522	18747
933.617	16741
933.712	16867
933.807	22006
933.902	23287
933.997	23113
934.092	16083
934.187	17644
934.282	19917
934.376	19176
934.471	21300
934.566	16180
934.661	15851
934.755	19668
934.850	21167
934.945	17479
935.039	14859
935.134	13696
935.228	16767
935.323	25436
935.417	15679
935.512	12094
935.606	13218
935.701	18852
935.795	20322
935.890	17916
935.984	13882
936.079	12905
936.173	15977
936.267	14686
936.362	13816
936.456	16850
936.550	21290
936.644	17418
936.738	12807
936.833	14073
936.927	11597
937.021	15447
937.115	17011
937.209	17774
937.303	15490
937.397	12152
937.491	15439
937.585	17426
937.679	16334
937.773	12602
937.867	11558
937.961	12007
938.055	18336
938.149	17034
938.243	9901
938.337	10409
938.430	13143
938.524	18794
938.618	14312
938.712	12039
938.805	13359
938.899	16840
938.993	18805
939.086	12427
939.180	9598
939.274	12132
939.367	16403
939.461	17216
939.554	12393
939.648	12033
939.741	12448
939.835	14266
939.928	18062
940.022	16580
940.115	14244
940.208	16097
940.302	18468
940.395	19252
940.488	13449
940.582	12458
940.675	10755
940.768	11461
940.861	16375
940.954	17525
941.048	9478
941.141	9481
941.234	10868
941.327	12938
941.420	14002
941.513	15209
941.606	12283
941.699	11191
941.792	15640
941.885	13880
941.978	14001
942.071	13799
942.164	9846
942.257	10292
942.349	12022
942.442	14591
942.535	9416
942.628	10835
942.721	12489
942.813	12243
942.906	12423
942.999	12051
943.091	10361
943.184	12051
943.277	10757
943.369	8767
943.462	8163
943.554	11708
943.647	10929
943.739	14244
943.832	14211
943.924	7096
944.017	8240
944.109	8780
944.201	10108
944.294	10328
944.386	10491
944.478	9532
944.571	8874
944.663	9870
944.755	10354
944.847	12214
944.940	11272
945.032	7789
945.124	7534
945.216	10503
945.308	11044
945.400	10131
945.492	9240
945.584	12718
945.676	14304
945.768	11422
945.860	12363
945.952	13784
946.044	11744
946.136	9918
946.228	9442
946.320	9553
946.412	11473
946.503	12901
946.595	13020
946.687	8122
946.779	7812
946.870	8941
946.962	8734
947.054	8634
947.145	10398
947.237	9148
947.329	8965
947.420	10700
947.512	8861
947.603	6971
947.695	8473
947.786	8303
947.878	8571
947.969	9629
948.061	11216
948.152	10416
948.243	6762
948.335	6204
948.426	8227
948.517	9362
948.609	10933
948.700	10460
948.791	8785
948.882	6248
948.973	7084
949.065	9005
949.156	8611
949.247	6749
949.338	8369
949.429	5515
949.520	6553
949.611	8909
949.702	10925
949.793	8383
949.884	8358
949.975	7129
950.066	5603
950.157	6714
950.247	7697
950.338	6713
950.429	6649
950.520	7687
950.611	6503
950.701	8270
950.792	11285
950.883	10444
950.973	7938
951.064	9651
951.155	9871
951.245	9312
951.336	9558
951.427	10655
951.517	11712
951.608	9029
951.698	7804
951.788	7101
951.879	5191
951.969	6793
952.060	6326
952.150	7939
952.240	10556
952.331	9157
952.421	9451
952.511	6047
952.602	4890
952.692	4830
952.782	5896
952.872	6268
952.962	8278
953.052	7613
953.143	6057
953.233	6873
953.323	8049
953.413	8329
953.503	9914
953.593	8054
953.683	6855
953.773	6224
953.863	6020
953.953	5250
954.042	7995
954.132	8481
954.222	8621
954.312	6524
954.402	6978
954.492	6856
954.581	6961
954.671	7576
954.761	6585
954.850	7775
954.940	3924
955.030	4368
955.119	5685
955.209	5008
955.298	7078
955.388	9037
955.477	8401
955.567	4834
955.656	5990
955.746	5809
955.835	5112
955.925	5234
956.014	7461
956.103	9522
956.193	10039
956.282	8896
956.371	6957
956.461	7498
956.550	7143
956.639	5725
956.728	6045
956.817	6207
956.906	6406
956.995	7976
957.085	5732
957.174	6391
957.263	5362
957.352	5005
957.441	6221
957.530	6791
957.619	5265
957.708	6283
957.796	5934
957.885	6351
957.974	5898
958.063	6259
958.152	3211
958.241	4098
958.329	5401
958.418	5664
958.507	5425
958.596	7825
958.684	5197
958.773	6529
958.861	5013
958.950	3890
959.039	3995
959.127	5730
959.216	6888
959.304	5124
959.393	5310
959.481	6794
959.570	3884
959.658	3957
959.746	4287
959.835	4769
959.923	4667
960.011	4820
960.100	5530
960.188	6817
960.276	5556
960.365	4818
960.453	3459
960.541	3347
960.629	4261
960.717	4445
960.805	2884
960.893	5314
960.981	5544
961.069	7918
961.158	9452
961.245	9658
961.333	8306
961.421	5281
961.509	6022
961.597	5956
961.685	4849
961.773	5976
961.861	6308
961.949	6754
962.036	4591
962.124	4445
962.212	4682
962.299	4719
962.387	3804
962.475	3914
962.562	5273
962.650	6535
962.738	4401
962.825	3430
962.913	4047
963.000	4899
963.088	6484
963.175	4695
963.263	4684
963.350	4688
963.438	4452
963.525	4021
963.612	4922
963.700	3739
963.787	5524
963.874	4660
963.962	4293
964.049	3884
964.136	3732
964.223	3805
964.310	4059
964.398	4281
964.485	4640
964.572	5468
964.659	5037
964.746	4072
964.833	3812
964.920	4365
965.007	4876
965.094	4471
965.181	4949
965.268	5637
965.355	4645
965.441	5324
965.528	3540
965.615	7062
965.702	4877
965.789	4565
965.875	5230
965.962	5917
966.049	5054
966.136	7531
966.222	7271
966.309	8438
966.395	7995
966.482	7564
966.569	5992
966.655	5661
966.742	5244
966.828	4801
966.915	4024
967.001	3792
967.087	2810
967.174	3426
967.260	4282
967.347	4326
967.433	5045
967.519	5732
967.605	6171
967.692	5826
967.778	5130
967.864	4077
967.950	4679
968.036	3572
968.123	5156
968.209	5633
968.295	3366
968.381	5916
968.467	4620
968.553	3107
968.639	5920
968.725	6324
968.811	9891
968.897	7815
968.983	4625
969.069	3287
969.154	3416
969.240	3503
969.326	3081
969.412	3523
969.497	3895
969.583	3764
969.669	5664
969.755	4957
969.840	5441
969.926	9363
970.012	13471
970.097	17269
970.183	14610
970.268	7379
970.354	6011
970.439	4152
970.525	4962
970.610	4217
970.696	5958
970.781	3512
970.866	2561
970.952	4955
971.037	3329
971.122	5233
971.208	5060
971.293	4410
971.378	3618
971.463	5468
971.549	4249
971.634	3567
971.719	4525
971.804	3850
971.889	4310
971.974	4799
972.059	4197
972.144	4625
972.229	3846
972.314	4591
972.399	4013
972.484	2827
972.569	4324
972.654	3495
972.739	3552
972.824	2296
972.908	3117
972.993	3199
973.078	3309
973.163	4038
973.247	4661
973.332	3133
973.417	5395
973.501	3292
973.586	4217
973.671	3688
973.755	3541
973.840	4367
973.924	7283
974.009	6720
974.093	7269
974.178	7921
974.262	5168
974.346	4666
974.431	5243
974.515	4601
974.600	4601
974.684	4457
974.768	4500
974.852	5410
974.937	4737
975.021	5128
975.105	4336
975.189	3867
975.273	4127
975.358	3674
975.442	2892
975.526	5288
975.610	3195
975.694	3815
975.778	4823
975.862	4586
975.946	2710
976.030	6369
976.114	3886
976.198	4512
976.281	4090
976.365	5296
976.449	4377
976.533	4375
976.617	3099
976.700	2938
976.784	3138
976.868	2917
976.951	4164
977.035	3613
977.119	3817
977.202	4629
977.286	5349
977.369	6942
977.453	10023
977.536	8554
977.620	7803
977.703	6254
977.787	4945
977.870	6073
977.953	6198
978.037	4045
978.120	5049
978.203	4213
978.287	6055
978.370	5764
978.453	4887
978.536	4590
978.620	4675
978.703	5663
978.786	4148
978.869	3626
978.952	3958
979.035	5690
979.118	6402
979.201	4132
979.284	4786
979.367	4146
979.450	4565
979.533	4098
979.616	4121
979.699	4179
979.782	4690
979.865	4743
979.948	4094
980.030	3670
980.113	4486
980.196	3728
980.279	4838
980.361	4184
980.444	4431
980.526	6749
980.609	8374
980.692	10978
980.774	9967
980.857	7147
980.939	8060
981.022	6331
981.104	5438
981.187	5333
981.269	6193
981.352	5817
981.434	4927
981.516	5227
981.599	6870
981.681	5201
981.763	5193
981.846	6591
981.928	5551
982.010	5373
982.092	5026
982.174	6585
982.256	5401
982.339	5626
982.421	4822
982.503	4180
982.585	4500
982.667	5306
982.749	6004
982.831	4819
982.913	5279
982.995	6630
983.077	5250
983.158	7178
983.240	4504
983.322	8109
983.404	11259
983.486	11121
983.568	9094
983.649	7664
983.731	7686
983.813	7455
983.894	7183
983.976	7513
984.058	6996
984.139	7661
984.221	5109
984.302	7958
984.384	7552
984.465	5839
984.547	7556
984.628	6340
984.710	7053
984.791	6391
984.872	6753
984.954	7246
985.035	7762
985.116	6086
985.198	5797
985.279	7386
985.360	6397
985.441	6582
985.522	7347
985.604	7432
985.685	5587
985.766	7758
985.847	8119
985.928	6333
986.009	6734
986.090	7431
986.171	7631
986.252	6581
986.333	6878
986.414	6683
986.495	6994
986.576	7980
986.656	8795
986.737	7438
986.818	9293
986.899	8034
986.980	7573
987.060	8189
987.141	8585
987.222	9348
987.302	9283
987.383	11504
987.464	10153
987.544	11442
987.625	10121
987.705	10629
987.786	11404
987.866	10227
987.947	8604
988.027	10490
988.108	9071
988.188	9565
988.268	9123
988.349	9323
988.429	9730
988.509	9473
988.589	8757
988.670	7560
988.750	9489
988.830	7555
988.910	8527
988.990	8730
989.070	8020
989.151	8246
989.231	8137
989.311	8614
989.391	7497
989.471	7539
989.551	7348
989.631	7263
989.711	8557
989.791	8009
989.870	7026
989.950	7932
990.030	8013
990.110	7549
990.190	6143
990.269	6083
990.349	7512
990.429	8231
990.509	6518
990.588	4563
990.668	6649
990.747	7496
990.827	5437
990.907	6846
990.986	8127
991.066	6691
991.145	5239
991.225	7723
991.304	7590
991.383	6959
991.463	6186
991.542	7028
991.622	4529
991.701	5838
991.780	5384
991.859	5276
991.939	5437
992.018	6413
992.097	6865
992.176	5897
992.256	5055
992.335	5650
992.414	6666
992.493	5377
992.572	4768
992.651	6090
992.730	5481
992.809	5617
992.888	4773
992.967	5597
993.046	5361
993.125	3837
993.203	5399
993.282	5579
993.361	6048
993.440	4865
993.519	4358
993.597	5014
993.676	4865
993.755	5916
993.834	5611
993.912	3833
993.991	5180
994.069	4208
994.148	4441
994.226	4269
994.305	4626
994.384	4817
994.462	5848
994.540	4118
994.619	3569
994.697	4253
994.776	4254
994.854	5875
994.932	3208
995.011	4505
995.089	4039
995.167	3315
995.245	4013
995.324	2769
995.402	5092
995.480	3075
995.558	3539
995.636	2825
995.714	3758
995.792	5700
995.870	2538
995.948	2844
996.026	2934
996.104	2835
996.182	4265
996.260	3009
996.338	3106
996.416	3240
996.494	3362
996.572	4595
996.649	2669
996.727	3130
996.805	3916
996.883	3418
996.960	2818
997.038	3833
997.116	3557
997.193	3105
997.271	2738
997.348	1866
997.426	3019
997.504	3360
997.581	4305
997.658	2705
997.736	1118
997.813	2572
997.891	3899
997.968	3036
998.046	2235
998.123	2388
998.200	3933
998.277	2684
998.355	3637
998.432	1289
998.509	2323
998.586	2860
998.663	2742
998.741	2188
998.818	2137
998.895	1962
998.972	3653
999.049	3192
999.126	2186
999.203	2571
999.280	1713
999.357	2473
999.434	2390
999.511	2366
999.587	2144
999.664	1989
999.741	1535
999.818	3512
999.895	2417
999.971	2292
1000.048	2385
1000.125	1847
1000.202	2079
1000.278	2690
1000.355	3255
1000.431	646
1000.508	523
1000.584	1549
1000.661	1891
1000.738	1282
1000.814	1546
1000.890	2773
1000.967	1697
1001.043	1712
1001.120	505
1001.196	1142
1001.272	827
1001.349	1560
1001.425	2201
1001.501	2153
1001.577	988
1001.654	1958
1001.730	267
1001.806	2001
1001.882	1411
1001.958	2712
1002.034	1756
1002.110	1278
1002.186	1077
1002.262	703
1002.338	703
1002.414	1928
1002.490	1271
1002.566	1135
1002.642	737
1002.718	1271
1002.794	1084
1002.870	980
1002.945	1209
1003.021	938
1003.097	131
1003.173	1959
1003.248	700
1003.324	814
1003.400	1396
1003.475	186
1003.551	1057
1003.626	1098
1003.702	545
1003.777	1246
1003.853	279
1003.928	608
1004.004	-33
1004.079	1818
1004.155	2114
1004.230	589
1004.305	913
1004.381	713
1004.456	805
1004.531	896
1004.607	310
1004.682	193
1004.757	517
1004.832	661
1004.907	80
1004.982	1130
1005.057	1039
1005.133	689
1005.208	-59
1005.283	-53
1005.358	987
1005.433	-826
1005.508	797
1005.583	-460
1005.657	495
1005.732	352
1005.807	410
1005.882	-81
1005.957	-41
1006.032	708
1006.106	772
1006.181	1018
1006.256	801
1006.331	879
1006.405	-17
1006.480	282
1006.554	-95
1006.629	-674
1006.704	-924
1006.778	210
1006.853	939
1006.927	-597
1007.002	-792
1007.076	-310
1007.150	-244
1007.225	620
1007.299	119
1007.373	-278
1007.448	90
1007.522	229
1007.596	567
1007.671	-375
1007.745	-349
1007.819	-592
1007.893	-471
1007.967	-62
1008.041	-951
1008.115	218
1008.190	-358
1008.264	-88
1008.338	-1342
1008.412	-216
1008.486	-269
1008.560	-392
1008.633	-214
1008.707	530
1008.781	775
1008.855	-485
1008.929	-31
1009.003	-697
1009.076	-1034
1009.150	-423
1009.224	-27
1009.298	-284
1009.371	-1068
1009.445	-160
1009.519	-890
1009.592	-552
1009.666	-547
1009.739	-648
1009.813	-676
1009.886	226
1009.960	-352
1010.033	207
1010.107	381
1010.180	-659
1010.253	-994
1010.327	-730
1010.400	-1045
1010.473	-1110
1010.547	65
1010.620	-105
1010.693	-535
1010.766	-557
1010.840	136
1010.913	237
1010.986	-1087
1011.059	-750
1011.132	-1138
1011.205	-281
1011.278	-557
1011.351	-1297
1011.424	304
1011.497	-1046
1011.570	-944
1011.643	-644
1011.716	-801
1011.789	-1324
1011.862	-1225
1011.934	-730
1012.007	-2318
1012.080	-1435
1012.153	-1475
1012.225	-623
1012.298	-977
1012.371	-1055
1012.443	-345
1012.516	-921
1012.588	-580
1012.661	-211
1012.733	-1179
1012.806	-1507
1012.879	-1187
1012.951	-720
1013.023	-1385
1013.096	-552
1013.168	-649
1013.241	273
1013.313	-1243
1013.385	-887
1013.458	-847
1013.530	34
1013.602	-1540
1013.674	229
1013.746	-1117
1013.819	-1806
1013.891	-880
1013.963	-869
1014.035	-1510
1014.107	-907
1014.179	-1339
1014.251	-1223
1014.323	-1012
1014.395	-66
1014.467	-580
1014.539	-762
1014.611	-1308
1014.683	-326
1014.754	-1989
1014.826	-1303
1014.898	-1345
1014.970	-1581
1015.042	-246
1015.113	-1572
1015.185	-1271
1015.257	-2665
1015.328	-1035
1015.400	-1793
1015.471	-905
1015.543	-1287
1015.615	-842
1015.686	-1536
1015.757	-908
1015.829	-988
1015.901	-661
1015.972	-564
1016.043	-1321
1016.115	-657
1016.186	-1184
1016.257	-1173
1016.328	-653
1016.400	-158
1016.471	-1919
1016.542	-965
1016.613	-1555
1016.685	-1374
1016.756	-890
1016.827	-1262
1016.898	-2029
1016.969	-409
1017.040	-1908
1017.111	-1677
1017.182	-1221
1017.253	-1644
1017.324	-1657
1017.395	-1317
1017.466	-1123
1017.537	-2377
1017.608	-1367
1017.678	-1617
1017.749	-1560
1017.820	-897
1017.891	-2264
1017.961	-1641
1018.032	-1564
1018.103	-823
1018.173	-813
1018.244	-1842
1018.315	-1605
1018.385	-670
1018.456	-1953
1018.526	-1668
1018.597	-1880
1018.667	-639
1018.738	-1326
1018.808	-1573
1018.878	-1998
1018.949	-1707
1019.019	-1779
1019.089	-1463
1019.160	-1576
1019.230	-2247
1019.300	-1517
1019.371	-2517
1019.441	-2139
1019.511	-1514
1019.581	-1531
1019.651	-1718
1019.721	-1614
1019.791	-1701
1019.861	-1386
1019.931	-1862
1020.001	-1815
1020.071	-1698
1020.141	-1824
1020.211	-1399
1020.281	-1762
1020.351	-1900
1020.421	-2171
1020.491	-390
1020.560	-1938
1020.630	-1496
1020.700	-1211
1020.770	-2621
1020.839	-1586
1020.909	-1916
1020.979	-2938
1021.048	-1720
1021.118	-1474
1021.187	-2406
1021.257	-1848
1021.326	-821
1021.396	-882
1021.465	-1771
1021.535	-2378
1021.604	-2397
1021.674	-2352
1021.743	-1331
1021.812	-1380
1021.882	-1739
1021.951	-1714
1022.020	-991
1022.089	-894
1022.159	-1672
1022.228	-1225
1022.297	-2312
1022.366	-902
1022.435	-2322
1022.504	-1479
1022.573	-1959
1022.642	-1202
1022.711	-2295
1022.781	-2028
1022.849	-1836
1022.918	-2368
1022.987	-1038
1023.056	-2193
1023.125	-1542
1023.194	-991
1023.263	-1926
1023.331	-1641
1023.400	-2470
1023.469	-2035
1023.538	-1916
1023.606	-2181
1023.675	-1917
1023.744	-1864
1023.812	-2725
1023.881	-1848
1023.949	-1784
1024.018	-1479
1024.086	-2366
1024.155	-2672
1024.223	-2175
1024.292	-2083
1024.360	-1959
1024.429	-2437
1024.497	-1907
1024.565	-2515
1024.634	-1919
1024.702	-1975
1024.770	-2182
1024.838	-1771
1024.907	-1668
1024.975	-2701
1025.043	-1402
1025.111	-2829
1025.179	-2069
1025.247	-2280
1025.315	-1953
1025.383	-2299
1025.451	-1577
1025.519	-1806
1025.587	-1659
1025.655	-2102
1025.723	-2589
1025.791	-1875
1025.859	-2426
1025.927	-2028
1025.995	-2087
1026.062	-1372
1026.130	-1551
1026.198	-2048
1026.266	-2556
1026.333	-1722
1026.401	-1760
1026.469	-2173
1026.536	-1716
1026.604	-1797
1026.671	-2219
1026.739	-1726
1026.806	-1049
1026.874	-2114
1026.941	-2220
1027.009	-1993
1027.076	-1993
1027.144	-1491
1027.211	-2504
1027.278	-2144
1027.345	-1905
1027.413	-1929
1027.480	-1595
1027.547	-2558
1027.614	-1650
1027.682	-1477
1027.749	-1875
1027.816	-1545
1027.883	-2199
1027.950	-2033
1028.017	-1683
1028.084	-1501
1028.151	-2089
1028.218	-1348
1028.285	-2013
1028.352	-1613
1028.419	-1959
1028.486	-2240
1028.553	-1390
1028.619	-1513
1028.686	-1514
1028.753	-2293
1028.820	-1405
1028.886	-2773
1028.953	-1842
1029.020	-1909
1029.086	-1976
1029.153	-2360
1029.220	-1932
1029.286	-1981
1029.353	-1461
1029.419	-1982
1029.486	-1345
1029.552	-2352
1029.619	-2415
1029.685	-2921
1029.751	-1903
1029.818	-1636
1029.884	-3060
1029.951	-825
1030.017	-2744
1030.083	-2088
1030.149	-2185
1030.216	-1799
1030.282	-2113
1030.348	-2289
1030.414	-1610
1030.480	-1920
1030.546	-1936
1030.612	-1992
1030.678	-2658
1030.744	-2023
1030.810	-1612
1030.876	-2184
1030.942	-2335
1031.008	-2273
1031.074	-2284
1031.140	-2782
1031.206	-1664
1031.272	-2343
1031.337	-2062
1031.403	-2202
1031.469	-1789
1031.534	-2536
1031.600	-2485
1031.666	-2849
1031.731	-2584
1031.797	-2138
1031.863	-1776
1031.928	-2115
1031.994	-2272
1032.059	-2232
1032.125	-2135
1032.190	-2945
1032.256	-2281
1032.321	-1848
1032.386	-1111
1032.452	-1563
1032.517	-1943
1032.582	-2089
1032.647	-2058
1032.713	-2129
1032.778	-1535
1032.843	-2226
1032.908	-1971
1032.974	-1890
1033.039	-2564
1033.104	-824
1033.169	-2799
1033.234	-1729
1033.299	-936
1033.364	-1489
1033.429	-2841
1033.494	-2230
1033.559	-2095
1033.624	-1369
1033.688	-1334
1033.753	-1221
1033.818	-1071
1033.883	-364
1033.948	768
1034.013	1072
1034.077	1280
1034.142	3724
1034.207	4829
1034.271	8264
1034.336	10055
1034.400	7111
1034.465	3661
1034.530	927
1034.594	-594
1034.658	-961
1034.723	-2123
1034.787	-954
1034.852	-1253
1034.916	-1614
1034.981	-1709
1035.045	-2026
1035.109	-1841
1035.173	-1860
1035.238	-2333
1035.302	-1874
1035.366	-2602
1035.430	-2347
1035.495	-1479
1035.559	-2106
1035.623	-1934
1035.687	-1780
1035.751	-1832
1035.815	-2984
1035.879	-1984
1035.943	-1508
1036.007	-1518
1036.071	-1590
1036.135	-3187
1036.198	-2058
1036.262	-2321
1036.326	-955
1036.390	-1832
1036.454	-2021
1036.517	-2280
1036.581	-2477
1036.645	-2458
1036.709	-1909
1036.772	-2923
1036.836	-1908
1036.900	-2650
1036.963	-2536
1037.026	-2846
1037.090	-2473
1037.154	-1843
1037.217	-1902
1037.280	-2409
1037.344	-2484
1037.407	-2717
1037.471	-1230
1037.534	-2132
1037.597	-1926
1037.661	-1636
1037.724	-1516
1037.787	-2053
1037.850	-1802
1037.913	-2178
1037.977	-1325
1038.040	-2366
1038.103	-1699
1038.166	-1697
1038.229	-1984
1038.292	-2450
1038.355	-2459
1038.418	-2087
1038.481	-2393
1038.544	-1850
1038.607	-2114
1038.670	-2527
1038.732	-2315
1038.795	-2436
1038.858	-2193
1038.921	-2051
1038.984	-2099
1039.046	-2777
1039.109	-2192
1039.172	-1662
1039.234	-2590
1039.297	-2415
1039.360	-2658
1039.422	-2309
1039.485	-2161
1039.547	-2987
1039.610	-1758
1039.672	-1942
1039.734	-1814
1039.797	-1860
1039.859	-2449
1039.922	-2136
1039.984	-2063
1040.046	-3181
1040.109	-1555
1040.171	-1779
1040.233	-2400
1040.295	-2413
1040.358	-2451
1040.420	-2399
1040.482	-2685
1040.544	-2632
1040.606	-2751
1040.668	-2742
1040.730	-2772
1040.792	-2594
1040.854	-2770
1040.916	-2988
1040.978	-2435
1041.040	-1998
1041.102	-1793
1041.164	-2387
1041.225	-2689
1041.287	-2095
1041.349	-2657
1041.411	-2877
1041.472	-2751
1041.534	-2117
1041.596	-2833
1041.657	-2585
1041.719	-2194
1041.781	-2014
1041.842	-2782
1041.904	-2084
1041.965	-2490
1042.027	-2120
1042.088	-2684
1042.150	-2204
1042.211	-2458
1042.272	-2007
1042.334	-1977
1042.395	-2683
1042.456	-1967
1042.518	-1353
1042.579	-2491
1042.640	-2667
1042.701	-2844
1042.763	-2759
1042.824	-2598
1042.885	-1623
1042.946	-2668
1043.007	-2135
1043.068	-2793
1043.129	-2636
1043.190	-2389
1043.251	-1893
1043.312	-1316
1043.373	-2647
1043.434	-2612
1043.495	-1961
1043.556	-1268
1043.616	-3114
1043.677	-2899
1043.738	-2110
1043.799	-1786
1043.859	-2255
1043.920	-2494
1043.981	-2771
1044.041	-2019
1044.102	-2347
1044.162	-2037
1044.223	-2446
1044.284	-1541
1044.344	-1576
1044.405	-2222
1044.465	-1939
1044.525	-2728
1044.586	-1501
1044.646	-1888
1044.707	-2657
1044.767	-2385
1044.827	-1686
1044.887	-2285
1044.948	-2283
1045.008	-2238
1045.068	-2565
1045.128	-1984
1045.188	-2313
1045.249	-2204
1045.309	-1936
1045.369	-2392
1045.429	-2506
1045.489	-1648
1045.549	-1988
1045.609	-2158
1045.669	-2614
1045.729	-2282
1045.789	-1919
1045.848	-1716
1045.908	-2200
1045.968	-1727
1046.028	-1068
1046.088	-2086
1046.147	-873
1046.207	-2444
1046.267	-2721
1046.326	-1564
1046.386	-2191
1046.446	-1167
1046.505	-960
1046.565	-2131
1046.624	-1157
1046.684	-247
1046.743	-1211
1046.803	-1276
1046.862	-401
1046.922	0
