'Start Wavelength	183.907
'End Wavelength	1046.922
'Gate Delay	5.000
'Gate Width (ms)	1.050
'Laser Output Level	0.000
'X Position	0.000
'Y Position	0.000
'Z Position	0.000
'Grid Point Number	1.000
'Shot Number	100.000
183.907	-299.000
183.977	-268.000
184.047	-122
184.116	-157
184.186	380
184.256	141
184.325	-102
184.395	-983
184.465	1373
184.534	335
184.604	-760
184.674	413
184.743	-1085
184.813	746
184.883	-172
184.952	-231
185.022	264
185.092	-136
185.161	-27
185.231	-12
185.301	19
185.370	340
185.440	23
185.509	-522
185.579	-262
185.649	-14
185.718	-135
185.788	259
185.857	-274
185.927	-249
185.996	-125
186.066	-89
186.136	20
186.205	-248
186.275	497
186.344	-346
186.414	-134
186.483	-456
186.553	763
186.622	504
186.692	-161
186.761	102
186.831	84
186.900	171
186.970	994
187.039	-131
187.109	59
187.178	-309
187.248	420
187.317	273
187.387	-615
187.456	54
187.526	393
187.595	451
187.664	-194
187.734	311
187.803	-367
187.873	484
187.942	657
188.012	133
188.081	-470
188.150	572
188.220	610
188.289	275
188.358	-317
188.428	370
188.497	63
188.567	305
188.636	-233
188.705	-359
188.775	-172
188.844	-548
188.913	369
188.983	-64
189.052	297
189.121	428
189.191	721
189.260	364
189.329	-267
189.399	-660
189.468	-125
189.537	430
189.606	739
189.676	585
189.745	1068
189.814	89
189.883	-168
189.953	68
190.022	593
190.091	-748
190.161	-256
190.230	878
190.299	-152
190.368	-141
190.437	39
190.507	-230
190.576	-678
190.645	-21
190.714	-376
190.783	387
190.853	-194
190.922	903
190.991	-248
191.060	-319
191.129	-1106
191.198	172
191.268	235
191.337	442
191.406	660
191.475	320
191.544	-393
191.613	40
191.682	-951
191.752	151
191.821	275
191.890	-349
191.959	-232
192.028	-354
192.097	736
192.166	-402
192.235	-205
192.304	165
192.373	-164
192.442	-319
192.511	98
192.580	-463
192.650	-260
192.719	496
192.788	481
192.857	-562
192.926	-577
192.995	-305
193.064	358
193.133	60
193.202	-470
193.271	454
193.340	200
193.409	488
193.478	584
193.547	469
193.615	-384
193.684	-150
193.753	-302
193.822	425
193.891	-465
193.960	250
194.029	-208
194.098	173
194.167	-180
194.236	530
194.305	249
194.374	-178
194.443	-50
194.512	-862
194.580	-299
194.649	-109
194.718	420
194.787	306
194.856	377
194.925	346
194.994	-53
195.062	1035
195.131	209
195.200	-250
195.269	576
195.338	715
195.407	-724
195.475	-484
195.544	230
195.613	-12
195.682	-321
195.751	54
195.819	-817
195.888	498
195.957	883
196.026	-1213
196.094	128
196.163	137
196.232	199
196.301	23
196.369	-199
196.438	-246
196.507	-320
196.576	-722
196.644	392
196.713	289
196.782	-388
196.850	422
196.919	747
196.988	-290
197.056	-790
197.125	382
197.194	-138
197.262	-192
197.331	-480
197.400	-539
197.468	-216
197.537	-546
197.606	149
197.674	-88
197.743	87
197.812	-679
197.880	141
197.949	207
198.017	210
198.086	-303
198.155	-213
198.223	-371
198.292	33
198.360	-254
198.429	77
198.497	78
198.566	-43
198.635	95
198.703	583
198.772	308
198.840	41
198.909	153
198.977	427
199.046	-170
199.114	387
199.183	-582
199.251	-162
199.320	66
199.388	8
199.457	-20
199.525	-194
199.594	-544
199.662	-155
199.731	1
199.799	387
199.867	-197
199.936	-473
200.004	329
200.073	158
200.141	-52
200.210	-62
200.278	-179
200.346	103
200.415	78
200.483	-330
200.552	657
200.620	-223
200.688	-63
200.757	9
200.825	-185
200.893	-181
200.962	-216
201.030	399
201.098	-84
201.167	116
201.235	319
201.303	-404
201.372	518
201.440	-149
201.508	6
201.577	738
201.645	-233
201.713	-68
201.781	-573
201.850	650
201.918	-80
201.986	-1212
202.055	-56
202.123	426
202.191	-145
202.259	-575
202.327	236
202.396	-19
202.464	375
202.532	-197
202.600	957
202.669	425
202.737	-778
202.805	-375
202.873	764
202.941	295
203.009	-534
203.078	-147
203.146	-322
203.214	177
203.282	-33
203.350	70
203.418	-462
203.487	-92
203.555	168
203.623	-795
203.691	-131
203.759	-298
203.827	-84
203.895	-481
203.963	-58
204.031	-138
204.099	-434
204.168	-115
204.236	-1
204.304	-29
204.372	-317
204.440	-252
204.508	-435
204.576	-652
204.644	195
204.712	-894
204.780	332
204.848	553
204.916	-225
204.984	18
205.052	-402
205.120	-174
205.188	-733
205.256	-187
205.324	271
205.392	-403
205.460	-188
205.528	-255
205.596	-433
205.664	-524
205.732	279
205.799	102
205.867	374
205.935	-192
206.003	632
206.071	-390
206.139	-979
206.207	204
206.275	-466
206.343	-153
206.411	-699
206.478	161
206.546	-335
206.614	-444
206.682	-363
206.750	-30
206.818	-45
206.885	359
206.953	-605
207.021	1311
207.089	382
207.157	-655
207.225	-400
207.292	-246
207.360	-456
207.428	-586
207.496	146
207.563	575
207.631	687
207.699	-343
207.767	-328
207.834	-365
207.902	-479
207.970	-382
208.038	-338
208.105	-324
208.173	12
208.241	-552
208.309	-105
208.376	-351
208.444	-497
208.512	-301
208.579	-197
208.647	57
208.715	705
208.782	-1059
208.850	-81
208.918	-1265
208.985	178
209.053	332
209.120	83
209.188	-206
209.256	-383
209.323	-1313
209.391	-232
209.459	2235
209.526	-103
209.594	212
209.661	218
209.729	475
209.796	127
209.864	518
209.932	-631
209.999	351
210.067	294
210.134	-585
210.202	-920
210.269	239
210.337	874
210.404	145
210.472	-415
210.539	-966
210.607	-940
210.674	-103
210.742	45
210.809	115
210.877	-126
210.944	567
211.012	-1198
211.079	1417
211.146	-137
211.214	355
211.281	381
211.349	671
211.416	268
211.484	-371
211.551	-638
211.618	-305
211.686	-227
211.753	-478
211.821	373
211.888	-112
211.955	450
212.023	51
212.090	465
212.157	9
212.225	293
212.292	-106
212.359	-241
212.427	459
212.494	129
212.561	-756
212.629	-864
212.696	-700
212.763	114
212.831	-513
212.898	321
212.965	-1125
213.032	-571
213.100	-402
213.167	-1186
213.234	-287
213.301	-260
213.369	-320
213.436	-680
213.503	-183
213.570	703
213.638	-556
213.705	-54
213.772	-510
213.839	-654
213.906	327
213.973	-97
214.041	-598
214.108	489
214.175	-1010
214.242	-746
214.309	-80
214.376	-403
214.444	-274
214.511	166
214.578	-640
214.645	455
214.712	117
214.779	-214
214.846	-553
214.913	707
214.980	6
215.048	597
215.115	203
215.182	415
215.249	-446
215.316	-240
215.383	714
215.450	-343
215.517	-317
215.584	42
215.651	-400
215.718	-624
215.785	-302
215.852	-987
215.919	191
215.986	-174
216.053	266
216.120	-537
216.187	-80
216.254	80
216.321	-1401
216.388	-906
216.455	245
216.522	-322
216.589	-751
216.656	95
216.722	-494
216.789	-31
216.856	-626
216.923	103
216.990	-426
217.057	-538
217.124	188
217.191	-1015
217.258	359
217.324	-531
217.391	42
217.458	-290
217.525	-734
217.592	284
217.659	-1093
217.725	744
217.792	-835
217.859	-12
217.926	-916
217.993	153
218.059	122
218.126	-148
218.193	-399
218.260	-524
218.327	-128
218.393	-535
218.460	-584
218.527	-966
218.594	0
218.660	23
218.727	696
218.794	-837
218.860	552
218.927	289
218.994	-682
219.061	-784
219.127	-274
219.194	-150
219.261	-506
219.327	-247
219.394	381
219.461	-1020
219.527	-167
219.594	-292
219.661	-227
219.727	-1096
219.794	559
219.860	-320
219.927	-317
219.994	-84
220.060	1486
220.127	1491
220.193	845
220.260	-323
220.326	222
220.393	-599
220.460	-1300
220.526	-400
220.593	-274
220.659	1196
220.726	-1101
220.792	699
220.859	-110
220.925	-518
220.992	611
221.058	235
221.125	160
221.191	-735
221.258	-1414
221.324	71
221.391	-514
221.457	-113
221.524	253
221.590	444
221.657	618
221.723	25
221.789	-132
221.856	1340
221.922	-892
221.989	532
222.055	98
222.121	-1458
222.188	1702
222.254	185
222.321	-319
222.387	-721
222.453	91
222.520	-1075
222.586	-659
222.652	228
222.719	-900
222.785	57
222.851	-368
222.918	-383
222.984	389
223.050	-558
223.116	-1406
223.183	610
223.249	-805
223.315	-1092
223.382	-208
223.448	-176
223.514	-1049
223.580	368
223.647	-207
223.713	-781
223.779	-372
223.845	-243
223.911	85
223.978	-1048
224.044	-107
224.110	-307
224.176	-62
224.242	-274
224.309	-1493
224.375	-683
224.441	239
224.507	-372
224.573	-2012
224.639	83
224.705	-194
224.772	-180
224.838	-1099
224.904	-155
224.970	-278
225.036	-354
225.102	-830
225.168	588
225.234	687
225.300	-404
225.366	-603
225.432	70
225.499	105
225.565	-220
225.631	-1037
225.697	-649
225.763	-615
225.829	-315
225.895	-306
225.961	-739
226.027	128
226.093	-658
226.159	249
226.225	522
226.291	59
226.357	1099
226.423	-461
226.489	-19
226.554	-414
226.620	-656
226.686	-948
226.752	-104
226.818	-310
226.884	1111
226.950	254
227.016	-911
227.082	186
227.148	-384
227.214	346
227.279	-872
227.345	-476
227.411	176
227.477	1216
227.543	2070
227.609	2619
227.674	2082
227.740	464
227.806	606
227.872	-126
227.938	402
228.003	246
228.069	193
228.135	-42
228.201	-280
228.267	-489
228.332	-129
228.398	-1339
228.464	-125
228.530	-1006
228.595	-114
228.661	-928
228.727	-494
228.792	1069
228.858	-296
228.924	-1431
228.990	1214
229.055	-980
229.121	-276
229.187	-617
229.252	-511
229.318	-277
229.384	316
229.449	211
229.515	-1833
229.581	-1479
229.646	888
229.712	-351
229.777	-885
229.843	-520
229.909	34
229.974	-766
230.040	-13
230.105	-36
230.171	-1426
230.236	1190
230.302	-318
230.368	-914
230.433	-1519
230.499	-321
230.564	-153
230.630	-234
230.695	-355
230.761	446
230.826	-1869
230.892	639
230.957	-428
231.023	-634
231.088	105
231.154	-349
231.219	112
231.284	-593
231.350	-63
231.415	-760
231.481	-49
231.546	-309
231.612	-56
231.677	-366
231.742	-1332
231.808	1131
231.873	-779
231.939	-1960
232.004	247
232.069	1006
232.135	-512
232.200	384
232.265	-413
232.331	-471
232.396	-540
232.461	-836
232.527	-760
232.592	-392
232.657	-164
232.723	-503
232.788	-370
232.853	13
232.918	494
232.984	-773
233.049	-132
233.114	-196
233.179	97
233.245	598
233.310	-213
233.375	-1081
233.440	332
233.506	-638
233.571	-450
233.636	-244
233.701	-211
233.766	-202
233.832	-824
233.897	-498
233.962	-1455
234.027	669
234.092	-232
234.157	-258
234.222	-706
234.288	334
234.353	483
234.418	586
234.483	689
234.548	199
234.613	-428
234.678	-17
234.743	-523
234.808	1059
234.873	-1340
234.938	-112
235.004	-361
235.069	-641
235.134	-1143
235.199	403
235.264	-670
235.329	-1338
235.394	437
235.459	1138
235.524	-254
235.589	380
235.654	-411
235.719	-1235
235.784	-157
235.849	-1011
235.913	-777
235.978	-447
236.043	180
236.108	-531
236.173	-622
236.238	804
236.303	-465
236.368	-472
236.433	20
236.498	-512
236.563	969
236.627	-725
236.692	1541
236.757	1784
236.822	-610
236.887	-1445
236.952	324
237.017	-970
237.081	721
237.146	-900
237.211	385
237.276	893
237.341	3696
237.405	347
237.470	363
237.535	-249
237.600	387
237.664	999
237.729	-850
237.794	-779
237.859	712
237.923	176
237.988	-403
238.053	434
238.118	-77
238.182	-972
238.247	883
238.312	-1413
238.376	86
238.441	-1735
238.506	126
238.570	-1211
238.635	417
238.700	-595
238.764	-156
238.829	21
238.893	-570
238.958	752
239.023	154
239.087	-91
239.152	-225
239.216	-301
239.281	237
239.346	-275
239.410	-458
239.475	-599
239.539	1121
239.604	-912
239.668	1057
239.733	19
239.797	4006
239.862	5789
239.926	5103
239.991	1678
240.055	904
240.120	-136
240.184	51
240.249	-1373
240.313	207
240.378	-109
240.442	449
240.507	-260
240.571	-275
240.635	-300
240.700	-564
240.764	-269
240.829	-301
240.893	-1371
240.957	-566
241.022	-411
241.086	682
241.151	-1489
241.215	-1114
241.279	-221
241.344	-1404
241.408	-583
241.472	-673
241.537	336
241.601	-7
241.665	-1408
241.730	-473
241.794	291
241.858	-1022
241.922	-278
241.987	-238
242.051	-678
242.115	-694
242.179	-145
242.244	-535
242.308	324
242.372	-199
242.436	-1125
242.501	201
242.565	-782
242.629	-955
242.693	480
242.757	-1447
242.822	-22
242.886	-34
242.950	201
243.014	-554
243.078	40
243.142	-131
243.206	13
243.271	100
243.335	-1256
243.399	527
243.463	483
243.527	1356
243.591	-558
243.655	-99
243.719	-805
243.783	-146
243.847	-795
243.911	117
243.975	-552
244.040	-1172
244.104	1442
244.168	135
244.232	-1234
244.296	-242
244.360	571
244.424	-1226
244.488	299
244.552	-586
244.615	-1158
244.679	-574
244.743	-54
244.807	-1064
244.871	-48
244.935	102
244.999	-798
245.063	786
245.127	498
245.191	-12
245.255	-877
245.319	-196
245.383	-1537
245.446	1039
245.510	-952
245.574	-35
245.638	367
245.702	-1844
245.766	807
245.829	30
245.893	-844
245.957	-311
246.021	149
246.085	-7
246.149	263
246.212	778
246.276	295
246.340	-1052
246.404	149
246.467	480
246.531	-2311
246.595	412
246.659	784
246.722	-1164
246.786	-226
246.850	-90
246.913	11
246.977	-1330
247.041	113
247.104	-332
247.168	-67
247.232	369
247.295	293
247.359	260
247.423	-930
247.486	99
247.550	435
247.614	-567
247.677	-633
247.741	97
247.804	-370
247.868	1257
247.932	96
247.995	1455
248.059	-821
248.122	-465
248.186	609
248.249	306
248.313	1618
248.376	2338
248.440	190
248.503	-1939
248.567	1126
248.630	-298
248.694	-170
248.757	317
248.821	2372
248.884	2222
248.948	-272
249.011	851
249.075	1447
249.138	2008
249.202	764
249.265	60
249.328	64
249.392	-403
249.455	1205
249.519	315
249.582	-721
249.645	979
249.709	-94
249.772	-249
249.835	-115
249.899	-171
249.962	-153
250.025	-472
250.089	-146
250.152	1161
250.215	-259
250.279	-914
250.342	42
250.405	-193
250.468	-690
250.532	-466
250.595	656
250.658	1239
250.721	6015
250.785	223
250.848	1486
250.911	43
250.974	575
251.038	-892
251.101	1642
251.164	130
251.227	521
251.290	-777
251.354	1113
251.417	3275
251.480	3826
251.543	2044
251.606	7204
251.669	5074
251.732	1216
251.795	1328
251.859	2001
251.922	3898
251.985	2562
252.048	789
252.111	40
252.174	-705
252.237	510
252.300	2176
252.363	973
252.426	7076
252.489	1678
252.552	389
252.615	-98
252.678	1063
252.741	1048
252.804	1114
252.867	6648
252.930	3167
252.993	1008
253.056	706
253.119	383
253.182	-306
253.245	-578
253.308	1070
253.371	-873
253.434	-208
253.497	589
253.559	1275
253.622	782
253.685	-438
253.748	17
253.811	-32
253.874	565
253.937	-762
254.000	255
254.062	-153
254.125	-400
254.188	836
254.251	-554
254.314	-661
254.376	435
254.439	600
254.502	-17
254.565	150
254.628	1805
254.690	-53
254.753	-268
254.816	130
254.878	666
254.941	276
255.004	9
255.067	-53
255.129	-547
255.192	-326
255.255	-1022
255.317	-535
255.380	336
255.443	-382
255.505	-247
255.568	-783
255.631	-1070
255.693	-611
255.756	-120
255.819	480
255.881	-689
255.944	-363
256.006	-146
256.069	-586
256.132	-765
256.194	-1067
256.257	-328
256.319	-130
256.382	210
256.444	1563
256.507	762
256.569	-265
256.632	-514
256.694	-578
256.757	709
256.819	2598
256.882	-519
256.944	-321
257.007	1017
257.069	-86
257.132	240
257.194	494
257.257	-1051
257.319	-1031
257.381	-1265
257.444	367
257.506	2947
257.569	3793
257.631	1111
257.693	-109
257.756	234
257.818	83
257.880	-257
257.943	-109
258.005	-646
258.067	-306
258.130	-131
258.192	-12
258.254	-1072
258.317	52
258.379	66
258.441	-231
258.503	648
258.566	-927
258.628	630
258.690	-1399
258.753	1006
258.815	398
258.877	-421
258.939	338
259.001	629
259.064	106
259.126	-566
259.188	0
259.250	121
259.312	-135
259.375	100
259.437	-371
259.499	91
259.561	-348
259.623	171
259.685	-1107
259.747	-319
259.809	905
259.872	559
259.934	1541
259.996	1070
260.058	633
260.120	-590
260.182	8
260.244	251
260.306	-196
260.368	622
260.430	-595
260.492	453
260.554	1157
260.616	-802
260.678	-87
260.740	253
260.802	76
260.864	473
260.926	-1376
260.988	-115
261.050	28
261.112	-148
261.174	680
261.236	677
261.298	-76
261.359	970
261.421	1066
261.483	292
261.545	1490
261.607	-775
261.669	478
261.731	863
261.793	1716
261.854	-976
261.916	-35
261.978	-438
262.040	116
262.102	599
262.164	-100
262.225	159
262.287	593
262.349	62
262.411	395
262.472	763
262.534	-821
262.596	184
262.658	100
262.719	-735
262.781	935
262.843	-89
262.904	1386
262.966	106
263.028	-510
263.090	870
263.151	1739
263.213	697
263.275	-336
263.336	301
263.398	874
263.459	223
263.521	742
263.583	726
263.644	154
263.706	-231
263.767	-250
263.829	501
263.891	569
263.952	64
264.014	-93
264.075	-305
264.137	-175
264.198	532
264.260	-623
264.321	-146
264.383	95
264.444	1101
264.506	-477
264.567	230
264.629	288
264.690	-1063
264.752	-145
264.813	322
264.875	161
264.936	81
264.998	-711
265.059	-52
265.120	292
265.182	-132
265.243	984
265.305	37
265.366	822
265.427	-305
265.489	1031
265.550	-594
265.611	-150
265.673	-382
265.734	-413
265.795	19
265.857	-367
265.918	-194
265.979	817
266.040	1069
266.102	2197
266.163	303
266.224	-682
266.286	951
266.347	-545
266.408	410
266.469	37
266.530	-498
266.592	-560
266.653	244
266.714	128
266.775	-672
266.836	-4
266.898	-141
266.959	83
267.020	-84
267.081	789
267.142	262
267.203	39
267.264	102
267.326	1312
267.387	333
267.448	-257
267.509	371
267.570	1041
267.631	-703
267.692	-530
267.753	69
267.814	-470
267.875	140
267.936	574
267.997	-478
268.058	-342
268.119	199
268.180	-150
268.241	-1392
268.302	571
268.363	-1253
268.424	518
268.485	-604
268.546	-591
268.607	-10
268.668	-286
268.729	-467
268.790	-295
268.851	-86
268.912	-336
268.972	-241
269.033	7
269.094	-465
269.155	323
269.216	449
269.277	-303
269.338	227
269.398	588
269.459	-480
269.520	126
269.581	-281
269.642	-172
269.702	112
269.763	-198
269.824	-108
269.885	-224
269.945	-113
270.006	-510
270.067	-1177
270.128	-225
270.188	-899
270.249	-977
270.310	-885
270.370	221
270.431	192
270.492	-616
270.553	305
270.613	470
270.674	521
270.734	-961
270.795	-492
270.856	-347
270.916	-678
270.977	78
271.038	-111
271.098	-409
271.159	-397
271.219	-618
271.280	-48
271.340	-258
271.401	-330
271.462	468
271.522	244
271.583	194
271.643	-969
271.704	306
271.764	-194
271.825	379
271.885	1703
271.946	3192
272.006	374
272.066	860
272.127	2719
272.187	4448
272.248	1674
272.308	304
272.369	1721
272.429	1153
272.489	398
272.550	965
272.610	932
272.671	-19
272.731	597
272.791	56
272.852	103
272.912	1244
272.972	420
273.033	540
273.093	779
273.153	614
273.214	330
273.274	76
273.334	1530
273.394	2859
273.455	1562
273.515	1864
273.575	2151
273.635	2103
273.696	3222
273.756	3799
273.816	2739
273.876	2102
273.936	1762
273.997	2413
274.057	1025
274.117	280
274.177	783
274.237	1777
274.297	2215
274.358	485
274.418	1286
274.478	1054
274.538	-93
274.598	-217
274.658	975
274.718	531
274.778	1041
274.838	-252
274.898	131
274.958	1395
275.018	1229
275.078	1622
275.138	713
275.198	164
275.258	16
275.318	-284
275.378	236
275.438	476
275.498	387
275.558	688
275.618	1698
275.678	390
275.738	1388
275.798	403
275.858	211
275.918	-1095
275.978	-478
276.038	458
276.098	-909
276.157	239
276.217	1171
276.277	584
276.337	-250
276.397	363
276.457	425
276.517	777
276.576	509
276.636	-15
276.696	693
276.756	52
276.815	604
276.875	680
276.935	747
276.995	1405
277.055	919
277.114	1127
277.174	340
277.234	1135
277.293	696
277.353	587
277.413	81
277.472	709
277.532	892
277.592	2337
277.651	6464
277.711	14782
277.771	5744
277.830	13025
277.890	13461
277.950	8600
278.009	25371
278.069	12591
278.128	10560
278.188	17291
278.248	7340
278.307	15909
278.367	11858
278.426	3728
278.486	1928
278.545	1788
278.605	2000
278.664	1527
278.724	1111
278.783	3431
278.843	3958
278.902	2466
278.962	1244
279.021	3380
279.081	6490
279.140	6033
279.199	2968
279.259	3584
279.318	5609
279.378	7424
279.437	10591
279.496	27078
279.556	134472
279.615	103351
279.675	26820
279.734	13270
279.793	14892
279.853	15688
279.912	8395
279.971	6169
280.031	4816
280.090	7631
280.149	10828
280.208	16871
280.268	88688
280.327	88614
280.386	20825
280.445	9181
280.505	6433
280.564	4378
280.623	4531
280.682	4244
280.742	3968
280.801	2839
280.860	2173
280.919	1520
280.978	1571
281.037	1142
281.097	1220
281.156	3520
281.215	856
281.274	1321
281.333	2929
281.392	2016
281.451	1114
281.510	1527
281.569	1052
281.628	466
281.688	1771
281.747	1867
281.806	1038
281.865	1875
281.924	301
281.983	1267
282.042	945
282.101	878
282.160	1466
282.219	672
282.278	467
282.337	1381
282.396	997
282.454	2153
282.513	509
282.572	1029
282.631	826
282.690	694
282.749	1170
282.808	1184
282.867	1069
282.926	680
282.985	1583
283.043	1309
283.102	617
283.161	2154
283.220	1471
283.279	2809
283.338	1795
283.396	1455
283.455	1270
283.514	2067
283.573	2030
283.631	2407
283.690	2314
283.749	2040
283.808	2451
283.866	2288
283.925	2308
283.984	2567
284.043	2624
284.101	3052
284.160	3034
284.219	4448
284.277	4648
284.336	4546
284.395	6016
284.453	5765
284.512	5895
284.570	6706
284.629	8312
284.688	10606
284.746	12268
284.805	15488
284.863	18932
284.922	23173
284.981	27022
285.039	34034
285.098	37561
285.156	41418
285.215	50953
285.273	43514
285.332	39431
285.390	40756
285.449	35128
285.507	30616
285.566	22729
285.624	18690
285.683	15981
285.741	13365
285.799	11186
285.858	9270
285.916	8640
285.975	7209
286.033	6385
286.091	4730
286.150	4393
286.208	4149
286.267	3541
286.325	3728
286.383	3611
286.442	3384
286.500	2846
286.558	1703
286.616	2172
286.675	2263
286.733	2567
286.791	2057
286.850	2326
286.908	2046
286.966	2210
287.024	2166
287.083	1691
287.141	1107
287.199	1302
287.257	2589
287.315	1650
287.374	906
287.432	1283
287.490	1090
287.548	370
287.606	1675
287.664	1951
287.723	1425
287.781	1643
287.839	750
287.897	731
287.955	467
288.013	1659
288.071	1155
288.129	5176
288.187	19939
288.245	8798
288.303	3258
288.361	1250
288.419	1545
288.477	1117
288.535	2084
288.593	1578
288.651	-30
288.709	763
288.767	932
288.825	493
288.883	1196
288.941	590
288.999	249
289.057	705
289.115	395
289.173	427
289.231	706
289.289	354
289.346	486
289.404	668
289.462	-40
289.520	822
289.578	-262
289.636	-188
289.694	497
289.751	396
289.809	-52
289.867	206
289.925	851
289.983	438
290.040	-518
290.098	348
290.156	505
290.214	161
290.271	-536
290.329	1102
290.387	215
290.444	-209
290.502	313
290.560	84
290.617	683
290.675	107
290.733	-252
290.790	493
290.848	860
290.906	-57
290.963	885
291.021	821
291.078	-224
291.136	36
291.194	323
291.251	253
291.309	-100
291.366	242
291.424	681
291.481	336
291.539	892
291.596	1994
291.654	372
291.711	542
291.769	241
291.826	942
291.884	988
291.941	-371
291.999	-394
292.056	741
292.114	203
292.171	44
292.228	1018
292.286	434
292.343	227
292.401	152
292.458	146
292.515	732
292.573	492
292.630	792
292.687	496
292.745	281
292.802	108
292.859	1168
292.917	1592
292.974	1049
293.031	831
293.089	507
293.146	424
293.203	645
293.260	362
293.318	-192
293.375	484
293.432	391
293.489	685
293.546	982
293.604	353
293.661	2399
293.718	5546
293.775	2456
293.832	2858
293.889	3797
293.947	3324
294.004	1188
294.061	872
294.118	703
294.175	2295
294.232	5380
294.289	2985
294.346	760
294.403	1279
294.460	793
294.517	-537
294.574	149
294.631	925
294.688	-384
294.745	23
294.802	2637
294.859	2714
294.916	387
294.973	248
295.030	-96
295.087	223
295.144	42
295.201	440
295.258	-143
295.315	419
295.372	252
295.429	2505
295.486	457
295.542	830
295.599	370
295.656	369
295.713	-165
295.770	2001
295.827	915
295.883	58
295.940	-274
295.997	100
296.054	-599
296.111	-452
296.167	403
296.224	-103
296.281	-1189
296.338	88
296.394	-527
296.451	164
296.508	525
296.564	927
296.621	971
296.678	1810
296.734	3487
296.791	486
296.848	594
296.904	658
296.961	646
297.018	2161
297.074	621
297.131	193
297.187	-144
297.244	287
297.301	1224
297.357	4516
297.414	2116
297.470	204
297.527	344
297.583	303
297.640	339
297.696	-199
297.753	548
297.809	-142
297.866	-282
297.922	-335
297.979	-349
298.035	-109
298.092	5
298.148	517
298.204	1377
298.261	567
298.317	796
298.374	3337
298.430	1238
298.486	354
298.543	-260
298.599	484
298.656	-392
298.712	436
298.768	763
298.824	-209
298.881	252
298.937	45
298.993	904
299.050	-485
299.106	452
299.162	525
299.218	160
299.275	-269
299.331	625
299.387	1900
299.443	3279
299.500	9990
299.556	8754
299.612	3080
299.668	1814
299.724	7316
299.780	10868
299.837	3798
299.893	1327
299.949	6626
300.005	10620
300.061	7791
300.117	13421
300.173	6760
300.229	1550
300.285	1161
300.341	1642
300.397	1479
300.453	740
300.510	997
300.566	595
300.622	3360
300.678	12035
300.734	18283
300.790	8193
300.845	5561
300.901	6573
300.957	11510
301.013	5533
301.069	1998
301.125	1332
301.181	1026
301.237	677
301.293	320
301.349	170
301.405	428
301.461	396
301.516	274
301.572	127
301.628	403
301.684	-440
301.740	45
301.796	451
301.851	122
301.907	713
301.963	772
302.019	1702
302.074	8344
302.130	9189
302.186	3641
302.242	1729
302.297	1173
302.353	-93
302.409	1479
302.464	1646
302.520	160
302.576	1399
302.631	2981
302.687	1301
302.743	378
302.798	-440
302.854	-277
302.910	461
302.965	-600
303.021	383
303.076	284
303.132	-35
303.187	489
303.243	411
303.299	-355
303.354	150
303.410	297
303.465	-1146
303.521	-324
303.576	-163
303.632	442
303.687	-184
303.743	1967
303.798	2351
303.853	461
303.909	-76
303.964	-813
304.020	260
304.075	292
304.130	-18
304.186	458
304.241	1161
304.297	651
304.352	-202
304.358	-211
304.407	-288
304.449	-92
304.463	-25
304.518	-450
304.539	-307
304.573	-94
304.629	907
304.630	890
304.684	145
304.720	1332
304.739	1932
304.794	2914
304.811	2393
304.850	1149
304.902	247
304.905	189
304.960	155
304.992	-327
305.015	-692
305.071	-9
305.083	-59
305.126	-241
305.173	70
305.181	133
305.236	-39
305.264	190
305.292	357
305.347	-296
305.354	-282
305.402	-53
305.445	-209
305.457	-283
305.512	87
305.535	-73
305.567	-299
305.622	-451
305.626	-407
305.678	432
305.716	628
305.733	701
305.788	1443
305.807	1182
305.843	768
305.897	2000
305.898	2013
305.953	2510
305.988	1854
306.008	1584
306.063	662
306.078	588
306.118	348
306.168	-67
306.173	-97
306.228	192
306.259	91
306.283	-15
306.338	-145
306.349	-105
306.393	122
306.440	415
306.448	466
306.503	287
306.530	283
306.558	308
306.613	266
306.620	333
306.668	827
306.711	1200
306.723	1238
306.778	1933
306.801	1576
306.833	1151
306.888	624
306.892	585
306.943	306
306.982	423
306.997	406
307.052	427
307.072	309
307.107	142
307.162	10
307.163	13
307.217	787
307.253	731
307.272	605
307.327	423
307.343	489
307.381	900
307.434	712
307.436	703
307.491	800
307.524	1206
307.546	1414
307.600	1731
307.614	1696
307.655	1318
307.704	712
307.710	712
307.765	643
307.795	884
307.819	879
307.874	949
307.885	902
307.929	1316
307.975	2354
307.984	2487
308.038	2001
308.065	2497
308.093	4402
308.148	8576
308.156	9649
308.202	14758
308.246	19446
308.257	19361
308.312	9251
308.336	5957
308.366	4195
308.421	2887
308.426	2767
308.475	2383
308.517	2430
308.530	2330
308.585	2256
308.607	2078
308.639	2093
308.694	2259
308.697	2275
308.748	2872
308.787	3377
308.803	3428
308.857	2886
308.877	3112
308.912	4073
308.967	5291
308.967	5312
309.021	8804
309.058	11504
309.076	12904
309.130	19407
309.148	20669
309.185	28293
309.238	41754
309.239	41924
309.293	52716
309.328	54192
309.348	49693
309.402	30365
309.418	25094
309.457	19261
309.508	14470
309.511	14534
309.566	17981
309.598	21264
309.620	27041
309.674	44012
309.688	48888
309.729	48373
309.778	39408
309.783	38315
309.837	23933
309.868	16516
309.892	13843
309.946	9604
309.959	8888
310.001	8117
310.049	7347
310.055	7108
310.109	5077
310.139	4084
310.163	3688
310.218	2743
310.229	2617
310.272	2832
310.319	3053
310.326	2969
310.381	2280
310.409	1981
310.435	1966
310.489	1708
310.499	1707
310.543	1626
310.589	1618
310.598	1682
310.652	1907
310.679	2034
310.706	2128
310.760	2158
310.769	2204
310.814	2119
310.859	1747
310.868	1725
310.923	1704
310.948	1732
310.977	1963
311.031	2259
311.038	2317
311.085	1990
311.128	1433
311.139	1382
311.193	1282
311.218	1262
311.247	1555
311.301	1999
311.308	2044
311.356	1407
311.398	835
311.410	919
311.464	1362
311.488	1532
311.518	1619
311.572	1807
311.578	1826
311.626	1728
311.668	1587
311.680	1621
311.734	1742
311.758	1792
311.788	1873
311.842	2058
311.847	2070
311.896	2204
311.937	2300
311.950	2205
312.004	1769
312.027	1575
312.058	1633
312.112	1735
312.117	1743
312.165	1619
312.207	1510
312.297	1753
312.386	1769
312.476	2076
312.566	1952
312.656	1474
312.745	1596
312.835	2412
312.925	1624
313.015	1350
313.104	1689
313.194	2614
313.284	1465
313.374	1971
313.463	3078
313.553	2548
313.643	2143
313.732	3058
313.822	2868
313.912	2904
314.001	3064
314.091	4008
314.180	2982
314.270	3229
314.360	2294
314.449	2432
314.539	2353
314.628	3315
314.718	2482
314.808	3438
314.897	3472
314.987	4388
315.076	4895
315.166	4150
315.255	4367
315.345	3546
315.434	3072
315.524	3997
315.613	4078
315.703	5226
315.792	11114
315.881	32743
315.971	9268
316.060	5176
316.150	4586
316.239	3321
316.328	2886
316.418	3192
316.507	3214
316.597	4543
316.686	4338
316.775	3981
316.865	3451
316.954	3222
317.043	2773
317.133	2956
317.222	2395
317.311	2475
317.400	1830
317.490	4156
317.579	3192
317.668	3226
317.757	5485
317.847	17109
317.936	48368
318.025	14832
318.114	11923
318.203	6293
318.293	3528
318.382	5208
318.471	5725
318.560	5279
318.649	4570
318.738	2791
318.828	2344
318.917	2184
319.006	2452
319.095	2719
319.184	3189
319.273	3164
319.362	2356
319.451	2339
319.540	1827
319.629	2124
319.718	2595
319.807	2535
319.896	1918
319.985	3727
320.074	2186
320.163	1557
320.252	2752
320.341	2857
320.430	2598
320.519	3487
320.608	2508
320.697	4054
320.786	4083
320.875	5182
320.964	5443
321.053	5657
321.142	5895
321.230	7878
321.319	8117
321.408	9384
321.497	8855
321.586	7274
321.675	4912
321.764	5214
321.852	5366
321.941	5578
322.030	5037
322.119	6489
322.207	7761
322.296	8869
322.385	9967
322.474	12193
322.562	12947
322.651	9544
322.740	6932
322.829	6348
322.917	4603
323.006	4776
323.095	4369
323.183	4275
323.272	3332
323.361	3231
323.449	4243
323.538	2941
323.626	2652
323.715	3203
323.804	2896
323.892	2528
323.981	2375
324.069	2793
324.158	2661
324.246	2632
324.335	2562
324.424	2536
324.512	2850
324.601	2543
324.689	2627
324.778	2637
324.866	2409
324.954	2816
325.043	2439
325.131	1740
325.220	2886
325.308	1904
325.397	1842
325.485	1983
325.574	2089
325.662	2630
325.750	1677
325.839	2190
325.927	1726
326.015	2737
326.104	1685
326.192	1543
326.280	1753
326.369	2021
326.457	2160
326.545	2665
326.634	1455
326.722	1389
326.810	2324
326.898	3223
326.987	2922
327.075	1581
327.163	3086
327.251	2821
327.340	2270
327.428	4567
327.516	4687
327.604	3508
327.692	2430
327.781	2303
327.869	1688
327.957	2092
328.045	1503
328.133	1507
328.221	2080
328.309	2016
328.397	1463
328.485	3164
328.574	4676
328.662	6971
328.750	3687
328.838	2712
328.926	1669
329.014	2777
329.102	2447
329.190	1789
329.278	2359
329.366	2341
329.454	1732
329.542	718
329.630	1323
329.718	1848
329.806	2092
329.893	2238
329.981	1558
330.069	2745
330.157	1748
330.245	2987
330.333	3164
330.421	2428
330.509	1362
330.597	2346
330.684	1691
330.772	1716
330.860	2120
330.948	2410
331.036	1799
331.123	1604
331.211	2016
331.299	2688
331.387	2145
331.475	1747
331.562	1500
331.650	2194
331.738	1036
331.825	2585
331.913	1994
332.001	1969
332.089	1546
332.176	1977
332.264	2293
332.352	1778
332.439	2167
332.527	2478
332.614	923
332.702	2478
332.790	2216
332.877	2451
332.965	6539
333.052	6132
333.140	6880
333.228	17827
333.315	5075
333.403	2567
333.490	3546
333.578	7051
333.665	25671
333.753	10845
333.840	3096
333.928	3643
334.015	4139
334.103	4587
334.190	7530
334.278	8992
334.365	13948
334.452	14217
334.540	8341
334.627	7337
334.715	9842
334.802	13368
334.889	24155
334.977	35444
335.064	22279
335.151	10018
335.239	6831
335.326	6049
335.413	5885
335.501	6906
335.588	6156
335.675	6919
335.762	8013
335.850	11074
335.937	16800
336.024	27859
336.111	47411
336.199	44619
336.286	19053
336.373	9743
336.460	6413
336.547	5713
336.635	4641
336.722	4133
336.809	2924
336.896	4194
336.983	3449
337.070	4907
337.157	4557
337.245	3844
337.332	3659
337.419	3313
337.506	3239
337.593	2640
337.680	3189
337.767	3654
337.854	2069
337.941	2752
338.028	2423
338.115	1409
338.202	3168
338.289	2768
338.376	1766
338.463	1974
338.550	2130
338.637	3274
338.724	2367
338.811	2613
338.898	2284
338.984	2959
339.071	1971
339.158	1807
339.245	2546
339.332	2622
339.419	2259
339.506	2299
339.593	1244
339.679	2619
339.766	2003
339.853	2483
339.940	2101
340.027	2064
340.113	2354
340.200	2069
340.287	1679
340.374	1176
340.460	1224
340.547	832
340.634	3133
340.720	2915
340.807	2116
340.894	3350
340.980	1480
341.067	1969
341.154	2389
341.240	2089
341.327	2260
341.414	2437
341.500	1862
341.587	2448
341.674	3428
341.760	2993
341.847	1680
341.933	2915
342.020	1489
342.106	2378
342.193	2271
342.279	1888
342.366	2233
342.452	2437
342.539	2685
342.625	1861
342.712	3500
342.798	2591
342.885	2337
342.971	1917
343.058	2025
343.144	1659
343.230	2101
343.317	2210
343.403	1807
343.490	2122
343.576	1871
343.662	2299
343.749	1820
343.835	1851
343.921	2642
344.008	7742
344.094	14194
344.180	4797
344.267	2031
344.353	4492
344.439	3779
344.525	2392
344.612	3023
344.698	1658
344.784	1364
344.870	3173
344.957	1592
345.043	2364
345.129	2136
345.215	3861
345.301	1680
345.387	2681
345.474	2419
345.560	2268
345.646	1940
345.732	2316
345.818	2093
345.904	2242
345.990	2287
346.076	2385
346.162	2451
346.249	3006
346.335	1952
346.421	2757
346.507	2561
346.593	4821
346.679	1820
346.765	3806
346.851	5086
346.937	2712
347.023	3191
347.108	2895
347.194	2200
347.280	3065
347.366	3308
347.452	10268
347.538	11967
347.624	7475
347.710	3815
347.796	3548
347.882	2477
347.967	2788
348.053	2343
348.139	2123
348.225	2245
348.311	2002
348.397	2885
348.482	2791
348.568	2909
348.654	4305
348.740	13675
348.825	12068
348.911	6379
348.997	5949
349.083	6844
349.168	2386
349.254	2603
349.340	2956
349.425	2310
349.511	2623
349.597	2133
349.682	2193
349.768	4060
349.854	2823
349.939	2307
350.025	2746
350.110	2431
350.196	2791
350.282	1392
350.367	3520
350.453	2345
350.538	2316
350.624	1572
350.709	2657
350.795	2468
350.880	2436
350.966	3510
351.051	2863
351.137	2002
351.222	3284
351.308	2640
351.393	3472
351.479	2691
351.564	2055
351.649	3027
351.735	2646
351.820	2126
351.906	1850
351.991	1920
352.076	2666
352.162	3910
352.247	2629
352.332	2414
352.418	1744
352.503	2192
352.588	4578
352.673	2978
352.759	3282
352.844	1823
352.929	2389
353.014	1734
353.100	2900
353.185	2747
353.270	1932
353.355	3215
353.441	2529
353.526	2111
353.611	2995
353.696	2469
353.781	3173
353.866	1244
353.952	3702
354.037	1708
354.122	2873
354.207	3292
354.292	3220
354.377	1743
354.462	3168
354.547	2224
354.632	2694
354.717	2687
354.802	1925
354.887	2344
354.972	2847
355.057	1962
355.142	1996
355.227	2897
355.312	2626
355.397	2447
355.482	3096
355.567	1872
355.652	3206
355.737	2973
355.822	4915
355.907	3037
355.991	3765
356.076	1972
356.161	3026
356.246	2608
356.331	2564
356.416	2634
356.501	9111
356.585	6139
356.670	1773
356.755	4730
356.840	3294
356.924	6759
357.009	13774
357.094	6274
357.179	2220
357.263	2051
357.348	4073
357.433	2516
357.517	2699
357.602	2813
357.687	2851
357.771	2977
357.856	3010
357.941	3585
358.025	5781
358.110	18427
358.195	8720
358.279	3238
358.364	3253
358.448	4143
358.533	6169
358.617	4281
358.702	5095
358.787	3860
358.871	3330
358.956	2718
359.040	2351
359.125	2203
359.209	3293
359.294	2576
359.378	4946
359.462	4246
359.547	3131
359.631	2558
359.716	1879
359.800	2574
359.885	3390
359.969	1591
360.053	2541
360.138	2273
360.222	2882
360.306	2343
360.391	2553
360.475	2578
360.559	3716
360.644	3103
360.728	2249
360.812	6517
360.896	10729
360.981	4299
361.065	2293
361.149	3639
361.233	3431
361.318	2273
361.402	3083
361.486	4114
361.570	3267
361.654	3409
361.739	4768
361.823	7044
361.907	11691
361.991	5015
362.075	5115
362.159	7098
362.243	13946
362.327	34794
362.411	53791
362.495	18692
362.580	9065
362.664	8471
362.748	8522
362.832	14294
362.916	29846
363.000	87884
363.084	121082
363.168	47632
363.252	15088
363.336	9431
363.420	7408
363.503	6738
363.587	6174
363.671	5727
363.755	4782
363.839	6731
363.923	5611
364.007	8335
364.091	11085
364.175	17279
364.258	38691
364.342	95346
364.426	172073
364.510	88210
364.594	27934
364.677	13853
364.761	13351
364.845	9804
364.929	5938
365.013	4836
365.096	4462
365.180	3449
365.264	4370
365.347	6148
365.431	4153
365.515	2749
365.598	2008
365.682	4723
365.766	2478
365.849	3701
365.933	2930
366.017	5216
366.100	3028
366.184	2117
366.267	4868
366.351	3359
366.435	2642
366.518	2768
366.602	3011
366.685	3126
366.769	3477
366.852	3919
366.936	4350
367.019	3941
367.103	1796
367.186	4514
367.270	3234
367.353	2423
367.436	5804
367.520	3328
367.603	4029
367.687	3081
367.770	3517
367.853	4732
367.937	6217
368.020	5769
368.104	2532
368.187	4113
368.270	3811
368.353	2232
368.437	3050
368.520	3614
368.603	2859
368.687	2692
368.770	5434
368.853	3730
368.936	4209
369.020	3208
369.103	2587
369.186	2519
369.269	2740
369.352	3774
369.436	3178
369.519	3057
369.602	2133
369.685	4199
369.768	2052
369.851	3618
369.934	2880
370.018	3030
370.101	2404
370.184	4418
370.267	3665
370.350	3903
370.433	3919
370.516	8716
370.599	19980
370.682	7637
370.765	6255
370.848	5784
370.931	6883
371.014	5414
371.097	2738
371.180	5169
371.263	4811
371.346	2837
371.429	5053
371.511	4291
371.594	4383
371.677	6043
371.760	6833
371.843	6588
371.926	12484
372.009	19280
372.091	14095
372.174	8629
372.257	11347
372.340	8451
372.423	8253
372.505	8318
372.588	5283
372.671	6310
372.754	7246
372.836	6051
372.919	5600
373.002	7308
373.085	5979
373.167	6827
373.250	6508
373.332	7922
373.415	12450
373.498	19584
373.580	12766
373.663	30955
373.746	29865
373.828	6853
373.911	6555
373.993	4079
374.076	4871
374.159	4954
374.241	4790
374.324	5991
374.406	6782
374.489	8215
374.571	16966
374.654	7840
374.736	6572
374.819	11070
374.901	16284
374.983	14171
375.066	7180
375.148	5761
375.231	5159
375.313	7258
375.395	5924
375.478	5619
375.560	5613
375.643	4805
375.725	7206
375.807	12120
375.890	9678
375.972	3301
376.054	3991
376.136	4138
376.219	3782
376.301	5633
376.383	9049
376.465	5350
376.548	3583
376.630	4158
376.712	8368
376.794	4399
376.877	3392
376.959	2577
377.041	3330
377.123	3236
377.205	3259
377.287	2916
377.369	3763
377.452	2893
377.534	3625
377.616	3907
377.698	3053
377.780	2573
377.862	3519
377.944	4562
378.026	2627
378.108	3564
378.190	3421
378.272	4210
378.354	3096
378.436	2047
378.518	3142
378.600	2758
378.682	3602
378.764	4551
378.846	5253
378.928	2862
379.010	3550
379.091	4468
379.173	3775
379.255	2178
379.337	3471
379.419	2998
379.501	6066
379.583	2724
379.664	4012
379.746	1989
379.828	6162
379.910	4259
379.991	5721
380.073	2731
380.155	3450
380.237	2790
380.318	3698
380.400	3638
380.482	4575
380.564	3225
380.645	3537
380.727	4240
380.809	4701
380.890	3001
380.972	3235
381.053	3584
381.135	4731
381.217	2975
381.298	6326
381.380	4301
381.461	4632
381.543	9153
381.624	9774
381.706	4931
381.787	5708
381.869	5947
381.951	7727
382.032	15949
382.113	13791
382.195	4496
382.276	8271
382.358	7877
382.439	12411
382.521	15445
382.602	21182
382.684	16584
382.765	29075
382.846	74931
382.928	158300
383.009	88796
383.090	75334
383.172	193400
383.253	227417
383.334	80953
383.416	37595
383.497	29083
383.578	32661
383.659	63465
383.741	172998
383.822	296559
383.903	157358
383.984	50701
384.066	30470
384.147	19010
384.228	14359
384.309	12276
384.390	11277
384.471	9877
384.553	9782
384.634	8531
384.715	9058
384.796	7723
384.877	7917
384.958	9368
385.039	7775
385.120	6815
385.201	7185
385.282	6482
385.363	8850
385.444	9028
385.525	10039
385.606	11452
385.687	10583
385.768	7235
385.849	6647
385.930	12694
386.011	17044
386.092	7830
386.173	7609
386.254	6004
386.335	6870
386.416	6336
386.496	6853
386.577	7659
386.658	5934
386.739	5328
386.820	6188
386.901	5358
386.981	7145
387.062	7743
387.143	8397
387.224	10335
387.304	11885
387.385	11394
387.466	7801
387.547	11112
387.627	10283
387.708	11259
387.789	13727
387.869	11705
387.950	10083
388.031	6486
388.111	4612
388.192	7429
388.273	8341
388.353	7117
388.434	5734
388.514	5457
388.595	9869
388.676	9438
388.756	6297
388.837	5685
388.917	5431
388.998	3154
389.078	5020
389.159	5355
389.239	3386
389.320	5581
389.400	3341
389.480	4924
389.561	6169
389.641	5146
389.722	4498
389.802	3609
389.883	5225
389.963	7516
390.043	4577
390.124	3205
390.204	5165
390.284	4810
390.365	4160
390.445	5146
390.525	6124
390.605	6300
390.686	4167
390.766	5063
390.846	5867
390.927	4226
391.007	3394
391.087	4821
391.167	5140
391.247	2564
391.328	5030
391.408	5603
391.488	4880
391.568	3430
391.648	4561
391.728	6408
391.808	6450
391.888	6156
391.969	6661
392.049	7189
392.129	8097
392.209	7971
392.289	10546
392.369	9750
392.449	9591
392.529	9279
392.609	11963
392.689	13481
392.769	16537
392.849	18604
392.929	24380
393.009	33562
393.089	46459
393.169	89501
393.248	212392
393.328	431566
393.408	401708
393.488	185596
393.568	80606
393.648	43883
393.728	27741
393.807	19669
393.887	17487
393.967	13952
394.047	11161
394.127	8829
394.206	10230
394.286	14921
394.366	44269
394.446	42802
394.525	10734
394.605	7235
394.685	7985
394.764	8917
394.844	15321
394.924	18157
395.003	8738
395.083	5633
395.163	5883
395.242	5790
395.322	6018
395.402	3985
395.481	6725
395.561	7001
395.640	23916
395.720	43225
395.799	20590
395.879	8174
395.958	8016
396.038	17586
396.117	58968
396.197	55994
396.276	17965
396.356	12224
396.435	16003
396.515	21163
396.594	31176
396.673	68830
396.753	198469
396.832	380082
396.912	265004
396.991	89844
397.070	39897
397.150	22872
397.229	23417
397.308	39377
397.388	65855
397.467	29706
397.546	11519
397.625	6368
397.705	8989
397.784	7536
397.863	6252
397.942	5828
398.022	5593
398.101	4832
398.180	6341
398.259	5290
398.338	5650
398.417	3455
398.497	3480
398.576	4392
398.655	2664
398.734	4571
398.813	3205
398.892	3896
398.971	4751
399.050	3112
399.129	2603
399.208	3771
399.287	3632
399.366	2415
399.445	3539
399.524	3711
399.603	1848
399.682	3541
399.761	3415
399.840	4870
399.919	4295
399.998	3617
400.077	2674
400.156	1302
400.235	5458
400.313	1706
400.392	1293
400.471	3385
400.550	4689
400.629	1980
400.708	4112
400.786	947
400.865	2397
400.944	1458
401.023	5228
401.102	2364
401.180	2492
401.259	1979
401.338	2345
401.416	2462
401.495	1594
401.574	2872
401.652	2138
401.731	3584
401.810	2118
401.888	1695
401.967	2039
402.046	2524
402.124	2425
402.203	1061
402.281	3301
402.360	1959
402.438	2373
402.517	1004
402.596	2353
402.674	1680
402.753	2411
402.831	2411
402.910	3544
402.988	2397
403.066	5811
403.145	4754
403.223	4059
403.302	4157
403.380	5136
403.459	4442
403.537	3314
403.615	2461
403.694	1371
403.772	2674
403.850	2374
403.929	1592
404.007	1989
404.085	2968
404.164	2472
404.242	1977
404.320	4176
404.398	5951
404.477	4415
404.555	8860
404.633	7664
404.711	4698
404.789	3838
404.868	1474
404.946	1770
405.024	2290
405.102	1896
405.180	1503
405.258	867
405.336	2423
405.415	1493
405.493	1756
405.571	3097
405.649	1749
405.727	1923
405.805	2646
405.883	2908
405.961	2802
406.039	2154
406.117	751
406.195	2424
406.273	1808
406.351	6671
406.429	4211
406.507	1494
406.585	1490
406.663	2478
406.740	1162
406.818	834
406.896	1289
406.974	2517
407.052	965
407.130	4554
407.208	4397
407.285	2996
407.363	916
407.441	1791
407.519	1669
407.596	2387
407.674	2949
407.752	8998
407.830	6803
407.907	3290
407.985	604
408.063	1528
408.141	869
408.218	2680
408.296	1065
408.373	1527
408.451	1806
408.529	2900
408.606	2133
408.684	2953
408.762	2911
408.839	2953
408.917	2848
408.994	3841
409.072	3128
409.149	5698
409.227	9457
409.304	13443
409.382	13664
409.459	16639
409.537	21116
409.614	17561
409.692	12418
409.769	14039
409.846	22319
409.924	25960
410.001	15001
410.079	11134
410.156	8498
410.233	6769
410.311	4440
410.388	4231
410.465	4599
410.543	3562
410.620	4535
410.697	4358
410.775	4477
410.852	4116
410.929	5996
411.006	5033
411.083	4468
411.161	3424
411.238	3455
411.315	4243
411.392	2697
411.469	3877
411.547	2856
411.624	1870
411.701	2838
411.778	3101
411.855	2454
411.932	2324
412.009	2240
412.086	2097
412.163	1722
412.240	1890
412.317	2900
412.394	1999
412.471	2705
412.548	1963
412.625	1962
412.702	1904
412.779	2902
412.856	2690
412.933	1104
413.010	2571
413.087	1961
413.164	1340
413.241	2989
413.318	787
413.395	2341
413.471	1375
413.548	1938
413.625	2150
413.702	1155
413.779	1417
413.855	1764
413.932	1412
414.009	647
414.086	1537
414.162	2115
414.239	1795
414.316	2287
414.393	4023
414.469	1329
414.546	1170
414.623	1838
414.699	1529
414.776	609
414.853	1206
414.929	2214
415.006	2410
415.082	1589
415.159	946
415.236	1331
415.312	1079
415.389	698
415.465	1617
415.542	752
415.618	757
415.695	1260
415.771	845
415.848	1383
415.924	2598
416.000	876
416.077	1844
416.153	18
416.230	333
416.306	497
416.383	1562
416.459	1487
416.535	650
416.612	801
416.688	1653
416.764	1295
416.841	1540
416.917	1015
416.993	2046
417.069	922
417.146	982
417.222	1427
417.298	993
417.374	1093
417.451	1425
417.527	380
417.603	1052
417.679	1149
417.755	1449
417.831	170
417.908	1067
417.984	1097
418.060	392
418.136	1582
418.212	1663
418.288	757
418.364	1322
418.440	563
418.516	1923
418.592	1054
418.668	867
418.744	1388
418.820	1261
418.896	1111
418.972	531
419.048	1779
419.124	3226
419.200	487
419.276	1665
419.352	1116
419.428	2589
419.504	1174
419.579	1742
419.655	2222
419.731	1336
419.807	1627
419.883	1770
419.959	1531
420.034	2134
420.110	1536
420.186	2598
420.262	3418
420.337	2526
420.413	2497
420.489	2947
420.565	3830
420.640	2901
420.716	4548
420.792	2691
420.867	4156
420.943	3598
421.019	4144
421.094	4744
421.170	5675
421.245	4982
421.321	6205
421.397	5776
421.472	8965
421.548	11772
421.623	9809
421.699	10209
421.774	10916
421.850	11805
421.925	14924
422.001	17082
422.076	21277
422.152	27095
422.227	35606
422.302	49690
422.378	71715
422.453	111775
422.529	168577
422.604	185792
422.679	153983
422.755	173002
422.830	155733
422.905	110598
422.981	75379
423.056	53339
423.131	40911
423.207	30973
423.282	25077
423.357	20356
423.432	16826
423.508	15270
423.583	12105
423.658	11054
423.733	10770
423.808	9015
423.883	9098
423.959	10461
424.034	11648
424.109	11887
424.184	6787
424.259	5819
424.334	4688
424.409	5553
424.484	3271
424.559	3887
424.634	3301
424.709	2866
424.784	2769
424.859	2452
424.934	2078
425.009	3437
425.084	3481
425.159	2783
425.234	2519
425.309	2266
425.384	2984
425.459	1752
425.534	2558
425.609	1107
425.683	2001
425.758	2077
425.833	1526
425.908	2909
425.983	1399
426.058	3216
426.132	1338
426.207	1921
426.282	2412
426.357	1419
426.431	1842
426.506	2009
426.581	1604
426.655	1272
426.730	1795
426.805	1231
426.879	1676
426.954	1621
427.029	1581
427.103	2627
427.178	4140
427.253	2743
427.327	1733
427.402	989
427.476	1269
427.551	708
427.625	196
427.700	1532
427.774	365
427.849	1722
427.923	1286
427.998	1559
428.072	1473
428.147	5523
428.221	28453
428.296	78100
428.370	38358
428.444	6095
428.519	2484
428.593	1956
428.667	2334
428.742	3739
428.816	10531
428.890	52514
428.965	67118
429.039	15759
429.113	3574
429.188	1485
429.262	1299
429.336	1489
429.410	1261
429.485	1386
429.559	1866
429.633	2040
429.707	2865
429.781	10271
429.855	48258
429.930	59821
430.004	14921
430.078	9286
430.152	32718
430.226	106906
430.300	91855
430.374	20237
430.448	6459
430.522	4560
430.596	5191
430.670	16338
430.744	62026
430.818	58649
430.892	10548
430.966	2001
431.040	716
431.114	1059
431.188	659
431.262	1023
431.336	139
431.410	1505
431.484	708
431.557	1600
431.631	1046
431.705	4238
431.779	23393
431.853	76967
431.927	42999
432.000	6517
432.074	1909
432.148	991
432.222	752
432.295	185
432.369	438
432.443	-622
432.516	1694
432.590	4235
432.664	1407
432.737	-371
432.811	-488
432.885	149
432.958	96
433.032	-144
433.106	-573
433.179	-151
433.253	811
433.326	-426
433.400	43
433.473	449
433.547	-299
433.620	-866
433.694	-432
433.767	156
433.841	-527
433.914	226
433.988	9
434.061	90
434.134	-639
434.208	5
434.281	-1027
434.355	-265
434.428	-527
434.501	648
434.575	-255
434.648	-82
434.721	852
434.795	461
434.868	-637
434.941	1067
435.014	376
435.088	616
435.161	2257
435.234	2801
435.307	2711
435.381	3829
435.454	6265
435.527	11818
435.600	11047
435.673	8629
435.746	5277
435.819	3952
435.892	2161
435.966	1668
436.039	1120
436.112	1145
436.185	416
436.258	855
436.331	944
436.404	612
436.477	-155
436.550	579
436.623	579
436.696	667
436.769	450
436.842	181
436.915	215
436.987	460
437.060	190
437.133	393
437.206	-232
437.279	1276
437.352	-29
437.425	-489
437.498	150
437.570	147
437.643	-764
437.716	-236
437.789	-380
437.861	-151
437.934	87
438.007	-128
438.080	-492
438.152	285
438.225	-29
438.298	2510
438.370	6075
438.443	3256
438.516	906
438.588	-322
438.661	129
438.734	652
438.806	268
438.879	898
438.951	-52
439.024	299
439.096	100
439.169	-230
439.241	-17
439.314	-134
439.386	-1
439.459	319
439.531	229
439.604	-222
439.676	713
439.749	-188
439.821	-539
439.893	414
439.966	-138
440.038	-235
440.110	146
440.183	165
440.255	-677
440.327	1230
440.400	1024
440.472	2809
440.544	2072
440.617	491
440.689	1060
440.761	1126
440.833	432
440.905	354
440.978	-69
441.050	910
441.122	549
441.194	589
441.266	-86
441.338	599
441.411	833
441.483	817
441.555	762
441.627	1254
441.699	436
441.771	151
441.843	1150
441.915	842
441.987	133
442.059	1328
442.131	1296
442.203	2473
442.275	2005
442.347	4826
442.419	13543
442.491	64312
442.563	117037
442.635	41518
442.706	7977
442.778	4904
442.850	2338
442.922	2230
442.994	2204
443.066	2429
443.137	3111
443.209	4571
443.281	7999
443.353	20765
443.425	72588
443.496	182376
443.568	175422
443.640	68362
443.711	15352
443.783	6562
443.855	4321
443.926	2954
443.998	2214
444.070	2253
444.141	2587
444.213	1183
444.285	1361
444.356	1365
444.428	1566
444.499	1493
444.571	1502
444.642	2171
444.714	883
444.785	1697
444.857	1862
444.928	2340
445.000	3027
445.071	4655
445.143	4795
445.214	8260
445.285	13736
445.357	40000
445.428	129711
445.500	205282
445.571	161414
445.642	103466
445.714	33695
445.785	11101
445.856	4506
445.928	3460
445.999	2281
446.070	2172
446.141	1567
446.213	1629
446.284	20
446.355	1319
446.426	421
446.497	377
446.569	222
446.640	-321
446.711	719
446.782	695
446.853	159
446.924	355
446.995	445
447.066	416
447.138	-24
447.209	-65
447.280	-959
447.351	141
447.422	122
447.493	-253
447.564	-300
447.635	-808
447.706	189
447.777	-454
447.847	-494
447.918	-838
447.989	32
448.060	-209
448.131	-159
448.202	-558
448.273	4
448.344	287
448.414	-710
448.485	-294
448.556	-108
448.627	373
448.698	781
448.768	-932
448.839	-745
448.910	-889
448.981	-23
449.051	-454
449.122	-1243
449.193	-52
449.263	-838
449.334	-444
449.405	-684
449.475	-555
449.546	-34
449.616	109
449.687	737
449.758	74
449.828	-371
449.899	-544
449.969	-1328
450.040	-550
450.110	-191
450.181	-183
450.251	-419
450.322	-422
450.392	-248
450.463	-10
450.533	-827
450.604	-241
450.674	-734
450.744	365
450.815	-418
450.885	1335
450.955	242
451.026	839
451.096	-1362
451.166	-93
451.237	-216
451.307	1166
451.377	168
451.447	-411
451.518	-734
451.588	-399
451.658	-327
451.728	-491
451.799	365
451.869	571
451.939	-1025
452.009	-605
452.079	-311
452.149	473
452.219	-472
452.289	484
452.360	-275
452.430	167
452.500	133
452.570	2637
452.640	8475
452.710	22093
452.780	19765
452.850	8898
452.920	2471
452.990	713
453.060	776
453.129	-783
453.199	-372
453.269	351
453.339	110
453.409	-140
453.479	308
453.549	480
453.619	670
453.688	158
453.758	-1135
453.828	-847
453.898	-812
453.968	-71
454.037	165
454.087	362
454.107	437
454.168	-177
454.177	-278
454.247	-964
454.249	-944
454.316	-790
454.330	-696
454.386	-339
454.411	-556
454.456	-996
454.492	-677
454.525	-414
454.574	-319
454.595	-280
454.655	-593
454.665	-665
454.734	-221
454.736	-206
454.804	-346
454.817	-258
454.873	5
454.898	-206
454.943	-581
454.979	-581
455.013	-631
455.060	49
455.082	390
455.141	-525
455.152	-720
455.221	77
455.222	90
455.291	-124
455.303	-19
455.360	292
455.384	693
455.430	1394
455.465	722
455.499	-73
455.546	-380
455.569	-435
455.627	232
455.638	318
455.707	280
455.708	286
455.777	-774
455.789	-746
455.846	-803
455.869	-458
455.916	224
455.950	228
455.985	131
456.031	-177
456.054	-278
456.112	318
456.124	432
456.193	457
456.193	444
456.262	422
456.274	478
456.332	776
456.355	633
456.401	331
456.436	456
456.470	508
456.516	530
456.540	598
456.597	611
456.609	545
456.678	655
456.678	641
456.747	954
456.759	929
456.817	884
456.840	871
456.886	666
456.920	737
456.955	849
457.001	1170
457.024	1262
457.082	1291
457.093	1260
457.162	1332
457.163	1345
457.232	1085
457.243	1115
457.301	1397
457.324	1371
457.370	1136
457.405	1542
457.439	1970
457.485	1925
457.508	1994
457.566	2669
457.577	2969
457.646	5185
457.647	5246
457.715	15359
457.727	17576
457.784	32526
457.808	42812
457.853	52794
457.889	57671
457.922	53226
457.969	33103
457.991	34527
458.050	48406
458.060	51098
458.129	90682
458.130	91736
458.198	77201
458.211	67625
458.267	32404
458.292	20675
458.336	14721
458.372	14813
458.405	23802
458.453	39063
458.474	50536
458.533	92849
458.543	95297
458.611	135005
458.614	135403
458.680	68438
458.694	50881
458.749	20402
458.775	13646
458.818	8793
458.855	6686
458.887	5449
458.936	4682
458.955	4581
459.016	3225
459.024	3043
459.093	2967
459.097	2955
459.162	2528
459.177	2489
459.230	2445
459.257	2512
459.299	2773
459.338	2773
459.368	2504
459.418	2771
459.437	2927
459.499	2452
459.505	2381
459.574	1812
459.579	1849
459.643	2689
459.659	2635
459.711	1739
459.740	1608
459.780	1964
459.820	2165
459.849	1972
459.900	1921
459.917	2113
459.981	2004
459.986	1937
460.054	1969
460.061	1994
460.123	2382
460.141	2292
460.191	2028
460.222	2131
460.260	2505
460.302	2484
460.328	2175
460.382	2336
460.397	2465
460.462	2463
460.465	2518
460.534	4284
460.543	4487
460.602	10390
460.623	12937
460.671	19445
460.703	24763
460.739	21832
460.783	15728
460.808	12811
460.864	3516
460.876	2918
460.944	2887
460.945	2879
461.013	3092
461.024	3035
461.081	2273
461.104	2118
461.150	2108
461.184	2033
461.218	2353
461.264	2909
461.286	2746
461.345	1963
461.355	1939
461.423	2773
461.425	2757
461.491	1815
461.505	1864
461.559	2183
461.585	2273
461.628	2483
461.665	2473
461.696	2348
461.745	2490
461.764	2653
461.825	2717
461.832	2725
461.901	2843
461.905	2869
461.969	2239
461.985	2029
462.037	2568
462.065	2894
462.105	2385
462.145	2034
462.173	2649
462.225	3760
462.241	3663
462.305	2741
462.310	2734
462.378	2919
462.385	2948
462.446	2962
462.465	3007
462.514	3430
462.545	3556
462.582	3219
462.625	2943
462.650	2941
462.705	2895
462.718	2795
462.785	2296
462.786	2306
462.854	2650
462.865	2677
462.922	2475
462.945	2631
462.990	2711
463.025	2602
463.058	2986
463.104	3451
463.126	3152
463.184	2139
463.194	2187
463.262	2729
463.264	2748
463.330	3107
463.344	3159
463.398	3220
463.424	3190
463.466	2812
463.504	2584
463.533	2801
463.583	3162
463.601	3171
463.663	3007
463.669	2949
463.737	2415
463.743	2353
463.805	3426
463.823	3794
463.873	3982
463.903	3980
463.940	3640
463.982	3190
464.008	3082
464.062	2837
464.076	2848
464.142	3343
464.144	3347
464.211	2952
464.221	2891
464.279	3297
464.301	3416
464.347	3048
464.381	2913
464.414	2959
464.461	2848
464.482	2903
464.540	3072
464.550	3040
464.617	2552
464.620	2547
464.685	3110
464.699	3170
464.753	3396
464.779	3452
464.820	3473
464.859	3544
464.888	3391
464.938	3190
464.956	3426
465.018	4054
465.023	4058
465.091	4124
465.098	4131
465.158	3761
465.177	3584
465.226	3922
465.257	4158
465.293	4023
465.336	3837
465.361	3927
465.416	4128
465.428	4110
465.495	4088
465.496	4097
465.563	3805
465.575	3823
465.631	3980
465.654	3970
465.698	4160
465.734	4269
465.765	3752
465.813	3038
465.833	3370
465.893	4327
465.900	4263
465.968	3502
465.972	3446
466.035	3757
466.052	3844
466.102	3937
466.131	3928
466.170	3392
466.210	2849
466.237	3450
466.290	4649
466.304	4567
466.369	3985
466.372	4001
466.439	4327
466.449	4348
466.506	4252
466.528	4216
466.573	4502
466.607	4669
466.641	4428
466.687	4125
466.708	4513
466.766	5510
466.775	5474
466.842	5133
466.845	5104
466.909	4791
466.925	4707
466.977	4674
467.004	4632
467.044	5054
467.083	5488
467.111	5425
467.163	5221
467.178	5304
467.242	5617
467.245	5633
467.312	5686
467.321	5681
467.379	5506
467.400	5423
467.446	5921
467.480	6260
467.559	5593
467.638	5244
467.717	4649
467.796	6168
467.875	6242
467.955	6995
468.034	7696
468.113	8191
468.192	10810
468.271	13434
468.350	18813
468.429	29535
468.508	31643
468.588	18391
468.667	10314
468.746	8895
468.825	7731
468.904	6592
468.983	5430
469.062	5827
469.141	5840
469.220	5887
469.299	4881
469.378	5275
469.456	6699
469.535	5566
469.614	5610
469.693	5405
469.772	6618
469.851	6062
469.930	5951
470.009	6711
470.088	8092
470.166	12670
470.245	22607
470.324	30049
470.403	16511
470.482	10173
470.560	7138
470.639	6607
470.718	6765
470.797	5593
470.875	5092
470.954	4940
471.033	5672
471.111	5878
471.190	4640
471.269	4946
471.347	4393
471.426	4999
471.505	4378
471.583	5331
471.662	5218
471.740	5150
471.819	5862
471.898	4762
471.976	5550
472.055	4328
472.133	4545
472.212	5639
472.290	4405
472.369	5553
472.447	4454
472.526	4284
472.604	5713
472.683	4898
472.761	5219
472.839	5383
472.918	5516
472.996	5781
473.075	6239
473.153	5518
473.231	4646
473.310	6141
473.388	5355
473.466	4711
473.545	5957
473.623	5465
473.701	5286
473.780	5975
473.858	4229
473.936	7534
474.014	5357
474.093	6059
474.171	6195
474.249	6600
474.327	5176
474.405	4685
474.484	6245
474.562	4889
474.640	5002
474.718	6021
474.796	5120
474.874	5897
474.952	4937
475.030	4771
475.108	5011
475.187	5068
475.265	5830
475.343	5737
475.421	5551
475.499	4939
475.577	5316
475.655	5831
475.733	4948
475.811	4569
475.889	5287
475.966	5354
476.044	4417
476.122	4967
476.200	5339
476.278	5024
476.356	4331
476.434	4621
476.512	5445
476.590	5320
476.667	4764
476.745	5312
476.823	5440
476.901	5356
476.979	4407
477.056	4989
477.134	5441
477.212	5736
477.290	4827
477.367	4351
477.445	5615
477.523	3804
477.601	4698
477.678	4581
477.756	4474
477.834	4999
477.911	4153
477.989	4874
478.066	3818
478.144	4109
478.222	5633
478.299	5368
478.377	4913
478.454	5278
478.532	4930
478.609	5031
478.687	5001
478.764	4596
478.842	4727
478.919	4710
478.997	5292
479.074	4441
479.152	4293
479.229	5166
479.307	4457
479.384	4799
479.461	4106
479.539	5666
479.616	5144
479.694	4773
479.771	6233
479.848	4719
479.926	2759
480.003	6317
480.080	4984
480.157	5000
480.235	5260
480.312	4725
480.389	4441
480.467	5101
480.544	5800
480.621	6180
480.698	6228
480.775	6245
480.853	5171
480.930	5239
481.007	5200
481.084	5661
481.161	5768
481.238	5926
481.315	5177
481.392	5770
481.470	5415
481.547	6250
481.624	4646
481.701	5811
481.778	5431
481.855	6348
481.932	6707
482.009	7956
482.086	7083
482.163	8794
482.240	10173
482.317	11750
482.393	8799
482.470	8372
482.547	7543
482.624	7172
482.701	7041
482.778	6281
482.855	6893
482.932	6191
483.009	6938
483.085	9319
483.162	9969
483.239	10344
483.316	10268
483.393	11407
483.469	8413
483.546	7663
483.623	8046
483.699	5908
483.776	5417
483.853	6360
483.930	5689
484.006	6828
484.083	8285
484.160	7176
484.236	8369
484.313	7746
484.389	6441
484.466	9511
484.543	11223
484.619	15165
484.696	17661
484.772	11097
484.849	8148
484.925	7807
485.002	6649
485.078	6829
485.155	5663
485.231	6018
485.308	6117
485.384	6020
485.461	6564
485.537	5569
485.614	6623
485.690	6294
485.766	5509
485.843	5184
485.919	5709
485.995	6194
486.072	6611
486.148	6021
486.224	5831
486.301	6615
486.377	5670
486.453	4483
486.530	6831
486.606	7073
486.682	6272
486.758	7030
486.835	6988
486.911	6620
486.987	8346
487.063	9528
487.139	10686
487.215	11299
487.292	13707
487.368	14589
487.444	17826
487.520	25832
487.596	38933
487.672	102134
487.748	337891
487.824	496275
487.900	145243
487.976	38235
488.052	20003
488.128	15289
488.204	9810
488.280	10094
488.356	8891
488.432	9242
488.508	8535
488.584	7871
488.660	6566
488.736	7077
488.812	5958
488.888	6716
488.964	6313
489.039	7142
489.115	8407
489.191	7604
489.267	5964
489.343	5019
489.418	5233
489.494	6111
489.570	3887
489.646	7237
489.722	6530
489.797	5249
489.873	6269
489.949	6688
490.024	5626
490.100	5583
490.176	5529
490.251	6769
490.327	6214
490.403	5565
490.478	5927
490.554	6313
490.629	5200
490.705	5829
490.781	5877
490.856	5638
490.932	5650
491.007	6321
491.083	4833
491.158	4830
491.234	5692
491.309	6119
491.385	5467
491.460	4861
491.536	5270
491.611	5019
491.686	5419
491.762	6139
491.837	5893
491.913	7214
491.988	7433
492.063	6989
492.139	5246
492.214	5492
492.289	4921
492.365	6469
492.440	5500
492.515	5471
492.590	4495
492.666	5501
492.741	5289
492.816	5107
492.891	4747
492.967	5559
493.042	5011
493.117	4886
493.192	5977
493.267	6353
493.342	7840
493.418	9202
493.493	6072
493.568	5962
493.643	5818
493.718	5075
493.793	4768
493.868	5448
493.943	5664
494.018	5228
494.093	5558
494.168	5903
494.243	4520
494.318	5452
494.393	5032
494.468	4427
494.543	5480
494.618	6097
494.693	4680
494.768	5562
494.842	5910
494.917	5337
494.992	5300
495.067	5610
495.142	5537
495.217	6059
495.292	5190
495.366	5312
495.441	5382
495.516	6815
495.591	5573
495.665	8487
495.740	11678
495.815	7590
495.890	5498
495.964	4051
496.039	8001
496.114	7838
496.188	7434
496.263	7392
496.338	5861
496.412	5467
496.487	6739
496.561	6344
496.636	6216
496.710	5989
496.785	6710
496.860	6292
496.934	6020
497.009	6376
497.083	5959
497.158	6538
497.232	6383
497.307	7270
497.381	7541
497.455	7424
497.530	6579
497.604	6196
497.679	6631
497.753	5539
497.827	5205
497.902	6798
497.976	7123
498.050	8466
498.125	13175
498.199	13982
498.273	7361
498.348	7637
498.422	7786
498.496	9255
498.570	9623
498.645	6587
498.719	3669
498.793	6571
498.867	5261
498.941	5684
499.016	7981
499.090	12522
499.164	8239
499.238	7344
499.312	7189
499.386	8163
499.460	8425
499.534	9334
499.609	11518
499.683	7996
499.757	5081
499.831	5840
499.905	9067
499.979	8113
500.053	5946
500.127	5895
500.201	5212
500.275	7562
500.349	7910
500.422	8263
500.496	8636
500.570	11528
500.644	15800
500.718	15888
500.792	5899
500.866	5174
500.940	3695
501.013	4873
501.087	4069
501.161	5094
501.235	3475
501.309	6974
501.382	7655
501.456	7907
501.530	4705
501.603	4353
501.677	4380
501.751	4261
501.825	5469
501.898	4753
501.972	5397
502.046	4684
502.119	2776
502.193	5009
502.266	4617
502.340	4861
502.413	4409
502.487	4751
502.561	3717
502.634	5735
502.708	4755
502.781	3594
502.855	5322
502.928	3892
503.002	4365
503.075	3737
503.149	4509
503.222	4195
503.295	4611
503.369	6009
503.442	4814
503.516	8080
503.589	8746
503.662	9764
503.736	11085
503.809	14407
503.882	17753
503.956	27690
504.029	61208
504.102	190433
504.175	272372
504.249	95409
504.322	30570
504.395	16724
504.468	11553
504.542	7982
504.615	6159
504.688	7042
504.761	4059
504.834	7393
504.907	5324
504.980	5295
505.053	3837
505.127	1930
505.200	6241
505.273	3109
505.346	3577
505.419	3598
505.492	4623
505.565	3538
505.638	4037
505.711	3335
505.784	3078
505.857	1920
505.930	3931
506.003	1771
506.076	5152
506.149	3053
506.221	1159
506.294	5504
506.367	1905
506.440	4363
506.513	4490
506.586	3379
506.659	2504
506.731	3627
506.804	1880
506.877	2533
506.950	3291
507.022	4300
507.095	1704
507.168	3428
507.241	3945
507.313	2759
507.386	1892
507.459	4172
507.531	2560
507.604	2854
507.677	3484
507.749	1925
507.822	4148
507.894	3323
507.967	3734
508.040	2957
508.112	3284
508.185	3881
508.257	1467
508.330	4630
508.402	2003
508.475	2940
508.547	3690
508.620	3377
508.692	3645
508.765	2418
508.837	2481
508.909	4634
508.982	2060
509.054	4040
509.127	2365
509.199	2387
509.271	1530
509.344	2538
509.416	2472
509.488	3628
509.560	3235
509.633	2794
509.705	2227
509.777	2996
509.849	3318
509.922	1867
509.994	3110
510.066	4112
510.138	1120
510.210	5681
510.283	2745
510.355	3301
510.427	3884
510.499	2998
510.571	2240
510.643	1892
510.715	4217
510.787	1764
510.859	4464
510.931	2554
511.003	3791
511.076	4031
511.148	2101
511.219	1591
511.291	3343
511.363	4006
511.435	2654
511.507	2001
511.579	4136
511.651	4377
511.723	3189
511.795	2466
511.867	2257
511.939	3176
512.010	2627
512.082	3534
512.154	1973
512.226	2925
512.298	3431
512.369	3211
512.441	3536
512.513	3698
512.585	2443
512.656	3840
512.728	2445
512.800	3331
512.871	3926
512.943	3712
513.015	2357
513.086	4103
513.158	3612
513.230	2886
513.301	2614
513.373	4495
513.444	3042
513.516	3600
513.588	3255
513.659	4964
513.731	2811
513.802	2533
513.874	5615
513.945	5091
514.016	2341
514.088	4490
514.159	1926
514.231	3985
514.302	3871
514.374	4385
514.445	1992
514.516	6270
514.588	2180
514.659	3660
514.730	3098
514.802	5092
514.873	1489
514.944	5910
515.016	3358
515.087	4161
515.158	3824
515.229	5913
515.301	2563
515.372	4365
515.443	3417
515.514	3937
515.585	3050
515.656	5290
515.728	5237
515.799	3987
515.870	5883
515.941	5774
516.012	4733
516.083	7932
516.154	7073
516.225	9149
516.296	12162
516.367	12653
516.438	15539
516.509	19573
516.580	34822
516.651	135441
516.722	430504
516.793	141228
516.864	28630
516.935	26090
517.006	31476
517.077	43555
517.148	110937
517.219	533018
517.289	685616
517.360	94128
517.431	26057
517.502	16346
517.573	14794
517.643	13032
517.714	13525
517.785	15207
517.856	17508
517.926	22893
517.997	28040
518.068	35510
518.138	50915
518.209	88905
518.280	349745
518.350	1052021
518.421	363707
518.492	64249
518.562	39916
518.633	42050
518.703	55167
518.774	128571
518.845	347337
518.915	307456
518.986	79427
519.056	32831
519.127	21236
519.197	16650
519.268	12859
519.338	11690
519.408	8408
519.479	8027
519.549	6177
519.620	8481
519.690	4874
519.760	5596
519.831	5011
519.901	4873
519.971	4980
520.042	4567
520.112	3553
520.182	4980
520.253	4964
520.323	4304
520.393	2399
520.463	6534
520.534	596
520.604	7027
520.674	4702
520.744	3294
520.814	2860
520.885	5101
520.955	4628
521.025	5359
521.095	4717
521.165	5484
521.235	3355
521.305	3056
521.375	4144
521.445	4482
521.515	2990
521.585	4633
521.655	1938
521.725	5043
521.795	4751
521.865	2018
521.935	5555
522.005	3429
522.075	3718
522.145	4021
522.215	2928
522.285	4721
522.355	3663
522.424	5224
522.494	3092
522.564	3858
522.634	3858
522.704	7831
522.774	3662
522.843	4878
522.913	3594
522.983	3402
523.053	2870
523.122	5422
523.192	3570
523.262	4516
523.331	3592
523.401	5029
523.471	4196
523.540	4351
523.610	2538
523.680	5279
523.749	4541
523.819	5078
523.888	3796
523.958	4561
524.027	4551
524.097	5132
524.166	4772
524.236	3978
524.305	6196
524.375	3323
524.444	3303
524.514	5871
524.583	3358
524.653	3935
524.722	5014
524.791	3329
524.861	5746
524.930	4174
524.999	4214
525.069	5978
525.138	5003
525.207	5446
525.277	6668
525.346	5837
525.415	7991
525.484	9307
525.554	8595
525.623	13357
525.692	15273
525.761	19312
525.830	24692
525.900	31950
525.969	52259
526.038	102246
526.107	218965
526.176	607877
526.245	436357
526.314	129092
526.383	304929
526.452	389989
526.522	571325
526.591	465121
526.660	76661
526.729	46207
526.797	50796
526.867	73645
526.935	229117
527.004	825366
527.073	460222
527.142	63781
527.211	26636
527.280	17344
527.349	12971
527.418	9466
527.487	10497
527.555	7185
527.624	7027
527.693	5615
527.762	7479
527.831	5210
527.899	6056
527.968	5487
528.037	3953
528.106	6229
528.174	5214
528.243	6333
528.312	5081
528.380	5055
528.449	3740
528.518	6543
528.586	3255
528.655	5627
528.723	4430
528.792	4219
528.861	3588
528.929	3283
528.998	4609
529.066	3919
529.135	5603
529.203	4043
529.272	3450
529.340	5980
529.409	6403
529.477	4319
529.545	3009
529.614	6388
529.682	2675
529.751	4359
529.819	8218
529.887	6100
529.956	5433
530.024	6679
530.092	4042
530.161	5798
530.229	4637
530.297	5077
530.365	6661
530.434	5696
530.502	4668
530.570	5800
530.638	3914
530.707	5819
530.775	5509
530.843	4726
530.911	4832
530.979	5370
531.047	5923
531.115	6698
531.183	5618
531.252	6547
531.320	5734
531.388	4368
531.456	5878
531.524	4434
531.592	6844
531.660	7476
531.728	5038
531.796	5226
531.864	6679
531.932	6460
532.000	5295
532.067	6382
532.135	6672
532.203	8222
532.271	6031
532.339	8379
532.407	8537
532.475	8578
532.542	7055
532.610	7681
532.678	6114
532.746	11621
532.814	15244
532.881	9357
532.949	8225
533.017	7623
533.084	6916
533.152	6233
533.220	7118
533.287	6875
533.355	6291
533.423	7235
533.490	6707
533.558	7990
533.625	7402
533.693	6426
533.761	7583
533.828	9174
533.896	7295
533.963	8750
534.031	9568
534.098	11607
534.166	12532
534.233	11933
534.300	14663
534.368	14030
534.435	13578
534.503	15266
534.570	16135
534.637	18609
534.705	21353
534.772	26952
534.840	57844
534.907	267162
534.974	293804
535.041	37138
535.109	17591
535.176	13404
535.243	12905
535.310	12903
535.378	11153
535.445	12250
535.512	12776
535.579	12025
535.646	10978
535.714	12494
535.781	13614
535.848	13889
535.915	12805
535.982	12048
536.049	11233
536.116	13436
536.183	11613
536.250	10756
536.317	10947
536.384	12896
536.451	13068
536.518	12957
536.585	10977
536.652	14469
536.719	12689
536.786	11141
536.853	11233
536.920	12724
536.987	12831
537.053	11579
537.120	16704
537.187	15921
537.254	14095
537.321	13922
537.388	13895
537.454	12229
537.521	12688
537.588	13354
537.654	13103
537.721	13826
537.788	13815
537.855	13112
537.921	12794
537.988	11891
538.055	14245
538.121	10976
538.188	11950
538.254	12185
538.321	11984
538.388	13392
538.454	14726
538.521	16111
538.587	13758
538.654	13685
538.720	13422
538.787	13351
538.853	13396
538.920	14009
538.986	12276
539.053	11760
539.119	12540
539.185	13265
539.252	13669
539.318	13844
539.385	15572
539.451	13765
539.517	14659
539.583	14439
539.650	13187
539.716	15497
539.782	13014
539.849	11659
539.915	14047
539.981	13400
540.047	12540
540.114	13216
540.180	14161
540.246	14008
540.312	14635
540.378	14422
540.444	15057
540.510	15765
540.576	15975
540.643	13488
540.709	11933
540.775	13155
540.841	12559
540.907	13455
540.973	13449
541.039	13852
541.105	14246
541.171	14523
541.237	14523
541.303	14931
541.369	16778
541.435	14789
541.500	13425
541.566	12074
541.632	12713
541.698	13311
541.764	14949
541.830	13394
541.896	12709
541.961	14799
542.027	13261
542.093	14146
542.159	15356
542.224	12575
542.290	14567
542.356	13921
542.421	13926
542.487	12638
542.553	12323
542.618	13533
542.684	12967
542.750	13964
542.815	14515
542.881	13033
542.947	15398
543.012	15927
543.078	12660
543.143	13093
543.209	13243
543.274	13108
543.340	13250
543.405	13671
543.471	14483
543.536	14594
543.602	14537
543.667	12741
543.732	14967
543.798	12688
543.863	15187
543.928	14090
543.994	13944
544.059	14144
544.124	15501
544.190	15110
544.255	15892
544.320	15291
544.386	15042
544.451	17005
544.516	15151
544.581	15042
544.646	16268
544.712	18289
544.777	15983
544.842	16483
544.907	16079
544.972	16191
545.037	16220
545.102	16817
545.168	16855
545.233	18996
545.298	18278
545.363	16864
545.428	18826
545.493	20524
545.558	18929
545.623	19139
545.688	17912
545.753	20187
545.818	20274
545.883	22898
545.947	21858
546.012	24629
546.077	23361
546.142	26655
546.207	25441
546.272	28748
546.337	28316
546.401	30303
546.466	31049
546.531	30935
546.596	33812
546.661	35733
546.725	37865
546.790	40054
546.855	43252
546.919	48131
546.984	53685
547.049	58364
547.113	66116
547.178	73453
547.243	81793
547.307	96315
547.372	106461
547.436	105806
547.501	110173
547.565	121178
547.630	109652
547.695	106670
547.759	105807
547.823	107907
547.888	108101
547.952	112642
548.017	115827
548.081	118221
548.146	116502
548.210	120597
548.274	130937
548.339	128369
548.403	117635
548.468	110907
548.532	109005
548.596	112507
548.660	111567
548.725	124538
548.789	132842
548.853	129334
548.917	124462
548.982	119766
549.046	107102
549.110	96526
549.174	100567
549.238	116800
549.303	128797
549.367	133266
549.431	125068
549.495	116739
549.559	118264
549.623	136605
549.687	149318
549.751	146490
549.815	174552
549.879	177143
549.943	169744
550.007	178819
550.071	174220
550.135	155920
550.199	149665
550.263	148436
550.327	138526
550.391	141797
550.455	156906
550.519	166583
550.582	177441
550.646	198389
550.710	201049
550.774	197744
550.838	200380
550.901	207447
550.965	216742
551.029	224544
551.093	238809
551.156	258015
551.220	290327
551.284	323120
551.347	251358
551.411	216806
551.475	205063
551.538	214721
551.602	200126
551.666	190333
551.729	178206
551.793	174549
551.856	171594
551.920	168172
551.983	169702
552.047	167520
552.110	168046
552.174	170188
552.237	174187
552.301	164471
552.364	156322
552.428	151019
552.491	156654
552.554	159650
552.618	159211
552.681	164256
552.745	158833
552.808	180550
552.871	198335
552.934	175526
552.998	160584
553.061	157061
553.124	149349
553.187	149656
553.251	152717
553.314	151887
553.377	153767
553.440	164415
553.503	166970
553.567	168781
553.630	165537
553.693	165108
553.756	165568
553.819	162877
553.882	155205
553.945	156667
554.008	156274
554.071	158603
554.134	158865
554.197	151322
554.260	147999
554.323	151196
554.386	151588
554.449	158817
554.512	156359
554.575	151561
554.638	149562
554.701	147071
554.764	146679
554.827	143481
554.889	138087
554.952	128493
555.015	126740
555.078	128833
555.141	131227
555.203	127245
555.266	127563
555.329	127812
555.391	121695
555.454	121203
555.517	115662
555.580	112165
555.642	107648
555.705	106456
555.768	105134
555.830	103087
555.893	98977
555.955	95222
556.018	93961
556.080	93155
556.143	96696
556.206	94400
556.268	93348
556.330	91199
556.393	87117
556.455	86115
556.518	83502
556.580	81132
556.643	77706
556.705	76518
556.767	75986
556.830	74189
556.892	72962
556.955	72089
557.017	69881
557.079	70087
557.142	66787
557.204	67940
557.266	66655
557.328	62901
557.391	57130
557.453	57717
557.515	56080
557.577	58480
557.639	59017
557.701	58378
557.764	58131
557.826	59558
557.888	60753
557.950	63842
558.012	69247
558.074	87023
558.136	185202
558.198	386154
558.260	135762
558.322	64574
558.384	63878
558.446	67650
558.508	70626
558.570	77938
558.632	88230
558.694	114233
558.756	190684
558.818	508757
558.880	948021
558.942	393905
559.003	411130
559.065	189043
559.127	82083
559.189	77412
559.251	85175
559.312	124228
559.374	282439
559.436	744311
559.498	347438
559.559	90920
559.621	76415
559.683	89265
559.744	143982
559.806	425483
559.868	543674
559.929	126875
559.991	85224
560.052	142794
560.114	375302
560.176	226684
560.237	228266
560.299	325974
560.360	72537
560.422	34781
560.483	30358
560.545	28239
560.606	26084
560.667	26334
560.729	23809
560.790	23837
560.852	23196
560.913	22866
560.974	21434
561.036	21502
561.097	22648
561.158	21279
561.220	21189
561.281	20420
561.342	18815
561.403	20701
561.465	19009
561.526	20515
561.587	20120
561.648	18993
561.709	17185
561.771	18460
561.832	17444
561.893	18461
561.954	16355
562.015	17281
562.076	16034
562.137	16910
562.198	16964
562.259	16968
562.320	16607
562.381	16387
562.442	16456
562.503	15742
562.564	15625
562.625	15919
562.686	15714
562.747	15219
562.808	15261
562.869	15461
562.930	15337
562.991	14191
563.051	13624
563.112	14291
563.173	14047
563.234	14685
563.294	14235
563.355	12420
563.416	13331
563.477	13866
563.537	13537
563.598	14387
563.659	12965
563.720	12592
563.780	13508
563.841	13202
563.901	13418
563.962	13008
564.023	12622
564.083	12969
564.144	11546
564.204	12996
564.265	13014
564.325	13043
564.386	13125
564.446	13173
564.507	13150
564.567	12368
564.628	11626
564.688	11690
564.749	11446
564.809	12130
564.869	11699
564.930	11877
564.990	11937
565.050	11680
565.111	11599
565.171	11714
565.231	11870
565.292	12043
565.352	11552
565.412	11590
565.472	11558
565.532	11983
565.593	10681
565.653	12298
565.713	11719
565.773	11824
565.833	11469
565.893	13414
565.953	10533
566.013	10761
566.074	10498
566.134	11867
566.194	10909
566.254	11478
566.314	11231
566.374	11494
566.434	10484
566.494	10488
566.554	11112
566.614	10331
566.673	11458
566.733	11897
566.793	12039
566.853	11572
566.913	11261
566.973	11617
567.033	11940
567.092	10660
567.152	11081
567.212	10928
567.272	11647
567.331	11509
567.391	12368
567.451	12499
567.511	12662
567.570	12313
567.630	12292
567.690	12086
567.749	11216
567.809	10850
567.868	11294
567.928	10526
567.988	11020
568.047	12342
568.107	11956
568.166	11783
568.226	11314
568.285	11957
568.345	11910
568.404	13198
568.464	11430
568.523	11381
568.582	10347
568.642	12229
568.701	10516
568.761	10449
568.820	11177
568.879	11424
568.939	11825
568.998	11459
569.057	10319
569.116	10863
569.176	10590
569.235	10603
569.294	10718
569.353	10855
569.413	10328
569.472	10120
569.531	9770
569.590	10364
569.649	10279
569.708	11025
569.767	10863
569.827	11574
569.886	9997
569.945	11288
570.004	10601
570.063	10215
570.122	10404
570.181	11691
570.240	10806
570.299	11749
570.358	11027
570.417	11715
570.475	11621
570.534	11835
570.593	11325
570.652	11458
570.711	10759
570.770	11277
570.829	11399
570.887	11485
570.946	11737
571.005	11678
571.064	12669
571.122	13110
571.181	10964
571.240	11196
571.299	10265
571.357	10553
571.416	10938
571.475	9881
571.533	11215
571.592	11010
571.650	11514
571.709	11758
571.768	13594
571.826	14541
571.885	12738
571.943	12072
572.002	10406
572.060	11321
572.119	10955
572.177	10907
572.236	10830
572.294	10940
572.352	12458
572.411	12386
572.469	11186
572.528	10246
572.586	10169
572.644	10438
572.703	10198
572.761	10553
572.819	9648
572.877	9349
572.936	9603
572.994	9352
573.052	9124
573.110	10230
573.169	10106
573.227	10887
573.285	10235
573.343	11002
573.401	9623
573.459	10156
573.517	11245
573.576	10988
573.634	10937
573.692	11031
573.750	10304
573.808	9477
573.866	9733
573.924	9613
573.982	9488
574.040	9863
574.098	9558
574.155	10186
574.213	9610
574.271	10315
574.329	11885
574.387	9210
574.445	9032
574.503	9638
574.560	8599
574.618	8775
574.676	8610
574.734	9140
574.792	8829
574.849	8622
574.907	7933
574.965	8639
575.022	7290
575.080	7839
575.138	7568
575.195	7806
575.253	7377
575.311	7337
575.368	7311
575.426	6761
575.483	8849
575.541	8558
575.598	7375
575.656	7489
575.713	8415
575.771	9178
575.828	7599
575.886	6504
575.943	7656
576.001	7134
576.058	6272
576.115	6941
576.173	7371
576.230	7909
576.287	6876
576.345	7565
576.402	7383
576.459	8041
576.517	5714
576.574	7450
576.631	6957
576.688	6737
576.746	6670
576.803	5994
576.860	6564
576.917	6693
576.974	6397
577.031	7000
577.089	6692
577.146	7074
577.203	6206
577.260	7380
577.317	6664
577.374	6280
577.431	6755
577.488	6524
577.545	5897
577.602	6635
577.659	5832
577.716	6550
577.773	6887
577.830	6398
577.886	6234
577.943	6244
578.000	6216
578.057	6406
578.114	5895
578.171	6636
578.227	5911
578.284	5935
578.341	6535
578.398	6456
578.454	6032
578.511	5913
578.568	6964
578.625	6789
578.681	6497
578.738	6453
578.794	5867
578.851	6983
578.908	6012
578.964	6414
579.021	5444
579.077	5879
579.134	6718
579.190	6664
579.247	6908
579.303	6475
579.360	5861
579.416	6631
579.473	5623
579.529	7001
579.586	6189
579.642	6866
579.698	5287
579.755	6775
579.811	6078
579.867	6830
579.924	6352
579.980	6752
580.036	5500
580.093	6903
580.149	6689
580.205	7374
580.261	7155
580.317	6342
580.374	6556
580.430	7007
580.486	6949
580.542	6394
580.598	6603
580.619	6780
580.654	7094
580.692	6353
580.710	5995
580.765	6944
580.767	6980
580.823	7535
580.838	7641
580.879	7940
580.911	7219
580.935	6711
580.984	6992
580.991	7036
581.047	6918
581.057	6869
581.103	6663
581.130	6887
581.159	7135
581.203	6929
581.215	6884
581.270	7285
581.276	7239
581.326	6831
581.349	6724
581.382	6586
581.422	7182
581.438	7417
581.494	6020
581.494	6017
581.550	6215
581.567	6497
581.606	7054
581.640	6783
581.661	6672
581.713	7564
581.717	7634
581.773	7573
581.786	7496
581.829	7189
581.859	6794
581.885	6531
581.932	6365
581.940	6327
581.996	7490
582.004	7308
582.052	6266
582.077	6602
582.107	6988
582.150	6621
582.163	6519
582.219	6565
582.223	6532
582.274	6269
582.296	6337
582.330	6424
582.368	6369
582.386	6383
582.441	6679
582.441	6679
582.497	6440
582.514	6516
582.552	6866
582.587	6324
582.608	5983
582.659	7045
582.663	7125
582.719	7189
582.732	7139
582.774	7034
582.805	6496
582.830	6095
582.877	6569
582.885	6645
582.941	7081
582.950	7094
582.996	6938
583.023	6689
583.052	6710
583.095	6872
583.107	6832
583.162	6841
583.168	6900
583.218	7409
583.240	7087
583.273	6607
583.313	7111
583.328	7350
583.384	6138
583.385	6158
583.439	6397
583.458	6136
583.494	5802
583.531	6305
583.549	6692
583.603	6713
583.605	6706
583.660	6941
583.676	6919
583.715	6642
583.748	6725
583.770	6868
583.820	6830
583.825	6822
583.881	6704
583.893	6594
583.936	6410
583.965	6455
583.991	6264
584.038	6569
584.046	6704
584.101	7037
584.110	7125
584.156	7245
584.183	7194
584.211	7333
584.255	7518
584.266	7475
584.321	6973
584.328	6986
584.376	7255
584.400	7268
584.431	7354
584.472	7405
584.486	7347
584.541	8074
584.545	8050
584.596	8010
584.617	8115
584.651	8368
584.689	8578
584.706	8535
584.761	8730
584.762	8731
584.816	9028
584.834	9444
584.871	10352
584.906	10137
584.926	9953
584.978	11061
584.980	11120
585.035	11794
585.051	12227
585.090	13412
585.123	14631
585.145	15295
585.195	16314
585.200	16498
585.254	19350
585.267	20253
585.309	23106
585.340	25318
585.364	27145
585.412	30997
585.419	31665
585.473	39463
585.484	42152
585.528	57172
585.556	71864
585.583	98083
585.628	162057
585.637	183092
585.692	377652
585.700	407297
585.747	503209
585.772	416465
585.801	255244
585.845	93350
585.856	72034
585.910	36136
585.917	33049
585.965	25070
585.989	22188
586.019	20180
586.061	18324
586.074	17720
586.128	15960
586.133	15834
586.183	15756
586.205	15540
586.237	14911
586.277	14887
586.292	14961
586.346	14124
586.349	14138
586.401	14642
586.421	14687
586.455	14576
586.493	14509
586.509	14657
586.564	14677
586.565	14703
586.618	16790
586.637	17469
586.672	19077
586.709	21648
586.727	22803
586.781	24495
586.781	24493
586.835	19437
586.853	18099
586.889	16611
586.925	15617
586.944	15134
586.996	14926
586.998	14951
587.052	15321
587.068	15275
587.106	15253
587.140	15319
587.161	15032
587.212	14664
587.215	14699
587.269	15459
587.284	15525
587.323	15616
587.356	16173
587.377	16672
587.427	17075
587.431	17070
587.485	16911
587.499	16980
587.539	17708
587.571	18284
587.593	18623
587.643	19331
587.648	19417
587.702	19723
587.715	19826
587.755	19861
587.786	20068
587.810	20297
587.858	20254
587.864	20282
587.917	21032
587.930	20947
587.971	20209
588.001	20297
588.025	20537
588.073	20481
588.079	20515
588.133	20507
588.145	20617
588.187	20508
588.217	20336
588.241	20782
588.288	21949
588.295	22097
588.348	22459
588.360	22619
588.402	22990
588.431	23363
588.456	23678
588.503	23767
588.510	23929
588.564	26022
588.575	26390
588.617	27621
588.646	28664
588.671	29624
588.718	31384
588.725	31921
588.778	37634
588.789	39152
588.832	55313
588.861	68996
588.886	97269
588.932	161747
588.939	167561
588.993	205454
589.004	202158
589.047	107872
589.075	56963
589.100	44559
589.147	30727
589.154	30323
589.207	28637
589.218	28344
589.261	28874
589.290	29426
589.314	29985
589.361	31377
589.368	32442
589.421	42504
589.433	45199
589.475	73117
589.504	95792
589.528	123990
589.576	184593
589.582	179359
589.635	91531
589.647	74885
589.689	44582
589.718	28263
589.742	26963
589.790	24640
589.795	24507
589.849	23680
589.861	23407
589.902	23722
589.932	24117
589.955	23848
590.004	22885
590.009	22891
590.062	23025
590.075	22936
590.115	22482
590.146	22471
590.168	22876
590.218	23472
590.222	23525
590.275	23905
590.289	23981
590.328	24431
590.360	24612
590.381	24741
590.431	25087
590.435	25119
590.488	25217
590.503	25182
590.541	25313
590.574	25489
590.594	25900
590.645	26810
590.647	26866
590.700	27559
590.716	27710
590.753	28266
590.787	28794
590.806	29092
590.859	29859
590.859	29897
590.912	29991
590.930	30038
590.965	30432
591.001	30783
591.018	30786
591.071	30449
591.072	30408
591.124	30644
591.143	30699
591.177	30702
591.214	30598
591.230	30850
591.283	31691
591.285	31674
591.336	31593
591.356	31573
591.389	31371
591.427	31066
591.442	31216
591.495	31534
591.498	31513
591.547	31385
591.569	31340
591.600	31626
591.640	31868
591.653	31788
591.706	31235
591.711	31153
591.759	32715
591.782	33393
591.811	34532
591.853	36209
591.864	36181
591.917	35696
591.924	35584
591.969	36105
591.995	36309
592.022	36412
592.066	36455
592.075	36655
592.127	37611
592.137	37737
592.180	37853
592.208	37864
592.233	38133
592.279	38511
592.285	38816
592.338	40980
592.350	41424
592.390	40801
592.421	40229
592.443	40636
592.491	41398
592.495	41487
592.548	42009
592.562	42107
592.600	42063
592.633	41918
592.653	42200
592.704	42572
592.705	42832
592.775	43672
592.846	45386
592.916	46296
592.987	45396
593.058	46103
593.128	47681
593.199	47462
593.270	47934
593.341	49416
593.411	50427
593.482	52954
593.553	54460
593.623	54698
593.694	55403
593.764	56145
593.835	54998
593.906	57513
593.976	58525
594.047	59250
594.117	62318
594.188	62821
594.258	63669
594.329	62241
594.399	65383
594.470	66947
594.540	68814
594.611	70362
594.681	69463
594.751	69923
594.822	74001
594.892	75018
594.963	78777
595.033	79747
595.103	82908
595.174	82544
595.244	85031
595.314	87628
595.384	89768
595.455	91581
595.525	95412
595.595	98251
595.665	98529
595.736	95317
595.806	99369
595.876	99566
595.946	99672
596.016	104803
596.087	107605
596.157	108230
596.227	109108
596.297	114458
596.367	122695
596.437	129178
596.507	127668
596.577	127243
596.647	132992
596.717	139818
596.787	141484
596.857	138831
596.927	142468
596.997	141977
597.067	143854
597.137	147318
597.207	149230
597.277	147932
597.347	142878
597.417	139638
597.487	137533
597.557	142041
597.626	145421
597.696	146747
597.766	145775
597.836	135952
597.906	129165
597.975	128857
598.045	130232
598.115	134765
598.185	147464
598.254	162323
598.324	176655
598.394	179592
598.464	173550
598.533	170796
598.603	159509
598.672	154779
598.742	158987
598.812	157683
598.881	164500
598.951	162669
599.020	166111
599.090	172478
599.159	172977
599.229	165275
599.299	163396
599.368	168172
599.437	164872
599.507	150247
599.576	146250
599.646	143017
599.715	142201
599.785	142978
599.854	137718
599.924	134793
599.993	134051
600.062	138258
600.132	141559
600.201	150548
600.270	173381
600.340	184341
600.409	179003
600.478	177477
600.547	181890
600.617	162971
600.686	129888
600.755	116741
600.824	110344
600.894	109350
600.963	109233
601.032	107896
601.101	105210
601.170	99120
601.239	95366
601.308	96019
601.378	96599
601.447	96523
601.516	97379
601.585	97709
601.654	100224
601.723	98746
601.792	102793
601.861	105555
601.930	109839
601.999	110441
602.068	110959
602.137	113165
602.206	112941
602.275	114344
602.343	116249
602.412	116191
602.481	117360
602.550	118321
602.619	122034
602.688	124844
602.756	123208
602.825	126248
602.894	128781
602.963	130962
603.032	133276
603.100	134157
603.169	134611
603.238	136186
603.307	135270
603.375	136950
603.444	140737
603.513	143871
603.581	143594
603.650	147375
603.719	144826
603.787	148936
603.856	153680
603.924	156307
603.993	162578
604.061	168207
604.130	175837
604.198	178465
604.267	182069
604.335	185941
604.404	188045
604.472	190841
604.541	193542
604.609	195047
604.678	195977
604.746	194147
604.815	202793
604.883	202276
604.951	203367
605.020	209638
605.088	212686
605.156	214869
605.225	220583
605.293	219969
605.361	219581
605.429	222738
605.498	227906
605.566	233614
605.634	244880
605.702	253174
605.771	261484
605.839	261093
605.907	257098
605.975	245493
606.043	245757
606.111	243981
606.180	243016
606.248	241038
606.316	237058
606.384	239138
606.452	242122
606.520	248804
606.588	255612
606.656	257017
606.724	252579
606.792	237050
606.860	216040
606.928	195624
606.996	189277
607.064	187080
607.132	191536
607.200	202697
607.267	209754
607.335	214752
607.403	219520
607.471	211492
607.539	206278
607.607	204944
607.674	181575
607.742	180956
607.810	179535
607.878	179967
607.946	184004
608.013	193111
608.081	196434
608.149	198140
608.216	205865
608.284	211935
608.352	213615
608.419	206632
608.487	203807
608.555	200687
608.622	208136
608.690	223345
608.757	243120
608.825	246497
608.893	242603
608.960	225935
609.028	217350
609.095	217957
609.163	219643
609.230	193473
609.298	180271
609.365	191225
609.432	203368
609.500	220919
609.567	254119
609.635	285925
609.702	295604
609.769	282580
609.837	218927
609.904	190742
609.971	196516
610.039	207937
610.106	252954
610.173	406551
610.241	755315
610.308	442912
610.375	233734
610.442	208566
610.509	199665
610.577	200591
610.644	204162
610.711	210842
610.778	217286
610.845	226545
610.912	241121
610.980	245329
611.047	246908
611.114	241856
611.181	234329
611.248	237962
611.315	250332
611.382	253677
611.449	262506
611.516	268891
611.583	261870
611.650	264946
611.717	267092
611.784	271147
611.851	279315
611.918	286952
611.984	319165
612.051	395914
612.118	619772
612.185	1109460
612.252	755909
612.319	372964
612.386	335313
612.452	311144
612.519	298967
612.586	291292
612.653	297972
612.719	308755
612.786	297336
612.853	277003
612.919	274644
612.986	277708
613.053	261863
613.120	246857
613.186	238935
613.253	243472
613.319	243093
613.386	243203
613.453	246460
613.519	249064
613.586	241870
613.652	246338
613.719	243313
613.785	247005
613.852	251091
613.918	247698
613.985	252873
614.051	258734
614.118	257642
614.184	246401
614.250	247406
614.317	253356
614.383	251975
614.449	256165
614.516	253426
614.582	255656
614.648	249113
614.715	246722
614.781	243854
614.847	243121
614.914	242452
614.980	236598
615.046	236969
615.112	242951
615.179	244853
615.245	246882
615.311	244809
615.377	246866
615.443	248880
615.509	252972
615.575	259594
615.642	256575
615.708	261322
615.774	271407
615.840	282700
615.906	292334
615.972	326958
616.038	425502
616.104	715886
616.170	1212125
616.236	990812
616.302	472027
616.368	399680
616.434	313851
616.500	295664
616.565	322878
616.631	382909
616.697	323486
616.763	334590
616.829	459100
616.895	723578
616.961	648776
617.026	338322
617.092	268970
617.158	259190
617.224	254572
617.289	237901
617.355	227665
617.421	226187
617.487	227637
617.552	216580
617.618	214394
617.684	214816
617.749	217304
617.815	208283
617.880	204790
617.946	205431
618.012	209309
618.077	211076
618.143	204433
618.208	206426
618.274	219338
618.339	218156
618.405	184075
618.470	184966
618.536	183255
618.601	180822
618.667	169503
618.732	161733
618.798	160836
618.863	159761
618.928	159289
618.994	159967
619.059	158048
619.124	159753
619.190	158939
619.255	158107
619.320	158671
619.386	160757
619.451	156761
619.516	153052
619.581	157115
619.647	161291
619.712	160179
619.777	154917
619.842	155700
619.907	157456
619.972	162002
620.038	158363
620.103	157204
620.168	156140
620.233	159105
620.298	158586
620.363	161127
620.428	167183
620.493	170242
620.558	172454
620.623	174251
620.688	174045
620.753	171967
620.818	175346
620.883	176151
620.948	174731
621.013	172687
621.078	168902
621.143	169280
621.207	173438
621.272	170902
621.337	165357
621.402	165198
621.467	162487
621.532	161993
621.596	162796
621.661	158903
621.726	158126
621.791	160582
621.855	160156
621.920	158759
621.985	160279
622.049	163807
622.114	164171
622.179	167330
622.243	168485
622.308	173941
622.373	181096
622.437	176118
622.502	167299
622.566	165554
622.631	164811
622.695	169721
622.760	167489
622.824	167373
622.889	168063
622.953	166345
623.018	178968
623.082	177321
623.147	175615
623.211	173047
623.276	171767
623.340	165266
623.404	163465
623.469	161548
623.533	165282
623.597	161250
623.662	161678
623.726	147757
623.790	143530
623.854	137490
623.919	142132
623.983	142995
624.047	145873
624.111	146135
624.176	146583
624.240	148007
624.304	153856
624.368	147655
624.432	147357
624.496	151731
624.560	158896
624.625	159076
624.689	157966
624.753	165422
624.817	157288
624.881	154022
624.945	139832
625.009	136526
625.073	140436
625.137	143506
625.201	148378
625.265	149089
625.329	142719
625.393	142804
625.456	146419
625.520	148336
625.584	150426
625.648	154781
625.712	157147
625.776	155433
625.839	146884
625.903	125332
625.967	118661
626.031	128094
626.095	150327
626.158	135261
626.222	108438
626.286	104539
626.349	99746
626.413	93517
626.477	93184
626.540	94765
626.604	92842
626.668	92088
626.731	90757
626.795	90771
626.858	90840
626.922	88950
626.986	87756
627.049	86493
627.113	92077
627.176	89024
627.240	86157
627.303	86930
627.366	84606
627.430	86623
627.493	84241
627.557	82187
627.620	86464
627.684	87551
627.747	88941
627.810	78654
627.874	73477
627.937	70192
628.000	73633
628.064	70691
628.127	63456
628.190	64274
628.253	62444
628.317	58790
628.380	56935
628.443	54572
628.506	54735
628.569	52573
628.632	50102
628.696	50080
628.759	50290
628.822	47783
628.885	46219
628.948	46038
629.011	45771
629.074	43769
629.137	42918
629.200	40947
629.263	42506
629.326	40428
629.389	40003
629.452	40101
629.515	38822
629.578	38026
629.641	40451
629.704	39069
629.767	38045
629.830	38097
629.892	37303
629.955	35671
630.018	38534
630.081	34990
630.144	37247
630.207	34396
630.269	37327
630.332	35329
630.395	35562
630.458	34107
630.520	31850
630.583	33623
630.646	34957
630.708	34727
630.771	34226
630.834	37810
630.896	36006
630.959	34604
631.021	33824
631.084	34160
631.146	34257
631.209	34831
631.272	33732
631.334	34527
631.397	35259
631.459	34696
631.522	37416
631.584	36711
631.646	39563
631.709	40167
631.771	40444
631.834	39733
631.896	37731
631.958	34816
632.021	35774
632.083	32724
632.145	33573
632.208	32284
632.270	33885
632.332	31115
632.395	31490
632.457	32883
632.519	31133
632.581	33028
632.643	31254
632.706	31535
632.768	30708
632.830	31959
632.892	32377
632.954	31991
633.016	34109
633.078	31978
633.141	31485
633.203	30853
633.265	31924
633.327	31541
633.389	31009
633.451	32624
633.513	31107
633.575	32317
633.637	31571
633.698	32099
633.760	33976
633.822	35973
633.884	35744
633.946	37203
634.008	36955
634.070	39181
634.132	40288
634.193	42938
634.255	46836
634.317	47764
634.379	47272
634.441	41800
634.502	37658
634.564	35993
634.626	34200
634.687	32415
634.749	30526
634.811	32063
634.873	30456
634.934	30751
634.996	31529
635.057	29435
635.119	31991
635.181	31849
635.242	32497
635.304	29768
635.365	33146
635.427	30034
635.488	31357
635.550	30380
635.611	32275
635.673	29339
635.734	33988
635.796	35083
635.857	37428
635.918	39050
635.980	44912
636.041	45396
636.102	48401
636.164	48846
636.225	46427
636.286	38876
636.348	36720
636.409	33318
636.470	31892
636.531	30623
636.593	30538
636.654	28986
636.715	28755
636.776	28478
636.838	26697
636.899	26583
636.960	26677
637.021	26691
637.082	26600
637.143	26377
637.204	25187
637.265	25607
637.326	27143
637.387	27061
637.448	26225
637.509	26467
637.570	26815
637.631	27016
637.692	23958
637.753	23790
637.814	25178
637.875	24222
637.936	24966
637.997	23487
638.058	24500
638.119	24473
638.179	25287
638.240	23841
638.301	25903
638.362	22765
638.423	22759
638.483	24399
638.544	22304
638.605	22724
638.666	22734
638.726	22593
638.787	24246
638.848	23463
638.908	22330
638.969	21852
639.030	21769
639.090	20496
639.151	21716
639.211	22141
639.272	22712
639.332	23130
639.393	22442
639.453	24050
639.514	24832
639.574	21884
639.635	20508
639.695	21397
639.756	19456
639.816	20385
639.877	20709
639.937	20770
639.997	21593
640.058	19812
640.118	20328
640.178	21440
640.239	20333
640.299	19669
640.359	20858
640.420	21989
640.480	25076
640.540	27379
640.600	26562
640.661	24109
640.721	22369
640.781	23527
640.841	19696
640.901	20319
640.961	21372
641.021	22090
641.082	22122
641.142	20900
641.202	20688
641.262	18127
641.322	20588
641.382	18632
641.442	20102
641.502	19180
641.562	20367
641.622	19842
641.682	21668
641.742	23613
641.802	22297
641.861	20164
641.921	18933
641.981	18686
642.041	18314
642.101	17464
642.161	15891
642.221	17723
642.280	19191
642.340	17721
642.400	17507
642.460	18971
642.519	18248
642.579	18844
642.639	19642
642.698	16727
642.758	21457
642.818	19795
642.877	19039
642.937	18509
642.997	18396
643.056	18819
643.116	17171
643.175	20509
643.235	19804
643.294	20000
643.354	21514
643.414	22502
643.473	25313
643.532	28670
643.592	35823
643.651	53727
643.711	87364
643.770	161561
643.830	371015
643.889	623078
643.948	177045
644.008	49062
644.067	32945
644.126	25020
644.186	22966
644.245	22173
644.304	18935
644.363	21557
644.423	18048
644.482	19276
644.541	20809
644.600	19732
644.659	25067
644.719	29959
644.778	43293
644.837	70407
644.896	144061
644.955	290723
645.014	88660
645.073	28561
645.132	22236
645.191	21501
645.250	19666
645.309	22926
645.368	24633
645.427	31596
645.486	52308
645.545	83621
645.604	25597
645.663	19874
645.722	20009
645.781	20678
645.840	22900
645.898	25775
645.957	35809
646.016	49091
646.075	82803
646.134	156305
646.192	390978
646.251	471429
646.310	93255
646.369	37701
646.427	31723
646.486	23852
646.545	20945
646.603	18851
646.662	18568
646.721	18253
646.779	17086
646.838	16957
646.896	22405
646.955	28783
647.014	44812
647.072	85008
647.131	212300
647.189	89245
647.248	19637
647.306	16538
647.365	16476
647.423	12699
647.481	16301
647.540	13037
647.598	13760
647.657	13628
647.715	14620
647.773	13304
647.832	13362
647.890	11555
647.948	12384
648.007	12487
648.065	10817
648.123	10738
648.181	12432
648.240	11516
648.298	11239
648.356	11404
648.414	11811
648.472	10696
648.531	11575
648.589	10043
648.647	10987
648.705	10741
648.763	10755
648.821	11202
648.879	11337
648.937	12016
648.995	14829
649.053	16877
649.111	25016
649.169	39970
649.227	70944
649.285	145976
649.343	370794
649.401	155707
649.459	28525
649.516	17798
649.574	13401
649.632	14733
649.690	17159
649.748	20530
649.806	30361
649.863	57723
649.921	157903
649.979	87817
650.037	16426
650.094	9398
650.152	10466
650.210	8224
650.268	9357
650.325	8643
650.383	8738
650.440	6436
650.498	7781
650.556	8055
650.613	6848
650.671	7860
650.728	8139
650.786	9021
650.843	11978
650.901	7609
650.958	7837
651.016	7074
651.073	6634
651.131	7079
651.188	5177
651.246	5939
651.303	5253
651.360	5794
651.418	5613
651.475	5353
651.532	5369
651.590	6402
651.647	5694
651.704	5464
651.762	5832
651.819	5658
651.876	5388
651.933	4916
651.990	5924
652.048	4042
652.105	5082
652.162	5517
652.219	5254
652.276	6261
652.333	5873
652.390	3871
652.448	4587
652.505	4930
652.562	4730
652.619	4674
652.676	4640
652.733	5541
652.790	4837
652.847	4208
652.904	5257
652.961	3330
653.017	4054
653.074	4989
653.131	5008
653.188	3613
653.245	4132
653.302	3983
653.359	3834
653.415	4316
653.472	4190
653.529	4978
653.586	3752
653.642	3908
653.699	4950
653.756	3476
653.813	4965
653.869	4640
653.926	4558
653.983	4282
654.039	4211
654.096	3997
654.152	5028
654.209	3336
654.266	4486
654.322	4219
654.379	4698
654.435	4576
654.492	3389
654.548	3406
654.605	3837
654.661	4549
654.717	4189
654.774	4249
654.830	3954
654.887	3689
654.943	4176
655.000	3685
655.056	3763
655.112	4337
655.168	3900
655.225	4006
655.281	5331
655.337	4338
655.394	4064
655.450	3754
655.506	3811
655.562	3862
655.618	4500
655.675	3683
655.731	3840
655.787	4079
655.843	5259
655.899	4131
655.955	5033
656.011	5097
656.067	4683
656.123	4857
656.179	5225
656.235	6930
656.291	3916
656.347	6716
656.403	5301
656.459	3944
656.515	4064
656.571	4775
656.627	3600
656.683	4118
656.739	4369
656.795	3613
656.850	3352
656.906	3789
656.962	4886
657.018	4128
657.074	5664
657.129	7478
657.185	12508
657.241	29069
657.297	13624
657.352	4363
657.408	3344
657.464	4596
657.519	2659
657.575	2580
657.630	4247
657.686	3113
657.742	2944
657.797	2767
657.853	3268
657.908	3705
657.964	2588
658.019	3250
658.075	3768
658.130	2957
658.186	3047
658.241	4069
658.297	2119
658.352	2275
658.407	4028
658.463	2344
658.518	3670
658.573	2772
658.629	2199
658.684	2529
658.739	3384
658.795	2679
658.850	3631
658.905	3469
658.960	2994
659.016	1927
659.071	2367
659.126	2572
659.181	2743
659.236	3551
659.291	3417
659.346	2710
659.401	3613
659.457	3396
659.512	3428
659.567	4369
659.622	2363
659.677	2102
659.732	1605
659.787	1967
659.842	3183
659.897	2824
659.952	3612
660.007	2893
660.061	2628
660.116	2244
660.171	2131
660.226	2147
660.281	4100
660.336	2965
660.391	2846
660.445	2115
660.500	3527
660.555	2440
660.610	2256
660.664	2020
660.719	2316
660.774	2381
660.828	3201
660.883	2069
660.938	3300
660.992	1939
661.047	2675
661.101	2256
661.156	2701
661.211	1359
661.265	3422
661.320	2295
661.374	2194
661.429	2184
661.483	3124
661.538	1435
661.592	1923
661.647	2776
661.701	3052
661.755	1971
661.810	2043
661.864	1696
661.919	2186
661.973	2338
662.027	1825
662.081	1492
662.136	2813
662.190	2693
662.244	3060
662.299	1741
662.353	2986
662.407	2873
662.461	2708
662.515	2235
662.569	2001
662.624	2525
662.678	2283
662.732	1872
662.786	2129
662.840	2159
662.894	1947
662.948	2285
663.002	1987
663.056	2419
663.110	2211
663.164	1890
663.218	2197
663.272	2211
663.326	2543
663.380	2337
663.434	2910
663.488	2943
663.542	3093
663.595	1994
663.649	2669
663.703	2524
663.757	2382
663.811	1924
663.864	2594
663.918	3232
663.972	2496
664.026	2495
664.079	1933
664.133	2965
664.187	2614
664.240	2561
664.294	2276
664.348	2668
664.401	1488
664.455	2739
664.508	3129
664.562	1597
664.615	2957
664.669	2315
664.722	2506
664.776	1419
664.829	2214
664.883	1796
664.936	1946
664.990	2246
665.043	2432
665.097	2251
665.150	3222
665.203	1956
665.257	2561
665.310	2490
665.363	3145
665.417	2393
665.470	2849
665.523	2301
665.576	2565
665.630	1896
665.683	3025
665.736	2150
665.789	2732
665.842	2701
665.895	2663
665.949	2949
666.002	2961
666.055	1979
666.108	2903
666.161	1869
666.214	3230
666.267	2164
666.320	2548
666.373	2117
666.426	3064
666.479	1595
666.532	3379
666.585	2881
666.638	2927
666.691	1765
666.744	2904
666.796	2546
666.849	2858
666.902	1802
666.955	2750
667.008	1677
667.060	1255
667.113	1914
667.166	3188
667.219	3119
667.271	2460
667.324	2651
667.377	1841
667.430	2296
667.482	2641
667.535	2590
667.587	1980
667.640	2258
667.693	2938
667.745	2806
667.798	3606
667.850	2641
667.903	3741
667.955	2226
668.008	3645
668.060	2707
668.113	2854
668.165	3076
668.218	3641
668.270	2589
668.322	2175
668.375	2077
668.427	3170
668.479	2188
668.532	2244
668.584	2359
668.636	2540
668.689	2904
668.741	2090
668.793	1954
668.845	2200
668.898	2815
668.950	2466
669.002	2454
669.054	1811
669.106	2151
669.158	3096
669.211	2115
669.263	1988
669.315	2408
669.367	2380
669.419	1920
669.471	2559
669.523	1837
669.575	1841
669.627	1196
669.679	2063
669.731	2218
669.783	2304
669.835	1755
669.886	2487
669.938	1619
669.990	2026
670.042	1712
670.094	2188
670.146	1525
670.197	2182
670.249	2658
670.301	1502
670.353	2409
670.404	2665
670.456	2485
670.508	3011
670.560	3063
670.611	4311
670.663	6668
670.715	15579
670.766	19802
670.818	6468
670.869	2648
670.921	3564
670.972	2647
671.024	1271
671.075	2958
671.127	3241
671.178	1930
671.230	3561
671.281	3022
671.333	3970
671.384	4103
671.436	5723
671.487	7960
671.538	13201
671.590	21300
671.641	36376
671.692	70669
671.744	127578
671.795	74882
671.846	23740
671.897	11146
671.949	7254
672.000	5124
672.051	4876
672.102	3786
672.153	2693
672.204	2685
672.256	1970
672.307	2778
672.358	2019
672.409	2106
672.460	2532
672.511	1649
672.562	1201
672.613	1565
672.664	1194
672.715	2074
672.766	940
672.817	629
672.868	1826
672.919	887
672.970	1009
673.021	887
673.071	1308
673.122	1265
673.173	1756
673.224	1501
673.275	1269
673.326	1170
673.376	930
673.427	1270
673.478	1764
673.528	2087
673.579	2288
673.630	1527
673.680	2411
673.731	1216
673.782	1503
673.832	918
673.883	1009
673.934	2046
673.984	1664
674.035	2048
674.085	1914
674.136	1098
674.186	1969
674.237	1821
674.287	855
674.338	1606
674.388	1296
674.438	1927
674.489	1545
674.539	1262
674.589	1812
674.640	2420
674.690	1624
674.740	1070
674.791	1502
674.841	1925
674.891	1354
674.942	1028
674.992	439
675.042	276
675.092	946
675.142	554
675.193	154
675.243	277
675.293	1905
675.343	1172
675.393	1181
675.443	1586
675.493	1659
675.543	843
675.593	947
675.643	1389
675.693	1691
675.743	1188
675.793	1154
675.843	451
675.893	996
675.943	1804
675.993	1448
676.043	-223
676.093	1540
676.142	671
676.192	596
676.242	142
676.292	406
676.341	196
676.391	519
676.441	151
676.491	786
676.540	566
676.590	373
676.640	1043
676.689	601
676.739	893
676.789	1392
676.838	892
676.888	647
676.937	239
676.987	438
677.037	903
677.086	-449
677.136	1164
677.185	1300
677.235	-270
677.284	647
677.333	429
677.383	543
677.432	61
677.482	565
677.531	954
677.580	194
677.630	548
677.679	-44
677.728	144
677.778	889
677.827	101
677.876	983
677.925	88
677.975	1232
678.024	878
678.073	504
678.122	593
678.171	1246
678.220	613
678.269	1267
678.319	1124
678.368	983
678.417	1076
678.466	879
678.515	1369
678.564	612
678.613	-564
678.662	1139
678.711	792
678.760	136
678.809	379
678.857	221
678.906	296
678.955	483
679.004	1260
679.053	-79
679.102	-54
679.151	-24
679.199	-1012
679.248	614
679.297	-196
679.346	692
679.394	165
679.443	-116
679.492	142
679.540	1315
679.589	829
679.638	878
679.686	178
679.735	1032
679.784	625
679.832	2154
679.881	559
679.929	883
679.978	-125
680.026	952
680.075	750
680.123	-165
680.172	-140
680.220	314
680.268	780
680.317	632
680.365	-549
680.414	-206
680.462	-170
680.510	806
680.559	265
680.607	562
680.655	210
680.703	136
680.752	52
680.800	-101
680.848	332
680.896	-522
680.945	486
680.993	-214
681.041	316
681.089	611
681.137	-442
681.185	366
681.233	-25
681.258	149
681.281	298
681.329	589
681.377	251
681.380	268
681.425	253
681.473	1016
681.502	869
681.521	737
681.569	835
681.617	546
681.624	550
681.665	443
681.713	101
681.745	397
681.761	519
681.809	-188
681.857	363
681.867	614
681.904	1427
681.952	1314
681.989	1124
682.000	1047
682.048	-56
682.096	-71
682.111	-29
682.143	-7
682.191	472
682.233	2196
682.239	2441
682.286	467
682.334	1122
682.354	1065
682.382	960
682.430	702
682.476	303
682.477	279
682.525	792
682.572	779
682.598	801
682.620	822
682.667	1153
682.715	1966
682.720	1847
682.763	533
682.810	881
682.841	992
682.857	1034
682.905	491
682.952	1466
682.963	1589
683.000	1948
683.047	674
683.085	1379
683.095	1555
683.142	977
683.190	786
683.206	986
683.237	1357
683.284	1617
683.328	1089
683.332	1028
683.379	1956
683.426	1227
683.449	1249
683.473	1282
683.521	1337
683.568	1695
683.571	1719
683.615	1825
683.662	1816
683.693	1004
683.709	535
683.757	804
683.804	2346
683.814	2088
683.851	1154
683.898	1919
683.936	2402
683.945	2511
683.992	1727
684.039	1632
684.057	1621
684.086	1577
684.133	1901
684.179	1665
684.180	1646
684.227	1865
684.274	1563
684.300	2059
684.321	2486
684.368	1690
684.415	2300
684.422	2260
684.462	1829
684.509	2107
684.543	2138
684.556	2164
684.603	2740
684.649	2888
684.665	2855
684.696	2806
684.743	2412
684.786	2499
684.790	2491
684.837	2500
684.883	2158
684.908	2302
684.930	2467
684.977	2286
685.023	2435
685.029	2500
685.070	2784
685.117	2616
685.150	2287
685.164	2169
685.210	2617
685.257	3159
685.272	2928
685.303	2437
685.350	2604
685.393	2695
685.396	2693
685.443	2757
685.490	2507
685.514	2369
685.536	2269
685.583	1950
685.629	2545
685.636	2602
685.675	2832
685.722	2837
685.757	2235
685.768	2059
685.815	2880
685.861	2436
685.878	2477
685.908	2543
685.954	3080
686.000	2522
686.000	2510
686.047	3069
686.093	2785
686.121	2886
686.139	2912
686.185	3000
686.232	3009
686.242	3017
686.278	3036
686.324	2720
686.363	3513
686.370	3664
686.416	3124
686.463	3395
686.484	3811
686.509	4211
686.555	3467
686.601	3164
686.606	3210
686.647	3551
686.693	3146
686.727	3351
686.739	3455
686.785	2931
686.831	3363
686.848	3214
686.877	2950
686.923	3135
686.969	3759
686.969	3761
687.015	3730
687.061	3647
687.090	3740
687.107	3766
687.153	3636
687.199	4469
687.211	4259
687.245	3616
687.291	3745
687.332	3611
687.336	3608
687.382	3085
687.428	3660
687.453	3658
687.474	3731
687.520	3986
687.565	3839
687.574	3960
687.611	4402
687.657	4262
687.695	4319
687.702	4307
687.748	4537
687.794	4378
687.816	4316
687.839	4271
687.885	4677
687.931	4054
687.937	4117
687.976	4354
688.022	4030
688.058	3878
688.067	3910
688.113	3778
688.158	4150
688.179	4227
688.204	4268
688.249	4282
688.295	4859
688.300	4845
688.340	4578
688.386	4754
688.421	4127
688.431	4020
688.477	4207
688.522	4839
688.542	4717
688.567	4645
688.613	5499
688.658	5747
688.663	5718
688.703	5265
688.749	5041
688.784	5171
688.794	5178
688.839	4640
688.884	5078
688.905	4894
688.930	4789
688.975	5257
689.020	4867
689.026	4832
689.065	4569
689.110	4468
689.146	4870
689.155	5013
689.201	5055
689.246	4726
689.267	4902
689.291	5043
689.336	5177
689.381	4452
689.388	4502
689.426	4908
689.471	5311
689.509	5884
689.516	5983
689.561	5481
689.606	5263
689.630	5400
689.651	5520
689.696	5025
689.741	5761
689.750	5633
689.785	5088
689.830	4962
689.871	5204
689.875	5259
689.920	5295
689.965	5115
689.992	5020
690.010	4901
690.054	5207
690.099	5383
690.112	5332
690.144	5334
690.189	5171
690.233	5172
690.233	5181
690.278	5392
690.323	5441
690.354	5960
690.367	6062
690.412	5697
690.457	5531
690.474	5238
690.501	5026
690.546	5293
690.590	5203
690.595	5249
690.635	5757
690.680	5270
690.716	5541
690.724	5587
690.769	5607
690.813	5828
690.836	5815
690.857	6019
690.902	5974
690.946	6678
690.957	6722
690.991	7000
691.035	7419
691.077	7832
691.080	7819
691.124	7249
691.168	6917
691.198	6578
691.213	6498
691.257	6149
691.301	5973
691.318	5837
691.346	5793
691.390	5636
691.434	5704
691.439	5680
691.478	5758
691.522	6007
691.559	6201
691.567	6263
691.611	6459
691.655	6647
691.680	6635
691.699	6516
691.743	6322
691.787	6606
691.800	6515
691.831	6412
691.875	6351
691.919	6201
691.921	6191
691.964	6185
692.008	6099
692.041	5729
692.052	5723
692.096	6213
692.139	6362
692.162	6400
692.183	6289
692.227	6574
692.271	6094
692.282	6198
692.315	6726
692.359	6180
692.402	6545
692.403	6561
692.447	6208
692.490	6552
692.523	6493
692.534	6454
692.578	6344
692.622	5965
692.643	5782
692.666	5774
692.709	6106
692.753	6180
692.763	6169
692.797	6151
692.840	6355
692.884	6315
692.884	6329
692.928	6537
692.971	6113
693.004	6215
693.015	6326
693.059	6444
693.102	6571
693.124	6711
693.146	6762
693.189	6502
693.233	6432
693.245	6446
693.276	6527
693.320	6290
693.363	6323
693.365	6301
693.407	6451
693.450	6677
693.485	6651
693.493	6618
693.537	6930
693.580	7037
693.605	6924
693.624	7110
693.667	7570
693.710	8245
693.725	8447
693.753	9242
693.797	10698
693.840	11680
693.845	11792
693.883	10761
693.926	9635
693.966	8334
693.970	8284
694.013	7736
694.056	7294
694.086	6926
694.099	6947
694.142	6942
694.185	7022
694.206	7041
694.229	7040
694.272	6888
694.315	6694
694.326	6653
694.358	6785
694.401	6987
694.444	7198
694.446	7190
694.487	7326
694.530	7148
694.566	7175
694.573	7200
694.616	7268
694.659	7417
694.686	7346
694.702	7410
694.745	7819
694.787	7949
694.806	8048
694.830	7834
694.873	7359
694.916	7017
694.926	6849
694.959	7064
695.002	7517
695.044	7860
695.046	7865
695.087	8102
695.130	7942
695.166	7970
695.172	8011
695.215	7889
695.258	8351
695.286	8293
695.301	8378
695.343	8695
695.386	9072
695.406	9162
695.428	9426
695.471	9953
695.514	10649
695.526	10764
695.556	11248
695.599	12082
695.641	12652
695.646	12679
695.684	11985
695.726	11526
695.766	10871
695.769	10872
695.811	10430
695.854	10052
695.886	9803
695.896	9989
695.938	10355
695.981	11083
696.005	11404
696.023	11584
696.065	12024
696.108	12366
696.125	12500
696.150	12752
696.192	13250
696.235	13418
696.245	13466
696.277	13493
696.319	13543
696.361	13478
696.365	13440
696.404	13414
696.446	13424
696.485	13310
696.488	13345
696.530	13403
696.572	13315
696.604	13439
696.614	13474
696.656	13221
696.698	13081
696.724	12950
696.740	12996
696.783	13034
696.825	13149
696.844	13122
696.867	13295
696.909	13501
696.951	13730
696.964	13802
696.992	13771
697.034	13563
697.076	13381
697.083	13319
697.118	13869
697.160	14447
697.202	14994
697.203	14969
697.244	14617
697.286	14286
697.323	13892
697.327	13960
697.369	14331
697.411	14583
697.442	14696
697.453	14741
697.494	14857
697.536	14952
697.562	14972
697.578	15188
697.620	15646
697.661	16063
697.682	16267
697.703	16349
697.744	16415
697.786	16506
697.801	16452
697.828	16441
697.869	16438
697.911	16343
697.921	16322
697.952	16350
697.994	16176
698.035	16039
698.040	15979
698.077	16240
698.118	16502
698.160	16743
698.160	16699
698.201	17053
698.243	17339
698.279	17572
698.284	17672
698.325	18179
698.367	18661
698.399	18971
698.408	18946
698.449	18609
698.491	18312
698.518	18060
698.532	18260
698.573	18694
698.614	19138
698.638	19350
698.656	19382
698.697	19333
698.738	19251
698.757	19186
698.779	19323
698.820	19446
698.862	19589
698.877	19588
698.903	19589
698.944	19506
698.985	19427
698.996	19354
699.026	19393
699.067	19380
699.116	19314
699.235	18293
699.354	18187
699.474	17689
699.593	17929
699.713	17498
699.832	17668
699.951	18843
700.070	18255
700.190	17595
700.309	16942
700.428	16128
700.547	15879
700.667	16557
700.786	16255
700.905	15380
701.024	16312
701.143	15399
701.262	16353
701.381	16384
701.500	16798
701.619	16151
701.738	16763
701.857	16276
701.976	14815
702.095	15829
702.214	15815
702.333	15105
702.452	16758
702.571	16280
702.690	15858
702.809	16881
702.928	15446
703.047	13217
703.165	14955
703.284	14007
703.403	14722
703.522	14093
703.640	14290
703.759	13920
703.878	13264
703.997	13272
704.115	14458
704.234	13530
704.353	14138
704.471	12788
704.590	12335
704.708	12616
704.827	12202
704.946	12800
705.064	12736
705.183	12597
705.301	12404
705.420	12069
705.538	12221
705.656	10893
705.775	11865
705.893	12087
706.012	11868
706.130	11598
706.249	12350
706.367	11500
706.485	11372
706.604	10350
706.722	10435
706.840	11288
706.958	12477
707.077	11248
707.195	10312
707.313	11578
707.431	10017
707.549	10361
707.668	10013
707.786	11739
707.904	10407
708.022	10711
708.140	9805
708.258	10031
708.376	11117
708.494	9668
708.612	11066
708.730	9713
708.848	9496
708.966	9510
709.084	9875
709.202	9942
709.320	9210
709.438	10116
709.556	8812
709.674	8913
709.791	8685
709.909	8679
710.027	8694
710.145	8579
710.263	8412
710.380	8804
710.498	8087
710.616	8888
710.733	8831
710.851	7762
710.969	8561
711.086	8575
711.204	9070
711.322	7876
711.439	7161
711.557	7098
711.674	8165
711.792	6604
711.909	7269
712.027	7549
712.144	6999
712.262	7563
712.379	8258
712.497	7375
712.614	7648
712.732	7178
712.849	7214
712.966	7290
713.084	7479
713.201	6868
713.318	6730
713.436	7579
713.553	6956
713.670	7764
713.787	8241
713.905	6683
714.022	7671
714.139	8296
714.256	10294
714.373	13315
714.490	27228
714.608	75808
714.725	306430
714.842	228170
714.959	21852
715.076	10732
715.193	9718
715.310	8308
715.427	7052
715.544	7886
715.661	6930
715.778	5934
715.895	6631
716.011	7134
716.128	7117
716.245	6224
716.362	6797
716.479	5485
716.596	7204
716.713	5941
716.829	6380
716.946	5796
717.063	5451
717.180	5188
717.296	5508
717.413	5076
717.530	6399
717.646	4892
717.763	5637
717.880	4890
717.996	5145
718.113	5366
718.229	5391
718.346	4426
718.462	4304
718.579	5732
718.695	4764
718.812	5707
718.928	4960
719.045	4970
719.161	5343
719.277	6040
719.394	6222
719.510	5972
719.626	6155
719.743	6958
719.859	12417
719.975	27303
720.092	113344
720.208	199448
720.324	20040
720.440	7659
720.557	6210
720.673	6139
720.789	4970
720.905	5139
721.021	5027
721.137	4871
721.253	4681
721.369	4109
721.486	5093
721.602	4346
721.718	4463
721.834	4122
721.950	4659
722.066	3967
722.181	4096
722.297	4702
722.413	4492
722.529	4136
722.645	5079
722.761	4649
722.877	3066
722.993	4425
723.108	5597
723.224	4033
723.340	3606
723.456	4211
723.571	3989
723.687	3845
723.803	4245
723.918	4150
724.034	3753
724.150	3529
724.265	4267
724.381	3689
724.497	3354
724.612	4182
724.728	3717
724.843	3327
724.959	4038
725.074	3704
725.190	3948
725.305	4529
725.421	3533
725.536	3876
725.651	4409
725.767	3845
725.882	4778
725.997	3294
726.113	3861
726.228	3903
726.343	3787
726.459	3527
726.574	2733
726.689	3242
726.804	3564
726.920	3420
727.035	3586
727.150	2829
727.265	3787
727.380	3655
727.495	4173
727.610	3383
727.725	3682
727.841	3039
727.956	3196
728.071	3736
728.186	2681
728.301	2788
728.416	4775
728.531	3253
728.645	3413
728.760	3427
728.875	3202
728.990	2654
729.105	3073
729.220	3477
729.335	3056
729.449	3591
729.564	3759
729.679	3599
729.794	3762
729.908	3499
730.023	4163
730.138	3196
730.253	4642
730.367	3510
730.482	2844
730.596	2684
730.711	4397
730.826	6116
730.940	4922
731.055	4726
731.169	4054
731.284	4380
731.398	4754
731.513	4979
731.627	5673
731.742	7157
731.856	8167
731.970	8068
732.085	10275
732.199	12993
732.313	23326
732.428	65064
732.542	194955
732.656	89316
732.771	17922
732.885	11719
732.999	11765
733.113	13884
733.227	13060
733.342	12740
733.456	12987
733.570	11929
733.684	11189
733.798	10720
733.912	10155
734.026	11643
734.140	11590
734.254	10249
734.368	10469
734.482	10121
734.596	10563
734.710	10692
734.824	9687
734.938	10385
735.052	10265
735.166	10472
735.280	10577
735.393	9632
735.507	9384
735.621	8984
735.735	8348
735.849	9659
735.962	9102
736.076	9783
736.190	9534
736.303	8117
736.417	9691
736.531	7930
736.644	8747
736.758	9264
736.872	9491
736.985	9073
737.099	8843
737.212	8471
737.326	8679
737.439	8986
737.553	7562
737.666	8169
737.780	7127
737.893	8661
738.007	8371
738.120	7981
738.233	7985
738.347	8071
738.460	7329
738.573	8419
738.687	6916
738.800	7737
738.913	7829
739.026	7452
739.140	7207
739.253	7021
739.366	7384
739.479	7108
739.592	6698
739.705	6604
739.818	7307
739.932	6445
740.045	7716
740.158	7172
740.271	7770
740.384	6557
740.497	6243
740.610	7106
740.723	6869
740.836	6178
740.949	6867
741.062	7292
741.174	5576
741.287	6514
741.400	6209
741.513	5280
741.626	7181
741.739	5906
741.851	6437
741.964	6355
742.077	5748
742.189	5628
742.302	8276
742.415	6623
742.527	6137
742.640	6115
742.753	4818
742.865	6393
742.978	5770
743.090	4698
743.203	5667
743.316	5603
743.428	5522
743.541	5347
743.653	4179
743.766	5699
743.878	5962
743.990	5076
744.103	7348
744.215	6791
744.327	4326
744.440	6304
744.552	5075
744.664	4609
744.777	6710
744.889	4571
745.001	5304
745.113	5767
745.226	4784
745.338	5010
745.450	5470
745.562	4950
745.674	3675
745.786	5467
745.898	5047
746.010	4130
746.122	4469
746.234	4451
746.347	5088
746.459	5301
746.570	3896
746.682	7869
746.794	9185
746.906	4410
747.018	4109
747.130	4405
747.242	4547
747.354	3456
747.466	5060
747.577	4275
747.689	4738
747.801	4246
747.913	3462
748.024	4038
748.136	4490
748.248	3379
748.359	3726
748.471	4481
748.583	3801
748.694	2722
748.806	4723
748.918	3594
749.029	4012
749.141	4453
749.252	4309
749.364	3648
749.475	3543
749.587	3102
749.698	3938
749.809	4653
749.921	3948
750.032	3656
750.144	3117
750.255	2890
750.366	4020
750.478	3058
750.589	3447
750.700	2953
750.811	4209
750.923	3073
751.034	2915
751.145	4382
751.256	3183
751.367	3291
751.479	3541
751.590	3556
751.701	2922
751.812	2494
751.923	3483
752.034	4365
752.145	3007
752.256	3342
752.367	3565
752.478	3452
752.589	3577
752.700	3322
752.811	2185
752.922	3143
753.032	3312
753.143	3609
753.254	3040
753.365	3454
753.476	4409
753.586	2925
753.697	2733
753.808	3630
753.919	2812
754.029	2433
754.140	2890
754.251	2259
754.361	2066
754.472	4023
754.582	3338
754.693	2729
754.804	3063
754.914	3173
755.025	1634
755.135	3527
755.246	3412
755.356	1684
755.466	2853
755.577	2074
755.687	3648
755.798	2664
755.908	2591
756.018	2579
756.129	2948
756.239	2831
756.349	3598
756.460	2192
756.570	3161
756.680	1869
756.790	2948
756.900	2885
757.011	3022
757.121	3201
757.231	2699
757.341	2385
757.451	2806
757.561	1768
757.671	3242
757.781	2262
757.891	3197
758.001	1922
758.111	2967
758.221	3199
758.331	2994
758.441	2285
758.551	2013
758.661	2532
758.771	3892
758.880	2636
758.990	2187
759.100	1939
759.210	1871
759.320	3202
759.429	2298
759.539	2595
759.649	2959
759.758	2979
759.868	4168
759.978	3355
760.087	4174
760.197	3490
760.307	3826
760.416	3398
760.526	2060
760.635	3514
760.745	4107
760.854	4064
760.964	4793
761.073	4246
761.182	3242
761.292	2847
761.401	2190
761.511	3081
761.620	3290
761.729	2259
761.839	2818
761.948	2370
762.057	3018
762.166	2261
762.276	1274
762.385	3432
762.494	2920
762.603	2144
762.712	2206
762.822	1972
762.931	3247
763.040	1896
763.149	3218
763.258	2488
763.367	2336
763.476	2317
763.585	2147
763.694	2170
763.803	2503
763.912	2277
764.021	2028
764.130	2095
764.238	2806
764.347	2086
764.456	2850
764.565	2753
764.674	2573
764.783	1932
764.891	1968
765.000	3306
765.109	3557
765.217	3040
765.326	3810
765.435	4834
765.543	5519
765.652	6353
765.761	6861
765.869	9961
765.978	14598
766.086	27118
766.195	54677
766.303	126072
766.412	241091
766.520	181646
766.629	78714
766.737	33380
766.846	19606
766.954	12591
767.062	10436
767.171	7454
767.279	7614
767.387	5083
767.496	5000
767.604	4268
767.712	4023
767.820	4445
767.928	4430
768.037	2687
768.145	3310
768.253	3096
768.361	3552
768.469	3379
768.577	2399
768.685	3478
768.793	3842
768.901	3071
769.009	3741
769.117	3941
769.225	6035
769.333	7343
769.441	11959
769.549	21730
769.657	49884
769.765	137707
769.873	189555
769.981	86142
770.088	27043
770.196	14279
770.304	10121
770.412	7750
770.519	6306
770.627	5244
770.735	4760
770.842	4937
770.950	4192
771.058	4606
771.165	5060
771.273	5528
771.380	5774
771.488	8041
771.595	8093
771.703	7626
771.810	6867
771.918	6201
772.025	9384
772.133	9534
772.240	8002
772.348	10478
772.455	9733
772.562	8154
772.670	8512
772.777	8989
772.884	8594
772.991	8705
773.099	8809
773.206	7167
773.313	8623
773.420	8296
773.528	7560
773.635	7386
773.742	8241
773.849	7571
773.956	8000
774.063	7218
774.170	6305
774.277	8152
774.384	7443
774.491	6347
774.598	8464
774.705	7152
774.812	6706
774.919	7450
775.026	7033
775.133	7354
775.239	6835
775.346	6213
775.453	6177
775.560	6259
775.667	7195
775.773	6377
775.880	7258
775.987	6657
776.093	7044
776.200	7255
776.307	4847
776.413	6309
776.520	7299
776.627	6372
776.733	5660
776.840	4314
776.946	9459
777.053	9227
777.159	11736
777.266	7982
777.372	11776
777.478	9188
777.585	7652
777.691	4950
777.798	6186
777.904	4958
778.010	5305
778.117	5698
778.223	5218
778.329	5518
778.435	4782
778.542	5949
778.648	4573
778.754	4255
778.860	5773
778.966	4965
779.072	4104
779.178	5509
779.284	5180
779.391	4465
779.497	5077
779.603	6747
779.708	3578
779.815	5062
779.920	7979
780.026	7040
780.132	5587
780.238	3930
780.344	4664
780.450	5958
780.556	3687
780.661	3501
780.767	4937
780.873	3083
780.979	4866
781.085	3643
781.190	4323
781.296	4276
781.402	4222
781.507	3450
781.613	4056
781.719	4253
781.824	4867
781.930	3735
782.035	4072
782.141	4093
782.246	2565
782.352	3172
782.457	3582
782.563	4171
782.668	4377
782.773	3201
782.879	2852
782.984	3965
783.090	4224
783.195	3342
783.300	3634
783.405	3358
783.511	2791
783.616	2896
783.721	3976
783.826	2019
783.932	3579
784.037	2893
784.142	3666
784.247	2917
784.352	4192
784.457	3278
784.562	4181
784.667	3834
784.772	2068
784.877	2104
784.982	3500
785.087	3681
785.192	2814
785.297	3168
785.402	3692
785.507	2588
785.611	2822
785.716	2248
785.821	2662
785.926	2912
786.031	2993
786.135	2708
786.240	3050
786.345	1025
786.450	3228
786.554	2928
786.659	2418
786.763	1334
786.868	3101
786.973	3414
787.077	1675
787.182	1911
787.286	3309
787.391	3641
787.495	1359
787.600	1360
787.704	2914
787.809	3002
787.913	2613
788.017	2762
788.122	3091
788.226	2276
788.330	1450
788.435	2406
788.539	3595
788.643	858
788.747	669
788.852	2324
788.956	1634
789.060	4110
789.164	2620
789.268	1762
789.372	3426
789.476	776
789.580	1334
789.684	1670
789.788	2837
789.892	1973
789.996	2404
790.100	1339
790.204	2358
790.308	2388
790.412	1802
790.516	1411
790.620	2147
790.724	2543
790.828	1460
790.931	-100
791.035	2814
791.139	1991
791.242	2149
791.346	2599
791.450	2343
791.554	1840
791.657	549
791.761	2394
791.864	3133
791.968	2578
792.072	2762
792.175	1003
792.279	1427
792.382	1700
792.486	1692
792.589	1160
792.693	1992
792.796	251
792.899	2134
793.003	2467
793.106	286
793.209	1161
793.313	1428
793.416	-653
793.519	2654
793.623	2417
793.726	2353
793.829	723
793.932	565
794.035	61
794.138	2762
794.242	2389
794.345	633
794.448	600
794.551	188
794.654	3500
794.757	4838
794.860	1399
794.963	1469
795.066	445
795.169	2237
795.272	793
795.375	2044
795.477	379
795.580	1168
795.683	681
795.786	2256
795.889	193
795.991	1869
796.094	1611
796.197	-165
796.300	2382
796.402	676
796.505	460
796.608	257
796.710	2094
796.813	1866
796.915	1183
797.018	2025
797.120	1607
797.223	70
797.326	2505
797.428	915
797.530	698
797.633	752
797.735	1886
797.838	630
797.940	1937
798.042	682
798.145	1069
798.247	1705
798.349	-129
798.452	1579
798.554	1187
798.656	8
798.758	2929
798.860	1302
798.962	518
799.065	129
799.167	-404
799.269	1734
799.371	1507
799.473	2036
799.575	-126
799.677	531
799.779	1518
799.881	-152
799.983	1619
800.085	1421
800.187	705
800.289	317
800.390	1091
800.492	2575
800.594	1765
800.696	131
800.798	512
800.899	1116
801.001	674
801.103	964
801.205	322
801.306	1095
801.408	14
801.509	1397
801.611	1386
801.713	943
801.814	-166
801.916	443
802.017	770
802.119	289
802.220	1504
802.322	-712
802.423	1619
802.525	-1343
802.626	668
802.727	1379
802.829	1124
802.930	-809
803.031	1429
803.133	746
803.234	709
803.335	1045
803.436	72
803.538	680
803.639	-36
803.740	1224
803.841	17
803.942	1712
804.043	543
804.144	-508
804.245	503
804.346	800
804.447	-187
804.548	599
804.649	1446
804.750	634
804.851	676
804.952	805
805.053	303
805.154	-522
805.255	1006
805.355	713
805.456	-602
805.557	209
805.658	512
805.758	990
805.859	109
805.960	1705
806.061	-23
806.161	-373
806.262	169
806.362	392
806.463	111
806.564	1092
806.664	-69
806.765	101
806.865	-12
806.966	138
807.066	-377
807.166	1600
807.267	1573
807.367	447
807.468	679
807.568	-9
807.668	688
807.769	1884
807.869	621
807.969	907
808.069	894
808.170	322
808.270	623
808.370	1653
808.470	544
808.570	-776
808.670	270
808.770	682
808.870	633
808.970	1241
809.070	-288
809.170	-674
809.271	738
809.370	387
809.470	907
809.570	-445
809.670	-393
809.770	583
809.870	997
809.970	928
810.070	142
810.169	1024
810.269	-518
810.369	928
810.469	392
810.568	252
810.668	-28
810.768	908
810.867	601
810.967	-17
811.066	71
811.166	162
811.265	280
811.365	230
811.464	-577
811.564	578
811.663	371
811.763	-1552
811.862	104
811.962	493
812.061	98
812.160	-666
812.260	-75
812.359	252
812.458	-1014
812.557	651
812.657	110
812.756	561
812.855	112
812.954	153
813.053	403
813.153	408
813.252	-425
813.351	640
813.450	-233
813.549	618
813.648	591
813.747	415
813.846	533
813.945	-34
814.044	464
814.143	719
814.242	1318
814.341	-465
814.439	1028
814.538	1363
814.637	1342
814.736	837
814.835	1682
814.933	262
815.032	949
815.131	2670
815.229	6256
815.328	7001
815.427	5520
815.525	5200
815.624	4299
815.722	4052
815.821	5521
815.919	4501
816.018	3625
816.116	5308
816.215	3913
816.313	5451
816.412	6108
816.510	5638
816.609	7703
816.707	8056
816.805	5561
816.904	5928
817.002	5867
817.100	6193
817.198	7600
817.296	5233
817.395	5682
817.493	6567
817.591	4570
817.689	6751
817.787	5442
817.885	5163
817.983	4887
818.081	5643
818.179	6287
818.277	8416
818.375	6980
818.473	6337
818.571	5844
818.669	6688
818.767	6510
818.865	5379
818.963	3883
819.061	5616
819.158	4819
819.256	7159
819.354	5384
819.452	8841
819.549	5175
819.647	6132
819.745	5085
819.842	4710
819.940	5069
820.038	4244
820.135	4274
820.233	5898
820.330	4046
820.428	4414
820.525	5229
820.623	4019
820.720	3884
820.818	4453
820.915	5255
821.012	4852
821.110	3769
821.207	5413
821.304	3546
821.402	5173
821.499	5442
821.596	5287
821.693	3610
821.791	5001
821.888	3176
821.985	5322
822.082	2771
822.179	4430
822.276	4944
822.373	3424
822.470	4264
822.567	4015
822.664	2531
822.761	4482
822.858	3784
822.955	3517
823.052	2460
823.149	3641
823.246	4068
823.343	1739
823.440	3018
823.536	4371
823.633	3529
823.730	2588
823.827	3903
823.923	3590
824.020	3941
824.117	4873
824.213	3352
824.310	2719
824.407	1914
824.503	3860
824.600	3080
824.696	2230
824.793	4825
824.889	3959
824.986	2933
825.082	2015
825.179	3124
825.275	4132
825.371	4299
825.468	2218
825.564	975
825.660	3984
825.757	3962
825.853	2943
825.949	1990
826.045	2438
826.142	3045
826.238	2765
826.334	3952
826.430	2139
826.526	1187
826.622	2033
826.718	3219
826.814	3201
826.910	2313
827.006	1904
827.102	977
827.198	3169
827.294	2333
827.390	3314
827.486	2068
827.582	1545
827.678	1497
827.774	3474
827.869	752
827.965	2649
828.061	1410
828.157	2851
828.252	2908
828.348	1524
828.444	1578
828.539	2361
828.635	2210
828.731	2348
828.826	1642
828.922	2335
829.017	2930
829.113	2318
829.208	966
829.304	1901
829.399	4063
829.495	1844
829.590	2011
829.685	1523
829.781	2347
829.876	2869
829.971	701
830.066	907
830.162	1946
830.257	3208
830.352	1395
830.447	1389
830.543	1969
830.638	1816
830.733	3222
830.828	803
830.923	2187
831.018	2820
831.113	3204
831.208	619
831.303	891
831.398	704
831.493	1449
831.588	3711
831.683	802
831.778	969
831.873	1023
831.967	2507
832.062	1662
832.157	1463
832.252	1697
832.346	590
832.441	2692
832.536	2116
832.631	2401
832.725	988
832.820	961
832.914	1585
833.009	597
833.104	835
833.198	795
833.293	523
833.387	2027
833.482	1527
833.576	1280
833.670	2039
833.765	1442
833.859	1245
833.954	1576
834.048	1484
834.142	1305
834.237	-307
834.331	1208
834.425	1955
834.519	-185
834.613	1322
834.708	341
834.802	1757
834.896	689
834.990	1685
835.084	1681
835.178	457
835.272	908
835.366	2137
835.460	1848
835.554	1145
835.648	663
835.742	185
835.836	523
835.930	660
836.024	1099
836.117	1211
836.211	1190
836.305	578
836.399	-360
836.493	41
836.586	1714
836.680	863
836.774	-134
836.867	819
836.961	837
837.055	79
837.148	646
837.242	959
837.335	403
837.429	607
837.522	827
837.616	118
837.709	1328
837.803	244
837.896	2008
837.989	1460
838.083	1014
838.176	715
838.269	-728
838.363	518
838.456	495
838.549	1800
838.642	122
838.735	576
838.829	1397
838.922	-160
839.015	370
839.108	-4
839.201	473
839.294	1257
839.387	366
839.480	150
839.573	610
839.666	902
839.759	355
839.852	-328
839.945	984
840.038	47
840.131	220
840.223	168
840.316	470
840.409	1073
840.502	694
840.594	2163
840.687	-818
840.780	-80
840.873	-879
840.965	429
841.058	590
841.150	1536
841.243	-437
841.336	1206
841.428	522
841.521	-308
841.613	-387
841.706	253
841.798	93
841.890	1117
841.983	-616
842.075	805
842.167	484
842.260	1025
842.352	1435
842.444	1042
842.537	-54
842.629	272
842.721	-715
842.813	783
842.905	-620
842.997	684
843.090	562
843.182	30
843.274	-1290
843.366	799
843.458	150
843.550	1708
843.642	-285
843.734	1036
843.826	21
843.918	783
844.009	1015
844.101	113
844.193	977
844.285	1120
844.377	822
844.469	1339
844.560	337
844.652	-200
844.744	-49
844.835	216
844.927	202
845.019	212
845.110	387
845.202	651
845.293	654
845.385	-588
845.476	-670
845.568	975
845.659	-210
845.751	-321
845.842	-771
845.934	455
846.025	-613
846.116	55
846.208	208
846.299	382
846.390	-79
846.482	203
846.573	141
846.664	527
846.755	-336
846.846	562
846.937	-714
847.029	148
847.120	-639
847.211	-494
847.302	576
847.393	-136
847.484	1065
847.575	-840
847.666	-924
847.757	-542
847.847	224
847.938	584
848.029	54
848.120	-15
848.211	-871
848.302	-986
848.392	-534
848.483	740
848.574	-269
848.664	-277
848.755	69
848.846	524
848.936	-1003
849.027	501
849.118	-245
849.208	-267
849.299	726
849.389	2490
849.480	4239
849.570	8343
849.661	18906
849.751	26708
849.841	7266
849.932	-139
850.022	-292
850.112	1030
850.203	643
850.293	-875
850.383	-131
850.474	-942
850.564	211
850.654	-638
850.744	-507
850.834	-718
850.924	54
851.014	645
851.104	-221
851.194	-17
851.284	-75
851.374	-314
851.464	-544
851.554	172
851.644	64
851.734	508
851.824	-1
851.914	572
852.004	200
852.094	-49
852.183	-354
852.273	-422
852.363	-219
852.452	890
852.542	-190
852.632	-254
852.721	-445
852.811	-904
852.901	340
852.990	-109
853.080	335
853.169	-408
853.259	514
853.348	72
853.438	77
853.527	1004
853.617	1670
853.706	4727
853.795	9423
853.885	22269
853.974	39058
854.063	74153
854.152	93000
854.242	29299
854.331	6082
854.420	3001
854.509	1584
854.598	990
854.687	953
854.777	1283
854.866	-516
854.955	421
855.044	-611
855.133	89
855.222	373
855.311	206
855.400	263
855.488	-155
855.577	-22
855.666	209
855.755	-449
855.844	-176
855.933	217
856.021	507
856.110	-307
856.199	-808
856.288	-575
856.376	-754
856.465	-1175
856.554	-299
856.642	-356
856.731	312
856.819	-982
856.908	315
856.996	268
857.085	22
857.173	-272
857.262	-568
857.350	-692
857.438	-141
857.527	114
857.615	-265
857.703	94
857.792	-295
857.880	-748
857.968	-849
858.056	-65
858.145	-298
858.233	-208
858.321	-922
858.409	13
858.497	-779
858.585	-730
858.673	-452
858.761	-833
858.849	-306
858.937	-904
859.025	151
859.113	-129
859.201	-221
859.289	508
859.377	-64
859.465	400
859.552	-32
859.640	-277
859.728	-496
859.816	-133
859.903	-186
859.991	-718
860.079	853
860.166	-879
860.254	-60
860.342	45
860.429	-178
860.517	-482
860.604	324
860.692	-874
860.779	-673
860.867	-846
860.954	-229
861.042	499
861.129	522
861.216	679
861.304	-242
861.391	-595
861.478	-205
861.565	9
861.653	271
861.740	-1123
861.827	-1292
861.914	-96
862.001	-365
862.089	19
862.176	-93
862.263	-830
862.350	258
862.437	-614
862.524	-288
862.611	382
862.698	756
862.785	1008
862.871	848
862.958	950
863.045	-13
863.132	286
863.219	120
863.306	-453
863.392	1053
863.479	1167
863.566	-447
863.652	-176
863.739	-482
863.826	399
863.912	169
863.999	-563
864.086	978
864.172	-387
864.259	1162
864.345	723
864.432	993
864.518	-138
864.604	971
864.691	928
864.777	891
864.863	1612
864.950	3006
865.036	4172
865.122	8423
865.209	7926
865.295	6852
865.381	6751
865.467	6299
865.553	6493
865.639	7332
865.726	8664
865.812	16728
865.898	25735
865.984	35762
866.070	65016
866.156	58610
866.242	17471
866.328	8599
866.414	6102
866.499	6765
866.585	5363
866.671	5758
866.757	6395
866.843	5053
866.928	4723
867.014	5300
867.100	5144
867.186	4731
867.271	3926
867.357	4888
867.442	4245
867.528	5118
867.614	4953
867.699	6276
867.785	5381
867.870	5633
867.956	5564
868.041	5812
868.127	4493
868.212	5256
868.297	4888
868.383	4923
868.468	4058
868.553	5313
868.639	4628
868.724	4183
868.809	4485
868.894	3772
868.979	4075
869.065	4443
869.150	3128
869.235	4221
869.320	4284
869.405	3839
869.490	5299
869.575	4286
869.660	3249
869.745	5683
869.830	5046
869.915	3376
870.000	3808
870.085	3877
870.169	5490
870.254	5723
870.339	2706
870.424	2170
870.509	4019
870.593	4244
870.678	4234
870.763	3799
870.847	3234
870.932	3651
871.016	4158
871.101	2839
871.186	4341
871.270	4690
871.355	2784
871.439	3123
871.523	4704
871.608	2311
871.692	3036
871.777	4730
871.861	4101
871.945	3322
872.030	3650
872.114	3110
872.198	1625
872.282	3287
872.367	3100
872.451	3023
872.535	3520
872.619	2987
872.703	3202
872.787	3698
872.871	2821
872.955	2588
873.039	2238
873.123	3685
873.207	3399
873.291	1477
873.375	2500
873.459	3816
873.543	2525
873.627	2049
873.711	1798
873.794	3843
873.878	2900
873.962	2122
874.045	2269
874.129	2410
874.137	2454
874.213	2890
874.245	2672
874.296	2321
874.352	1736
874.380	1448
874.460	1972
874.464	1993
874.547	2165
874.568	2242
874.631	2489
874.676	2488
874.714	2458
874.784	3045
874.798	3172
874.881	2637
874.892	2545
874.965	1910
874.999	2375
875.048	2965
875.107	2573
875.131	2433
875.215	1970
875.215	1970
875.298	1732
875.323	1860
875.381	2142
875.430	2668
875.465	3008
875.538	2438
875.548	2353
875.631	2082
875.646	1886
875.714	1048
875.753	1592
875.798	2249
875.861	2935
875.881	3114
875.964	2739
875.968	2650
876.047	1198
876.076	1925
876.130	3261
876.183	2989
876.213	2812
876.291	2783
876.296	2782
876.379	2046
876.398	2098
876.462	2217
876.506	1541
876.545	939
876.613	1513
876.628	1670
876.711	1916
876.721	2036
876.794	2955
876.828	2919
876.877	2685
876.935	2021
876.960	1806
877.043	1910
877.043	1912
877.125	2589
877.150	2982
877.208	3631
877.258	2600
877.291	1917
877.365	1383
877.374	1335
877.456	1906
877.472	1861
877.539	1753
877.579	1973
877.622	2132
877.687	2699
877.704	2884
877.787	2510
877.794	2485
877.869	2262
877.901	2411
877.952	2240
878.008	1358
878.034	1098
878.115	1074
878.117	1080
878.199	1485
878.222	1881
878.282	2954
878.329	2733
878.364	2488
878.437	2854
878.447	2854
878.529	1656
878.544	1515
878.611	1199
878.651	1589
878.694	2216
878.758	3216
878.776	3412
878.858	2508
878.865	2496
878.941	1997
878.972	1589
879.023	1276
879.078	1891
879.105	2351
879.185	2599
879.187	2591
879.269	2530
879.292	2470
879.351	2489
879.399	2226
879.433	1915
879.506	1831
879.516	1898
879.598	2297
879.613	2338
879.680	2156
879.720	2056
879.762	2072
879.827	2161
879.844	2184
879.926	2293
879.933	2326
880.007	2507
880.040	2363
880.089	2246
880.147	2178
880.171	2251
880.253	4144
880.254	4142
880.335	3971
880.360	4574
880.417	6907
880.467	8426
880.499	9580
880.574	12134
880.580	11935
880.662	5998
880.680	4996
880.744	3009
880.787	2369
880.825	2367
880.893	2048
880.907	2022
880.989	1986
881.000	2053
881.070	2933
881.106	3002
881.152	2386
881.213	1925
881.233	1990
881.315	2404
881.319	2401
881.396	2619
881.426	2580
881.478	2372
881.532	3017
881.559	3383
881.639	2814
881.641	2785
881.722	2221
881.745	1984
881.803	2124
881.852	2327
881.885	2291
881.958	2191
881.966	2203
882.047	1983
882.064	1964
882.129	2019
882.171	2097
882.210	1785
882.277	1015
882.291	1056
882.372	2391
882.383	2483
882.454	3241
882.489	3293
882.535	2999
882.596	3092
882.616	3082
882.697	2658
882.702	2612
882.778	1724
882.808	1508
882.859	1477
882.914	1513
882.940	1599
883.020	2117
883.021	2129
883.102	2827
883.127	3061
883.183	3615
883.233	3462
883.264	2744
883.339	1999
883.345	1983
883.426	1336
883.445	1200
883.507	2009
883.551	2656
883.587	2877
883.657	3537
883.668	3685
883.749	3897
883.763	3968
883.830	2712
883.869	1873
883.910	1794
883.975	2041
883.991	2137
884.072	2497
884.081	2539
884.152	3288
884.187	3525
884.233	3870
884.292	4310
884.314	3801
884.394	1488
884.398	1386
884.475	1778
884.504	1980
884.555	1899
884.610	1684
884.636	1865
884.716	2561
884.716	2577
884.797	3918
884.821	4290
884.877	3769
884.927	3327
884.958	3127
885.033	2216
885.038	2153
885.118	1525
885.139	1288
885.199	1481
885.244	1891
885.279	2320
885.350	2629
885.359	2718
885.439	4051
885.456	4162
885.520	3024
885.561	2494
885.600	2424
885.667	2263
885.680	2358
885.760	2747
885.773	2799
885.840	2012
885.878	1711
885.920	2061
885.984	2215
886.000	2210
886.080	2565
886.089	2600
886.160	2895
886.195	2775
886.240	2637
886.300	2742
886.320	2784
886.400	3124
886.406	3102
886.480	2117
886.511	1859
886.560	1945
886.616	1831
886.640	1930
886.720	2291
886.722	2295
886.800	2358
886.827	2323
886.879	2630
886.932	2928
886.959	3308
887.038	4395
887.039	4398
887.119	3524
887.143	3261
887.198	3475
887.248	3577
887.278	3378
887.354	2845
887.358	2868
887.437	3144
887.459	3237
887.517	3490
887.564	3603
887.596	3170
887.669	2191
887.676	2155
887.755	1563
887.774	1435
887.835	1727
887.880	1985
887.914	2266
887.985	2618
887.994	2742
888.073	4041
888.090	4250
888.153	4821
888.195	5185
888.232	4449
888.300	3117
888.311	3066
888.391	2600
888.405	2502
888.470	2157
888.510	2004
888.549	2321
888.615	2769
888.628	2920
888.708	3767
888.720	3893
888.787	3520
888.825	3245
888.866	2471
888.930	1325
888.945	1476
889.024	2261
889.035	2357
889.103	3096
889.140	3457
889.182	3071
889.245	2544
889.261	2639
889.340	2990
889.349	3027
889.419	2768
889.454	2608
889.498	2308
889.559	1919
889.577	2384
889.656	4385
889.664	4575
889.735	3340
889.768	2743
889.814	2891
889.873	3070
889.978	3147
890.083	1919
890.187	3928
890.292	3472
890.397	2248
890.501	3217
890.606	1899
890.710	2904
890.815	4232
890.919	2324
891.024	2548
891.128	2206
891.233	2363
891.337	4137
891.442	2751
891.546	2830
891.650	2199
891.755	1894
891.859	4227
891.963	3799
892.068	3216
892.172	2290
892.276	2129
892.380	2307
892.484	3409
892.589	3724
892.693	3262
892.797	1476
892.901	1396
893.005	2479
893.109	4250
893.213	4192
893.317	2453
893.421	1577
893.525	1796
893.629	1866
893.733	4018
893.837	2932
893.941	1793
894.045	1806
894.148	1214
894.252	1789
894.356	4061
894.460	4580
894.564	2415
894.667	2632
894.771	1838
894.875	1288
894.978	2494
895.082	2788
895.186	3857
895.289	2368
895.393	2519
895.496	3565
895.600	1955
895.703	1544
895.807	1851
895.910	2052
896.014	2356
896.117	2059
896.221	2636
896.324	2637
896.427	1817
896.531	749
896.634	1750
896.737	2909
896.840	3633
896.944	2800
897.047	3705
897.150	2698
897.253	1605
897.356	1495
897.460	1084
897.563	1921
897.666	3728
897.769	3415
897.872	1490
897.975	1444
898.078	2599
898.181	1646
898.284	2461
898.387	3887
898.490	3481
898.593	2444
898.695	1589
898.798	2434
898.901	2180
899.004	2259
899.107	2019
899.209	2293
899.312	3649
899.415	1984
899.518	1072
899.620	1321
899.723	1193
899.826	2231
899.928	1718
900.031	2050
900.133	2184
900.236	1271
900.338	891
900.441	1995
900.543	2142
900.646	2007
900.748	2158
900.851	3450
900.953	1697
901.055	1424
901.158	1303
901.260	1681
901.362	1558
901.465	938
901.567	2335
901.669	2670
901.771	612
901.873	1889
901.976	1526
902.078	2220
902.180	1124
902.282	882
902.384	2520
902.486	2612
902.588	2258
902.690	1606
902.792	1234
902.894	1493
902.996	3006
903.098	2147
903.200	1697
903.302	1537
903.404	1572
903.505	579
903.607	1771
903.709	3252
903.811	2543
903.913	1889
904.014	1439
904.116	1497
904.218	1147
904.319	2695
904.421	3534
904.523	3883
904.624	2315
904.726	1811
904.827	683
904.929	2333
905.030	1711
905.132	3174
905.233	2727
905.335	2184
905.436	969
905.537	1996
905.639	1590
905.740	2473
905.841	2051
905.943	2607
906.044	1907
906.145	1419
906.247	1002
906.348	1965
906.449	2329
906.550	2123
906.651	1936
906.752	1047
906.854	693
906.955	1040
907.056	779
907.157	3051
907.258	1929
907.359	714
907.460	1871
907.561	256
907.662	1116
907.762	2148
907.863	1371
907.964	1633
908.065	1626
908.166	950
908.267	2019
908.367	853
908.468	1488
908.569	2709
908.670	1955
908.770	2278
908.871	1002
908.971	1767
909.072	1781
909.173	1783
909.273	993
909.374	2649
909.474	1132
909.575	902
909.675	1085
909.776	1318
909.876	1041
909.977	1968
910.077	2614
910.177	1556
910.278	1513
910.378	1508
910.478	2003
910.579	2744
910.679	2475
910.779	2781
910.879	2715
910.980	1695
911.080	2018
911.180	1295
911.280	804
911.380	884
911.480	1445
911.580	687
911.680	1234
911.780	2124
911.880	1963
911.980	1257
912.080	1162
912.180	892
912.280	1697
912.380	1496
912.480	1218
912.580	1325
912.679	2154
912.779	1604
912.879	1682
912.979	1351
913.078	1100
913.178	1099
913.278	638
913.377	1229
913.477	892
913.577	621
913.676	2203
913.776	2072
913.875	1411
913.975	1458
914.074	2133
914.174	1990
914.273	1103
914.373	1172
914.472	1913
914.572	847
914.671	1639
914.770	1485
914.870	1125
914.969	1151
915.068	2336
915.167	2276
915.267	1359
915.366	1280
915.465	1596
915.564	1374
915.663	1544
915.763	1618
915.862	2519
915.961	1259
916.060	655
916.159	1146
916.258	802
916.357	1292
916.456	2188
916.555	1446
916.654	2176
916.752	1711
916.851	2696
916.950	1289
917.049	1319
917.148	1127
917.247	1732
917.345	1192
917.444	1345
917.543	1323
917.642	2363
917.740	1662
917.839	2569
917.937	3497
918.036	1996
918.135	1098
918.233	1440
918.332	1814
918.430	1136
918.529	1854
918.627	621
918.726	2883
918.824	1795
918.923	1402
919.021	1029
919.119	534
919.218	1149
919.316	1722
919.414	1940
919.512	2210
919.611	2445
919.709	2252
919.807	2818
919.905	3278
920.003	2219
920.102	2991
920.200	2947
920.298	3054
920.396	3392
920.494	2361
920.592	2203
920.690	2419
920.788	2826
920.886	2272
920.984	3054
921.082	3444
921.180	4047
921.277	3620
921.375	4844
921.473	5784
921.571	5499
921.669	5510
921.766	4434
921.864	5379
921.962	4715
922.060	4616
922.157	5428
922.255	4630
922.352	5056
922.450	5754
922.548	5492
922.645	7369
922.743	9324
922.840	15204
922.938	16272
923.035	14246
923.133	13872
923.230	15447
923.327	19152
923.425	17399
923.522	17897
923.619	15094
923.717	14570
923.814	14285
923.911	13203
924.008	14959
924.106	13268
924.203	13631
924.300	13688
924.397	13580
924.494	13141
924.591	13679
924.688	13029
924.786	13766
924.883	13951
924.979	13947
925.077	12874
925.173	12963
925.270	13065
925.367	13136
925.464	14043
925.561	13102
925.658	13739
925.755	12179
925.852	13902
925.948	12453
926.045	12830
926.142	13236
926.239	14612
926.335	10771
926.432	13738
926.529	14335
926.625	14987
926.722	11506
926.818	11660
926.915	13246
927.011	12473
927.108	12025
927.204	11665
927.301	10957
927.397	14183
927.494	14025
927.590	8661
927.687	9972
927.783	14116
927.879	12405
927.976	10183
928.072	10243
928.168	12034
928.264	11269
928.361	11456
928.457	13002
928.553	10231
928.649	11192
928.745	11939
928.841	9439
928.937	11854
929.033	11030
929.129	10414
929.225	12642
929.321	10162
929.417	9421
929.513	11519
929.609	9951
929.705	10353
929.801	11956
929.897	8592
929.993	9939
930.089	10192
930.184	9414
930.280	11200
930.376	12539
930.471	8090
930.567	8173
930.663	9655
930.758	7865
930.854	9450
930.950	9745
931.045	8631
931.141	8156
931.236	11830
931.332	8789
931.427	7109
931.523	11860
931.618	9794
931.714	6700
931.809	9251
931.905	10106
932.000	7324
932.095	6775
932.191	11163
932.286	11525
932.381	8818
932.476	8046
932.572	8815
932.667	7854
932.762	7339
932.857	9714
932.952	10204
933.047	8181
933.142	6819
933.237	8691
933.332	8810
933.427	9185
933.522	8016
933.617	7323
933.712	8146
933.807	10330
933.902	10138
933.997	10805
934.092	6881
934.187	8909
934.282	8708
934.376	9156
934.471	9256
934.566	6224
934.661	7365
934.755	8669
934.850	9482
934.945	7876
935.039	6393
935.134	6507
935.228	8354
935.323	11730
935.417	6622
935.512	4621
935.606	6156
935.701	8952
935.795	8798
935.890	6855
935.984	7124
936.079	5822
936.173	7018
936.267	7168
936.362	5764
936.456	8600
936.550	10142
936.644	7761
936.738	5444
936.833	5812
936.927	5107
937.021	7106
937.115	8085
937.209	7596
937.303	7147
937.397	5782
937.491	7156
937.585	8198
937.679	6367
937.773	5651
937.867	4108
937.961	6062
938.055	8415
938.149	6843
938.243	4040
938.337	4705
938.430	6197
938.524	7855
938.618	7247
938.712	5624
938.805	5231
938.899	7933
938.993	8143
939.086	5493
939.180	5378
939.274	7216
939.367	8232
939.461	7038
939.554	5319
939.648	4602
939.741	5742
939.835	6572
939.928	7957
940.022	7690
940.115	5137
940.208	7604
940.302	8591
940.395	8325
940.488	5695
940.582	5988
940.675	4709
940.768	4568
940.861	7343
940.954	7659
941.048	3754
941.141	4111
941.234	5292
941.327	5452
941.420	5866
941.513	5781
941.606	4948
941.699	4539
941.792	6383
941.885	6026
941.978	6230
942.071	5861
942.164	3424
942.257	4536
942.349	4770
942.442	5139
942.535	3240
942.628	3938
942.721	4989
942.813	4608
942.906	6490
942.999	4687
943.091	2955
943.184	5195
943.277	4518
943.369	3971
943.462	4592
943.554	4430
943.647	4437
943.739	6650
943.832	6239
943.924	2851
944.017	3078
944.109	3323
944.201	4131
944.294	4595
944.386	5178
944.478	4148
944.571	3479
944.663	3989
944.755	5013
944.847	5181
944.940	3837
945.032	2713
945.124	3312
945.216	4638
945.308	4724
945.400	4905
945.492	3266
945.584	5245
945.676	6013
945.768	3987
945.860	6196
945.952	5549
946.044	4869
946.136	3679
946.228	3669
946.320	3514
946.412	5228
946.503	4846
946.595	4565
946.687	3262
946.779	2788
946.870	3349
946.962	3379
947.054	4253
947.145	5138
947.237	3512
947.329	4084
947.420	4340
947.512	4241
947.603	2282
947.695	3133
947.786	2508
947.878	3568
947.969	4671
948.061	4577
948.152	3114
948.243	2391
948.335	2570
948.426	2822
948.517	3924
948.609	4428
948.700	4055
948.791	3589
948.882	2755
948.973	3126
949.065	3128
949.156	3852
949.247	2796
949.338	3554
949.429	1351
949.520	2440
949.611	3777
949.702	3986
949.793	3652
949.884	3267
949.975	3037
950.066	1910
950.157	3137
950.247	2561
950.338	2558
950.429	4267
950.520	2952
950.611	2571
950.701	3584
950.792	4698
950.883	3868
950.973	3430
951.064	4260
951.155	3554
951.245	3799
951.336	4643
951.427	4568
951.517	4813
951.608	4178
951.698	3062
951.788	2297
951.879	1551
951.969	1628
952.060	2703
952.150	2431
952.240	3743
952.331	2701
952.421	4115
952.511	2374
952.602	1236
952.692	2022
952.782	2129
952.872	2580
952.962	3927
953.052	1811
953.143	2213
953.233	3004
953.323	2698
953.413	2565
953.503	3625
953.593	3808
953.683	2381
953.773	1943
953.863	2132
953.953	2181
954.042	2959
954.132	3405
954.222	2936
954.312	2723
954.402	2731
954.492	2536
954.581	2884
954.671	2460
954.761	2636
954.850	3785
954.940	1264
955.030	1393
955.119	1552
955.209	2384
955.298	2278
955.388	3451
955.477	3166
955.567	1097
955.656	1891
955.746	2815
955.835	2803
955.925	2143
956.014	2981
956.103	3566
956.193	4292
956.282	3375
956.371	2707
956.461	2699
956.550	2250
956.639	1978
956.728	1699
956.817	2086
956.906	2449
956.995	3090
957.085	2088
957.174	1491
957.263	1658
957.352	2452
957.441	3167
957.530	2148
957.619	2063
957.708	1770
957.796	2231
957.885	1439
957.974	1487
958.063	2364
958.152	1080
958.241	1925
958.329	1342
958.418	1890
958.507	1666
958.596	3108
958.684	1913
958.773	2171
958.861	760
958.950	1674
959.039	1889
959.127	1599
959.216	2259
959.304	2157
959.393	1897
959.481	2363
959.570	1808
959.658	1542
959.746	1396
959.835	1657
959.923	1474
960.011	1686
960.100	2726
960.188	2681
960.276	1767
960.365	609
960.453	984
960.541	975
960.629	1904
960.717	1378
960.805	1529
960.893	1648
960.981	2145
961.069	2950
961.158	3674
961.245	3651
961.333	2901
961.421	2321
961.509	2108
961.597	2310
961.685	1966
961.773	2514
961.861	1731
961.949	3303
962.036	390
962.124	1696
962.212	1308
962.299	1540
962.387	1230
962.475	2335
962.562	1066
962.650	2645
962.738	2265
962.825	391
962.913	1642
963.000	1320
963.088	2751
963.175	1263
963.263	2016
963.350	1084
963.438	1062
963.525	1230
963.612	1750
963.700	1045
963.787	1690
963.874	1578
963.962	1617
964.049	1150
964.136	876
964.223	1385
964.310	923
964.398	1326
964.485	589
964.572	1766
964.659	1495
964.746	1198
964.833	1378
964.920	1294
965.007	1723
965.094	1478
965.181	1521
965.268	2054
965.355	1740
965.441	1443
965.528	351
965.615	2868
965.702	1385
965.789	159
965.875	2205
965.962	1917
966.049	1259
966.136	2379
966.222	2130
966.309	3105
966.395	1801
966.482	2420
966.569	1422
966.655	1584
966.742	1289
966.828	1366
966.915	864
967.001	233
967.087	474
967.174	132
967.260	2059
967.347	1265
967.433	1430
967.519	1289
967.605	529
967.692	1419
967.778	1152
967.864	1393
967.950	919
968.036	1273
968.123	1704
968.209	913
968.295	655
968.381	1543
968.467	648
968.553	-58
968.639	2060
968.725	373
968.811	2627
968.897	2485
968.983	1527
969.069	767
969.154	1743
969.240	1092
969.326	1249
969.412	1061
969.497	1133
969.583	-82
969.669	2380
969.755	2257
969.840	1527
969.926	2918
970.012	3416
970.097	5853
970.183	3497
970.268	2038
970.354	2002
970.439	324
970.525	2190
970.610	816
970.696	1458
970.781	2238
970.866	819
970.952	1593
971.037	-311
971.122	1770
971.208	821
971.293	643
971.378	704
971.463	956
971.549	1324
971.634	715
971.719	1030
971.804	1235
971.889	1556
971.974	1745
972.059	768
972.144	1851
972.229	1346
972.314	676
972.399	1099
972.484	1337
972.569	1701
972.654	7
972.739	1424
972.824	598
972.908	532
972.993	748
973.078	837
973.163	819
973.247	1729
973.332	564
973.417	2052
973.501	548
973.586	971
973.671	550
973.755	892
973.840	2206
973.924	1796
974.009	2844
974.093	2190
974.178	3751
974.262	1859
974.346	564
974.431	1528
974.515	927
974.600	2146
974.684	2048
974.768	1484
974.852	2299
974.937	708
975.021	1854
975.105	1384
975.189	1740
975.273	972
975.358	988
975.442	474
975.526	1389
975.610	123
975.694	-444
975.778	1727
975.862	1821
975.946	-811
976.030	3048
976.114	998
976.198	873
976.281	852
976.365	2657
976.449	941
976.533	1415
976.617	346
976.700	270
976.784	515
976.868	95
976.951	1094
977.035	683
977.119	1347
977.202	899
977.286	2161
977.369	2782
977.453	4088
977.536	3441
977.620	1789
977.703	2513
977.787	1590
977.870	1602
977.953	2436
978.037	239
978.120	2091
978.203	1302
978.287	1621
978.370	2082
978.453	926
978.536	1304
978.620	2469
978.703	668
978.786	1065
978.869	601
978.952	397
979.035	2506
979.118	1797
979.201	548
979.284	2176
979.367	1181
979.450	1282
979.533	254
979.616	944
979.699	790
979.782	2024
979.865	1682
979.948	1114
980.030	691
980.113	1147
980.196	776
980.279	1539
980.361	1500
980.444	834
980.526	1997
980.609	3414
980.692	4085
980.774	3352
980.857	1372
980.939	2719
981.022	2112
981.104	1983
981.187	1073
981.269	1813
981.352	2111
981.434	1364
981.516	1565
981.599	2905
981.681	1595
981.763	1629
981.846	1844
981.928	1720
982.010	1489
982.092	1241
982.174	2102
982.256	1465
982.339	1279
982.421	619
982.503	1516
982.585	32
982.667	1259
982.749	1333
982.831	1035
982.913	894
982.995	2837
983.077	1154
983.158	3189
983.240	980
983.322	2349
983.404	5295
983.486	3738
983.568	3755
983.649	2146
983.731	2862
983.813	2441
983.894	1980
983.976	2927
984.058	2027
984.139	3111
984.221	1204
984.302	3484
984.384	2234
984.465	2093
984.547	2238
984.628	1834
984.710	2920
984.791	2295
984.872	2338
984.954	2052
985.035	2712
985.116	2054
985.198	2151
985.279	3653
985.360	1619
985.441	2256
985.522	3279
985.604	2845
985.685	687
985.766	3866
985.847	3665
985.928	1666
986.009	2310
986.090	2916
986.171	2494
986.252	2340
986.333	2413
986.414	2255
986.495	1940
986.576	2624
986.656	2543
986.737	3973
986.818	2472
986.899	2399
986.980	2272
987.060	3566
987.141	2692
987.222	3520
987.302	3951
987.383	4409
987.464	3458
987.544	3122
987.625	4227
987.705	3664
987.786	4219
987.866	4312
987.947	4095
988.027	3813
988.108	3710
988.188	3826
988.268	4015
988.349	4308
988.429	3447
988.509	3442
988.589	2923
988.670	2183
988.750	4322
988.830	2991
988.910	3090
988.990	3041
989.070	2578
989.151	3558
989.231	2773
989.311	3722
989.391	3011
989.471	3169
989.551	2542
989.631	2520
989.711	3316
989.791	2657
989.870	1983
989.950	3516
990.030	3027
990.110	2057
990.190	1664
990.269	1806
990.349	2978
990.429	3749
990.509	2433
990.588	2191
990.668	2612
990.747	2962
990.827	1552
990.907	2479
990.986	3405
991.066	1765
991.145	1510
991.225	2905
991.304	2297
991.383	2310
991.463	1314
991.542	2832
991.622	2276
991.701	2047
991.780	1817
991.859	1853
991.939	907
992.018	2036
992.097	2530
992.176	2516
992.256	2124
992.335	1422
992.414	2944
992.493	1180
992.572	1030
992.651	2566
992.730	1556
992.809	1928
992.888	1210
992.967	2345
993.046	1641
993.125	857
993.203	1824
993.282	2398
993.361	1497
993.440	1338
993.519	1164
993.597	1416
993.676	783
993.755	3172
993.834	1576
993.912	-266
993.991	1781
994.069	747
994.148	2009
994.226	1391
994.305	691
994.384	657
994.462	1551
994.540	761
994.619	603
994.697	1266
994.776	862
994.854	1674
994.932	1166
995.011	1108
995.089	1185
995.167	293
995.245	1479
995.324	322
995.402	1162
995.480	59
995.558	685
995.636	148
995.714	658
995.792	1872
995.870	-116
995.948	691
996.026	893
996.104	201
996.182	1495
996.260	589
996.338	877
996.416	-98
996.494	758
996.572	2088
996.649	651
996.727	-511
996.805	1250
996.883	670
996.960	868
997.038	1442
997.116	288
997.193	-685
997.271	342
997.348	-349
997.426	374
997.504	694
997.581	783
997.658	1498
997.736	-1188
997.813	-152
997.891	1593
997.968	-305
998.046	-39
998.123	-440
998.200	1324
998.277	1226
998.355	468
998.432	-390
998.509	455
998.586	-654
998.663	546
998.741	643
998.818	47
998.895	-68
998.972	497
999.049	952
999.126	92
999.203	51
999.280	-317
999.357	-711
999.434	-81
999.511	314
999.587	-150
999.664	164
999.741	302
999.818	1154
999.895	-188
999.971	-562
1000.048	-785
1000.125	549
1000.202	-388
1000.278	-177
1000.355	615
1000.431	-451
1000.508	-594
1000.584	77
1000.661	-83
1000.738	-356
1000.814	533
1000.890	633
1000.967	662
1001.043	-332
1001.120	-203
1001.196	-764
1001.272	-1260
1001.349	-102
1001.425	667
1001.501	-621
1001.577	-417
1001.654	-65
1001.730	-676
1001.806	-926
1001.882	-981
1001.958	-179
1002.034	-657
1002.110	-946
1002.186	-1026
1002.262	-1057
1002.338	-1271
1002.414	65
1002.490	517
1002.566	-1151
1002.642	-1257
1002.718	82
1002.794	-111
1002.870	-883
1002.945	-689
1003.021	-500
1003.097	-626
1003.173	-364
1003.248	-26
1003.324	-411
1003.400	-682
1003.475	-1238
1003.551	-585
1003.626	-46
1003.702	-882
1003.777	-592
1003.853	-1158
1003.928	-861
1004.004	-366
1004.079	-646
1004.155	-309
1004.230	-1097
1004.305	-57
1004.381	-1040
1004.456	-1209
1004.531	-779
1004.607	-1240
1004.682	-940
1004.757	-892
1004.832	-1234
1004.907	-1651
1004.982	244
1005.057	-287
1005.133	-985
1005.208	-1181
1005.283	-1523
1005.358	-967
1005.433	-1266
1005.508	-1359
1005.583	-1680
1005.657	-709
1005.732	-59
1005.807	-1085
1005.882	-1376
1005.957	-1404
1006.032	-280
1006.106	-333
1006.181	-779
1006.256	-293
1006.331	-1310
1006.405	-1528
1006.480	-1573
1006.554	-1586
1006.629	-447
1006.704	-1692
1006.778	-657
1006.853	-250
1006.927	-979
1007.002	-1375
1007.076	-838
1007.150	-391
1007.225	-1004
1007.299	-776
1007.373	-1887
1007.448	-488
1007.522	-860
1007.596	-950
1007.671	-1782
1007.745	-162
1007.819	-1448
1007.893	-862
1007.967	-90
1008.041	-1406
1008.115	-827
1008.190	-1595
1008.264	-648
1008.338	-1898
1008.412	-1716
1008.486	-1298
1008.560	-1044
1008.633	-1163
1008.707	-943
1008.781	191
1008.855	-896
1008.929	-595
1009.003	-2001
1009.076	-2061
1009.150	-1165
1009.224	-1344
1009.298	-1227
1009.371	-1341
1009.445	-883
1009.519	-1235
1009.592	-1937
1009.666	-1185
1009.739	-830
1009.813	-1852
1009.886	-175
1009.960	-2024
1010.033	-476
1010.107	-867
1010.180	-2141
1010.253	-1516
1010.327	-1884
1010.400	-1510
1010.473	-1480
1010.547	-789
1010.620	-1451
1010.693	-1030
1010.766	-1245
1010.840	-432
1010.913	-1111
1010.986	-1661
1011.059	-1216
1011.132	-615
1011.205	-1099
1011.278	-2049
1011.351	-1528
1011.424	-630
1011.497	-1965
1011.570	-1023
1011.643	-1325
1011.716	-1563
1011.789	-1808
1011.862	-2119
1011.934	-1018
1012.007	-1746
1012.080	-1139
1012.153	-904
1012.225	-200
1012.298	-1535
1012.371	-1665
1012.443	-878
1012.516	-2234
1012.588	-1161
1012.661	-1415
1012.733	-1741
1012.806	-645
1012.879	-846
1012.951	-1900
1013.023	-1912
1013.096	-741
1013.168	-1182
1013.241	-432
1013.313	-2179
1013.385	-1226
1013.458	-1323
1013.530	-1488
1013.602	-2345
1013.674	-1005
1013.746	-1985
1013.819	-2177
1013.891	-1445
1013.963	-1124
1014.035	-953
1014.107	-1792
1014.179	-507
1014.251	-1470
1014.323	-960
1014.395	-2033
1014.467	-1518
1014.539	-1162
1014.611	-1896
1014.683	-888
1014.754	-773
1014.826	-1807
1014.898	-1007
1014.970	-1417
1015.042	-604
1015.113	-518
1015.185	-1210
1015.257	-2231
1015.328	-1156
1015.400	-1817
1015.471	-1177
1015.543	-1578
1015.615	-525
1015.686	-2024
1015.757	-1326
1015.829	-378
1015.901	-1939
1015.972	-1789
1016.043	-2183
1016.115	-1461
1016.186	-1268
1016.257	-1509
1016.328	-1262
1016.400	-348
1016.471	-1724
1016.542	-1513
1016.613	-1608
1016.685	-1902
1016.756	-882
1016.827	-1638
1016.898	-2093
1016.969	-1276
1017.040	-1253
1017.111	-1797
1017.182	-2305
1017.253	-1282
1017.324	-1725
1017.395	-1820
1017.466	-1066
1017.537	-1654
1017.608	-1944
1017.678	-1279
1017.749	-2308
1017.820	-927
1017.891	-1842
1017.961	-1073
1018.032	-1376
1018.103	-892
1018.173	-1749
1018.244	-1777
1018.315	-1302
1018.385	-1089
1018.456	-2010
1018.526	-2245
1018.597	-1678
1018.667	-2041
1018.738	-2128
1018.808	-1148
1018.878	-1623
1018.949	-2008
1019.019	-1379
1019.089	-1488
1019.160	-1309
1019.230	-1546
1019.300	-1091
1019.371	-2048
1019.441	-1416
1019.511	-1462
1019.581	-1156
1019.651	-355
1019.721	-2043
1019.791	-1512
1019.861	-2055
1019.931	-1723
1020.001	-1914
1020.071	-2088
1020.141	-1334
1020.211	-1694
1020.281	-2050
1020.351	-1153
1020.421	-1239
1020.491	-1213
1020.560	-2066
1020.630	-1794
1020.700	-1734
1020.770	-1430
1020.839	-2464
1020.909	-1670
1020.979	-1737
1021.048	-1486
1021.118	-1063
1021.187	-2072
1021.257	-1426
1021.326	-1017
1021.396	-1455
1021.465	-1367
1021.535	-2467
1021.604	-2246
1021.674	-1706
1021.743	-1381
1021.812	-2511
1021.882	-1708
1021.951	-1404
1022.020	-1172
1022.089	-1890
1022.159	-1914
1022.228	-1128
1022.297	-1897
1022.366	-1371
1022.435	-2341
1022.504	-1406
1022.573	-2677
1022.642	-2146
1022.711	-1802
1022.781	-1713
1022.849	-1083
1022.918	-2416
1022.987	-1854
1023.056	-1641
1023.125	-1556
1023.194	-1806
1023.263	-1111
1023.331	-1488
1023.400	-1973
1023.469	-2554
1023.538	-878
1023.606	-1545
1023.675	-1719
1023.744	-2059
1023.812	-1010
1023.881	-1234
1023.949	-1810
1024.018	-1592
1024.086	-1921
1024.155	-2378
1024.223	-2127
1024.292	-1725
1024.360	-1914
1024.429	-1535
1024.497	-1876
1024.565	-1463
1024.634	-1891
1024.702	-1271
1024.770	-1249
1024.838	-1193
1024.907	-1694
1024.975	-1784
1025.043	-1101
1025.111	-2163
1025.179	-1910
1025.247	-1788
1025.315	-1260
1025.383	-2006
1025.451	-2134
1025.519	-2611
1025.587	-2204
1025.655	-1799
1025.723	-1962
1025.791	-1709
1025.859	-1737
1025.927	-807
1025.995	-1432
1026.062	-1268
1026.130	-1657
1026.198	-1318
1026.266	-2161
1026.333	-1255
1026.401	-828
1026.469	-1156
1026.536	-1901
1026.604	-1258
1026.671	-1831
1026.739	-1438
1026.806	-2402
1026.874	-2049
1026.941	-1405
1027.009	-2264
1027.076	-1429
1027.144	-1964
1027.211	-2272
1027.278	-1576
1027.345	-1297
1027.413	-1368
1027.480	-1504
1027.547	-2442
1027.614	-1825
1027.682	-1253
1027.749	-1846
1027.816	-1613
1027.883	-1443
1027.950	-1592
1028.017	-2307
1028.084	-1211
1028.151	-2456
1028.218	-1962
1028.285	-1691
1028.352	-1789
1028.419	-1464
1028.486	-2773
1028.553	-1653
1028.619	-2348
1028.686	-1595
1028.753	-2312
1028.820	-1308
1028.886	-1859
1028.953	-1003
1029.020	-1526
1029.086	-1902
1029.153	-1256
1029.220	-2529
1029.286	-1079
1029.353	-1881
1029.419	-1353
1029.486	-1653
1029.552	-1489
1029.619	-1939
1029.685	-2014
1029.751	-1649
1029.818	-530
1029.884	-1491
1029.951	-1339
1030.017	-1321
1030.083	-1593
1030.149	-1675
1030.216	-1892
1030.282	-1605
1030.348	-1083
1030.414	-1432
1030.480	-2009
1030.546	-1240
1030.612	-1956
1030.678	-1512
1030.744	-1970
1030.810	-2184
1030.876	-1721
1030.942	-1049
1031.008	-1553
1031.074	-1773
1031.140	-1426
1031.206	-1837
1031.272	-2028
1031.337	-1788
1031.403	-1403
1031.469	-1852
1031.534	-1667
1031.600	-1651
1031.666	-1632
1031.731	-2611
1031.797	-1837
1031.863	-1771
1031.928	-1653
1031.994	-2228
1032.059	-1949
1032.125	-1644
1032.190	-2369
1032.256	-2081
1032.321	-2094
1032.386	-1474
1032.452	-1676
1032.517	-2161
1032.582	-2638
1032.647	-1867
1032.713	-2064
1032.778	-1829
1032.843	-2185
1032.908	-2123
1032.974	-2040
1033.039	-2321
1033.104	-1431
1033.169	-2209
1033.234	-1989
1033.299	-732
1033.364	-1919
1033.429	-1734
1033.494	-1831
1033.559	-1344
1033.624	-488
1033.688	-819
1033.753	-1329
1033.818	-884
1033.883	-1206
1033.948	-1150
1034.013	-985
1034.077	-482
1034.142	-292
1034.207	862
1034.271	2533
1034.336	2380
1034.400	570
1034.465	-997
1034.530	-941
1034.594	-1726
1034.658	-2375
1034.723	-2476
1034.787	-2293
1034.852	-1446
1034.916	-1714
1034.981	-2066
1035.045	-1413
1035.109	-1499
1035.173	-1736
1035.238	-1969
1035.302	-1348
1035.366	-2390
1035.430	-2012
1035.495	-2065
1035.559	-1587
1035.623	-2658
1035.687	-2194
1035.751	-1819
1035.815	-2219
1035.879	-2201
1035.943	-2222
1036.007	-1037
1036.071	-1367
1036.135	-2038
1036.198	-1556
1036.262	-2244
1036.326	-1247
1036.390	-1702
1036.454	-1824
1036.517	-818
1036.581	-1607
1036.645	-2015
1036.709	-1838
1036.772	-2259
1036.836	-1550
1036.900	-1800
1036.963	-2230
1037.026	-2025
1037.090	-1990
1037.154	-1783
1037.217	-1950
1037.280	-2358
1037.344	-1394
1037.407	-2331
1037.471	-2045
1037.534	-1831
1037.597	-2258
1037.661	-2620
1037.724	-1394
1037.787	-2509
1037.850	-2503
1037.913	-1256
1037.977	-2132
1038.040	-1840
1038.103	-2109
1038.166	-1757
1038.229	-1764
1038.292	-2601
1038.355	-2260
1038.418	-1856
1038.481	-1375
1038.544	-1778
1038.607	-1760
1038.670	-2049
1038.732	-1944
1038.795	-1822
1038.858	-1888
1038.921	-1530
1038.984	-1430
1039.046	-1774
1039.109	-2556
1039.172	-1874
1039.234	-2282
1039.297	-2081
1039.360	-1680
1039.422	-2642
1039.485	-1830
1039.547	-1900
1039.610	-1629
1039.672	-2767
1039.734	-1716
1039.797	-1423
1039.859	-2909
1039.922	-2271
1039.984	-2559
1040.046	-2527
1040.109	-1617
1040.171	-1629
1040.233	-1808
1040.295	-1793
1040.358	-2385
1040.420	-1275
1040.482	-1673
1040.544	-1677
1040.606	-1619
1040.668	-1824
1040.730	-1235
1040.792	-1991
1040.854	-1774
1040.916	-2475
1040.978	-1640
1041.040	-914
1041.102	-1811
1041.164	-2529
1041.225	-1795
1041.287	-2304
1041.349	-1759
1041.411	-1729
1041.472	-1981
1041.534	-1563
1041.596	-2080
1041.657	-1231
1041.719	-1637
1041.781	-1320
1041.842	-2789
1041.904	-1821
1041.965	-2149
1042.027	-1664
1042.088	-2087
1042.150	-2027
1042.211	-2541
1042.272	-2241
1042.334	-1684
1042.395	-1855
1042.456	-2085
1042.518	-1318
1042.579	-1544
1042.640	-2216
1042.701	-2529
1042.763	-2301
1042.824	-1980
1042.885	-1925
1042.946	-1746
1043.007	-1925
1043.068	-1907
1043.129	-919
1043.190	-2013
1043.251	-1615
1043.312	-1810
1043.373	-1266
1043.434	-2141
1043.495	-2043
1043.556	-1052
1043.616	-1565
1043.677	-1532
1043.738	-1345
1043.799	-2173
1043.859	-1619
1043.920	-2490
1043.981	-2298
1044.041	-2028
1044.102	-2162
1044.162	-1675
1044.223	-2023
1044.284	-2302
1044.344	-1590
1044.405	-1951
1044.465	-1436
1044.525	-1193
1044.586	-1621
1044.646	-2012
1044.707	-1730
1044.767	-1767
1044.827	-1576
1044.887	-1797
1044.948	-1431
1045.008	-772
1045.068	-2286
1045.128	-1447
1045.188	-2166
1045.249	-1262
1045.309	-1298
1045.369	-1826
1045.429	-1655
1045.489	-1940
1045.549	-2130
1045.609	-2173
1045.669	-2270
1045.729	-1649
1045.789	-1829
1045.848	-2382
1045.908	-1281
1045.968	-2043
1046.028	-2152
1046.088	-901
1046.147	-1009
1046.207	-1412
1046.267	-2195
1046.326	-931
1046.386	-1348
1046.446	-445
1046.505	-787
1046.565	-773
1046.624	-404
1046.684	-625
1046.743	-718
1046.803	-1219
1046.862	-635
1046.922	0
