'Start Wavelength	183.907
'End Wavelength	1046.922
'Gate Delay	5.000
'Gate Width (ms)	1.050
'Laser Output Level	0.000
'X Position	0.000
'Y Position	0.000
'Z Position	0.000
'Grid Point Number	1.000
'Shot Number	100.000
183.907	588.000
183.977	66.000
184.047	-391
184.116	1011
184.186	748
184.256	6
184.325	333
184.395	-1280
184.465	555
184.534	-152
184.604	-832
184.674	97
184.743	1075
184.813	78
184.883	-212
184.952	154
185.022	209
185.092	339
185.161	-49
185.231	234
185.301	-172
185.370	467
185.440	-434
185.509	129
185.579	-557
185.649	436
185.718	-160
185.788	-26
185.857	-362
185.927	-219
185.996	305
186.066	-572
186.136	-260
186.205	-781
186.275	-709
186.344	-239
186.414	-845
186.483	-864
186.553	683
186.622	260
186.692	333
186.761	612
186.831	-273
186.900	253
186.970	88
187.039	348
187.109	62
187.178	-129
187.248	39
187.317	284
187.387	-292
187.456	358
187.526	139
187.595	-49
187.664	-237
187.734	-837
187.803	47
187.873	-246
187.942	-250
188.012	-84
188.081	40
188.150	234
188.220	-125
188.289	138
188.358	149
188.428	445
188.497	-446
188.567	684
188.636	-577
188.705	-266
188.775	303
188.844	-895
188.913	-223
188.983	-354
189.052	-51
189.121	-566
189.191	-79
189.260	-77
189.329	322
189.399	344
189.468	231
189.537	-172
189.606	276
189.676	741
189.745	19
189.814	273
189.883	-227
189.953	-223
190.022	-234
190.091	-166
190.161	-82
190.230	243
190.299	-421
190.368	-787
190.437	325
190.507	-220
190.576	-418
190.645	-164
190.714	91
190.783	-739
190.853	142
190.922	28
190.991	-122
191.060	-229
191.129	-656
191.198	237
191.268	-173
191.337	362
191.406	16
191.475	703
191.544	-405
191.613	354
191.682	-585
191.752	-128
191.821	-237
191.890	-394
191.959	244
192.028	44
192.097	297
192.166	-340
192.235	-141
192.304	-202
192.373	-20
192.442	208
192.511	-313
192.580	-428
192.650	-330
192.719	-778
192.788	276
192.857	55
192.926	253
192.995	-417
193.064	95
193.133	-405
193.202	424
193.271	-234
193.340	303
193.409	86
193.478	248
193.547	382
193.615	583
193.684	355
193.753	-35
193.822	482
193.891	-298
193.960	136
194.029	-399
194.098	769
194.167	-742
194.236	-500
194.305	-286
194.374	216
194.443	-307
194.512	-58
194.580	328
194.649	-365
194.718	141
194.787	-870
194.856	-224
194.925	507
194.994	-498
195.062	-266
195.131	-191
195.200	84
195.269	-817
195.338	346
195.407	-617
195.475	238
195.544	219
195.613	-106
195.682	46
195.751	-844
195.819	-191
195.888	255
195.957	75
196.026	-403
196.094	314
196.163	-423
196.232	-277
196.301	-35
196.369	-81
196.438	-389
196.507	-212
196.576	-207
196.644	-24
196.713	-433
196.782	-385
196.850	326
196.919	-123
196.988	448
197.056	-437
197.125	240
197.194	526
197.262	-56
197.331	-451
197.400	116
197.468	-231
197.537	-427
197.606	451
197.674	-15
197.743	-366
197.812	-796
197.880	820
197.949	-629
198.017	161
198.086	-193
198.155	-415
198.223	8
198.292	1024
198.360	95
198.429	64
198.497	138
198.566	119
198.635	102
198.703	-10
198.772	-56
198.840	-745
198.909	117
198.977	57
199.046	-321
199.114	659
199.183	33
199.251	121
199.320	-60
199.388	-225
199.457	-266
199.525	-129
199.594	-270
199.662	-272
199.731	-322
199.799	-195
199.867	45
199.936	-450
200.004	-463
200.073	-222
200.141	93
200.210	20
200.278	122
200.346	-141
200.415	166
200.483	905
200.552	919
200.620	-474
200.688	-599
200.757	-176
200.825	198
200.893	-70
200.962	-336
201.030	-835
201.098	-570
201.167	-554
201.235	-400
201.303	27
201.372	526
201.440	-276
201.508	-303
201.577	-183
201.645	360
201.713	175
201.781	481
201.850	312
201.918	271
201.986	-447
202.055	599
202.123	-420
202.191	-137
202.259	315
202.327	-491
202.396	501
202.464	-675
202.532	-271
202.600	687
202.669	44
202.737	-6
202.805	193
202.873	671
202.941	62
203.009	83
203.078	-693
203.146	-63
203.214	-182
203.282	-691
203.350	-280
203.418	91
203.487	468
203.555	-970
203.623	-485
203.691	109
203.759	70
203.827	-724
203.895	238
203.963	-917
204.031	-268
204.099	37
204.168	-835
204.236	170
204.304	50
204.372	56
204.440	-116
204.508	-115
204.576	-1314
204.644	458
204.712	-1293
204.780	-295
204.848	-399
204.916	-512
204.984	-657
205.052	-595
205.120	-952
205.188	150
205.256	-722
205.324	-268
205.392	-683
205.460	-198
205.528	-1246
205.596	-160
205.664	-414
205.732	277
205.799	-557
205.867	298
205.935	-480
206.003	726
206.071	-1134
206.139	-793
206.207	-522
206.275	-314
206.343	-783
206.411	-282
206.478	-302
206.546	-227
206.614	-472
206.682	-292
206.750	-623
206.818	-79
206.885	579
206.953	-675
207.021	748
207.089	-774
207.157	-1018
207.225	314
207.292	-71
207.360	-227
207.428	-477
207.496	-614
207.563	200
207.631	-68
207.699	-552
207.767	345
207.834	-622
207.902	-289
207.970	-366
208.038	-1075
208.105	-190
208.173	-701
208.241	-262
208.309	60
208.376	-299
208.444	-1
208.512	-703
208.579	-780
208.647	329
208.715	891
208.782	31
208.850	50
208.918	-319
208.985	-12
209.053	-351
209.120	128
209.188	-680
209.256	68
209.323	-848
209.391	-640
209.459	5
209.526	20
209.594	-201
209.661	-782
209.729	17
209.796	463
209.864	-454
209.932	-762
209.999	1469
210.067	78
210.134	-122
210.202	-423
210.269	83
210.337	682
210.404	-102
210.472	50
210.539	-27
210.607	-652
210.674	-512
210.742	-626
210.809	-340
210.877	-7
210.944	261
211.012	-1099
211.079	1653
211.146	-154
211.214	167
211.281	265
211.349	-254
211.416	-350
211.484	-260
211.551	-807
211.618	322
211.686	3
211.753	17
211.821	453
211.888	-135
211.955	-28
212.023	-1021
212.090	45
212.157	92
212.225	-684
212.292	654
212.359	596
212.427	1915
212.494	8
212.561	-80
212.629	-568
212.696	306
212.763	293
212.831	-614
212.898	216
212.965	-571
213.032	512
213.100	22
213.167	-262
213.234	954
213.301	-182
213.369	-44
213.436	-1042
213.503	-344
213.570	651
213.638	-252
213.705	-622
213.772	-473
213.839	-681
213.906	-289
213.973	513
214.041	-124
214.108	-22
214.175	-812
214.242	-236
214.309	-856
214.376	-959
214.444	-816
214.511	5
214.578	540
214.645	642
214.712	-34
214.779	-945
214.846	-514
214.913	-87
214.980	170
215.048	246
215.115	788
215.182	37
215.249	178
215.316	-284
215.383	575
215.450	-29
215.517	-207
215.584	350
215.651	-337
215.718	-427
215.785	494
215.852	-698
215.919	-226
215.986	-200
216.053	-61
216.120	-667
216.187	-961
216.254	132
216.321	-914
216.388	130
216.455	-51
216.522	-61
216.589	-167
216.656	554
216.722	-194
216.789	-641
216.856	98
216.923	-118
216.990	281
217.057	-520
217.124	-46
217.191	-875
217.258	228
217.324	-316
217.391	149
217.458	293
217.525	-401
217.592	232
217.659	-1099
217.725	1236
217.792	-13
217.859	178
217.926	-1031
217.993	92
218.059	-457
218.126	-976
218.193	-505
218.260	-291
218.327	-236
218.393	45
218.460	-1072
218.527	-953
218.594	-892
218.660	-917
218.727	0
218.794	-709
218.860	-222
218.927	-224
218.994	-245
219.061	-1022
219.127	-92
219.194	44
219.261	-121
219.327	-466
219.394	397
219.461	-740
219.527	107
219.594	190
219.661	-761
219.727	-727
219.794	622
219.860	-1541
219.927	-57
219.994	22
220.060	1139
220.127	1174
220.193	469
220.260	-594
220.326	673
220.393	549
220.460	136
220.526	-185
220.593	-598
220.659	1094
220.726	207
220.792	761
220.859	483
220.925	682
220.992	1681
221.058	2058
221.125	1193
221.191	29
221.258	-138
221.324	-423
221.391	-860
221.457	13
221.524	-508
221.590	-106
221.657	513
221.723	920
221.789	-83
221.856	509
221.922	-302
221.989	311
222.055	-49
222.121	-1115
222.188	1492
222.254	-542
222.321	-575
222.387	-1078
222.453	228
222.520	-328
222.586	-661
222.652	507
222.719	-188
222.785	83
222.851	-545
222.918	-250
222.984	-451
223.050	-441
223.116	-1050
223.183	363
223.249	-369
223.315	-423
223.382	-652
223.448	-515
223.514	-208
223.580	-1342
223.647	-1009
223.713	-598
223.779	-1024
223.845	-929
223.911	-474
223.978	-954
224.044	-605
224.110	-96
224.176	-248
224.242	-725
224.309	-658
224.375	155
224.441	-398
224.507	-351
224.573	-1028
224.639	221
224.705	-926
224.772	434
224.838	-693
224.904	-333
224.970	-347
225.036	-535
225.102	-1100
225.168	259
225.234	106
225.300	57
225.366	390
225.432	-217
225.499	-1458
225.565	-545
225.631	-756
225.697	-31
225.763	344
225.829	-8
225.895	35
225.961	142
226.027	-715
226.093	-558
226.159	1033
226.225	629
226.291	1944
226.357	3784
226.423	1251
226.489	1171
226.554	427
226.620	79
226.686	-33
226.752	650
226.818	1571
226.884	4160
226.950	4825
227.016	748
227.082	955
227.148	242
227.214	-149
227.279	-609
227.345	-396
227.411	943
227.477	1503
227.543	2890
227.609	3523
227.674	1941
227.740	50
227.806	-186
227.872	212
227.938	-334
228.003	-403
228.069	5
228.135	-1126
228.201	-150
228.267	-792
228.332	-72
228.398	-1281
228.464	-296
228.530	-181
228.595	-200
228.661	-1305
228.727	-825
228.792	-176
228.858	-1011
228.924	-2174
228.990	183
229.055	-2438
229.121	-127
229.187	-412
229.252	-1036
229.318	-1117
229.384	-155
229.449	-1021
229.515	-1596
229.581	-882
229.646	1160
229.712	-671
229.777	227
229.843	-737
229.909	-439
229.974	-35
230.040	-18
230.105	-647
230.171	-1189
230.236	50
230.302	-279
230.368	-1033
230.433	-578
230.499	-673
230.564	-88
230.630	-811
230.695	-219
230.761	880
230.826	-1716
230.892	629
230.957	-1094
231.023	-1077
231.088	68
231.154	-173
231.219	174
231.284	-917
231.350	-35
231.415	-838
231.481	510
231.546	-846
231.612	119
231.677	-1026
231.742	-1087
231.808	472
231.873	-783
231.939	-1760
232.004	1094
232.069	95
232.135	-451
232.200	-370
232.265	-362
232.331	-562
232.396	-773
232.461	-457
232.527	-758
232.592	-853
232.657	-348
232.723	-999
232.788	-419
232.853	502
232.918	208
232.984	-1377
233.049	-1032
233.114	-1030
233.179	216
233.245	301
233.310	-278
233.375	-1467
233.440	-165
233.506	-818
233.571	-1082
233.636	-630
233.701	602
233.766	-1473
233.832	-356
233.897	-495
233.962	-821
234.027	244
234.092	-198
234.157	-515
234.222	-191
234.288	-964
234.353	-422
234.418	-232
234.483	-375
234.548	-410
234.613	-836
234.678	-211
234.743	-599
234.808	409
234.873	-2081
234.938	770
235.004	-626
235.069	-543
235.134	-273
235.199	-563
235.264	7
235.329	-855
235.394	247
235.459	-36
235.524	-1070
235.589	634
235.654	-110
235.719	-1290
235.784	356
235.849	-607
235.913	26
235.978	-358
236.043	175
236.108	480
236.173	-1256
236.238	585
236.303	-1003
236.368	-1285
236.433	-202
236.498	-552
236.563	-234
236.627	899
236.692	6369
236.757	5652
236.822	1769
236.887	-681
236.952	184
237.017	-817
237.081	501
237.146	-2
237.211	2573
237.276	5647
237.341	11955
237.405	3392
237.470	1585
237.535	606
237.600	-353
237.664	354
237.729	-1164
237.794	-693
237.859	1754
237.923	-287
237.988	-512
238.053	559
238.118	-846
238.182	-662
238.247	1185
238.312	-1826
238.376	-25
238.441	-1582
238.506	1151
238.570	-1276
238.635	1427
238.700	288
238.764	-256
238.829	-487
238.893	-725
238.958	859
239.023	-454
239.087	-209
239.152	-105
239.216	-1168
239.281	105
239.346	-419
239.410	-226
239.475	-997
239.539	690
239.604	-698
239.668	333
239.733	244
239.797	2604
239.862	6309
239.926	4434
239.991	1471
240.055	534
240.120	399
240.184	297
240.249	-176
240.313	-646
240.378	-571
240.442	-932
240.507	290
240.571	223
240.635	-434
240.700	417
240.764	-440
240.829	-503
240.893	-978
240.957	-346
241.022	-260
241.086	279
241.151	-1768
241.215	-857
241.279	286
241.344	-1507
241.408	49
241.472	-534
241.537	287
241.601	399
241.665	-1228
241.730	-476
241.794	566
241.858	-519
241.922	-514
241.987	189
242.051	-734
242.115	-1650
242.179	-717
242.244	-524
242.308	525
242.372	-135
242.436	-853
242.501	-142
242.565	-1400
242.629	-378
242.693	579
242.757	-638
242.822	-214
242.886	-485
242.950	320
243.014	-1173
243.078	-264
243.142	-274
243.206	-1313
243.271	-48
243.335	-616
243.399	670
243.463	1139
243.527	8175
243.591	1510
243.655	-103
243.719	-721
243.783	925
243.847	33
243.911	542
243.975	-695
244.040	-652
244.104	1103
244.168	185
244.232	-824
244.296	-141
244.360	18
244.424	-944
244.488	73
244.552	215
244.615	-1760
244.679	551
244.743	-772
244.807	-698
244.871	243
244.935	836
244.999	-1536
245.063	-63
245.127	590
245.191	142
245.255	-658
245.319	84
245.383	-1736
245.446	620
245.510	-1635
245.574	-1301
245.638	-106
245.702	-1561
245.766	127
245.829	369
245.893	-1274
245.957	-532
246.021	72
246.085	-783
246.149	-749
246.212	793
246.276	1014
246.340	-355
246.404	76
246.467	727
246.531	-2226
246.595	471
246.659	473
246.722	-975
246.786	-426
246.850	221
246.913	-351
246.977	-1814
247.041	336
247.104	-155
247.168	-642
247.232	-908
247.295	1509
247.359	690
247.423	-169
247.486	-24
247.550	863
247.614	-218
247.677	-497
247.741	-643
247.804	-773
247.868	-632
247.932	-569
247.995	2142
248.059	-370
248.122	-824
248.186	605
248.249	-93
248.313	3244
248.376	3633
248.440	839
248.503	-1207
248.567	1206
248.630	-401
248.694	-144
248.757	1461
248.821	3301
248.884	2104
248.948	1101
249.011	2168
249.075	4025
249.138	4149
249.202	271
249.265	-212
249.328	46
249.392	-1526
249.455	528
249.519	190
249.582	-83
249.645	584
249.709	-190
249.772	-771
249.835	158
249.899	-218
249.962	211
250.025	169
250.089	519
250.152	1130
250.215	118
250.279	-253
250.342	80
250.405	96
250.468	-189
250.532	415
250.595	1279
250.658	5454
250.721	13999
250.785	4278
250.848	2180
250.911	-349
250.974	1099
251.038	511
251.101	2632
251.164	955
251.227	1378
251.290	861
251.354	1920
251.417	9936
251.480	10475
251.543	5810
251.606	20471
251.669	15609
251.732	4374
251.795	2933
251.859	3882
251.922	12320
251.985	7043
252.048	1612
252.111	758
252.174	-74
252.237	1516
252.300	4681
252.363	3995
252.426	16338
252.489	4331
252.552	2273
252.615	545
252.678	1528
252.741	2597
252.804	5047
252.867	17514
252.930	8413
252.993	2091
253.056	1563
253.119	634
253.182	-63
253.245	177
253.308	745
253.371	-290
253.434	413
253.497	148
253.559	1318
253.622	42
253.685	672
253.748	893
253.811	101
253.874	742
253.937	-601
254.000	241
254.062	428
254.125	920
254.188	1593
254.251	-232
254.314	-303
254.376	486
254.439	522
254.502	773
254.565	-167
254.628	2802
254.690	486
254.753	-1395
254.816	-221
254.878	-235
254.941	743
255.004	499
255.067	-193
255.129	-845
255.192	-20
255.255	-1774
255.317	-161
255.380	-530
255.443	-137
255.505	-25
255.568	-1221
255.631	-926
255.693	72
255.756	-87
255.819	843
255.881	-346
255.944	-304
256.006	40
256.069	-508
256.132	-838
256.194	90
256.257	-689
256.319	-117
256.382	-610
256.444	1485
256.507	1042
256.569	-338
256.632	-413
256.694	-263
256.757	2946
256.819	11088
256.882	2220
256.944	724
257.007	1159
257.069	-68
257.132	78
257.194	1226
257.257	-350
257.319	-454
257.381	-365
257.444	2009
257.506	11764
257.569	13873
257.631	2857
257.693	1242
257.756	676
257.818	331
257.880	-347
257.943	843
258.005	-1640
258.067	-292
258.130	-176
258.192	296
258.254	33
258.317	13
258.379	-299
258.441	89
258.503	1494
258.566	-260
258.628	354
258.690	-753
258.753	31
258.815	80
258.877	-1210
258.939	-27
259.001	-144
259.064	229
259.126	-805
259.188	47
259.250	-123
259.312	-180
259.375	445
259.437	-112
259.499	17
259.561	-191
259.623	253
259.685	-684
259.747	-291
259.809	725
259.872	311
259.934	2214
259.996	2555
260.058	870
260.120	-1117
260.182	-447
260.244	27
260.306	-753
260.368	-100
260.430	-296
260.492	106
260.554	1676
260.616	-134
260.678	520
260.740	1054
260.802	-682
260.864	415
260.926	-1343
260.988	749
261.050	-1010
261.112	-478
261.174	1677
261.236	639
261.298	210
261.359	142
261.421	702
261.483	-797
261.545	619
261.607	-1399
261.669	-1
261.731	-651
261.793	768
261.854	-1039
261.916	909
261.978	-142
262.040	-367
262.102	210
262.164	-495
262.225	1161
262.287	-166
262.349	-327
262.411	24
262.472	585
262.534	-1423
262.596	137
262.658	-411
262.719	-149
262.781	906
262.843	-677
262.904	640
262.966	-487
263.028	317
263.090	1200
263.151	7234
263.213	2786
263.275	743
263.336	712
263.398	713
263.459	-647
263.521	-698
263.583	696
263.644	985
263.706	-16
263.767	-1110
263.829	611
263.891	215
263.952	-99
264.014	-427
264.075	-530
264.137	1426
264.198	182
264.260	-598
264.321	109
264.383	-759
264.444	1892
264.506	128
264.567	-623
264.629	-244
264.690	-214
264.752	510
264.813	272
264.875	-1283
264.936	833
264.998	-363
265.059	368
265.120	189
265.182	-430
265.243	4350
265.305	5435
265.366	1517
265.427	425
265.489	960
265.550	-1083
265.611	-47
265.673	-545
265.734	-122
265.795	794
265.857	-538
265.918	-1078
265.979	1249
266.040	8214
266.102	7920
266.163	1858
266.224	228
266.286	461
266.347	-638
266.408	-677
266.469	-257
266.530	-303
266.592	-95
266.653	-8
266.714	-16
266.775	-907
266.836	248
266.898	92
266.959	-297
267.020	-773
267.081	1078
267.142	-383
267.203	396
267.264	-890
267.326	1150
267.387	-474
267.448	-331
267.509	325
267.570	217
267.631	-591
267.692	-941
267.753	39
267.814	-1023
267.875	-357
267.936	959
267.997	-651
268.058	-464
268.119	-1158
268.180	-823
268.241	-380
268.302	-651
268.363	-469
268.424	-367
268.485	-162
268.546	-580
268.607	-222
268.668	-230
268.729	-798
268.790	-800
268.851	313
268.912	318
268.972	-74
269.033	-607
269.094	-682
269.155	-429
269.216	162
269.277	177
269.338	6
269.398	-28
269.459	-1295
269.520	-99
269.581	-238
269.642	-244
269.702	-452
269.763	222
269.824	-1005
269.885	-182
269.945	-87
270.006	299
270.067	-398
270.128	-719
270.188	-849
270.249	-461
270.310	-656
270.370	-829
270.431	-722
270.492	-1200
270.553	-275
270.613	212
270.674	-3
270.734	-219
270.795	-72
270.856	182
270.916	-986
270.977	50
271.038	-459
271.098	-79
271.159	-325
271.219	-203
271.280	57
271.340	-273
271.401	-336
271.462	-159
271.522	-246
271.583	-278
271.643	15
271.704	29
271.764	-381
271.825	133
271.885	3204
271.946	4803
272.006	723
272.066	2147
272.127	4266
272.187	3550
272.248	831
272.308	513
272.369	2351
272.429	1790
272.489	433
272.550	479
272.610	86
272.671	-315
272.731	241
272.791	613
272.852	-47
272.912	551
272.972	12
273.033	354
273.093	193
273.153	967
273.214	105
273.274	81
273.334	1608
273.394	4250
273.455	2115
273.515	1856
273.575	3034
273.635	1726
273.696	3013
273.756	4164
273.816	2548
273.876	1863
273.936	1300
273.997	1683
274.057	232
274.117	-646
274.177	506
274.237	3553
274.297	3359
274.358	1232
274.418	1924
274.478	1558
274.538	101
274.598	-107
274.658	671
274.718	578
274.778	474
274.838	599
274.898	-666
274.958	1446
275.018	2723
275.078	2219
275.138	684
275.198	-367
275.258	-320
275.318	-12
275.378	-239
275.438	-85
275.498	179
275.558	852
275.618	2149
275.678	1795
275.738	859
275.798	-48
275.858	-139
275.918	-750
275.978	35
276.038	-592
276.098	161
276.157	639
276.217	1518
276.277	765
276.337	-22
276.397	636
276.457	-188
276.517	-709
276.576	-81
276.636	-765
276.696	68
276.756	918
276.815	673
276.875	348
276.935	24
276.995	101
277.055	33
277.114	780
277.174	318
277.234	1154
277.293	-57
277.353	-72
277.413	29
277.472	167
277.532	576
277.592	1215
277.651	5709
277.711	14523
277.771	4067
277.830	12180
277.890	12147
277.950	6054
278.009	24127
278.069	10426
278.128	9636
278.188	15247
278.248	6018
278.307	15209
278.367	10687
278.426	2139
278.486	1067
278.545	1402
278.605	861
278.664	105
278.724	237
278.783	2025
278.843	5568
278.902	1373
278.962	502
279.021	1542
279.081	2314
279.140	2166
279.199	1234
279.259	1164
279.318	2245
279.378	3888
279.437	5352
279.496	15811
279.556	58140
279.615	50396
279.675	13536
279.734	6862
279.793	6244
279.853	10108
279.912	4768
279.971	2653
280.031	2165
280.090	4099
280.149	7267
280.208	7933
280.268	38439
280.327	44179
280.386	10621
280.445	5439
280.505	2826
280.564	2405
280.623	1771
280.682	1913
280.742	1580
280.801	1589
280.860	1716
280.919	1163
280.978	605
281.037	1107
281.097	182
281.156	1497
281.215	1074
281.274	594
281.333	1715
281.392	2000
281.451	272
281.510	593
281.569	304
281.628	309
281.688	520
281.747	665
281.806	-167
281.865	-177
281.924	-8
281.983	-166
282.042	-311
282.101	565
282.160	797
282.219	70
282.278	390
282.337	1478
282.396	295
282.454	409
282.513	225
282.572	813
282.631	680
282.690	473
282.749	-254
282.808	279
282.867	520
282.926	836
282.985	465
283.043	-200
283.102	-90
283.161	1430
283.220	759
283.279	3214
283.338	982
283.396	482
283.455	1129
283.514	1666
283.573	1145
283.631	1538
283.690	981
283.749	1826
283.808	969
283.866	2219
283.925	1105
283.984	1509
284.043	1231
284.101	1982
284.160	1635
284.219	2543
284.277	2292
284.336	2327
284.395	5270
284.453	4488
284.512	3595
284.570	5347
284.629	4870
284.688	5998
284.746	8255
284.805	10759
284.863	13723
284.922	18118
284.981	20879
285.039	28098
285.098	40131
285.156	53525
285.215	46835
285.273	40211
285.332	53324
285.390	46190
285.449	33604
285.507	25055
285.566	18202
285.624	13979
285.683	11127
285.741	9503
285.799	7768
285.858	5990
285.916	5210
285.975	4224
286.033	3638
286.091	3484
286.150	1911
286.208	2208
286.267	3388
286.325	2760
286.383	2005
286.442	2507
286.500	1859
286.558	1893
286.616	1229
286.675	1860
286.733	1829
286.791	534
286.850	804
286.908	1482
286.966	1460
287.024	720
287.083	-351
287.141	762
287.199	1215
287.257	1155
287.315	774
287.374	601
287.432	1383
287.490	1583
287.548	424
287.606	1294
287.664	1385
287.723	708
287.781	1183
287.839	1061
287.897	574
287.955	612
288.013	1624
288.071	3760
288.129	13254
288.187	50684
288.245	23014
288.303	6015
288.361	2891
288.419	1557
288.477	855
288.535	831
288.593	824
288.651	471
288.709	-310
288.767	504
288.825	333
288.883	186
288.941	-722
288.999	-645
289.057	71
289.115	517
289.173	554
289.231	260
289.289	263
289.346	-63
289.404	390
289.462	541
289.520	604
289.578	-780
289.636	599
289.694	52
289.751	224
289.809	515
289.867	-591
289.925	1073
289.983	-369
290.040	73
290.098	-2
290.156	25
290.214	-580
290.271	-127
290.329	1117
290.387	574
290.444	-595
290.502	286
290.560	-132
290.617	2
290.675	-364
290.733	-405
290.790	969
290.848	889
290.906	-250
290.963	163
291.021	314
291.078	201
291.136	-347
291.194	610
291.251	2070
291.309	419
291.366	-627
291.424	-365
291.481	-555
291.539	1122
291.596	760
291.654	571
291.711	-46
291.769	680
291.826	76
291.884	416
291.941	134
291.999	-184
292.056	-923
292.114	-226
292.171	-857
292.228	437
292.286	91
292.343	110
292.401	-138
292.458	339
292.515	-161
292.573	1653
292.630	293
292.687	-20
292.745	196
292.802	204
292.859	1145
292.917	1785
292.974	748
293.031	-421
293.089	-217
293.146	341
293.203	-302
293.260	-449
293.318	-263
293.375	583
293.432	-211
293.489	-101
293.546	-11
293.604	398
293.661	767
293.718	5267
293.775	2311
293.832	1732
293.889	2272
293.947	1716
294.004	327
294.061	72
294.118	75
294.175	2494
294.232	4814
294.289	2565
294.346	702
294.403	1196
294.460	47
294.517	49
294.574	-770
294.631	498
294.688	558
294.745	711
294.802	4732
294.859	4554
294.916	1282
294.973	341
295.030	-33
295.087	202
295.144	385
295.201	-564
295.258	325
295.315	373
295.372	787
295.429	3444
295.486	1868
295.542	717
295.599	1364
295.656	3149
295.713	2060
295.770	2442
295.827	1720
295.883	122
295.940	621
295.997	0
296.054	174
296.111	717
296.167	247
296.224	664
296.281	-873
296.338	149
296.394	-654
296.451	-242
296.508	491
296.564	1981
296.621	1553
296.678	3666
296.734	5277
296.791	1983
296.848	698
296.904	456
296.961	779
297.018	2879
297.074	2857
297.131	997
297.187	-167
297.244	227
297.301	3220
297.357	8747
297.414	2329
297.470	987
297.527	48
297.583	-49
297.640	452
297.696	-64
297.753	-412
297.809	532
297.866	-289
297.922	750
297.979	-468
298.035	-933
298.092	-460
298.148	1992
298.204	2164
298.261	168
298.317	1453
298.374	5125
298.430	3058
298.486	573
298.543	-187
298.599	-25
298.656	126
298.712	712
298.768	3177
298.824	3049
298.881	505
298.937	381
298.993	849
299.050	-269
299.106	461
299.162	-417
299.218	444
299.275	597
299.331	72
299.387	1329
299.443	4449
299.500	12889
299.556	8775
299.612	2392
299.668	1890
299.724	7521
299.780	11140
299.837	3466
299.893	2707
299.949	7586
300.005	11168
300.061	8440
300.117	15283
300.173	6685
300.229	2142
300.285	1083
300.341	1866
300.397	1001
300.453	1289
300.510	1171
300.566	1231
300.622	2230
300.678	12618
300.734	18708
300.790	8260
300.845	7396
300.901	7639
300.957	13647
301.013	6964
301.069	1603
301.125	1362
301.181	1227
301.237	670
301.293	36
301.349	269
301.405	-842
301.461	-478
301.516	-151
301.572	-303
301.628	158
301.684	310
301.740	1186
301.796	2154
301.851	164
301.907	1267
301.963	1566
302.019	3796
302.074	11919
302.130	12841
302.186	5920
302.242	1798
302.297	889
302.353	625
302.409	1240
302.464	2493
302.520	915
302.576	3254
302.631	5059
302.687	1438
302.743	891
302.798	-231
302.854	-323
302.910	379
302.965	-544
303.021	480
303.076	1219
303.132	731
303.187	1299
303.243	48
303.299	227
303.354	-319
303.410	645
303.465	7
303.521	-349
303.576	743
303.632	479
303.687	1008
303.743	3799
303.798	3060
303.853	1801
303.909	121
303.964	-64
304.020	-138
304.075	874
304.130	-24
304.186	926
304.241	2879
304.297	1225
304.352	903
304.358	844
304.407	366
304.449	644
304.463	740
304.518	167
304.539	124
304.573	50
304.629	-202
304.630	-199
304.684	-46
304.720	2073
304.739	3140
304.794	4835
304.811	4288
304.850	2940
304.902	349
304.905	184
304.960	-129
304.992	-83
305.015	-88
305.071	159
305.083	98
305.126	-85
305.173	211
305.181	258
305.236	-402
305.264	-116
305.292	199
305.347	416
305.354	477
305.402	820
305.445	54
305.457	-162
305.512	382
305.535	434
305.567	497
305.622	-49
305.626	-49
305.678	228
305.716	2113
305.733	2805
305.788	4384
305.807	3712
305.843	2642
305.897	3641
305.898	3647
305.953	4529
305.988	2514
306.008	1493
306.063	817
306.078	779
306.118	670
306.168	307
306.173	279
306.228	198
306.259	407
306.283	557
306.338	450
306.349	449
306.393	440
306.440	403
306.448	385
306.503	785
306.530	587
306.558	562
306.613	1019
306.620	1125
306.668	1764
306.711	2695
306.723	2851
306.778	2694
306.801	2010
306.833	1197
306.888	951
306.892	916
306.943	749
306.982	821
306.997	731
307.052	624
307.072	394
307.107	357
307.162	507
307.163	512
307.217	902
307.253	580
307.272	526
307.327	1017
307.343	1107
307.381	1137
307.434	878
307.436	896
307.491	1507
307.524	2349
307.546	2625
307.600	2787
307.614	2548
307.655	1798
307.704	1514
307.710	1514
307.765	1022
307.795	1181
307.819	1547
307.874	2283
307.885	2394
307.929	2281
307.975	2898
307.984	3191
308.038	4235
308.065	5172
308.093	9527
308.148	20682
308.156	23651
308.202	38811
308.246	48658
308.257	47442
308.312	22993
308.336	14285
308.366	10028
308.421	5689
308.426	5400
308.475	3471
308.517	2778
308.530	2776
308.585	2782
308.607	2525
308.639	2133
308.694	3069
308.697	3070
308.748	3583
308.787	4170
308.803	4090
308.857	3860
308.877	3536
308.912	3904
308.967	5579
308.967	5594
309.021	8162
309.058	10751
309.076	13094
309.130	21192
309.148	24000
309.185	40339
309.238	68820
309.239	69062
309.293	79685
309.328	75759
309.348	66418
309.402	34281
309.418	26086
309.457	19083
309.508	13180
309.511	13135
309.566	15087
309.598	16917
309.620	21520
309.674	36257
309.688	39963
309.729	38122
309.778	30379
309.783	29514
309.837	18259
309.868	12534
309.892	10783
309.946	8375
309.959	7965
310.001	7839
310.049	7569
310.055	7313
310.109	5419
310.139	4033
310.163	3378
310.218	2584
310.229	2436
310.272	2373
310.319	2319
310.326	2241
310.381	1545
310.409	1316
310.435	1349
310.489	1253
310.499	1278
310.543	1742
310.589	2085
310.598	2018
310.652	1745
310.679	1444
310.706	1513
310.760	1845
310.769	1876
310.814	1561
310.859	1321
310.868	1366
310.923	1511
310.948	1585
310.977	1367
311.031	1001
311.038	944
311.085	1289
311.128	1559
311.139	1579
311.193	1740
311.218	1753
311.247	1547
311.301	1211
311.308	1163
311.356	1106
311.398	977
311.410	1070
311.464	1657
311.488	1887
311.518	1655
311.572	1182
311.578	1131
311.626	1459
311.668	1678
311.680	1692
311.734	1779
311.758	1796
311.788	1894
311.842	2082
311.847	2093
311.896	1830
311.937	1618
311.950	1630
312.004	1645
312.027	1654
312.058	1557
312.112	1382
312.117	1364
312.165	1397
312.207	1427
312.297	1253
312.386	1578
312.476	1787
312.566	1850
312.656	758
312.745	2186
312.835	1342
312.925	1485
313.015	1370
313.104	2020
313.194	1631
313.284	2254
313.374	2158
313.463	1837
313.553	2539
313.643	1546
313.732	1895
313.822	2371
313.912	2331
314.001	2022
314.091	2645
314.180	2979
314.270	2592
314.360	2844
314.449	2684
314.539	2359
314.628	2486
314.718	2557
314.808	2706
314.897	3257
314.987	3592
315.076	4686
315.166	2772
315.255	3884
315.345	2854
315.434	2624
315.524	1783
315.613	2668
315.703	3944
315.792	8868
315.881	28139
315.971	7621
316.060	3828
316.150	3408
316.239	2402
316.328	3081
316.418	2971
316.507	3155
316.597	3626
316.686	3851
316.775	3227
316.865	3381
316.954	2629
317.043	2700
317.133	1329
317.222	2068
317.311	1886
317.400	1226
317.490	3009
317.579	2422
317.668	3048
317.757	4911
317.847	14431
317.936	45403
318.025	11940
318.114	9281
318.203	4855
318.293	3595
318.382	5095
318.471	5639
318.560	5303
318.649	7966
318.738	2734
318.828	2089
318.917	1534
319.006	2045
319.095	2654
319.184	8979
319.273	3864
319.362	3259
319.451	1105
319.540	1352
319.629	1994
319.718	3208
319.807	1575
319.896	3117
319.985	11325
320.074	4150
320.163	1542
320.252	3101
320.341	2330
320.430	2702
320.519	2512
320.608	1985
320.697	3375
320.786	3150
320.875	3688
320.964	3881
321.053	4805
321.142	4935
321.230	6051
321.319	7063
321.408	8564
321.497	7834
321.586	6269
321.675	4891
321.764	4603
321.852	4713
321.941	5559
322.030	4975
322.119	4723
322.207	7638
322.296	8198
322.385	8496
322.474	10383
322.562	12715
322.651	8225
322.740	6862
322.829	6113
322.917	5018
323.006	3711
323.095	4119
323.183	3132
323.272	3914
323.361	3283
323.449	7291
323.538	3086
323.626	4991
323.715	3187
323.804	2266
323.892	4118
323.981	3422
324.069	1746
324.158	3387
324.246	2817
324.335	3005
324.424	1943
324.512	2435
324.601	1217
324.689	2685
324.778	1948
324.866	2547
324.954	1867
325.043	2364
325.131	1032
325.220	3325
325.308	2682
325.397	3351
325.485	2288
325.574	1662
325.662	1876
325.750	1000
325.839	1893
325.927	1883
326.015	1160
326.104	1687
326.192	1541
326.280	1291
326.369	1040
326.457	1828
326.545	1534
326.634	1304
326.722	1519
326.810	1508
326.898	1986
326.987	2596
327.075	1883
327.163	2598
327.251	1416
327.340	2293
327.428	3233
327.516	4358
327.604	2289
327.692	1554
327.781	1845
327.869	1507
327.957	984
328.045	1222
328.133	1272
328.221	1859
328.309	1025
328.397	2043
328.485	1689
328.574	4350
328.662	5739
328.750	3006
328.838	1948
328.926	2009
329.014	1455
329.102	1548
329.190	2834
329.278	2022
329.366	1201
329.454	1168
329.542	1676
329.630	1615
329.718	1581
329.806	1478
329.893	928
329.981	1203
330.069	2209
330.157	6355
330.245	16661
330.333	8119
330.421	1968
330.509	2347
330.597	1994
330.684	2451
330.772	1596
330.860	1920
330.948	1313
331.036	1478
331.123	1709
331.211	1745
331.299	1111
331.387	1390
331.475	2682
331.562	2426
331.650	1427
331.738	1692
331.825	2137
331.913	1790
332.001	1193
332.089	1853
332.176	2080
332.264	3434
332.352	1877
332.439	2272
332.527	1879
332.614	1391
332.702	1489
332.790	2346
332.877	2256
332.965	5874
333.052	4111
333.140	5436
333.228	13163
333.315	4041
333.403	2027
333.490	3391
333.578	5943
333.665	20822
333.753	8239
333.840	1705
333.928	2907
334.015	3796
334.103	5482
334.190	13313
334.278	8370
334.365	12920
334.452	11593
334.540	7312
334.627	5339
334.715	7817
334.802	11929
334.889	23039
334.977	32069
335.064	18454
335.151	8499
335.239	6306
335.326	4891
335.413	9506
335.501	10228
335.588	4583
335.675	4774
335.762	6890
335.850	8443
335.937	13695
336.024	23187
336.111	44472
336.199	38324
336.286	16970
336.373	8276
336.460	4496
336.547	4457
336.635	3584
336.722	3069
336.809	3032
336.896	2680
336.983	4457
337.070	7892
337.157	12355
337.245	5629
337.332	4359
337.419	2386
337.506	1930
337.593	2330
337.680	3216
337.767	7382
337.854	2965
337.941	2295
338.028	2163
338.115	1233
338.202	3033
338.289	2622
338.376	4178
338.463	2763
338.550	4668
338.637	5705
338.724	2027
338.811	2628
338.898	2062
338.984	762
339.071	1961
339.158	1188
339.245	2877
339.332	1741
339.419	1359
339.506	2217
339.593	1486
339.679	1432
339.766	1409
339.853	1371
339.940	1693
340.027	1590
340.113	1164
340.200	1643
340.287	1795
340.374	1648
340.460	1258
340.547	259
340.634	2522
340.720	3490
340.807	2673
340.894	1579
340.980	1587
341.067	1538
341.154	2621
341.240	1216
341.327	2139
341.414	2248
341.500	715
341.587	1767
341.674	1576
341.760	2237
341.847	1863
341.933	1527
342.020	871
342.106	1800
342.193	2023
342.279	1658
342.366	1695
342.452	1420
342.539	1974
342.625	1336
342.712	2690
342.798	2541
342.885	1391
342.971	795
343.058	1318
343.144	1807
343.230	1411
343.317	1437
343.403	1189
343.490	1396
343.576	1912
343.662	1022
343.749	1594
343.835	1039
343.921	3100
344.008	11137
344.094	21022
344.180	4547
344.267	1955
344.353	4923
344.439	3972
344.525	1275
344.612	2190
344.698	653
344.784	1289
344.870	1247
344.957	1667
345.043	2398
345.129	1934
345.215	1537
345.301	1008
345.387	1683
345.474	1963
345.560	1271
345.646	1106
345.732	1777
345.818	1806
345.904	1323
345.990	1605
346.076	1841
346.162	306
346.249	2103
346.335	2045
346.421	1906
346.507	3497
346.593	7253
346.679	1266
346.765	2533
346.851	3526
346.937	1525
347.023	2463
347.108	1858
347.194	1116
347.280	1055
347.366	2784
347.452	8887
347.538	14891
347.624	8878
347.710	4683
347.796	1705
347.882	1518
347.967	1741
348.053	1475
348.139	1650
348.225	1510
348.311	556
348.397	3068
348.482	2368
348.568	1468
348.654	2710
348.740	10879
348.825	9769
348.911	5566
348.997	5576
349.083	9539
349.168	2182
349.254	2046
349.340	563
349.425	2042
349.511	1004
349.597	2376
349.682	1892
349.768	4982
349.854	2524
349.939	1872
350.025	1372
350.110	1797
350.196	323
350.282	1256
350.367	1812
350.453	2056
350.538	1636
350.624	1371
350.709	1573
350.795	1020
350.880	971
350.966	2448
351.051	1498
351.137	858
351.222	686
351.308	2270
351.393	2898
351.479	2081
351.564	596
351.649	1724
351.735	1510
351.820	1402
351.906	1534
351.991	1703
352.076	2273
352.162	3900
352.247	2235
352.332	1479
352.418	792
352.503	1499
352.588	4291
352.673	2818
352.759	1372
352.844	1389
352.929	838
353.014	899
353.100	1306
353.185	2022
353.270	546
353.355	2169
353.441	2014
353.526	1676
353.611	1061
353.696	976
353.781	2044
353.866	1083
353.952	1897
354.037	1116
354.122	2324
354.207	2084
354.292	1234
354.377	1862
354.462	1440
354.547	1616
354.632	2283
354.717	2392
354.802	1326
354.887	1679
354.972	659
355.057	1656
355.142	1311
355.227	2203
355.312	1300
355.397	1996
355.482	2408
355.567	1594
355.652	2728
355.737	2184
355.822	3913
355.907	3452
355.991	2301
356.076	869
356.161	1878
356.246	1722
356.331	1962
356.416	1728
356.501	11013
356.585	9054
356.670	1832
356.755	3950
356.840	1841
356.924	8422
357.009	23006
357.094	7990
357.179	1348
357.263	1515
357.348	2271
357.433	2236
357.517	2182
357.602	1358
357.687	1567
357.771	2282
357.856	2125
357.941	3056
358.025	7036
358.110	27483
358.195	11143
358.279	2358
358.364	2577
358.448	4208
358.533	7682
358.617	5435
358.702	6743
358.787	2956
358.871	1990
358.956	2547
359.040	1450
359.125	1809
359.209	1487
359.294	2674
359.378	3639
359.462	2725
359.547	1817
359.631	2194
359.716	493
359.800	1179
359.885	2396
359.969	666
360.053	2357
360.138	1798
360.222	1488
360.306	1845
360.391	1358
360.475	2118
360.559	2657
360.644	3898
360.728	1297
360.812	7204
360.896	14740
360.981	5283
361.065	1926
361.149	2572
361.233	2620
361.318	1648
361.402	1275
361.486	3535
361.570	1876
361.654	1866
361.739	2792
361.823	9707
361.907	16906
361.991	4620
362.075	3006
362.159	5346
362.243	10982
362.327	27232
362.411	45084
362.495	16812
362.580	7421
362.664	6697
362.748	6032
362.832	11426
362.916	21836
363.000	74576
363.084	114161
363.168	50400
363.252	13421
363.336	7493
363.420	6298
363.503	10885
363.587	11017
363.671	4753
363.755	3234
363.839	5560
363.923	4077
364.007	6414
364.091	8856
364.175	12754
364.258	39446
364.342	83382
364.426	159557
364.510	82725
364.594	23528
364.677	12037
364.761	16271
364.845	12366
364.929	4443
365.013	3640
365.096	3681
365.180	2422
365.264	4718
365.347	16394
365.431	6508
365.515	2633
365.598	1299
365.682	3423
365.766	1632
365.849	3004
365.933	2392
366.017	3421
366.100	1692
366.184	1744
366.267	2799
366.351	2199
366.435	1236
366.518	1870
366.602	2896
366.685	2018
366.769	1562
366.852	2375
366.936	2933
367.019	2277
367.103	1050
367.186	4437
367.270	1746
367.353	1937
367.436	2683
367.520	2441
367.603	2775
367.687	1583
367.770	2397
367.853	3537
367.937	5290
368.020	6658
368.104	2204
368.187	2213
368.270	2144
368.353	1855
368.437	2627
368.520	4310
368.603	2016
368.687	3597
368.770	5827
368.853	2355
368.936	3309
369.020	3202
369.103	1255
369.186	1765
369.269	950
369.352	1755
369.436	1294
369.519	2398
369.602	300
369.685	3362
369.768	863
369.851	2499
369.934	1235
370.018	1613
370.101	1234
370.184	4179
370.267	2000
370.350	2120
370.433	2655
370.516	9524
370.599	18891
370.682	6265
370.765	4904
370.848	6309
370.931	7432
371.014	4818
371.097	1544
371.180	3030
371.263	2789
371.346	1432
371.429	2973
371.511	1828
371.594	2441
371.677	4397
371.760	5085
371.843	3934
371.926	13453
372.009	24610
372.091	12235
372.174	6822
372.257	12234
372.340	7170
372.423	5003
372.505	6916
372.588	3092
372.671	5142
372.754	7561
372.836	5610
372.919	4907
373.002	9452
373.085	3297
373.167	4846
373.250	5023
373.332	9387
373.415	17195
373.498	29292
373.580	13799
373.663	30659
373.746	32676
373.828	7141
373.911	4127
373.993	2475
374.076	8504
374.159	6431
374.241	3967
374.324	6988
374.406	6034
374.489	9933
374.571	23835
374.654	8996
374.736	6563
374.819	15649
374.901	23279
374.983	23021
375.066	5789
375.148	5162
375.231	7923
375.313	12911
375.395	4768
375.478	3654
375.560	3156
375.643	3382
375.725	6344
375.807	17189
375.890	13499
375.972	3866
376.054	3748
376.136	3810
376.219	2167
376.301	6336
376.383	13095
376.465	6704
376.548	2608
376.630	4184
376.712	11245
376.794	5594
376.877	2262
376.959	1353
377.041	1938
377.123	2356
377.205	2392
377.287	1819
377.369	2107
377.452	2268
377.534	1632
377.616	2349
377.698	1337
377.780	1308
377.862	1503
377.944	2999
378.026	253
378.108	2194
378.190	1755
378.272	2761
378.354	2068
378.436	1439
378.518	1187
378.600	2848
378.682	2716
378.764	4772
378.846	4642
378.928	2406
379.010	1983
379.091	3493
379.173	1381
379.255	1748
379.337	1161
379.419	2948
379.501	6919
379.583	3048
379.664	1122
379.746	1358
379.828	5291
379.910	5177
379.991	5606
380.073	1868
380.155	1038
380.237	1860
380.318	1612
380.400	1722
380.482	2355
380.564	2507
380.645	2614
380.727	2376
380.809	3003
380.890	2617
380.972	713
381.053	2187
381.135	2980
381.217	2251
381.298	5443
381.380	3481
381.461	3746
381.543	11783
381.624	13201
381.706	4603
381.787	3368
381.869	3997
381.951	7871
382.032	23788
382.113	16264
382.195	4198
382.276	5603
382.358	6745
382.439	13306
382.521	17547
382.602	24564
382.684	15471
382.765	24651
382.846	62792
382.928	139935
383.009	77564
383.090	57716
383.172	178647
383.253	229115
383.334	74540
383.416	35208
383.497	24237
383.578	24311
383.659	47354
383.741	152322
383.822	305380
383.903	156271
383.984	44155
384.066	29429
384.147	17055
384.228	9654
384.309	8510
384.390	7623
384.471	7285
384.553	5844
384.634	6086
384.715	5970
384.796	4673
384.877	5560
384.958	8646
385.039	6457
385.120	4514
385.201	5007
385.282	4828
385.363	5875
385.444	6220
385.525	6951
385.606	11759
385.687	10213
385.768	5533
385.849	4655
385.930	14900
386.011	21327
386.092	6613
386.173	3792
386.254	4349
386.335	4396
386.416	3363
386.496	4459
386.577	7139
386.658	4214
386.739	3310
386.820	5220
386.901	3846
386.981	4297
387.062	5059
387.143	5413
387.224	8805
387.304	9915
387.385	7758
387.466	5485
387.547	8506
387.627	7266
387.708	10253
387.789	13784
387.869	14728
387.950	7614
388.031	4730
388.111	1943
388.192	5875
388.273	7344
388.353	4509
388.434	3789
388.514	4137
388.595	11825
388.676	12642
388.756	6079
388.837	6333
388.917	3847
388.998	1012
389.078	3560
389.159	2891
389.239	1794
389.320	4617
389.400	2056
389.480	4422
389.561	4970
389.641	5398
389.722	2867
389.802	2466
389.883	4245
389.963	8635
390.043	4806
390.124	1764
390.204	3728
390.284	6077
390.365	3162
390.445	6623
390.525	13028
390.605	11804
390.686	3617
390.766	3479
390.846	4079
390.927	2384
391.007	1480
391.087	3945
391.167	1563
391.247	2188
391.328	3273
391.408	3820
391.488	3803
391.568	1792
391.648	2907
391.728	4128
391.808	5144
391.888	3737
391.969	5769
392.049	6925
392.129	6324
392.209	7511
392.289	10583
392.369	8214
392.449	8130
392.529	8121
392.609	9327
392.689	11175
392.769	14443
392.849	17670
392.929	20369
393.009	29064
393.089	39496
393.169	73445
393.248	187629
393.328	418531
393.408	403795
393.488	178631
393.568	67904
393.648	36048
393.728	21529
393.807	15587
393.887	13183
393.967	11180
394.047	8404
394.127	7374
394.206	9679
394.286	24148
394.366	97877
394.446	97605
394.525	19626
394.605	7147
394.685	6676
394.764	8227
394.844	14268
394.924	17382
395.003	6305
395.083	4219
395.163	3586
395.242	3556
395.322	3707
395.402	3147
395.481	6034
395.561	6185
395.640	22527
395.720	39133
395.799	23005
395.879	11097
395.958	9411
396.038	33238
396.117	125765
396.197	128684
396.276	32644
396.356	13604
396.435	12799
396.515	17491
396.594	25227
396.673	55148
396.753	174814
396.832	373045
396.912	264728
396.991	82163
397.070	33324
397.150	16959
397.229	16570
397.308	30394
397.388	55768
397.467	25669
397.546	8568
397.625	3764
397.705	6394
397.784	5169
397.863	3580
397.942	3941
398.022	3202
398.101	4387
398.180	8815
398.259	4977
398.338	3405
398.417	1979
398.497	1655
398.576	3614
398.655	510
398.734	3057
398.813	1681
398.892	3603
398.971	9411
399.050	4232
399.129	775
399.208	2133
399.287	1718
399.366	928
399.445	1645
399.524	2323
399.603	42
399.682	2179
399.761	2371
399.840	9615
399.919	7796
399.998	1387
400.077	1028
400.156	432
400.235	2734
400.313	1187
400.392	559
400.471	3616
400.550	3459
400.629	791
400.708	1220
400.786	871
400.865	1140
400.944	672
401.023	3062
401.102	605
401.180	356
401.259	765
401.338	682
401.416	1214
401.495	184
401.574	1841
401.652	317
401.731	1856
401.810	-345
401.888	690
401.967	-373
402.046	857
402.124	925
402.203	206
402.281	1310
402.360	1404
402.438	1812
402.517	208
402.596	927
402.674	612
402.753	689
402.831	1505
402.910	1682
402.988	2987
403.066	9403
403.145	6904
403.223	3751
403.302	7811
403.380	6895
403.459	6492
403.537	2274
403.615	1097
403.694	145
403.772	1508
403.850	903
403.929	743
404.007	567
404.085	2149
404.164	1226
404.242	696
404.320	3159
404.398	8266
404.477	6591
404.555	14414
404.633	11924
404.711	7326
404.789	3452
404.868	868
404.946	-554
405.024	546
405.102	31
405.180	471
405.258	-987
405.336	1200
405.415	-129
405.493	1134
405.571	1418
405.649	56
405.727	-291
405.805	1660
405.883	1497
405.961	2049
406.039	1026
406.117	-914
406.195	1199
406.273	2177
406.351	9002
406.429	6175
406.507	548
406.585	-668
406.663	-134
406.740	664
406.818	-61
406.896	513
406.974	1507
407.052	-45
407.130	4058
407.208	7171
407.285	2892
407.363	-311
407.441	105
407.519	1036
407.596	1133
407.674	3274
407.752	11936
407.830	8961
407.907	1844
407.985	393
408.063	1048
408.141	90
408.218	551
408.296	-224
408.373	157
408.451	1506
408.529	139
408.606	1107
408.684	653
408.762	1300
408.839	933
408.917	1452
408.994	739
409.072	1133
409.149	2678
409.227	6598
409.304	9222
409.382	10093
409.459	11312
409.537	15958
409.614	12478
409.692	9499
409.769	9227
409.846	16020
409.924	20336
410.001	11540
410.079	6687
410.156	5697
410.233	4113
410.311	2958
410.388	2257
410.465	2639
410.543	1408
410.620	2605
410.697	1899
410.775	1908
410.852	818
410.929	3333
411.006	3107
411.083	3209
411.161	2148
411.238	2124
411.315	1375
411.392	1623
411.469	1367
411.547	2090
411.624	-35
411.701	1123
411.778	613
411.855	1265
411.932	-147
412.009	1095
412.086	650
412.163	1524
412.240	0
412.317	1842
412.394	328
412.471	538
412.548	593
412.625	-96
412.702	69
412.779	733
412.856	533
412.933	655
413.010	898
413.087	995
413.164	1069
413.241	2307
413.318	342
413.395	958
413.471	507
413.548	732
413.625	28
413.702	-276
413.779	43
413.855	531
413.932	-385
414.009	-808
414.086	248
414.162	1070
414.239	863
414.316	1846
414.393	3771
414.469	136
414.546	59
414.623	778
414.699	391
414.776	152
414.853	-394
414.929	647
415.006	-273
415.082	1069
415.159	-360
415.236	402
415.312	510
415.389	715
415.465	-181
415.542	45
415.618	-1005
415.695	-11
415.771	-791
415.848	163
415.924	63
416.000	304
416.077	183
416.153	-433
416.230	-551
416.306	841
416.383	-849
416.459	905
416.535	-386
416.612	6
416.688	-69
416.764	987
416.841	-249
416.917	15
416.993	527
417.069	709
417.146	47
417.222	-29
417.298	-462
417.374	56
417.451	336
417.527	-102
417.603	-522
417.679	-7
417.755	-124
417.831	-324
417.908	205
417.984	328
418.060	-964
418.136	718
418.212	-23
418.288	655
418.364	886
418.440	-815
418.516	265
418.592	268
418.668	632
418.744	394
418.820	428
418.896	288
418.972	-487
419.048	-9
419.124	1375
419.200	-790
419.276	502
419.352	105
419.428	120
419.504	120
419.579	706
419.655	666
419.731	104
419.807	1405
419.883	-153
419.959	1779
420.034	498
420.110	1796
420.186	2086
420.262	2720
420.337	1397
420.413	2061
420.489	1350
420.565	2172
420.640	1505
420.716	2425
420.792	447
420.867	2707
420.943	1291
421.019	2928
421.094	2256
421.170	3206
421.245	2639
421.321	3790
421.397	3690
421.472	7039
421.548	10549
421.623	8711
421.699	6623
421.774	8335
421.850	8003
421.925	11006
422.001	12279
422.076	15839
422.152	18844
422.227	26927
422.302	37084
422.378	55735
422.453	91941
422.529	157394
422.604	211236
422.679	182071
422.755	192951
422.830	158635
422.905	97069
422.981	60346
423.056	42858
423.131	31438
423.207	22869
423.282	18601
423.357	14854
423.432	12192
423.508	10414
423.583	8669
423.658	7444
423.733	6884
423.808	5680
423.883	6916
423.959	6193
424.034	8671
424.109	7550
424.184	5252
424.259	3233
424.334	4268
424.409	2401
424.484	3341
424.559	1404
424.634	1655
424.709	1801
424.784	1693
424.859	1549
424.934	1449
425.009	2602
425.084	3307
425.159	1681
425.234	1863
425.309	846
425.384	1190
425.459	-127
425.534	2158
425.609	421
425.683	729
425.758	370
425.833	799
425.908	1014
425.983	502
426.058	3011
426.132	1284
426.207	570
426.282	1262
426.357	28
426.431	629
426.506	586
426.581	638
426.655	137
426.730	70
426.805	-438
426.879	2131
426.954	235
427.029	531
427.103	2730
427.178	7608
427.253	2233
427.327	718
427.402	-684
427.476	706
427.551	329
427.625	1376
427.700	436
427.774	-228
427.849	484
427.923	79
427.998	8
428.072	849
428.147	5006
428.221	26090
428.296	75554
428.370	39474
428.444	4814
428.519	1904
428.593	951
428.667	2577
428.742	2605
428.816	9291
428.890	47288
428.965	67726
429.039	16518
429.113	3321
429.188	797
429.262	472
429.336	1184
429.410	1813
429.485	1738
429.559	2051
429.633	1302
429.707	2045
429.781	7215
429.855	44372
429.930	61799
430.004	16682
430.078	11788
430.152	31030
430.226	102287
430.300	95059
430.374	19319
430.448	5116
430.522	3691
430.596	8203
430.670	15431
430.744	59899
430.818	62577
430.892	10730
430.966	1817
431.040	968
431.114	-494
431.188	447
431.262	-51
431.336	417
431.410	1184
431.484	608
431.557	1604
431.631	741
431.705	2336
431.779	19507
431.853	72713
431.927	46283
432.000	6423
432.074	1171
432.148	848
432.222	150
432.295	-15
432.369	194
432.443	-1126
432.516	2395
432.590	7322
432.664	2463
432.737	-172
432.811	-1394
432.885	-533
432.958	-289
433.032	-1293
433.106	-461
433.179	-1601
433.253	-289
433.326	-1220
433.400	-879
433.473	-456
433.547	-827
433.620	-1066
433.694	-160
433.767	-805
433.841	139
433.914	-574
433.988	-628
434.061	284
434.134	-488
434.208	-940
434.281	-235
434.355	-1055
434.428	-82
434.501	-762
434.575	-161
434.648	-305
434.721	-340
434.795	-1032
434.868	-412
434.941	-445
435.014	-476
435.088	-357
435.161	1219
435.234	1219
435.307	1780
435.381	2376
435.454	3863
435.527	7500
435.600	8575
435.673	5807
435.746	3036
435.819	1906
435.892	1793
435.966	473
436.039	992
436.112	427
436.185	-754
436.258	-701
436.331	-780
436.404	-449
436.477	-191
436.550	-801
436.623	374
436.696	-481
436.769	204
436.842	-825
436.915	-1171
436.987	-235
437.060	-374
437.133	-800
437.206	-303
437.279	-276
437.352	-386
437.425	-511
437.498	220
437.570	-125
437.643	226
437.716	-612
437.789	-1
437.861	-1167
437.934	201
438.007	-789
438.080	-750
438.152	-23
438.225	-251
438.298	3696
438.370	12605
438.443	4533
438.516	-290
438.588	-227
438.661	-417
438.734	-823
438.806	-42
438.879	62
438.951	-492
439.024	-1226
439.096	-520
439.169	-391
439.241	-335
439.314	-886
439.386	-950
439.459	-1165
439.531	-217
439.604	-978
439.676	-105
439.749	-104
439.821	82
439.893	-584
439.966	-324
440.038	-506
440.110	-798
440.183	-430
440.255	-562
440.327	193
440.400	531
440.472	5917
440.544	3291
440.617	-306
440.689	890
440.761	-921
440.833	275
440.905	-488
440.978	-541
441.050	-936
441.122	223
441.194	-1172
441.266	-306
441.338	-631
441.411	-324
441.483	951
441.555	1964
441.627	964
441.699	68
441.771	-956
441.843	-60
441.915	-449
441.987	825
442.059	359
442.131	1260
442.203	743
442.275	2319
442.347	4686
442.419	11069
442.491	57116
442.563	119320
442.635	46573
442.706	9569
442.778	3817
442.850	2196
442.922	798
442.994	1606
443.066	849
443.137	2761
443.209	3978
443.281	7071
443.353	16276
443.425	64352
443.496	182991
443.568	185537
443.640	76799
443.711	16525
443.783	6162
443.855	3926
443.926	2006
443.998	1408
444.070	629
444.141	860
444.213	602
444.285	1469
444.356	1037
444.428	1263
444.499	451
444.571	909
444.642	175
444.714	973
444.785	1170
444.857	1732
444.928	1233
445.000	2508
445.071	2756
445.143	4247
445.214	7113
445.285	12580
445.357	34439
445.428	123437
445.500	219433
445.571	169144
445.642	112661
445.714	38120
445.785	12516
445.856	3890
445.928	2455
445.999	2117
446.070	1660
446.141	1592
446.213	1080
446.284	380
446.355	925
446.426	-255
446.497	144
446.569	628
446.640	804
446.711	704
446.782	-559
446.853	-622
446.924	-594
446.995	-330
447.066	-1023
447.138	263
447.209	-228
447.280	-819
447.351	-1400
447.422	-569
447.493	-339
447.564	-643
447.635	-1216
447.706	-375
447.777	-1279
447.847	-692
447.918	-2179
447.989	-509
448.060	-1134
448.131	-269
448.202	-265
448.273	-282
448.344	45
448.414	62
448.485	-1402
448.556	-623
448.627	-1039
448.698	111
448.768	-864
448.839	-290
448.910	-833
448.981	-347
449.051	-466
449.122	-791
449.193	-1219
449.263	-648
449.334	-1314
449.405	-456
449.475	-398
449.546	274
449.616	-300
449.687	-50
449.758	-268
449.828	-754
449.899	-182
449.969	127
450.040	-758
450.110	-778
450.181	-659
450.251	-847
450.322	-807
450.392	-169
450.463	-308
450.533	-841
450.604	-1002
450.674	-1270
450.744	-146
450.815	336
450.885	83
450.955	373
451.026	-562
451.096	-520
451.166	-856
451.237	664
451.307	1006
451.377	1342
451.447	-540
451.518	-391
451.588	-964
451.658	-418
451.728	-718
451.799	419
451.869	-309
451.939	-790
452.009	-1139
452.079	-724
452.149	-555
452.219	162
452.289	173
452.360	-214
452.430	-465
452.500	351
452.570	820
452.640	6797
452.710	18079
452.780	20724
452.850	10106
452.920	3416
452.990	1838
453.060	865
453.129	-664
453.199	124
453.269	1247
453.339	2941
453.409	4665
453.479	4654
453.549	6542
453.619	6807
453.688	1519
453.758	185
453.828	-1169
453.898	-363
453.968	-873
454.037	-856
454.087	-862
454.107	-874
454.168	-346
454.177	-280
454.247	-1342
454.249	-1311
454.316	-911
454.330	-935
454.386	-1081
454.411	-655
454.456	1
454.492	124
454.525	234
454.574	-49
454.595	-183
454.655	-518
454.665	-582
454.734	-287
454.736	-293
454.804	-1072
454.817	-692
454.873	770
454.898	546
454.943	161
454.979	-242
455.013	-662
455.060	-404
455.082	-288
455.141	-301
455.152	-302
455.221	392
455.222	430
455.291	2193
455.303	2183
455.360	1933
455.384	2728
455.430	3789
455.465	2577
455.499	1452
455.546	848
455.569	607
455.627	205
455.638	110
455.707	-110
455.708	-101
455.777	-720
455.789	-605
455.846	-82
455.869	-184
455.916	-339
455.950	-135
455.985	-27
456.031	-210
456.054	-335
456.112	-63
456.124	-6
456.193	-296
456.193	-308
456.262	455
456.274	404
456.332	-54
456.355	-30
456.401	45
456.436	-287
456.470	-600
456.516	159
456.540	453
456.597	-392
456.609	-517
456.678	1294
456.678	1287
456.747	-272
456.759	-295
456.817	-118
456.840	34
456.886	170
456.920	468
456.955	770
457.001	347
457.024	136
457.082	699
457.093	795
457.162	418
457.163	432
457.232	791
457.243	670
457.301	89
457.324	229
457.370	504
457.405	629
457.439	766
457.485	920
457.508	1066
457.566	1789
457.577	2021
457.646	3349
457.647	3385
457.715	9412
457.727	10845
457.784	19776
457.808	27230
457.853	36383
457.889	42592
457.922	43022
457.969	27737
457.991	26922
458.050	32064
458.060	33153
458.129	60452
458.130	61234
458.198	61845
458.211	54884
458.267	29514
458.292	19933
458.336	11787
458.372	11074
458.405	15572
458.453	25240
458.474	32062
458.533	58667
458.543	60488
458.611	96704
458.614	97049
458.680	60464
458.694	47291
458.749	19972
458.775	13915
458.818	7056
458.855	5333
458.887	4410
458.936	2895
458.955	2271
459.016	1915
459.024	1942
459.093	1976
459.097	1990
459.162	1650
459.177	1590
459.230	1617
459.257	1742
459.299	1876
459.338	1823
459.368	1592
459.418	1379
459.437	1408
459.499	1332
459.505	1306
459.574	1804
459.579	1763
459.643	886
459.659	994
459.711	1728
459.740	1590
459.780	1248
459.820	1345
459.849	1420
459.900	1251
459.917	1215
459.981	2036
459.986	2068
460.054	1560
460.061	1519
460.123	1621
460.141	1783
460.191	2061
460.222	2173
460.260	2224
460.302	2084
460.328	2112
460.382	2659
460.397	2671
460.462	2130
460.465	2186
460.534	4006
460.543	4233
460.602	11278
460.623	14158
460.671	21686
460.703	28926
460.739	26534
460.783	20429
460.808	17443
460.864	4724
460.876	3596
460.944	2502
460.945	2479
461.013	1205
461.024	1129
461.081	1535
461.104	1743
461.150	1944
461.184	1840
461.218	1557
461.264	1144
461.286	1285
461.345	2143
461.355	2190
461.423	2079
461.425	2071
461.491	1059
461.505	983
461.559	1513
461.585	1645
461.628	1857
461.665	2445
461.696	2864
461.745	3322
461.764	3164
461.825	1892
461.832	1911
461.901	2594
461.905	2619
461.969	1662
461.985	1503
462.037	2008
462.065	2106
462.105	1458
462.145	1277
462.173	1793
462.225	2390
462.241	2471
462.305	3102
462.310	3089
462.378	2499
462.385	2414
462.446	1815
462.465	1627
462.514	2000
462.545	2566
462.582	2516
462.625	2048
462.650	1912
462.705	1832
462.718	1868
462.785	1945
462.786	1951
462.854	2163
462.865	2201
462.922	1900
462.945	1926
462.990	2009
463.025	1804
463.058	1790
463.104	1970
463.126	2077
463.184	2284
463.194	2292
463.262	2066
463.264	2065
463.330	2121
463.344	2111
463.398	2502
463.424	2651
463.466	2067
463.504	1831
463.533	2307
463.583	2512
463.601	2272
463.663	2146
463.669	2188
463.737	1988
463.743	1993
463.805	2554
463.823	2702
463.873	3006
463.903	3283
463.940	3482
463.982	3431
464.008	3100
464.062	2794
464.076	2783
464.142	2301
464.144	2297
464.211	2130
464.221	2084
464.279	2009
464.301	2062
464.347	2655
464.381	2973
464.414	2445
464.461	1875
464.482	2018
464.540	2238
464.550	2213
464.617	1936
464.620	1926
464.685	2517
464.699	2655
464.753	2840
464.779	2891
464.820	3170
464.859	3491
464.888	3155
464.938	2328
464.956	2493
465.018	3450
465.023	3457
465.091	3062
465.098	3044
465.158	3286
465.177	3363
465.226	3316
465.257	3252
465.293	3004
465.336	2575
465.361	2879
465.416	3727
465.428	3608
465.495	2747
465.496	2756
465.563	3330
465.575	3468
465.631	4463
465.654	4845
465.698	3828
465.734	2928
465.765	3452
465.813	4122
465.833	3888
465.893	3240
465.900	3162
465.968	2538
465.972	2475
466.035	2685
466.052	2780
466.102	2910
466.131	2895
466.170	2777
466.210	2802
466.237	2977
466.290	3085
466.304	3065
466.369	3004
466.372	3009
466.439	3023
466.449	3011
466.506	3513
466.528	3679
466.573	4002
466.607	4222
466.641	4765
466.687	5571
466.708	5877
466.766	6633
466.775	6309
466.842	3803
466.845	3677
466.909	2664
466.925	2408
466.977	3525
467.004	4149
467.044	4031
467.083	3878
467.111	4141
467.163	4595
467.178	4589
467.242	4534
467.245	4526
467.312	4187
467.321	4134
467.379	3637
467.400	3449
467.446	4226
467.480	4778
467.559	4653
467.638	4459
467.717	4069
467.796	4138
467.875	4608
467.955	4721
468.034	6192
468.113	8294
468.192	9479
468.271	7978
468.350	12229
468.429	18461
468.508	19791
468.588	11281
468.667	6513
468.746	5499
468.825	4931
468.904	4960
468.983	4358
469.062	3987
469.141	6250
469.220	4232
469.299	3966
469.378	3707
469.456	6181
469.535	5010
469.614	3989
469.693	3827
469.772	4978
469.851	5527
469.930	5398
470.009	5231
470.088	5427
470.166	7197
470.245	11663
470.324	14605
470.403	8790
470.482	6577
470.560	5272
470.639	4446
470.718	5139
470.797	4715
470.875	3888
470.954	4323
471.033	4171
471.111	4268
471.190	3839
471.269	3679
471.347	3076
471.426	4365
471.505	3900
471.583	4665
471.662	5129
471.740	4162
471.819	3628
471.898	3856
471.976	3820
472.055	2869
472.133	3707
472.212	5063
472.290	4559
472.369	3639
472.447	4140
472.526	2776
472.604	3486
472.683	4051
472.761	3592
472.839	2805
472.918	4892
472.996	4001
473.075	4552
473.153	3583
473.231	4563
473.310	5090
473.388	3718
473.466	4153
473.545	4219
473.623	4424
473.701	3970
473.780	4480
473.858	3763
473.936	5400
474.014	4704
474.093	4407
474.171	5167
474.249	4426
474.327	3961
474.405	3060
474.484	4118
474.562	3756
474.640	4263
474.718	3746
474.796	3727
474.874	5016
474.952	3812
475.030	3361
475.108	4007
475.187	4257
475.265	4093
475.343	4955
475.421	4919
475.499	4090
475.577	4035
475.655	4793
475.733	5146
475.811	5415
475.889	4211
475.966	4067
476.044	3546
476.122	3914
476.200	3862
476.278	3686
476.356	3525
476.434	3661
476.512	3071
476.590	4514
476.667	4714
476.745	3137
476.823	3043
476.901	3442
476.979	3774
477.056	3755
477.134	3246
477.212	3566
477.290	3802
477.367	3577
477.445	3630
477.523	3023
477.601	3786
477.678	3660
477.756	4463
477.834	4170
477.911	3245
477.989	3561
478.066	3409
478.144	3572
478.222	4479
478.299	4614
478.377	4793
478.454	4549
478.532	3415
478.609	3159
478.687	3833
478.764	3439
478.842	3954
478.919	3119
478.997	3895
479.074	3252
479.152	3638
479.229	3558
479.307	3101
479.384	3761
479.461	3808
479.539	4003
479.616	3271
479.694	3501
479.771	3609
479.848	3320
479.926	2800
480.003	5000
480.080	3121
480.157	2871
480.235	3759
480.312	3219
480.389	2524
480.467	3755
480.544	4287
480.621	3851
480.698	3750
480.775	3677
480.853	4153
480.930	3192
481.007	3609
481.084	3126
481.161	4780
481.238	4701
481.315	3494
481.392	3222
481.470	3442
481.547	3800
481.624	3249
481.701	3806
481.778	3731
481.855	3086
481.932	4159
482.009	5337
482.086	4217
482.163	5869
482.240	6786
482.317	7866
482.393	6205
482.470	5419
482.547	4304
482.624	3141
482.701	4730
482.778	4296
482.855	3516
482.932	4223
483.009	3608
483.085	5853
483.162	6469
483.239	6565
483.316	5593
483.393	6379
483.469	5699
483.546	4786
483.623	4933
483.699	4049
483.776	3809
483.853	3859
483.930	4013
484.006	4866
484.083	8122
484.160	7598
484.236	10840
484.313	9731
484.389	6435
484.466	8927
484.543	8257
484.619	11028
484.696	13452
484.772	9596
484.849	7780
484.925	6144
485.002	6942
485.078	6897
485.155	5460
485.231	5184
485.308	5314
485.384	5037
485.461	5947
485.537	5923
485.614	7486
485.690	5466
485.766	5141
485.843	4996
485.919	5924
485.995	6248
486.072	5729
486.148	4962
486.224	4976
486.301	5156
486.377	4969
486.453	5032
486.530	5970
486.606	7959
486.682	6588
486.758	7080
486.835	7850
486.911	5637
486.987	8257
487.063	8936
487.139	9667
487.215	9610
487.292	9551
487.368	10172
487.444	12308
487.520	16961
487.596	24004
487.672	63414
487.748	203845
487.824	300423
487.900	80682
487.976	20632
488.052	12377
488.128	10449
488.204	6740
488.280	7297
488.356	7204
488.432	8003
488.508	9157
488.584	5644
488.660	6099
488.736	5403
488.812	4334
488.888	5238
488.964	6089
489.039	7266
489.115	8500
489.191	7661
489.267	4538
489.343	5463
489.418	4448
489.494	4790
489.570	2710
489.646	4924
489.722	4894
489.797	3774
489.873	5744
489.949	6085
490.024	5639
490.100	4824
490.176	4506
490.251	4969
490.327	4760
490.403	4057
490.478	5952
490.554	4854
490.629	3852
490.705	3031
490.781	4430
490.856	3829
490.932	3772
491.007	4398
491.083	3775
491.158	3841
491.234	4507
491.309	5769
491.385	4828
491.460	3861
491.536	5006
491.611	3888
491.686	4019
491.762	4569
491.837	5337
491.913	7201
491.988	7886
492.063	8470
492.139	5151
492.214	4629
492.289	4331
492.365	3390
492.440	4074
492.515	3770
492.590	4053
492.666	3505
492.741	4194
492.816	4566
492.891	3639
492.967	4599
493.042	3879
493.117	3639
493.192	4097
493.267	6085
493.342	13514
493.418	16376
493.493	4341
493.568	4371
493.643	3885
493.718	4230
493.793	2642
493.868	3762
493.943	3587
494.018	3378
494.093	4557
494.168	4676
494.243	2989
494.318	4230
494.393	4810
494.468	3222
494.543	3406
494.618	3826
494.693	3381
494.768	3767
494.842	3756
494.917	3861
494.992	3871
495.067	3962
495.142	3588
495.217	3776
495.292	3883
495.366	3660
495.441	2987
495.516	4732
495.591	4179
495.665	8191
495.740	14595
495.815	7204
495.890	4663
495.964	2292
496.039	5980
496.114	5076
496.188	5750
496.263	4857
496.338	3661
496.412	3296
496.487	3750
496.561	4121
496.636	4042
496.710	4019
496.785	4191
496.860	4544
496.934	3339
497.009	4997
497.083	4245
497.158	5302
497.232	5235
497.307	5615
497.381	5963
497.455	6130
497.530	4494
497.604	4932
497.679	3788
497.753	5680
497.827	4954
497.902	4952
497.976	6209
498.050	11163
498.125	31643
498.199	29735
498.273	6950
498.348	7096
498.422	5658
498.496	6607
498.570	6734
498.645	4547
498.719	3083
498.793	4346
498.867	5170
498.941	5233
499.016	12635
499.090	30330
499.164	11639
499.238	4904
499.312	4558
499.386	5407
499.460	5362
499.534	6777
499.609	7147
499.683	5292
499.757	4305
499.831	6669
499.905	18881
499.979	17962
500.053	4071
500.127	5374
500.201	2950
500.275	4692
500.349	5024
500.422	4651
500.496	5345
500.570	8753
500.644	16991
500.718	22173
500.792	6232
500.866	4022
500.940	3318
501.013	3151
501.087	3204
501.161	3236
501.235	2790
501.309	7947
501.382	16066
501.456	13965
501.530	5039
501.603	5228
501.677	3364
501.751	534
501.825	3350
501.898	3782
501.972	6998
502.046	5196
502.119	2377
502.193	4010
502.266	7430
502.340	5051
502.413	4645
502.487	7088
502.561	3815
502.634	2754
502.708	1980
502.781	1881
502.855	3307
502.928	2782
503.002	2704
503.075	1898
503.149	2718
503.222	2419
503.295	2849
503.369	3398
503.442	3218
503.516	6683
503.589	11654
503.662	9879
503.736	7235
503.809	10913
503.882	10354
503.956	19721
504.029	39067
504.102	113769
504.175	164548
504.249	51038
504.322	17214
504.395	8187
504.468	6177
504.542	3165
504.615	3445
504.688	4202
504.761	1580
504.834	3782
504.907	2981
504.980	3035
505.053	1757
505.127	101
505.200	4650
505.273	1658
505.346	1812
505.419	1042
505.492	3117
505.565	1933
505.638	2480
505.711	1786
505.784	1159
505.857	1716
505.930	3445
506.003	914
506.076	3159
506.149	1700
506.221	560
506.294	3336
506.367	2845
506.440	8148
506.513	4465
506.586	2862
506.659	561
506.731	2335
506.804	947
506.877	1194
506.950	2421
507.022	2511
507.095	-17
507.168	2144
507.241	2416
507.313	1498
507.386	356
507.459	2823
507.531	1471
507.604	1818
507.677	2011
507.749	80
507.822	3248
507.894	2850
507.967	4249
508.040	1239
508.112	3137
508.185	2726
508.257	779
508.330	2939
508.402	1527
508.475	1692
508.547	2478
508.620	1587
508.692	1433
508.765	1872
508.837	1387
508.909	2376
508.982	1496
509.054	2418
509.127	2379
509.199	1953
509.271	1850
509.344	1124
509.416	1350
509.488	2062
509.560	1505
509.633	1302
509.705	2217
509.777	1728
509.849	2502
509.922	1223
509.994	1123
510.066	1882
510.138	461
510.210	5401
510.283	2355
510.355	3373
510.427	3416
510.499	2568
510.571	1840
510.643	1702
510.715	3971
510.787	1212
510.859	3770
510.931	1844
511.003	2501
511.076	3159
511.148	1155
511.219	2363
511.291	3925
511.363	4430
511.435	2618
511.507	1105
511.579	3093
511.651	3185
511.723	2072
511.795	1765
511.867	1833
511.939	2297
512.010	1963
512.082	2756
512.154	1397
512.226	2591
512.298	3929
512.369	3677
512.441	3152
512.513	2982
512.585	1491
512.656	3740
512.728	2353
512.800	1561
512.871	3690
512.943	2450
513.015	2105
513.086	3029
513.158	3329
513.230	1116
513.301	1489
513.373	3359
513.444	1982
513.516	2096
513.588	2066
513.659	3438
513.731	2340
513.802	1403
513.874	3735
513.945	3465
514.016	877
514.088	2090
514.159	1408
514.231	3143
514.302	2783
514.374	3241
514.445	2584
514.516	5626
514.588	2256
514.659	2412
514.730	2405
514.802	3872
514.873	838
514.944	4619
515.016	2702
515.087	1642
515.158	2933
515.229	5113
515.301	2910
515.372	3988
515.443	1649
515.514	1908
515.585	1296
515.656	4020
515.728	3801
515.799	2619
515.870	3749
515.941	3760
516.012	2431
516.083	5368
516.154	3425
516.225	5331
516.296	6723
516.367	6977
516.438	7124
516.509	10953
516.580	18828
516.651	73473
516.722	232410
516.793	78318
516.864	13888
516.935	12816
517.006	17118
517.077	23869
517.148	61984
517.219	297864
517.289	403315
517.360	54544
517.431	14557
517.502	8636
517.573	8382
517.643	7390
517.714	7773
517.785	8307
517.856	9579
517.926	12973
517.997	15515
518.068	18715
518.138	27439
518.209	49042
518.280	196277
518.350	628857
518.421	214625
518.492	31277
518.562	21306
518.633	21752
518.703	29992
518.774	74955
518.845	208932
518.915	180931
518.986	44427
519.056	18112
519.127	12454
519.197	10778
519.268	12595
519.338	10212
519.408	5195
519.479	5077
519.549	3344
519.620	5223
519.690	4292
519.760	3844
519.831	2702
519.901	3039
519.971	3407
520.042	2257
520.112	1797
520.182	3716
520.253	2757
520.323	1800
520.393	1608
520.463	5744
520.534	126
520.604	4893
520.674	3155
520.744	2466
520.814	2399
520.885	4103
520.955	4659
521.025	11007
521.095	5088
521.165	3827
521.235	2099
521.305	1093
521.375	2423
521.445	3978
521.515	1553
521.585	3784
521.655	684
521.725	2880
521.795	3384
521.865	34
521.935	4770
522.005	1328
522.075	2070
522.145	2424
522.215	2087
522.285	3827
522.355	2842
522.424	4275
522.494	3267
522.564	2617
522.634	3875
522.704	8053
522.774	2446
522.843	3260
522.913	2318
522.983	2528
523.053	2264
523.122	2714
523.192	1848
523.262	4192
523.331	3278
523.401	3279
523.471	2736
523.540	3139
523.610	1296
523.680	1853
523.749	3359
523.819	2854
523.888	2076
523.958	2807
524.027	3044
524.097	2684
524.166	2014
524.236	1765
524.305	4363
524.375	1340
524.444	921
524.514	4805
524.583	1612
524.653	2153
524.722	3470
524.791	1579
524.861	3898
524.930	2400
524.999	2016
525.069	2830
525.138	1849
525.207	3022
525.277	4658
525.346	4239
525.415	4823
525.484	4827
525.554	5112
525.623	7725
525.692	9149
525.761	10742
525.830	14215
525.900	19283
525.969	30248
526.038	61039
526.107	136510
526.176	381393
526.245	275867
526.314	77406
526.383	190599
526.452	245385
526.522	370723
526.591	306803
526.660	45339
526.729	26109
526.797	31672
526.867	49057
526.935	159521
527.004	557154
527.073	313953
527.142	35965
527.211	13940
527.280	9415
527.349	7570
527.418	3969
527.487	6516
527.555	3677
527.624	3337
527.693	2560
527.762	4068
527.831	1631
527.899	4488
527.968	3417
528.037	1679
528.106	2995
528.174	3258
528.243	3131
528.312	3165
528.380	3101
528.449	2246
528.518	4087
528.586	1062
528.655	3711
528.723	2060
528.792	2287
528.861	1179
528.929	1918
528.998	4027
529.066	3514
529.135	6418
529.203	4297
529.272	5531
529.340	8767
529.409	8676
529.477	6348
529.545	5544
529.614	8798
529.682	6915
529.751	8779
529.819	11754
529.887	9888
529.956	9843
530.024	9943
530.092	8449
530.161	9008
530.229	9313
530.297	8340
530.365	9860
530.434	10349
530.502	10324
530.570	10202
530.638	7008
530.707	8699
530.775	9073
530.843	7174
530.911	8531
530.979	9340
531.047	9909
531.115	10339
531.183	8659
531.252	9262
531.320	8672
531.388	7904
531.456	9402
531.524	8986
531.592	11669
531.660	14008
531.728	9344
531.796	9706
531.864	9772
531.932	9807
532.000	9166
532.067	11109
532.135	11921
532.203	13226
532.271	12743
532.339	13767
532.407	14094
532.475	13384
532.542	12163
532.610	11629
532.678	12107
532.746	18630
532.814	24867
532.881	14912
532.949	12920
533.017	11089
533.084	11539
533.152	10191
533.220	10688
533.287	10446
533.355	11394
533.423	11880
533.490	10718
533.558	11326
533.625	11346
533.693	9703
533.761	10346
533.828	10437
533.896	10002
533.963	11978
534.031	12388
534.098	14212
534.166	12861
534.233	12900
534.300	13396
534.368	14186
534.435	12864
534.503	14069
534.570	14287
534.637	16450
534.705	17937
534.772	21220
534.840	39605
534.907	171181
534.974	191588
535.041	25433
535.109	13822
535.176	11096
535.243	11270
535.310	10624
535.378	11147
535.445	10689
535.512	10467
535.579	10375
535.646	8763
535.714	9475
535.781	11238
535.848	10394
535.915	10742
535.982	9354
536.049	10067
536.116	11001
536.183	8958
536.250	9310
536.317	9375
536.384	9025
536.451	9544
536.518	9779
536.585	7855
536.652	11287
536.719	10893
536.786	7861
536.853	8537
536.920	9424
536.987	9215
537.053	8007
537.120	14962
537.187	14641
537.254	9455
537.321	9494
537.388	10245
537.454	8903
537.521	9217
537.588	8882
537.654	9460
537.721	8244
537.788	10012
537.855	9292
537.921	9064
537.988	8915
538.055	8974
538.121	7852
538.188	8498
538.254	7965
538.321	7466
538.388	9614
538.454	9940
538.521	10009
538.587	9094
538.654	9487
538.720	8518
538.787	9445
538.853	8856
538.920	9019
538.986	6967
539.053	8006
539.119	8397
539.185	7548
539.252	10348
539.318	8893
539.385	10942
539.451	8388
539.517	9436
539.583	9783
539.650	9835
539.716	11990
539.782	7890
539.849	7309
539.915	8895
539.981	7854
540.047	7536
540.114	8954
540.180	9579
540.246	9118
540.312	9123
540.378	9086
540.444	9966
540.510	9543
540.576	13150
540.643	9074
540.709	6886
540.775	8043
540.841	7612
540.907	8967
540.973	9197
541.039	8584
541.105	9055
541.171	8507
541.237	8395
541.303	9425
541.369	10355
541.435	9489
541.500	7847
541.566	7406
541.632	7119
541.698	7633
541.764	8833
541.830	8008
541.896	7458
541.961	9085
542.027	7452
542.093	8583
542.159	9663
542.224	6700
542.290	9058
542.356	8172
542.421	9792
542.487	8823
542.553	7050
542.618	7467
542.684	8433
542.750	7873
542.815	9264
542.881	9277
542.947	12588
543.012	11004
543.078	8230
543.143	7107
543.209	8123
543.274	7068
543.340	8087
543.405	10163
543.471	9634
543.536	8628
543.602	8766
543.667	6949
543.732	10103
543.798	8214
543.863	8436
543.928	8266
543.994	6858
544.059	8242
544.124	9082
544.190	8518
544.255	9113
544.320	9391
544.386	8413
544.451	9633
544.516	9681
544.581	9902
544.646	10917
544.712	13599
544.777	9820
544.842	9049
544.907	9030
544.972	9828
545.037	10973
545.102	9540
545.168	10455
545.233	11029
545.298	12201
545.363	10390
545.428	11694
545.493	12729
545.558	13292
545.623	10857
545.688	10439
545.753	12074
545.818	12209
545.883	13619
545.947	12828
546.012	14022
546.077	14082
546.142	15537
546.207	14770
546.272	17191
546.337	16243
546.401	17359
546.466	18528
546.531	18133
546.596	20049
546.661	21149
546.725	23313
546.790	23872
546.855	26755
546.919	27601
546.984	31292
547.049	35438
547.113	39284
547.178	44361
547.243	49422
547.307	58107
547.372	64098
547.436	64192
547.501	67965
547.565	74628
547.630	66558
547.695	63622
547.759	64658
547.823	65818
547.888	66793
547.952	69149
548.017	71692
548.081	72436
548.146	72568
548.210	74944
548.274	81862
548.339	79345
548.403	70960
548.468	65756
548.532	66485
548.596	68636
548.660	67854
548.725	75712
548.789	80685
548.853	79543
548.917	75622
548.982	72091
549.046	66832
549.110	59650
549.174	61528
549.238	72017
549.303	78507
549.367	82342
549.431	75586
549.495	70988
549.559	72905
549.623	85811
549.687	91678
549.751	89012
549.815	109216
549.879	109343
549.943	105298
550.007	108375
550.071	108168
550.135	97520
550.199	91721
550.263	91744
550.327	86102
550.391	87665
550.455	100161
550.519	104593
550.582	111699
550.646	125050
550.710	127977
550.774	123167
550.838	125713
550.901	128122
550.965	135025
551.029	140884
551.093	150892
551.156	163162
551.220	184931
551.284	206072
551.347	159434
551.411	137084
551.475	131289
551.538	136277
551.602	125870
551.666	121481
551.729	112432
551.793	109989
551.856	108013
551.920	106514
551.983	106142
552.047	104686
552.110	106372
552.174	107267
552.237	110069
552.301	102356
552.364	95872
552.428	94288
552.491	97612
552.554	99932
552.618	98651
552.681	101887
552.745	99036
552.808	109792
552.871	120649
552.934	106784
552.998	100518
553.061	96407
553.124	95029
553.187	93986
553.251	95806
553.314	96961
553.377	97805
553.440	105350
553.503	113998
553.567	115038
553.630	105181
553.693	103397
553.756	104495
553.819	102436
553.882	97248
553.945	99989
554.008	98727
554.071	100218
554.134	103016
554.197	95834
554.260	95560
554.323	96417
554.386	96396
554.449	100963
554.512	99917
554.575	95501
554.638	95921
554.701	95561
554.764	93833
554.827	90911
554.889	86869
554.952	81016
555.015	80083
555.078	81510
555.141	83485
555.203	81476
555.266	80981
555.329	81693
555.391	77651
555.454	76407
555.517	72339
555.580	70180
555.642	66398
555.705	67366
555.768	66262
555.830	65714
555.893	61266
555.955	59590
556.018	57976
556.080	60155
556.143	60808
556.206	60381
556.268	57894
556.330	57582
556.393	54900
556.455	54610
556.518	54631
556.580	52298
556.643	48763
556.705	48597
556.767	46531
556.830	48269
556.892	46294
556.955	45702
557.017	43789
557.079	43986
557.142	42852
557.204	42203
557.266	42116
557.328	39567
557.391	36684
557.453	35964
557.515	36260
557.577	36496
557.639	36211
557.701	35809
557.764	34647
557.826	36229
557.888	38585
557.950	39787
558.012	44379
558.074	56345
558.136	121055
558.198	260435
558.260	88929
558.322	39576
558.384	40538
558.446	42975
558.508	44694
558.570	48977
558.632	57962
558.694	75180
558.756	128287
558.818	351293
558.880	697863
558.942	268567
559.003	271591
559.065	123386
559.127	50549
559.189	50623
559.251	55424
559.312	83903
559.374	192594
559.436	534317
559.498	247986
559.559	56479
559.621	49690
559.683	58534
559.744	96385
559.806	293127
559.868	388078
559.929	83456
559.991	55867
560.052	93429
560.114	254764
560.176	151930
560.237	150461
560.299	220957
560.360	46260
560.422	21254
560.483	18568
560.545	17563
560.606	16432
560.667	15405
560.729	15255
560.790	14970
560.852	14859
560.913	12860
560.974	13527
561.036	13501
561.097	13158
561.158	13640
561.220	13450
561.281	11916
561.342	12860
561.403	13390
561.465	12160
561.526	13934
561.587	12968
561.648	11222
561.709	11258
561.771	11590
561.832	10897
561.893	10970
561.954	10800
562.015	9736
562.076	9624
562.137	10231
562.198	9636
562.259	10170
562.320	10611
562.381	9941
562.442	10312
562.503	10722
562.564	9385
562.625	10949
562.686	9624
562.747	8941
562.808	9062
562.869	9387
562.930	9710
562.991	8393
563.051	8216
563.112	8747
563.173	8849
563.234	8157
563.294	8432
563.355	8272
563.416	7830
563.477	8240
563.537	8748
563.598	8509
563.659	8598
563.720	8500
563.780	7614
563.841	8796
563.901	8050
563.962	7216
564.023	8146
564.083	8425
564.144	7427
564.204	7404
564.265	7263
564.325	7512
564.386	7885
564.446	7708
564.507	6956
564.567	7150
564.628	6969
564.688	7210
564.749	6703
564.809	7625
564.869	8420
564.930	7892
564.990	8210
565.050	7427
565.111	7847
565.171	7355
565.231	7914
565.292	8281
565.352	7524
565.412	7948
565.472	7101
565.532	7115
565.593	6958
565.653	7854
565.713	7369
565.773	7644
565.833	7952
565.893	8130
565.953	6971
566.013	7611
566.074	7887
566.134	7573
566.194	6594
566.254	6900
566.314	6755
566.374	6436
566.434	6621
566.494	7000
566.554	6849
566.614	6749
566.673	7855
566.733	8039
566.793	6722
566.853	8364
566.913	8494
566.973	7892
567.033	7092
567.092	6997
567.152	6816
567.212	8032
567.272	7533
567.331	8068
567.391	8565
567.451	8319
567.511	8303
567.570	9012
567.630	7672
567.690	7605
567.749	8225
567.809	8466
567.868	7549
567.928	7019
567.988	7261
568.047	8907
568.107	9037
568.166	10074
568.226	11741
568.285	15393
568.345	13166
568.404	11590
568.464	10082
568.523	9493
568.582	10626
568.642	10689
568.701	10669
568.761	14645
568.820	19073
568.879	19664
568.939	15035
568.998	11561
569.057	9679
569.116	8813
569.176	10226
569.235	9015
569.294	8971
569.353	7139
569.413	7900
569.472	7140
569.531	6926
569.590	6877
569.649	6480
569.708	7708
569.767	8385
569.827	8060
569.886	6480
569.945	7144
570.004	7604
570.063	6834
570.122	7756
570.181	7594
570.240	7428
570.299	7745
570.358	7823
570.417	8491
570.475	7489
570.534	8255
570.593	7508
570.652	8072
570.711	7625
570.770	7752
570.829	7179
570.887	7470
570.946	8240
571.005	8471
571.064	8044
571.122	8705
571.181	7762
571.240	7128
571.299	6672
571.357	7415
571.416	7048
571.475	7471
571.533	7642
571.592	8880
571.650	7449
571.709	8914
571.768	9838
571.826	9917
571.885	9295
571.943	7750
572.002	7414
572.060	7849
572.119	8081
572.177	8130
572.236	8398
572.294	7055
572.352	8876
572.411	8056
572.469	6987
572.528	6953
572.586	7189
572.644	6314
572.703	8040
572.761	7520
572.819	6839
572.877	6589
572.936	6344
572.994	6547
573.052	6406
573.110	7463
573.169	7577
573.227	7045
573.285	7695
573.343	7411
573.401	6599
573.459	7189
573.517	7835
573.576	7401
573.634	8068
573.692	7031
573.750	6948
573.808	6548
573.866	6779
573.924	6290
573.982	6449
574.040	6232
574.098	6425
574.155	6684
574.213	6866
574.271	6153
574.329	8073
574.387	6576
574.445	6638
574.503	5888
574.560	5630
574.618	6023
574.676	5678
574.734	6753
574.792	6892
574.849	5453
574.907	5421
574.965	5867
575.022	4899
575.080	5505
575.138	5250
575.195	5563
575.253	5263
575.311	5080
575.368	5379
575.426	4572
575.483	5948
575.541	6017
575.598	5135
575.656	5263
575.713	6105
575.771	5920
575.828	5688
575.886	5532
575.943	5798
576.001	4358
576.058	5155
576.115	4514
576.173	5742
576.230	5792
576.287	5702
576.345	5651
576.402	5451
576.459	5697
576.517	5154
576.574	5621
576.631	4664
576.688	5476
576.746	5076
576.803	5135
576.860	4523
576.917	4456
576.974	5770
577.031	4970
577.089	4849
577.146	5278
577.203	5270
577.260	5221
577.317	4255
577.374	4281
577.431	4446
577.488	4496
577.545	4292
577.602	4436
577.659	4977
577.716	5166
577.773	5373
577.830	4425
577.886	4615
577.943	4887
578.000	4551
578.057	4616
578.114	5133
578.171	5799
578.227	6779
578.284	4956
578.341	4577
578.398	4699
578.454	4742
578.511	4161
578.568	6167
578.625	4370
578.681	5003
578.738	5088
578.794	3763
578.851	5115
578.908	5055
578.964	6033
579.021	5605
579.077	4659
579.134	4087
579.190	4773
579.247	5052
579.303	4188
579.360	4122
579.416	4643
579.473	4169
579.529	4494
579.586	6014
579.642	5333
579.698	4774
579.755	5707
579.811	4634
579.867	5535
579.924	5330
579.980	5808
580.036	6491
580.093	7053
580.149	7523
580.205	8079
580.261	7218
580.317	6435
580.374	5888
580.430	6137
580.486	6243
580.542	5430
580.598	6599
580.619	6528
580.654	6412
580.692	5960
580.710	5741
580.765	6007
580.767	6020
580.823	6664
580.838	6620
580.879	6514
580.911	6393
580.935	6308
580.984	6392
580.991	6407
581.047	7341
581.057	7354
581.103	7465
581.130	6703
581.159	5905
581.203	6281
581.215	6383
581.270	6355
581.276	6346
581.326	6248
581.349	6288
581.382	6386
581.422	6569
581.438	6630
581.494	6473
581.494	6464
581.550	5861
581.567	6192
581.606	6907
581.640	6677
581.661	6524
581.713	7431
581.717	7509
581.773	7145
581.786	7175
581.829	7279
581.859	7631
581.885	7930
581.932	7304
581.940	7200
581.996	7764
582.004	7779
582.052	7786
582.077	7933
582.107	8164
582.150	7925
582.163	7819
582.219	8041
582.223	7977
582.274	7402
582.296	7439
582.330	7383
582.368	7289
582.386	7332
582.441	7950
582.441	7950
582.497	7454
582.514	7615
582.552	8093
582.587	8322
582.608	8346
582.659	8686
582.663	8741
582.719	9406
582.732	9242
582.774	8534
582.805	8669
582.830	8886
582.877	9941
582.885	10080
582.941	9965
582.950	10161
582.996	11373
583.023	11765
583.052	12296
583.095	12769
583.107	12798
583.162	12080
583.168	12068
583.218	11736
583.240	11114
583.273	10328
583.313	9643
583.328	9427
583.384	9366
583.385	9370
583.439	9277
583.458	8839
583.494	8146
583.531	8527
583.549	8731
583.603	8770
583.605	8768
583.660	9077
583.676	9020
583.715	9071
583.748	9143
583.770	9070
583.820	9272
583.825	9290
583.881	9333
583.893	9097
583.936	8495
583.965	8789
583.991	8947
584.038	8738
584.046	8712
584.101	9673
584.110	9702
584.156	9954
584.183	9815
584.211	9582
584.255	9620
584.266	9703
584.321	10435
584.328	10458
584.376	10340
584.400	10617
584.431	11085
584.472	10828
584.486	10711
584.541	11477
584.545	11495
584.596	11916
584.617	11867
584.651	11974
584.689	12049
584.706	11893
584.761	12454
584.762	12451
584.816	12768
584.834	13074
584.871	13673
584.906	13296
584.926	13093
584.978	14051
584.980	14107
585.035	15247
585.051	15581
585.090	16479
585.123	17150
585.145	17588
585.195	19344
585.200	19567
585.254	21439
585.267	22144
585.309	24720
585.340	26955
585.364	29035
585.412	33423
585.419	34164
585.473	41864
585.484	44151
585.528	57944
585.556	71539
585.583	98272
585.628	159219
585.637	181492
585.692	365226
585.700	394794
585.747	489833
585.772	425457
585.801	270544
585.845	101626
585.856	81608
585.910	42276
585.917	38277
585.965	29937
585.989	26489
586.019	24563
586.061	22613
586.074	22168
586.128	20870
586.133	20790
586.183	20257
586.205	19766
586.237	19060
586.277	18210
586.292	18241
586.346	18488
586.349	18524
586.401	18420
586.421	17814
586.455	17178
586.493	17392
586.509	17795
586.564	18833
586.565	18842
586.618	20104
586.637	20766
586.672	22607
586.709	24556
586.727	25665
586.781	28416
586.781	28435
586.835	22710
586.853	21141
586.889	19219
586.925	18130
586.944	18014
586.996	18094
586.998	18124
587.052	18065
587.068	18081
587.106	18023
587.140	17555
587.161	17544
587.212	18423
587.215	18471
587.269	19113
587.284	18980
587.323	19190
587.356	19763
587.377	19859
587.427	19955
587.431	20064
587.485	21025
587.499	21296
587.539	21509
587.571	21984
587.593	22673
587.643	23823
587.648	23903
587.702	23798
587.715	23820
587.755	24583
587.786	25444
587.810	25711
587.858	25422
587.864	25495
587.917	26485
587.930	26663
587.971	27931
588.001	28834
588.025	29275
588.073	29714
588.079	29863
588.133	30910
588.145	31282
588.187	33761
588.217	35076
588.241	35989
588.288	38043
588.295	38585
588.348	43237
588.360	44062
588.402	46861
588.431	48940
588.456	51654
588.503	57300
588.510	58422
588.564	66514
588.575	68558
588.617	79030
588.646	86393
588.671	95884
588.718	116072
588.725	121808
588.778	170414
588.789	181675
588.832	275074
588.861	345212
588.886	432125
588.932	607499
588.939	616980
588.993	637700
589.004	632766
589.047	481493
589.075	372740
589.100	295733
589.147	172882
589.154	166572
589.207	126348
589.218	118477
589.261	111244
589.290	107942
589.314	113537
589.361	126700
589.368	132892
589.421	187403
589.433	200314
589.475	315888
589.504	404434
589.528	473501
589.576	594569
589.582	582145
589.635	410032
589.647	370693
589.689	226253
589.718	135851
589.742	114077
589.790	75876
589.795	74285
589.849	60390
589.861	57043
589.902	51336
589.932	47378
589.955	45548
590.004	41538
590.009	41413
590.062	39383
590.075	38774
590.115	36976
590.146	35641
590.168	35059
590.218	33451
590.222	33453
590.275	32644
590.289	32408
590.328	32650
590.360	32670
590.381	32923
590.431	33445
590.435	33481
590.488	32567
590.503	32357
590.541	32597
590.574	32594
590.594	32685
590.645	32937
590.647	33045
590.700	33862
590.716	34086
590.753	34702
590.787	35185
590.806	35369
590.859	35418
590.859	35508
590.912	36626
590.930	36836
590.965	36627
591.001	36246
591.018	36017
591.071	35017
591.072	34936
591.124	34569
591.143	34346
591.177	35076
591.214	35785
591.230	35988
591.283	36350
591.285	36282
591.336	36595
591.356	36690
591.389	36259
591.427	35497
591.442	35526
591.495	35301
591.498	35215
591.547	35973
591.569	36213
591.600	36585
591.640	36848
591.653	37036
591.706	37534
591.711	37497
591.759	38386
591.782	38781
591.811	39876
591.853	41173
591.864	41120
591.917	40378
591.924	40181
591.969	39903
591.995	39611
592.022	40265
592.066	41117
592.075	41390
592.127	42526
592.137	42651
592.180	43390
592.208	43657
592.233	44008
592.279	44479
592.285	44783
592.338	46518
592.350	46795
592.390	46378
592.421	45904
592.443	46393
592.491	47161
592.495	47293
592.548	47672
592.562	47680
592.600	48042
592.633	48151
592.653	48132
592.704	47552
592.705	47863
592.775	49814
592.846	50365
592.916	50382
592.987	50803
593.058	52720
593.128	52107
593.199	52356
593.270	52620
593.341	55334
593.411	55994
593.482	57585
593.553	58768
593.623	59194
593.694	60327
593.764	63420
593.835	62426
593.906	62518
593.976	62403
594.047	65529
594.117	68458
594.188	71389
594.258	68551
594.329	69159
594.399	72079
594.470	73426
594.540	76071
594.611	77436
594.681	77051
594.751	77722
594.822	80474
594.892	83920
594.963	85766
595.033	89134
595.103	91542
595.174	92545
595.244	93726
595.314	96931
595.384	97834
595.455	100792
595.525	104715
595.595	109148
595.665	107840
595.736	106201
595.806	108422
595.876	111270
595.946	111186
596.016	114604
596.087	118434
596.157	119624
596.227	122423
596.297	127270
596.367	135160
596.437	144152
596.507	143058
596.577	141661
596.647	147152
596.717	154608
596.787	156366
596.857	156208
596.927	156173
596.997	158043
597.067	159346
597.137	162103
597.207	163810
597.277	167559
597.347	159284
597.417	154583
597.487	154825
597.557	157671
597.626	163108
597.696	164827
597.766	163267
597.836	156897
597.906	147178
597.975	145014
598.045	148476
598.115	153814
598.185	166520
598.254	185735
598.324	199863
598.394	204089
598.464	196543
598.533	194896
598.603	181160
598.672	175695
598.742	180131
598.812	182114
598.881	186523
598.951	186902
599.020	189530
599.090	197846
599.159	199897
599.229	192739
599.299	189240
599.368	196826
599.437	191845
599.507	177328
599.576	174517
599.646	170869
599.715	169628
599.785	168976
599.854	165189
599.924	161998
599.993	164206
600.062	168066
600.132	172945
600.201	182101
600.270	208343
600.340	218685
600.409	216762
600.478	213500
600.547	221298
600.617	201470
600.686	166219
600.755	153906
600.824	147196
600.894	145024
600.963	148016
601.032	148291
601.101	141923
601.170	139771
601.239	136142
601.308	138424
601.378	140708
601.447	142445
601.516	144136
601.585	147182
601.654	147635
601.723	149602
601.792	154771
601.861	159265
601.930	165925
601.999	169638
602.068	168143
602.137	170201
602.206	171781
602.275	175995
602.343	177214
602.412	177762
602.481	180274
602.550	180190
602.619	186797
602.688	189010
602.756	189627
602.825	190360
602.894	194147
602.963	196080
603.032	199588
603.100	201045
603.169	198144
603.238	203477
603.307	199239
603.375	203713
603.444	207939
603.513	203164
603.581	207426
603.650	214319
603.719	196435
603.787	197715
603.856	202191
603.924	207956
603.993	214023
604.061	221633
604.130	231181
604.198	235723
604.267	239533
604.335	245560
604.404	246361
604.472	252208
604.541	252460
604.609	259793
604.678	261146
604.746	262262
604.815	272022
604.883	271946
604.951	269370
605.020	275300
605.088	271387
605.156	271989
605.225	276723
605.293	273856
605.361	277384
605.429	276530
605.498	284376
605.566	287103
605.634	299293
605.702	308259
605.771	318954
605.839	320482
605.907	311398
605.975	304972
606.043	295216
606.111	294067
606.180	299560
606.248	290881
606.316	287137
606.384	293103
606.452	278448
606.520	272355
606.588	284981
606.656	286530
606.724	280187
606.792	264362
606.860	238825
606.928	219440
606.996	210126
607.064	207432
607.132	210891
607.200	225256
607.267	232123
607.335	237714
607.403	242459
607.471	233815
607.539	228270
607.607	226674
607.674	202374
607.742	200544
607.810	198372
607.878	199608
607.946	201805
608.013	213255
608.081	216550
608.149	220653
608.216	227448
608.284	234634
608.352	234631
608.419	229052
608.487	225326
608.555	221592
608.622	229961
608.690	243737
608.757	266075
608.825	270622
608.893	265343
608.960	248107
609.028	237734
609.095	239758
609.163	237039
609.230	211749
609.298	193694
609.365	206243
609.432	221921
609.500	242182
609.567	275470
609.635	313589
609.702	329549
609.769	314415
609.837	243724
609.904	208993
609.971	216084
610.039	233778
610.106	283141
610.173	463120
610.241	884201
610.308	565050
610.375	274240
610.442	230589
610.509	219760
610.577	220372
610.644	222544
610.711	230928
610.778	236128
610.845	246701
610.912	261852
610.980	272237
611.047	271965
611.114	266563
611.181	259317
611.248	257484
611.315	273777
611.382	278433
611.449	289461
611.516	294547
611.583	289356
611.650	290681
611.717	294563
611.784	300876
611.851	308366
611.918	320387
611.984	356834
612.051	450279
612.118	714281
612.185	1292587
612.252	934624
612.319	443512
612.386	377796
612.452	347398
612.519	332542
612.586	323370
612.653	328190
612.719	340986
612.786	328272
612.853	305669
612.919	300879
612.986	304501
613.053	288875
613.120	269125
613.186	260096
613.253	264153
613.319	262251
613.386	264605
613.453	268304
613.519	270966
613.586	264684
613.652	268120
613.719	265051
613.785	270830
613.852	275287
613.918	272691
613.985	274990
614.051	286539
614.118	283220
614.184	272077
614.250	271504
614.317	278122
614.383	273405
614.449	281504
614.516	276548
614.582	278465
614.648	273539
614.715	270715
614.781	265344
614.847	264962
614.914	264007
614.980	258174
615.046	256591
615.112	265935
615.179	267557
615.245	270343
615.311	267825
615.377	272091
615.443	273208
615.509	277601
615.575	284565
615.642	283358
615.708	287433
615.774	298243
615.840	310554
615.906	324021
615.972	370938
616.038	493055
616.104	829887
616.170	1411930
616.236	1216899
616.302	573704
616.368	466192
616.434	359883
616.500	331107
616.565	361973
616.631	435511
616.697	373141
616.763	372948
616.829	516699
616.895	831079
616.961	783217
617.026	401832
617.092	302217
617.158	287824
617.224	278873
617.289	260094
617.355	246389
617.421	244365
617.487	244320
617.552	232720
617.618	230435
617.684	230986
617.749	234890
617.815	223634
617.880	217167
617.946	219353
618.012	224056
618.077	228718
618.143	219261
618.208	218979
618.274	238527
618.339	237932
618.405	199638
618.470	196711
618.536	197461
618.601	193951
618.667	181744
618.732	173003
618.798	170710
618.863	170158
618.928	169861
618.994	169887
619.059	169409
619.124	170942
619.190	170065
619.255	168957
619.320	168620
619.386	168911
619.451	167883
619.516	161237
619.581	165949
619.647	170213
619.712	169754
619.777	164579
619.842	165442
619.907	168380
619.972	170880
620.038	169029
620.103	163468
620.168	164578
620.233	168308
620.298	168844
620.363	171003
620.428	174275
620.493	178184
620.558	182187
620.623	183819
620.688	184032
620.753	181313
620.818	185040
620.883	187503
620.948	185273
621.013	183229
621.078	178014
621.143	180862
621.207	184992
621.272	180060
621.337	176888
621.402	174560
621.467	172985
621.532	171897
621.596	174666
621.661	168710
621.726	166674
621.791	168274
621.855	170041
621.920	167919
621.985	169728
622.049	174475
622.114	174290
622.179	175769
622.243	179981
622.308	185390
622.373	193140
622.437	186196
622.502	178811
622.566	175468
622.631	174219
622.695	179951
622.760	178780
622.824	176841
622.889	178045
622.953	178866
623.018	188574
623.082	190934
623.147	188623
623.211	182931
623.276	184919
623.340	176764
623.404	173976
623.469	172515
623.533	176657
623.597	170534
623.662	169200
623.726	157919
623.790	149981
623.854	145634
623.919	148037
623.983	151429
624.047	150309
624.111	153579
624.176	156078
624.240	156683
624.304	162830
624.368	154429
624.432	156027
624.496	158752
624.560	167719
624.625	167862
624.689	166691
624.753	175972
624.817	165123
624.881	163341
624.945	147693
625.009	144411
625.073	145315
625.137	150835
625.201	157299
625.265	156127
625.329	150002
625.393	150179
625.456	152743
625.520	158617
625.584	159733
625.648	162685
625.712	168559
625.776	169270
625.839	160048
625.903	134147
625.967	124622
626.031	135200
626.095	158559
626.158	145462
626.222	115241
626.286	109297
626.349	104551
626.413	96633
626.477	97004
626.540	98417
626.604	96542
626.668	95231
626.731	95099
626.795	94555
626.858	94386
626.922	91834
626.986	90152
627.049	89503
627.113	96222
627.176	92086
627.240	89791
627.303	89461
627.366	87812
627.430	91079
627.493	89058
627.557	86631
627.620	89443
627.684	93009
627.747	93215
627.810	84273
627.874	78209
627.937	74247
628.000	78707
628.064	74346
628.127	66140
628.190	66048
628.253	64517
628.317	62338
628.380	58595
628.443	58048
628.506	56284
628.569	54407
628.632	51180
628.696	52982
628.759	51688
628.822	50011
628.885	48335
628.948	48222
629.011	48672
629.074	46008
629.137	43218
629.200	42505
629.263	43370
629.326	42287
629.389	42242
629.452	41840
629.515	41137
629.578	39980
629.641	41155
629.704	41151
629.767	40309
629.830	40158
629.892	38746
629.955	37877
630.018	40722
630.081	39195
630.144	38563
630.207	37594
630.269	38655
630.332	37019
630.395	37383
630.458	36304
630.520	32688
630.583	37036
630.646	36346
630.708	35914
630.771	35427
630.834	39669
630.896	36154
630.959	37911
631.021	35893
631.084	35271
631.146	36761
631.209	37496
631.272	35819
631.334	37717
631.397	37000
631.459	37858
631.522	39266
631.584	40477
631.646	43916
631.709	43963
631.771	44283
631.834	42178
631.896	40755
631.958	37718
632.021	37588
632.083	34737
632.145	36123
632.208	34332
632.270	35418
632.332	33643
632.395	34032
632.457	35664
632.519	33302
632.581	35444
632.643	32754
632.706	34677
632.768	32286
632.830	34716
632.892	34657
632.954	34082
633.016	35856
633.078	35410
633.141	34726
633.203	33629
633.265	34210
633.327	33808
633.389	34020
633.451	34327
633.513	33033
633.575	35845
633.637	34397
633.698	36493
633.760	38266
633.822	39137
633.884	39273
633.946	40443
634.008	41316
634.070	41952
634.132	44318
634.193	46255
634.255	52194
634.317	51963
634.379	50958
634.441	46016
634.502	41702
634.564	40376
634.626	35784
634.687	35455
634.749	34023
634.811	33964
634.873	32587
634.934	32974
634.996	33674
635.057	33003
635.119	32921
635.181	33839
635.242	35306
635.304	33238
635.365	36563
635.427	32870
635.488	33539
635.550	33320
635.611	34424
635.673	33092
635.734	37363
635.796	38559
635.857	42325
635.918	43791
635.980	48526
636.041	50454
636.102	55007
636.164	54815
636.225	52414
636.286	44206
636.348	41392
636.409	37441
636.470	34415
636.531	34482
636.593	32733
636.654	32544
636.715	30794
636.776	30545
636.838	29385
636.899	29164
636.960	27792
637.021	28448
637.082	26779
637.143	27772
637.204	26115
637.265	27769
637.326	28619
637.387	28830
637.448	28076
637.509	28304
637.570	28412
637.631	28880
637.692	26179
637.753	25286
637.814	26335
637.875	26571
637.936	26426
637.997	25444
638.058	26070
638.119	26519
638.179	25419
638.240	25045
638.301	25949
638.362	25462
638.423	23785
638.483	24911
638.544	22703
638.605	24157
638.666	22705
638.726	24230
638.787	24537
638.848	25216
638.908	23138
638.969	23213
639.030	22949
639.090	21137
639.151	22333
639.211	23855
639.272	23798
639.332	24066
639.393	24255
639.453	25508
639.514	26713
639.574	22736
639.635	21832
639.695	23078
639.756	19878
639.816	21669
639.877	20843
639.937	22733
639.997	21450
640.058	20576
640.118	20804
640.178	21952
640.239	22054
640.299	20897
640.359	21783
640.420	23860
640.480	25296
640.540	28331
640.600	28619
640.661	25950
640.721	23462
640.781	25149
640.841	21901
640.901	22536
640.961	22510
641.021	23204
641.082	23120
641.142	21324
641.202	21851
641.262	19022
641.322	20777
641.382	19064
641.442	19287
641.502	20131
641.562	21372
641.622	20602
641.682	22019
641.742	25565
641.802	23337
641.861	21545
641.921	18799
641.981	20051
642.041	18129
642.101	17497
642.161	17829
642.221	18713
642.280	18257
642.340	18644
642.400	18018
642.460	20365
642.519	19061
642.579	19279
642.639	20281
642.698	17304
642.758	21365
642.818	20085
642.877	19396
642.937	19208
642.997	19924
643.056	20134
643.116	19073
643.175	21129
643.235	20226
643.294	20683
643.354	22170
643.414	23795
643.473	26746
643.532	31335
643.592	39614
643.651	60346
643.711	99671
643.770	187271
643.830	420293
643.889	727682
643.948	231776
644.008	60520
644.067	37012
644.126	27719
644.186	25098
644.245	23378
644.304	20265
644.363	22683
644.423	18677
644.482	20374
644.541	21826
644.600	21167
644.659	27331
644.719	32714
644.778	47511
644.837	80104
644.896	158515
644.955	335205
645.014	113100
645.073	32136
645.132	24929
645.191	23488
645.250	21189
645.309	23566
645.368	24680
645.427	33722
645.486	58404
645.545	98683
645.604	30060
645.663	20382
645.722	20225
645.781	21788
645.840	23379
645.898	28147
645.957	38935
646.016	54795
646.075	95208
646.134	178488
646.192	437139
646.251	563955
646.310	121990
646.369	43296
646.427	36642
646.486	27491
646.545	22069
646.603	20186
646.662	18688
646.721	18588
646.779	17396
646.838	17508
646.896	23278
646.955	31395
647.014	49022
647.072	93671
647.131	241543
647.189	112999
647.248	23043
647.306	18439
647.365	17655
647.423	13834
647.481	15054
647.540	13060
647.598	14726
647.657	13680
647.715	13949
647.773	12584
647.832	13803
647.890	10393
647.948	12383
648.007	13138
648.065	10650
648.123	10805
648.181	12226
648.240	11678
648.298	11164
648.356	11068
648.414	11362
648.472	11304
648.531	10958
648.589	11187
648.647	10326
648.705	10852
648.763	10549
648.821	10836
648.879	11530
648.937	12889
648.995	14101
649.053	17689
649.111	27953
649.169	45783
649.227	79625
649.285	167620
649.343	423569
649.401	201315
649.459	33944
649.516	21245
649.574	14913
649.632	17237
649.690	18724
649.748	24207
649.806	34170
649.863	64892
649.921	179972
649.979	110723
650.037	19084
650.094	10067
650.152	10206
650.210	9447
650.268	9319
650.325	8892
650.383	8844
650.440	7459
650.498	7334
650.556	7336
650.613	7958
650.671	7949
650.728	7802
650.786	8787
650.843	12566
650.901	8616
650.958	7529
651.016	7581
651.073	6527
651.131	6537
651.188	5423
651.246	6844
651.303	5106
651.360	6324
651.418	5343
651.475	5592
651.532	5350
651.590	7025
651.647	5143
651.704	5549
651.762	5122
651.819	6289
651.876	5327
651.933	5916
651.990	5548
652.048	3988
652.105	5521
652.162	5529
652.219	4042
652.276	4942
652.333	5931
652.390	3441
652.448	5286
652.505	4618
652.562	4663
652.619	4774
652.676	5143
652.733	6181
652.790	4330
652.847	3855
652.904	5531
652.961	3846
653.017	3717
653.074	4873
653.131	4308
653.188	4191
653.245	4687
653.302	4472
653.359	4027
653.415	4942
653.472	4318
653.529	4002
653.586	3812
653.642	4710
653.699	5146
653.756	4058
653.813	3354
653.869	5127
653.926	3197
653.983	4293
654.039	4568
654.096	4077
654.152	4784
654.209	3301
654.266	4604
654.322	3107
654.379	4266
654.435	4827
654.492	3490
654.548	4069
654.605	4160
654.661	4782
654.717	3960
654.774	4434
654.830	4334
654.887	4263
654.943	3816
655.000	4229
655.056	4552
655.112	4324
655.168	3697
655.225	4424
655.281	4803
655.337	3295
655.394	4439
655.450	4320
655.506	3183
655.562	3316
655.618	4579
655.675	2432
655.731	3677
655.787	3052
655.843	4373
655.899	3317
655.955	4591
656.011	4377
656.067	3500
656.123	3896
656.179	3694
656.235	5176
656.291	2301
656.347	3437
656.403	3004
656.459	4121
656.515	4041
656.571	4043
656.627	3615
656.683	4200
656.739	3970
656.795	3910
656.850	2981
656.906	4478
656.962	4597
657.018	4308
657.074	5347
657.129	8021
657.185	14017
657.241	32917
657.297	15713
657.352	5848
657.408	3185
657.464	3607
657.519	3345
657.575	2950
657.630	2964
657.686	3175
657.742	2542
657.797	3330
657.853	3892
657.908	4590
657.964	2033
658.019	3510
658.075	2783
658.130	3625
658.186	1497
658.241	3756
658.297	2775
658.352	2727
658.407	3663
658.463	2705
658.518	3384
658.573	3258
658.629	2464
658.684	1997
658.739	2495
658.795	2520
658.850	2997
658.905	2345
658.960	3234
659.016	2807
659.071	2821
659.126	2755
659.181	1631
659.236	3751
659.291	3343
659.346	2527
659.401	2407
659.457	3718
659.512	2516
659.567	4177
659.622	2075
659.677	2669
659.732	1587
659.787	2104
659.842	2443
659.897	2018
659.952	1899
660.007	2003
660.061	2768
660.116	2301
660.171	2424
660.226	2781
660.281	3780
660.336	1888
660.391	2414
660.445	2273
660.500	2768
660.555	2445
660.610	2308
660.664	3174
660.719	2237
660.774	2957
660.828	2333
660.883	1738
660.938	2950
660.992	1216
661.047	2402
661.101	2466
661.156	2039
661.211	2377
661.265	1496
661.320	2335
661.374	2755
661.429	1818
661.483	2583
661.538	1861
661.592	2071
661.647	3086
661.701	2696
661.755	2174
661.810	2565
661.864	1855
661.919	1406
661.973	2612
662.027	2115
662.081	1778
662.136	2377
662.190	1954
662.244	2856
662.299	1819
662.353	2563
662.407	2542
662.461	1842
662.515	2575
662.569	1438
662.624	1845
662.678	1700
662.732	1703
662.786	917
662.840	2018
662.894	1609
662.948	1774
663.002	2007
663.056	1792
663.110	1616
663.164	2712
663.218	2322
663.272	1755
663.326	2729
663.380	1996
663.434	2332
663.488	1589
663.542	2073
663.595	2359
663.649	1605
663.703	2481
663.757	1518
663.811	2728
663.864	2393
663.918	2194
663.972	1838
664.026	1439
664.079	1276
664.133	2586
664.187	2655
664.240	1900
664.294	2122
664.348	1800
664.401	2080
664.455	1936
664.508	1249
664.562	2479
664.615	1939
664.669	2351
664.722	2423
664.776	2142
664.829	2248
664.883	2415
664.936	1173
664.990	2074
665.043	2474
665.097	1959
665.150	2652
665.203	1553
665.257	2032
665.310	3335
665.363	1998
665.417	2559
665.470	2374
665.523	2464
665.576	2092
665.630	1927
665.683	2961
665.736	2780
665.789	2097
665.842	1217
665.895	2160
665.949	3520
666.002	2123
666.055	2811
666.108	3035
666.161	2233
666.214	2095
666.267	1583
666.320	2118
666.373	2560
666.426	3327
666.479	2526
666.532	2389
666.585	3222
666.638	2193
666.691	1787
666.744	2427
666.796	2586
666.849	2269
666.902	2495
666.955	2344
667.008	2403
667.060	1164
667.113	2542
667.166	2498
667.219	3592
667.271	3455
667.324	2677
667.377	2604
667.430	2549
667.482	2447
667.535	2508
667.587	2744
667.640	2437
667.693	1791
667.745	1968
667.798	3275
667.850	1651
667.903	2539
667.955	3090
668.008	2268
668.060	2271
668.113	1750
668.165	3241
668.218	2827
668.270	1763
668.322	1981
668.375	2933
668.427	2511
668.479	1882
668.532	2886
668.584	2605
668.636	2258
668.689	2215
668.741	2019
668.793	3587
668.845	2005
668.898	2899
668.950	2786
669.002	2667
669.054	1109
669.106	2068
669.158	2551
669.211	2101
669.263	2176
669.315	2610
669.367	3070
669.419	1780
669.471	2452
669.523	2869
669.575	2516
669.627	1568
669.679	1307
669.731	2721
669.783	1934
669.835	2954
669.886	2666
669.938	2266
669.990	2226
670.042	1539
670.094	2687
670.146	2645
670.197	2984
670.249	2979
670.301	2816
670.353	4737
670.404	5994
670.456	7846
670.508	12373
670.560	21425
670.611	36596
670.663	64018
670.715	155020
670.766	231361
670.818	64626
670.869	13028
670.921	7202
670.972	6420
671.024	4867
671.075	3419
671.127	3552
671.178	3774
671.230	4079
671.281	4198
671.333	3709
671.384	4173
671.436	5787
671.487	10228
671.538	15591
671.590	23713
671.641	41520
671.692	75738
671.744	141018
671.795	90804
671.846	29755
671.897	13518
671.949	8774
672.000	6011
672.051	4749
672.102	4393
672.153	3189
672.204	2796
672.256	2452
672.307	2578
672.358	2386
672.409	2113
672.460	2217
672.511	1843
672.562	625
672.613	1582
672.664	1780
672.715	1699
672.766	2202
672.817	1474
672.868	847
672.919	1641
672.970	1383
673.021	879
673.071	144
673.122	1761
673.173	1639
673.224	1216
673.275	1044
673.326	1762
673.376	1471
673.427	1396
673.478	848
673.528	2156
673.579	447
673.630	836
673.680	1942
673.731	1108
673.782	749
673.832	1455
673.883	1270
673.934	259
673.984	1200
674.035	908
674.085	1485
674.136	1833
674.186	1973
674.237	1095
674.287	1578
674.338	1007
674.388	1001
674.438	1208
674.489	1885
674.539	1421
674.589	2114
674.640	1620
674.690	1729
674.740	2061
674.791	1738
674.841	1558
674.891	1141
674.942	1148
674.992	-20
675.042	689
675.092	413
675.142	1395
675.193	630
675.243	-246
675.293	1737
675.343	973
675.393	543
675.443	587
675.493	360
675.543	939
675.593	684
675.643	811
675.693	1850
675.743	1608
675.793	456
675.843	130
675.893	82
675.943	1232
675.993	8
676.043	289
676.093	626
676.142	795
676.192	665
676.242	716
676.292	311
676.341	-28
676.391	310
676.441	874
676.491	477
676.540	-395
676.590	1301
676.640	727
676.689	-351
676.739	82
676.789	37
676.838	273
676.888	-105
676.937	749
676.987	254
677.037	921
677.086	-508
677.136	212
677.185	-112
677.235	336
677.284	406
677.333	535
677.383	212
677.432	18
677.482	1408
677.531	884
677.580	745
677.630	206
677.679	-313
677.728	287
677.778	162
677.827	-260
677.876	304
677.925	339
677.975	-29
678.024	171
678.073	-111
678.122	531
678.171	751
678.220	-1
678.269	873
678.319	945
678.368	1666
678.417	1664
678.466	814
678.515	573
678.564	-27
678.613	35
678.662	-355
678.711	895
678.760	893
678.809	-277
678.857	138
678.906	588
678.955	55
679.004	-36
679.053	-261
679.102	-102
679.151	106
679.199	55
679.248	302
679.297	-101
679.346	-294
679.394	-825
679.443	135
679.492	692
679.540	475
679.589	-360
679.638	-413
679.686	1156
679.735	288
679.784	765
679.832	1446
679.881	483
679.929	-61
679.978	-358
680.026	-180
680.075	777
680.123	29
680.172	256
680.220	732
680.268	299
680.317	-90
680.365	252
680.414	-713
680.462	72
680.510	324
680.559	95
680.607	-214
680.655	108
680.703	467
680.752	274
680.800	386
680.848	131
680.896	-920
680.945	448
680.993	-38
681.041	425
681.089	35
681.137	-331
681.185	595
681.233	-813
681.258	-132
681.281	481
681.329	634
681.377	-816
681.380	-731
681.425	209
681.473	161
681.502	576
681.521	801
681.569	513
681.617	598
681.624	626
681.665	547
681.713	1006
681.745	757
681.761	599
681.809	420
681.857	1755
681.867	1742
681.904	1550
681.952	1138
681.989	1181
682.000	1151
682.048	1533
682.096	1164
682.111	1054
682.143	735
682.191	966
682.233	1299
682.239	1315
682.286	1421
682.334	1407
682.354	1396
682.382	1314
682.430	2438
682.476	1543
682.477	1495
682.525	1322
682.572	1597
682.598	1595
682.620	1562
682.667	2813
682.715	1577
682.720	1657
682.763	2091
682.810	1508
682.841	2231
682.857	2551
682.905	2527
682.952	2510
682.963	2633
683.000	2925
683.047	2616
683.085	2967
683.095	3065
683.142	2628
683.190	3111
683.206	2893
683.237	2335
683.284	2944
683.328	2418
683.332	2355
683.379	3204
683.426	3107
683.449	3199
683.473	3222
683.521	3296
683.568	3378
683.571	3443
683.615	3954
683.662	3665
683.693	3844
683.709	3899
683.757	3154
683.804	3718
683.814	3468
683.851	2516
683.898	3097
683.936	3226
683.945	3241
683.992	3193
684.039	3998
684.057	3996
684.086	3991
684.133	3180
684.179	3808
684.180	3802
684.227	3719
684.274	3841
684.300	3939
684.321	4043
684.368	3666
684.415	3476
684.422	3597
684.462	4334
684.509	3622
684.543	4510
684.556	4759
684.603	4715
684.649	4056
684.665	4318
684.696	4880
684.743	4948
684.786	4626
684.790	4575
684.837	4627
684.883	5129
684.908	4822
684.930	4549
684.977	5066
685.023	5023
685.029	4967
685.070	4404
685.117	5334
685.150	5141
685.164	5025
685.210	5888
685.257	5663
685.272	5392
685.303	4824
685.350	5277
685.393	5533
685.396	5524
685.443	4932
685.490	5349
685.514	5206
685.536	5197
685.583	5141
685.629	5407
685.636	5408
685.675	5338
685.722	5104
685.757	5303
685.768	5294
685.815	5568
685.861	5679
685.878	5610
685.908	5670
685.954	6191
686.000	5596
686.000	5579
686.047	5888
686.093	6147
686.121	6511
686.139	6739
686.185	6572
686.232	7066
686.242	7086
686.278	6932
686.324	6378
686.363	6592
686.370	6644
686.416	6232
686.463	6547
686.484	6710
686.509	6940
686.555	6794
686.601	6835
686.606	6834
686.647	6612
686.693	6922
686.727	6906
686.739	6947
686.785	6568
686.831	6943
686.848	7106
686.877	7349
686.923	7689
686.969	7564
686.969	7562
687.015	7026
687.061	7474
687.090	7744
687.107	7876
687.153	7909
687.199	8004
687.211	8022
687.245	7892
687.291	8032
687.332	7300
687.336	7266
687.382	7957
687.428	7664
687.453	7844
687.474	7913
687.520	8300
687.565	8280
687.574	8296
687.611	8453
687.657	8812
687.695	8502
687.702	8455
687.748	8949
687.794	9493
687.816	9500
687.839	9371
687.885	8572
687.931	9315
687.937	9240
687.976	8881
688.022	9074
688.058	9118
688.067	9097
688.113	8640
688.158	8250
688.179	8228
688.204	8476
688.249	8906
688.295	9179
688.300	9207
688.340	9271
688.386	9623
688.421	9265
688.431	9186
688.477	9562
688.522	9211
688.542	9463
688.567	9962
688.613	10482
688.658	10490
688.663	10568
688.703	10697
688.749	9991
688.784	10181
688.794	10310
688.839	9824
688.884	10138
688.905	10175
688.930	10089
688.975	9863
689.020	9422
689.026	9382
689.065	9534
689.110	9992
689.146	10025
689.155	10022
689.201	10093
689.246	10534
689.267	10387
689.291	10212
689.336	10724
689.381	10021
689.388	10024
689.426	10273
689.471	10305
689.509	10552
689.516	10612
689.561	10761
689.606	10957
689.630	11052
689.651	10952
689.696	10618
689.741	10310
689.750	10331
689.785	10880
689.830	10675
689.871	11144
689.875	11168
689.920	10701
689.965	10630
689.992	10369
690.010	10278
690.054	10585
690.099	10693
690.112	10636
690.144	10640
690.189	10500
690.233	10492
690.233	10507
690.278	10826
690.323	10635
690.354	10534
690.367	10565
690.412	11083
690.457	10535
690.474	10792
690.501	11099
690.546	10781
690.590	10558
690.595	10500
690.635	10434
690.680	11131
690.716	11036
690.724	11062
690.769	11550
690.813	12154
690.836	12342
690.857	13161
690.902	14574
690.946	16275
690.957	16624
690.991	19716
691.035	25007
691.077	28872
691.080	28767
691.124	25175
691.168	21895
691.198	19941
691.213	19151
691.257	16309
691.301	13760
691.318	12738
691.346	12670
691.390	12509
691.434	12051
691.439	12051
691.478	12471
691.522	12577
691.559	12822
691.567	12888
691.611	12587
691.655	12777
691.680	12640
691.699	12519
691.743	12429
691.787	12534
691.800	12491
691.831	12678
691.875	12742
691.919	12783
691.921	12763
691.964	12693
692.008	12754
692.041	12670
692.052	12712
692.096	12527
692.139	12902
692.162	12910
692.183	12844
692.227	12577
692.271	12171
692.282	12127
692.315	12263
692.359	12305
692.402	12286
692.403	12312
692.447	12113
692.490	12574
692.523	12562
692.534	12560
692.578	12083
692.622	11967
692.643	11952
692.666	12100
692.709	12273
692.753	12366
692.763	12444
692.797	12686
692.840	12430
692.884	12760
692.884	12790
692.928	12541
692.971	12733
693.004	12764
693.015	12760
693.059	12856
693.102	12606
693.124	12675
693.146	12925
693.189	12781
693.233	13185
693.245	13187
693.276	13302
693.320	13660
693.363	13787
693.365	13762
693.407	14122
693.450	14487
693.485	14930
693.493	15162
693.537	16087
693.580	16743
693.605	17321
693.624	18883
693.667	22040
693.710	25527
693.725	26740
693.753	33449
693.797	44053
693.840	54581
693.845	55631
693.883	48729
693.926	41257
693.966	34311
693.970	33761
694.013	27574
694.056	21213
694.086	16926
694.099	16716
694.142	15644
694.185	14842
694.206	14378
694.229	14440
694.272	14278
694.315	14683
694.326	14657
694.358	14715
694.401	14503
694.444	14646
694.446	14609
694.487	14198
694.530	14001
694.566	13350
694.573	13366
694.616	13762
694.659	13949
694.686	14008
694.702	14072
694.745	14347
694.787	14388
694.806	14392
694.830	14417
694.873	14449
694.916	14448
694.926	14425
694.959	14590
695.002	14712
695.044	14745
695.046	14718
695.087	15392
695.130	16065
695.166	16305
695.172	16305
695.215	16161
695.258	16168
695.286	15988
695.301	16157
695.343	16641
695.386	17083
695.406	17266
695.428	17733
695.471	18686
695.514	19381
695.526	19623
695.556	20857
695.599	22457
695.641	23972
695.646	24063
695.684	22680
695.726	21202
695.766	19709
695.769	19732
695.811	19395
695.854	19112
695.886	18884
695.896	19031
695.938	19103
695.981	19541
696.005	19637
696.023	20186
696.065	21490
696.108	22800
696.125	23293
696.150	23586
696.192	23871
696.235	24274
696.245	24250
696.277	24354
696.319	24745
696.361	24995
696.365	24946
696.404	24343
696.446	23695
696.485	23153
696.488	23249
696.530	23528
696.572	23901
696.604	24006
696.614	23965
696.656	23724
696.698	23305
696.724	23153
696.740	23371
696.783	23621
696.825	23863
696.844	23899
696.867	23986
696.909	24102
696.951	24091
696.964	24085
696.992	24321
697.034	24360
697.076	24569
697.083	24534
697.118	25298
697.160	26109
697.202	26909
697.203	26863
697.244	26739
697.286	26421
697.323	26061
697.327	26128
697.369	26184
697.411	26177
697.442	26153
697.453	26226
697.494	26118
697.536	26158
697.562	26082
697.578	26239
697.620	26486
697.661	26623
697.682	26681
697.703	27093
697.744	27722
697.786	28406
697.801	28544
697.828	28650
697.869	28785
697.911	28829
697.921	28769
697.952	28510
697.994	28108
698.035	27662
698.040	27542
698.077	27670
698.118	27624
698.160	27653
698.160	27579
698.201	28505
698.243	29389
698.279	30113
698.284	30291
698.325	31195
698.367	32048
698.399	32672
698.408	32794
698.449	32909
698.491	33067
698.518	33035
698.532	33092
698.573	33025
698.614	32994
698.638	32880
698.656	32965
698.697	32945
698.738	32925
698.757	32826
698.779	32999
698.820	33177
698.862	33341
698.877	33317
698.903	33364
698.944	33284
698.985	33221
698.996	33114
699.026	32970
699.067	32651
699.116	32183
699.235	32540
699.354	31603
699.474	30345
699.593	29897
699.713	29940
699.832	29964
699.951	32361
700.070	31333
700.190	29639
700.309	28947
700.428	27469
700.547	27442
700.667	27265
700.786	27497
700.905	26609
701.024	27426
701.143	25648
701.262	26598
701.381	27381
701.500	29300
701.619	27232
701.738	27634
701.857	27774
701.976	25538
702.095	27016
702.214	27759
702.333	26273
702.452	26691
702.571	27330
702.690	27269
702.809	27855
702.928	24506
703.047	25490
703.165	24807
703.284	25658
703.403	24232
703.522	24413
703.640	23483
703.759	24495
703.878	22703
703.997	23955
704.115	24236
704.234	23664
704.353	24327
704.471	21782
704.590	21938
704.708	22130
704.827	21991
704.946	21389
705.064	21923
705.183	21879
705.301	22468
705.420	21518
705.538	20488
705.656	19769
705.775	20470
705.893	21914
706.012	22156
706.130	20096
706.249	20361
706.367	19457
706.485	20170
706.604	19384
706.722	19567
706.840	21327
706.958	22620
707.077	19758
707.195	18066
707.313	18911
707.431	17269
707.549	17521
707.668	16787
707.786	18982
707.904	17947
708.022	19137
708.140	17263
708.258	16655
708.376	18570
708.494	16894
708.612	17761
708.730	19016
708.848	17507
708.966	17713
709.084	18356
709.202	18003
709.320	16496
709.438	17389
709.556	17510
709.674	16075
709.791	15443
709.909	15661
710.027	16007
710.145	15395
710.263	15402
710.380	16129
710.498	14934
710.616	15768
710.733	14625
710.851	15324
710.969	15793
711.086	15051
711.204	15988
711.322	15208
711.439	14489
711.557	14436
711.674	14620
711.792	15072
711.909	13765
712.027	14299
712.144	13389
712.262	14405
712.379	13760
712.497	14775
712.614	14316
712.732	14506
712.849	14115
712.966	14518
713.084	14679
713.201	13266
713.318	13848
713.436	14768
713.553	14527
713.670	15604
713.787	15028
713.905	15023
714.022	15820
714.139	15384
714.256	18990
714.373	24753
714.490	43473
714.608	112949
714.725	437285
714.842	381258
714.959	43537
715.076	21148
715.193	17279
715.310	16212
715.427	13036
715.544	13820
715.661	14163
715.778	12681
715.895	12748
716.011	12293
716.128	13225
716.245	12774
716.362	12826
716.479	10208
716.596	12232
716.713	11434
716.829	11341
716.946	12201
717.063	10631
717.180	10621
717.296	11058
717.413	11477
717.530	10140
717.646	10015
717.763	10187
717.880	9951
717.996	9724
718.113	10261
718.229	10045
718.346	9515
718.462	9670
718.579	10420
718.695	10258
718.812	10730
718.928	10193
719.045	10211
719.161	10156
719.277	10726
719.394	10141
719.510	11497
719.626	10907
719.743	14012
719.859	20639
719.975	40628
720.092	160955
720.208	319655
720.324	40164
720.440	14305
720.557	12197
720.673	11894
720.789	10294
720.905	12477
721.021	9225
721.137	8591
721.253	8181
721.369	9334
721.486	8601
721.602	9519
721.718	8608
721.834	8795
721.950	8488
722.066	8603
722.181	7649
722.297	7989
722.413	8236
722.529	8517
722.645	8343
722.761	7462
722.877	8292
722.993	8814
723.108	10380
723.224	9708
723.340	8377
723.456	7928
723.571	7517
723.687	7903
723.803	7906
723.918	7473
724.034	7710
724.150	7554
724.265	7842
724.381	7550
724.497	7839
724.612	7883
724.728	7856
724.843	7077
724.959	7267
725.074	8130
725.190	8560
725.305	7116
725.421	6509
725.536	7693
725.651	7872
725.767	6808
725.882	7393
725.997	6788
726.113	7595
726.228	7476
726.343	6706
726.459	6620
726.574	6283
726.689	7934
726.804	6991
726.920	6936
727.035	6271
727.150	7171
727.265	5844
727.380	7030
727.495	6922
727.610	6478
727.725	5757
727.841	7217
727.956	7405
728.071	7189
728.186	6502
728.301	6947
728.416	7238
728.531	6556
728.645	5799
728.760	6049
728.875	6818
728.990	6789
729.105	6839
729.220	6372
729.335	6397
729.449	6561
729.564	6307
729.679	5974
729.794	6926
729.908	5837
730.023	6677
730.138	6540
730.253	7329
730.367	5749
730.482	6641
730.596	6578
730.711	7751
730.826	10174
730.940	9755
731.055	8964
731.169	8362
731.284	8613
731.398	8842
731.513	9296
731.627	10944
731.742	12312
731.856	15416
731.970	15258
732.085	17071
732.199	23939
732.313	41077
732.428	104696
732.542	305121
732.656	165942
732.771	34884
732.885	21664
732.999	19893
733.113	21753
733.227	20706
733.342	19859
733.456	19697
733.570	18145
733.684	17706
733.798	16284
733.912	16762
734.026	16940
734.140	16133
734.254	16182
734.368	17796
734.482	17036
734.596	16629
734.710	16081
734.824	15165
734.938	15351
735.052	15752
735.166	15117
735.280	15466
735.393	14377
735.507	15381
735.621	14517
735.735	14384
735.849	15276
735.962	13870
736.076	14583
736.190	13595
736.303	13309
736.417	14871
736.531	13278
736.644	13925
736.758	13850
736.872	13102
736.985	13507
737.099	13315
737.212	12239
737.326	12247
737.439	14094
737.553	12219
737.666	13872
737.780	12941
737.893	13719
738.007	11812
738.120	13467
738.233	11275
738.347	12647
738.460	10953
738.573	12981
738.687	11573
738.800	12197
738.913	11750
739.026	12351
739.140	11318
739.253	11837
739.366	12222
739.479	11840
739.592	12473
739.705	10649
739.818	12528
739.932	10783
740.045	11970
740.158	10719
740.271	11665
740.384	10752
740.497	10244
740.610	11918
740.723	10586
740.836	11099
740.949	11124
741.062	11758
741.174	10404
741.287	10564
741.400	11141
741.513	9544
741.626	10823
741.739	10337
741.851	9369
741.964	10540
742.077	9942
742.189	8897
742.302	10050
742.415	9660
742.527	9353
742.640	10255
742.753	8310
742.865	10100
742.978	9801
743.090	8693
743.203	9426
743.316	9279
743.428	8314
743.541	9176
743.653	8349
743.766	9374
743.878	8793
743.990	8436
744.103	9531
744.215	8940
744.327	7373
744.440	9813
744.552	8889
744.664	8624
744.777	10150
744.889	8750
745.001	8098
745.113	8303
745.226	8448
745.338	7927
745.450	9678
745.562	8075
745.674	7504
745.786	8730
745.898	9269
746.010	8130
746.122	7838
746.234	8250
746.347	8109
746.459	9277
746.570	6365
746.682	8557
746.794	9415
746.906	7074
747.018	6907
747.130	7951
747.242	6509
747.354	6795
747.466	8262
747.577	7069
747.689	7948
747.801	8053
747.913	7337
748.024	6971
748.136	6795
748.248	6834
748.359	6958
748.471	7878
748.583	6572
748.694	6147
748.806	7299
748.918	6421
749.029	7575
749.141	6688
749.252	8212
749.364	6361
749.475	6560
749.587	6204
749.698	5905
749.809	7398
749.921	6831
750.032	6826
750.144	5367
750.255	5529
750.366	6888
750.478	6931
750.589	6188
750.700	5189
750.811	6709
750.923	6987
751.034	5664
751.145	7947
751.256	5937
751.367	6023
751.479	6084
751.590	6047
751.701	5595
751.812	5490
751.923	6126
752.034	6330
752.145	6042
752.256	6632
752.367	5807
752.478	6329
752.589	5977
752.700	6522
752.811	5950
752.922	6164
753.032	5091
753.143	6801
753.254	5312
753.365	6661
753.476	6129
753.586	5928
753.697	6256
753.808	5511
753.919	5505
754.029	5646
754.140	5390
754.251	5874
754.361	5913
754.472	5673
754.582	5864
754.693	5578
754.804	5985
754.914	6203
755.025	3355
755.135	4995
755.246	6623
755.356	5017
755.466	5007
755.577	6109
755.687	4816
755.798	4722
755.908	4966
756.018	5446
756.129	6093
756.239	5662
756.349	5699
756.460	5654
756.570	5757
756.680	4945
756.790	5865
756.900	6397
757.011	4860
757.121	4959
757.231	5082
757.341	5407
757.451	4597
757.561	5216
757.671	5404
757.781	5188
757.891	6170
758.001	3862
758.111	5581
758.221	6397
758.331	6137
758.441	5682
758.551	5697
758.661	5992
758.771	6507
758.880	5191
758.990	5745
759.100	6366
759.210	5579
759.320	6022
759.429	5785
759.539	6916
759.649	5991
759.758	7491
759.868	7398
759.978	7388
760.087	7615
760.197	8697
760.307	7694
760.416	7072
760.526	6719
760.635	7489
760.745	7641
760.854	7121
760.964	9918
761.073	8893
761.182	9255
761.292	8646
761.401	7317
761.511	5419
761.620	5798
761.729	6569
761.839	6487
761.948	6453
762.057	5549
762.166	5992
762.276	4840
762.385	7971
762.494	6346
762.603	6739
762.712	7550
762.822	6735
762.931	6498
763.040	5815
763.149	5415
763.258	7014
763.367	7159
763.476	6894
763.585	7238
763.694	7124
763.803	7816
763.912	8988
764.021	7682
764.130	8524
764.238	8698
764.347	9507
764.456	10612
764.565	10339
764.674	10783
764.783	12480
764.891	12084
765.000	14679
765.109	15109
765.217	16615
765.326	19853
765.435	23161
765.543	28376
765.652	34092
765.761	43778
765.869	61739
765.978	90030
766.086	145101
766.195	244408
766.303	420070
766.412	500714
766.520	405168
766.629	348500
766.737	207865
766.846	125452
766.954	85271
767.062	63310
767.171	47598
767.279	37577
767.387	30738
767.496	26693
767.604	22679
767.712	20440
767.820	18714
767.928	16775
768.037	15753
768.145	15481
768.253	14537
768.361	13824
768.469	13489
768.577	13881
768.685	14976
768.793	15741
768.901	16616
769.009	19808
769.117	22449
769.225	28352
769.333	39813
769.441	60627
769.549	102232
769.657	202222
769.765	398014
769.873	406149
769.981	314706
770.088	165580
770.196	88489
770.304	58254
770.412	41175
770.519	32047
770.627	26084
770.735	21009
770.842	18626
770.950	17350
771.058	14930
771.165	15972
771.273	14705
771.380	14050
771.488	15990
771.595	17270
771.703	14601
771.810	13310
771.918	13878
772.025	15879
772.133	17331
772.240	15533
772.348	18798
772.455	17004
772.562	14426
772.670	14432
772.777	14589
772.884	14928
772.991	12750
773.099	15156
773.206	13219
773.313	13516
773.420	13875
773.528	14052
773.635	12897
773.742	14090
773.849	12856
773.956	13935
774.063	12487
774.170	13088
774.277	13404
774.384	11608
774.491	11483
774.598	12445
774.705	11759
774.812	12259
774.919	11655
775.026	11770
775.133	11371
775.239	11174
775.346	10794
775.453	10557
775.560	10741
775.667	11376
775.773	10335
775.880	11899
775.987	10161
776.093	11247
776.200	11188
776.307	8062
776.413	10545
776.520	11324
776.627	10203
776.733	9949
776.840	8355
776.946	12957
777.053	10223
777.159	10250
777.266	8754
777.372	9367
777.478	10160
777.585	9861
777.691	8126
777.798	9134
777.904	8867
778.010	8720
778.117	9616
778.223	8508
778.329	9083
778.435	8366
778.542	10011
778.648	8541
778.754	8284
778.860	8956
778.966	8915
779.072	7834
779.178	8237
779.284	7130
779.391	8620
779.497	8251
779.603	10433
779.708	7566
779.815	11222
779.920	27805
780.026	49373
780.132	11796
780.238	7718
780.344	6962
780.450	9154
780.556	7021
780.661	6489
780.767	8394
780.873	5525
780.979	6872
781.085	7596
781.190	6407
781.296	6558
781.402	7584
781.507	6607
781.613	5975
781.719	6414
781.824	7794
781.930	6013
782.035	6814
782.141	7829
782.246	5458
782.352	6175
782.457	6506
782.563	6609
782.668	6175
782.773	6114
782.879	6039
782.984	6613
783.090	5944
783.195	5858
783.300	7129
783.405	5774
783.511	4356
783.616	5826
783.721	6720
783.826	5522
783.932	5577
784.037	6158
784.142	6165
784.247	5374
784.352	6194
784.457	4599
784.562	6031
784.667	6209
784.772	4875
784.877	3675
784.982	6014
785.087	5870
785.192	5112
785.297	5634
785.402	6340
785.507	5225
785.611	4822
785.716	4434
785.821	4946
785.926	4937
786.031	4360
786.135	4680
786.240	5301
786.345	3926
786.450	5095
786.554	4485
786.659	4202
786.763	4314
786.868	4893
786.973	6677
787.077	4388
787.182	3158
787.286	4781
787.391	5365
787.495	3115
787.600	3620
787.704	4218
787.809	5187
787.913	4584
788.017	4400
788.122	5559
788.226	4591
788.330	2794
788.435	5066
788.539	6118
788.643	3910
788.747	3679
788.852	4884
788.956	4128
789.060	5683
789.164	4396
789.268	2893
789.372	5544
789.476	4281
789.580	2454
789.684	2261
789.788	4587
789.892	5441
789.996	3591
790.100	2744
790.204	4026
790.308	4690
790.412	2838
790.516	2633
790.620	3492
790.724	5577
790.828	3277
790.931	2240
791.035	4235
791.139	3890
791.242	3648
791.346	4266
791.450	3920
791.554	3093
791.657	1959
791.761	3825
791.864	5237
791.968	4699
792.072	3786
792.175	3269
792.279	3354
792.382	3083
792.486	2481
792.589	2383
792.693	3898
792.796	2855
792.899	3118
793.003	4519
793.106	2358
793.209	3108
793.313	4208
793.416	1141
793.519	3748
793.623	4041
793.726	3422
793.829	2695
793.932	2527
794.035	1715
794.138	5054
794.242	4246
794.345	2787
794.448	3048
794.551	3719
794.654	14083
794.757	26202
794.860	6449
794.963	2669
795.066	2450
795.169	3079
795.272	2255
795.375	2615
795.477	1984
795.580	2769
795.683	1243
795.786	3174
795.889	1849
795.991	3485
796.094	3529
796.197	1882
796.300	3981
796.402	2659
796.505	2509
796.608	1754
796.710	3178
796.813	2703
796.915	3350
797.018	3682
797.120	2900
797.223	1624
797.326	3824
797.428	1132
797.530	2146
797.633	1967
797.735	4267
797.838	2814
797.940	3764
798.042	2396
798.145	2606
798.247	2398
798.349	1007
798.452	2883
798.554	3218
798.656	1870
798.758	4371
798.860	2525
798.962	1719
799.065	1586
799.167	2154
799.269	3280
799.371	2175
799.473	3116
799.575	2304
799.677	2104
799.779	3138
799.881	1381
799.983	3273
800.085	2696
800.187	2287
800.289	1371
800.390	1612
800.492	2744
800.594	3085
800.696	2187
800.798	2476
800.899	2047
801.001	2264
801.103	2243
801.205	2589
801.306	2515
801.408	1295
801.509	1705
801.611	2541
801.713	2318
801.814	1232
801.916	1723
802.017	1414
802.119	1971
802.220	2343
802.322	406
802.423	2898
802.525	270
802.626	2114
802.727	2523
802.829	2268
802.930	-277
803.031	3000
803.133	2064
803.234	2367
803.335	1821
803.436	854
803.538	1885
803.639	668
803.740	2162
803.841	1768
803.942	2639
804.043	2113
804.144	602
804.245	768
804.346	1913
804.447	1758
804.548	1564
804.649	2925
804.750	759
804.851	984
804.952	1003
805.053	2150
805.154	1109
805.255	2937
805.355	2022
805.456	2296
805.557	861
805.658	854
805.758	2096
805.859	1719
805.960	1294
806.061	1943
806.161	579
806.262	1967
806.362	894
806.463	1367
806.564	2884
806.664	2384
806.765	1300
806.865	2590
806.966	1401
807.066	768
807.166	1882
807.267	2117
807.367	1445
807.468	2404
807.568	-156
807.668	1639
807.769	2314
807.869	1496
807.969	1966
808.069	270
808.170	2006
808.270	1775
808.370	2088
808.470	1781
808.570	661
808.670	1848
808.770	1345
808.870	1278
808.970	1247
809.070	1230
809.170	1167
809.271	1976
809.370	1350
809.470	2094
809.570	651
809.670	266
809.770	1769
809.870	1608
809.970	2006
810.070	2450
810.169	1951
810.269	-248
810.369	2216
810.469	1301
810.568	1384
810.668	915
810.768	886
810.867	1990
810.967	380
811.066	1093
811.166	1819
811.265	2311
811.365	1185
811.464	637
811.564	1330
811.663	1275
811.763	415
811.862	2288
811.962	2069
812.061	1419
812.160	992
812.260	1679
812.359	1593
812.458	748
812.557	3504
812.657	2378
812.756	1588
812.855	1127
812.954	1185
813.053	1858
813.153	1099
813.252	-59
813.351	1611
813.450	1371
813.549	828
813.648	1560
813.747	803
813.846	1658
813.945	1020
814.044	2324
814.143	1586
814.242	3176
814.341	1270
814.439	1796
814.538	1564
814.637	2308
814.736	1351
814.835	3123
814.933	2548
815.032	3193
815.131	3597
815.229	6478
815.328	12478
815.427	8032
815.525	7051
815.624	7192
815.722	6731
815.821	7933
815.919	6452
816.018	6862
816.116	7714
816.215	6723
816.313	7222
816.412	9198
816.510	9106
816.609	10268
816.707	11044
816.805	9944
816.904	9023
817.002	9083
817.100	10212
817.198	10354
817.296	8598
817.395	8752
817.493	9175
817.591	8137
817.689	8509
817.787	9390
817.885	10097
817.983	10144
818.081	14620
818.179	25567
818.277	55403
818.375	40037
818.473	13816
818.571	8836
818.669	10141
818.767	10104
818.865	8872
818.963	7762
819.061	9895
819.158	12483
819.256	23156
819.354	42039
819.452	91371
819.549	48428
819.647	14997
819.745	9761
819.842	8401
819.940	8887
820.038	7556
820.135	6989
820.233	8688
820.330	7188
820.428	6055
820.525	8465
820.623	7281
820.720	5849
820.818	6620
820.915	6834
821.012	6116
821.110	5583
821.207	7291
821.304	5479
821.402	7244
821.499	8158
821.596	5556
821.693	5994
821.791	6530
821.888	6490
821.985	7057
822.082	5024
822.179	6405
822.276	6912
822.373	5145
822.470	6282
822.567	6434
822.664	4625
822.761	6689
822.858	5940
822.955	5639
823.052	4621
823.149	5595
823.246	6205
823.343	4977
823.440	5703
823.536	5663
823.633	5913
823.730	4095
823.827	5970
823.923	5528
824.020	5576
824.117	5759
824.213	5466
824.310	4773
824.407	3833
824.503	5403
824.600	5653
824.696	3926
824.793	6796
824.889	4909
824.986	5308
825.082	3130
825.179	5050
825.275	5367
825.371	6760
825.468	4182
825.564	2326
825.660	5002
825.757	7532
825.853	4438
825.949	3259
826.045	4433
826.142	5021
826.238	4663
826.334	4478
826.430	3793
826.526	3576
826.622	2523
826.718	5744
826.814	5465
826.910	5517
827.006	2236
827.102	2714
827.198	4356
827.294	4999
827.390	5439
827.486	3900
827.582	1484
827.678	3199
827.774	6448
827.869	2670
827.965	4128
828.061	2545
828.157	4507
828.252	4699
828.348	4036
828.444	3133
828.539	3082
828.635	3857
828.731	4467
828.826	3537
828.922	3879
829.017	5370
829.113	3994
829.208	2953
829.304	2859
829.399	6345
829.495	3703
829.590	3890
829.685	3515
829.781	4910
829.876	4006
829.971	1854
830.066	1711
830.162	2723
830.257	5523
830.352	4135
830.447	3055
830.543	2522
830.638	2853
830.733	4735
830.828	2938
830.923	4091
831.018	3876
831.113	4603
831.208	1883
831.303	2250
831.398	2283
831.493	3059
831.588	5016
831.683	2859
831.778	2284
831.873	3183
831.967	3974
832.062	3917
832.157	2571
832.252	2913
832.346	2959
832.441	4094
832.536	2632
832.631	3337
832.725	2562
832.820	2162
832.914	2530
833.009	1318
833.104	2103
833.198	1893
833.293	2510
833.387	4144
833.482	2866
833.576	2592
833.670	2306
833.765	1926
833.859	3103
833.954	3863
834.048	2309
834.142	2519
834.237	1732
834.331	3119
834.425	3218
834.519	2337
834.613	2413
834.708	2482
834.802	2896
834.896	3578
834.990	2247
835.084	1284
835.178	1781
835.272	2047
835.366	3058
835.460	4807
835.554	2609
835.648	1480
835.742	832
835.836	1738
835.930	1049
836.024	2149
836.117	2539
836.211	2606
836.305	1259
836.399	2218
836.493	1475
836.586	3227
836.680	1790
836.774	1436
836.867	2327
836.961	771
837.055	1769
837.148	2092
837.242	1989
837.335	2608
837.429	1284
837.522	1010
837.616	1568
837.709	2310
837.803	1009
837.896	2555
837.989	1991
838.083	2213
838.176	769
838.269	1175
838.363	2004
838.456	1243
838.549	2703
838.642	1842
838.735	2480
838.829	2501
838.922	1960
839.015	1145
839.108	1775
839.201	2385
839.294	2064
839.387	2035
839.480	1142
839.573	833
839.666	554
839.759	1726
839.852	1413
839.945	2515
840.038	1249
840.131	880
840.223	1350
840.316	1832
840.409	1789
840.502	2770
840.594	3648
840.687	332
840.780	1237
840.873	874
840.965	754
841.058	1681
841.150	2342
841.243	915
841.336	1397
841.428	1236
841.521	115
841.613	1173
841.706	1163
841.798	1656
841.890	2304
841.983	45
842.075	1323
842.167	1201
842.260	2011
842.352	2251
842.444	1829
842.537	1136
842.629	1052
842.721	645
842.813	1157
842.905	320
842.997	1884
843.090	1018
843.182	1398
843.274	865
843.366	1380
843.458	2378
843.550	2860
843.642	1644
843.734	1445
843.826	881
843.918	859
844.009	1234
844.101	999
844.193	1593
844.285	1392
844.377	1964
844.469	834
844.560	73
844.652	1149
844.744	1834
844.835	837
844.927	1270
845.019	1237
845.110	1201
845.202	1886
845.293	399
845.385	-134
845.476	1096
845.568	1979
845.659	1360
845.751	1347
845.842	681
845.934	1185
846.025	1475
846.116	292
846.208	1114
846.299	-242
846.390	597
846.482	491
846.573	719
846.664	1249
846.755	416
846.846	1198
846.937	-245
847.029	855
847.120	638
847.211	906
847.302	2014
847.393	1619
847.484	1186
847.575	574
847.666	118
847.757	251
847.847	1042
847.938	2059
848.029	1404
848.120	77
848.211	1121
848.302	377
848.392	571
848.483	1369
848.574	379
848.664	1020
848.755	577
848.846	1053
848.936	610
849.027	619
849.118	1220
849.208	63
849.299	1803
849.389	3673
849.480	6590
849.570	12084
849.661	22265
849.751	36921
849.841	12214
849.932	2073
850.022	1403
850.112	1853
850.203	952
850.293	991
850.383	808
850.474	332
850.564	64
850.654	217
850.744	552
850.834	304
850.924	1472
851.014	2146
851.104	309
851.194	63
851.284	606
851.374	1277
851.464	613
851.554	411
851.644	1058
851.734	931
851.824	1408
851.914	852
852.004	1148
852.094	327
852.183	617
852.273	852
852.363	295
852.452	662
852.542	767
852.632	29
852.721	-362
852.811	190
852.901	1349
852.990	1588
853.080	993
853.169	1051
853.259	1384
853.348	550
853.438	1998
853.527	2129
853.617	4007
853.706	7618
853.795	12765
853.885	27362
853.974	46959
854.063	88549
854.152	115235
854.242	45934
854.331	11524
854.420	4989
854.509	3575
854.598	2922
854.687	2346
854.777	2715
854.866	588
854.955	970
855.044	427
855.133	996
855.222	716
855.311	995
855.400	803
855.488	823
855.577	-667
855.666	1144
855.755	1570
855.844	1391
855.933	811
856.021	1834
856.110	817
856.199	205
856.288	-531
856.376	50
856.465	411
856.554	558
856.642	201
856.731	1296
856.819	802
856.908	120
856.996	244
857.085	-366
857.173	-276
857.262	44
857.350	-333
857.438	423
857.527	978
857.615	-43
857.703	465
857.792	86
857.880	-245
857.968	436
858.056	1052
858.145	826
858.233	819
858.321	441
858.409	682
858.497	287
858.585	-67
858.673	209
858.761	-368
858.849	555
858.937	566
859.025	582
859.113	1774
859.201	836
859.289	1213
859.377	-179
859.465	712
859.552	292
859.640	-396
859.728	712
859.816	208
859.903	625
859.991	598
860.079	-61
860.166	705
860.254	279
860.342	568
860.429	740
860.517	912
860.604	539
860.692	853
860.779	800
860.867	227
860.954	418
861.042	913
861.129	724
861.216	787
861.304	1217
861.391	908
861.478	-89
861.565	805
861.653	874
861.740	616
861.827	967
861.914	48
862.001	-219
862.089	524
862.176	305
862.263	1263
862.350	1007
862.437	-181
862.524	593
862.611	-309
862.698	894
862.785	358
862.871	1457
862.958	757
863.045	1585
863.132	1289
863.219	880
863.306	-52
863.392	758
863.479	584
863.566	612
863.652	1407
863.739	768
863.826	1194
863.912	1571
863.999	129
864.086	269
864.172	1792
864.259	1981
864.345	1282
864.432	1508
864.518	972
864.604	1093
864.691	1335
864.777	1894
864.863	2689
864.950	3867
865.036	5164
865.122	10309
865.209	11785
865.295	9253
865.381	8550
865.467	7766
865.553	8373
865.639	9792
865.726	13518
865.812	20734
865.898	32685
865.984	43895
866.070	78761
866.156	73156
866.242	26107
866.328	12472
866.414	9735
866.499	9055
866.585	8137
866.671	7732
866.757	8330
866.843	7470
866.928	7088
867.014	6674
867.100	8360
867.186	6583
867.271	7289
867.357	7139
867.442	6672
867.528	6900
867.614	6630
867.699	6567
867.785	6653
867.870	5713
867.956	6819
868.041	7179
868.127	6324
868.212	5847
868.297	6619
868.383	6262
868.468	5145
868.553	6813
868.639	6357
868.724	5989
868.809	7242
868.894	6870
868.979	5804
869.065	6563
869.150	4147
869.235	6511
869.320	5369
869.405	5439
869.490	6289
869.575	5473
869.660	5003
869.745	5683
869.830	6432
869.915	4752
870.000	5301
870.085	5080
870.169	6692
870.254	6174
870.339	4408
870.424	5188
870.509	5487
870.593	5336
870.678	6081
870.763	4299
870.847	4227
870.932	4381
871.016	5643
871.101	4005
871.186	5244
871.270	6382
871.355	4032
871.439	4502
871.523	4982
871.608	4570
871.692	3599
871.777	5963
871.861	5582
871.945	4244
872.030	5504
872.114	4315
872.198	4414
872.282	3956
872.367	3939
872.451	4470
872.535	3729
872.619	4592
872.703	3655
872.787	4580
872.871	4254
872.955	3998
873.039	2295
873.123	3853
873.207	4399
873.291	2634
873.375	3894
873.459	5250
873.543	4225
873.627	3875
873.711	2422
873.794	4907
873.878	3783
873.962	3257
874.045	3392
874.129	3032
874.137	3072
874.213	3468
874.245	3264
874.296	2942
874.352	2697
874.380	2572
874.460	3304
874.464	3334
874.547	3013
874.568	3208
874.631	3791
874.676	3508
874.714	3284
874.784	4739
874.798	5020
874.881	3681
874.892	3447
874.965	1888
874.999	2767
875.048	3940
875.107	3882
875.131	3876
875.215	2167
875.215	2167
875.298	2850
875.323	2692
875.381	2339
875.430	3742
875.465	4692
875.538	4451
875.548	4420
875.631	1716
875.646	1852
875.714	2472
875.753	2708
875.798	3102
875.861	3505
875.881	3581
875.964	2843
875.968	2798
876.047	2127
876.076	2629
876.130	3418
876.183	3205
876.213	3203
876.291	4124
876.296	4158
876.379	2788
876.398	2630
876.462	2355
876.506	2534
876.545	2636
876.613	2604
876.628	2654
876.711	3664
876.721	3677
876.794	3462
876.828	3474
876.877	3523
876.935	2752
876.960	2473
877.043	1934
877.043	1939
877.125	3170
877.150	3210
877.208	3151
877.258	2177
877.291	1652
877.365	1909
877.374	1917
877.456	2262
877.472	2225
877.539	2173
877.579	2502
877.622	2787
877.687	2702
877.704	2676
877.787	2530
877.794	2551
877.869	2877
877.901	2674
877.952	2299
878.008	2051
878.034	1891
878.115	1626
878.117	1627
878.199	1626
878.222	1847
878.282	2309
878.329	2882
878.364	3303
878.437	3430
878.447	3410
878.529	1899
878.544	1713
878.611	1060
878.651	1477
878.694	2056
878.758	2751
878.776	2862
878.858	2379
878.865	2366
878.941	2349
878.972	2071
879.023	1581
879.078	1832
879.105	1955
879.185	2341
879.187	2353
879.269	2300
879.292	2387
879.351	2526
879.399	2479
879.433	2361
879.506	2898
879.516	2952
879.598	1798
879.613	1728
879.680	1893
879.720	2367
879.762	2718
879.827	2305
879.844	2141
879.926	1861
879.933	1946
880.007	3046
880.040	2801
880.089	2404
880.147	2536
880.171	2613
880.253	3770
880.254	3777
880.335	4570
880.360	4910
880.417	6313
880.467	8807
880.499	10374
880.574	10904
880.580	10719
880.662	5482
880.680	4525
880.744	2043
880.787	1995
880.825	2254
880.893	2020
880.907	1953
880.989	1646
881.000	1661
881.070	1979
881.106	2406
881.152	2867
881.213	1965
881.233	1632
881.315	1734
881.319	1732
881.396	2235
881.426	2409
881.478	2183
881.532	2037
881.559	2177
881.639	1763
881.641	1742
881.722	1306
881.745	1404
881.803	2046
881.852	1945
881.885	1724
881.958	1694
881.966	1718
882.047	1638
882.064	1684
882.129	1509
882.171	1230
882.210	1165
882.277	1084
882.291	989
882.372	1408
882.383	1384
882.454	2553
882.489	2843
882.535	2319
882.596	2131
882.616	2201
882.697	2191
882.702	2195
882.778	1545
882.808	1176
882.859	1159
882.914	1536
882.940	1587
883.020	1615
883.021	1622
883.102	2128
883.127	2386
883.183	2566
883.233	2478
883.264	2142
883.339	917
883.345	863
883.426	545
883.445	611
883.507	1063
883.551	1363
883.587	1432
883.657	1289
883.668	1476
883.749	3094
883.763	3144
883.830	1453
883.869	1157
883.910	1475
883.975	1715
883.991	1724
884.072	2004
884.081	1967
884.152	2151
884.187	2422
884.233	2582
884.292	2327
884.314	2024
884.394	1042
884.398	1008
884.475	556
884.504	351
884.555	537
884.610	727
884.636	864
884.716	1638
884.716	1645
884.797	2696
884.821	2872
884.877	2348
884.927	1838
884.958	1647
885.033	1326
885.038	1314
885.118	865
885.139	889
885.199	828
885.244	657
885.279	955
885.350	1980
885.359	2144
885.439	3349
885.456	3391
885.520	1960
885.561	1356
885.600	1004
885.667	561
885.680	705
885.760	1474
885.773	1595
885.840	1775
885.878	1844
885.920	1276
885.984	485
886.000	716
886.080	1772
886.089	1898
886.160	1951
886.195	1928
886.240	2115
886.300	2291
886.320	2109
886.400	1406
886.406	1356
886.480	1202
886.511	1199
886.560	1391
886.616	1434
886.640	1414
886.720	1265
886.722	1263
886.800	931
886.827	821
886.879	1522
886.932	2201
886.959	2061
887.038	1441
887.039	1449
887.119	2040
887.143	2207
887.198	1816
887.248	1403
887.278	1600
887.354	2215
887.358	2192
887.437	1579
887.459	1434
887.517	1741
887.564	1803
887.596	1515
887.669	1102
887.676	1104
887.755	1117
887.774	1075
887.835	907
887.880	969
887.914	1370
887.985	1946
887.994	1946
888.073	2095
888.090	2077
888.153	2596
888.195	2960
888.232	2619
888.300	2004
888.311	1910
888.391	1294
888.405	1161
888.470	1084
888.510	1049
888.549	1307
888.615	1852
888.628	1899
888.708	1988
888.720	2009
888.787	2097
888.825	2133
888.866	1470
888.930	422
888.945	526
889.024	1166
889.035	1240
889.103	1646
889.140	1878
889.182	1694
889.245	1421
889.261	1367
889.340	1130
889.349	1103
889.419	1458
889.454	1628
889.498	1427
889.559	1180
889.577	1332
889.656	2000
889.664	2067
889.735	1918
889.768	1845
889.814	1533
889.873	1116
889.978	1664
890.083	1505
890.187	919
890.292	1762
890.397	1774
890.501	2503
890.606	1359
890.710	2056
890.815	1883
890.919	2227
891.024	1390
891.128	1304
891.233	1060
891.337	2087
891.442	2163
891.546	1637
891.650	1123
891.755	1148
891.859	2594
891.963	2601
892.068	1614
892.172	1420
892.276	-161
892.380	1412
892.484	1652
892.589	2419
892.693	1558
892.797	1379
892.901	644
893.005	1425
893.109	1499
893.213	3049
893.317	1315
893.421	1574
893.525	512
893.629	252
893.733	1088
893.837	1258
893.941	1671
894.045	1322
894.148	-6
894.252	895
894.356	1491
894.460	2871
894.564	1351
894.667	1471
894.771	625
894.875	1125
894.978	399
895.082	2188
895.186	1714
895.289	1372
895.393	323
895.496	1986
895.600	291
895.703	1700
895.807	1500
895.910	1308
896.014	1257
896.117	1333
896.221	526
896.324	1941
896.427	367
896.531	1147
896.634	770
896.737	1670
896.840	1641
896.944	1999
897.047	1661
897.150	1367
897.253	315
897.356	1144
897.460	440
897.563	934
897.666	1574
897.769	1555
897.872	208
897.975	970
898.078	1067
898.181	964
898.284	-70
898.387	1686
898.490	1811
898.593	1067
898.695	453
898.798	820
898.901	216
899.004	1678
899.107	-417
899.209	1870
899.312	2128
899.415	1119
899.518	687
899.620	234
899.723	870
899.826	1396
899.928	1061
900.031	836
900.133	1227
900.236	1899
900.338	117
900.441	631
900.543	853
900.646	734
900.748	800
900.851	2232
900.953	1092
901.055	950
901.158	16
901.260	706
901.362	318
901.465	627
901.567	935
901.669	1685
901.771	596
901.873	543
901.976	566
902.078	1164
902.180	470
902.282	247
902.384	758
902.486	1463
902.588	516
902.690	265
902.792	-173
902.894	1198
902.996	1466
903.098	1030
903.200	399
903.302	859
903.404	161
903.505	967
903.607	727
903.709	2074
903.811	1138
903.913	500
904.014	178
904.116	333
904.218	96
904.319	1295
904.421	926
904.523	1206
904.624	789
904.726	1586
904.827	598
904.929	1100
905.030	469
905.132	1847
905.233	1310
905.335	760
905.436	62
905.537	926
905.639	296
905.740	1877
905.841	733
905.943	1122
906.044	-310
906.145	1206
906.247	-233
906.348	790
906.449	625
906.550	1274
906.651	40
906.752	801
906.854	509
906.955	1453
907.056	71
907.157	1996
907.258	936
907.359	348
907.460	679
907.561	924
907.662	-206
907.762	487
907.863	463
907.964	1526
908.065	772
908.166	871
908.267	412
908.367	648
908.468	522
908.569	643
908.670	1118
908.770	1098
908.871	321
908.971	1471
909.072	1470
909.173	956
909.273	219
909.374	1292
909.474	462
909.575	1446
909.675	194
909.776	1229
909.876	-161
909.977	659
910.077	92
910.177	1131
910.278	658
910.378	1069
910.478	-599
910.579	1563
910.679	430
910.779	1530
910.879	1609
910.980	1745
911.080	1695
911.180	762
911.280	451
911.380	478
911.480	375
911.580	1205
911.680	147
911.780	506
911.880	841
911.980	1414
912.080	854
912.180	730
912.280	4
912.380	1359
912.480	-214
912.580	1272
912.679	249
912.779	1092
912.879	856
912.979	880
913.078	-131
913.178	762
913.278	-14
913.377	1282
913.477	-39
913.577	682
913.676	1166
913.776	2147
913.875	1054
913.975	1374
914.074	629
914.174	1430
914.273	-235
914.373	1254
914.472	363
914.572	354
914.671	653
914.770	453
914.870	359
914.969	659
915.068	565
915.167	990
915.267	642
915.366	769
915.465	871
915.564	782
915.663	850
915.763	789
915.862	229
915.961	1131
916.060	75
916.159	1071
916.258	99
916.357	1099
916.456	1248
916.555	1632
916.654	320
916.752	1194
916.851	-72
916.950	861
917.049	-470
917.148	479
917.247	-57
917.345	-132
917.444	498
917.543	961
917.642	514
917.740	1215
917.839	1472
917.937	1861
918.036	910
918.135	738
918.233	815
918.332	925
918.430	-453
918.529	475
918.627	246
918.726	1062
918.824	356
918.923	509
919.021	515
919.119	902
919.218	-149
919.316	1670
919.414	441
919.512	1581
919.611	648
919.709	1123
919.807	1145
919.905	1730
920.003	978
920.102	1782
920.200	18
920.298	1163
920.396	1967
920.494	1414
920.592	366
920.690	1573
920.788	770
920.886	2300
920.984	916
921.082	1750
921.180	2740
921.277	1649
921.375	819
921.473	3098
921.571	2914
921.669	3689
921.766	1189
921.864	1935
921.962	2145
922.060	2371
922.157	1882
922.255	3432
922.352	2861
922.450	2588
922.548	2256
922.645	4121
922.743	3370
922.840	7589
922.938	8477
923.035	8215
923.133	6898
923.230	8419
923.327	9129
923.425	9978
923.522	9234
923.619	8681
923.717	6986
923.814	7175
923.911	7008
924.008	7170
924.106	6895
924.203	7465
924.300	7832
924.397	7416
924.494	7093
924.591	6685
924.688	6485
924.786	7247
924.883	7187
924.979	7910
925.077	6787
925.173	6408
925.270	5814
925.367	6981
925.464	7313
925.561	8139
925.658	8018
925.755	6527
925.852	7257
925.948	7012
926.045	6672
926.142	7331
926.239	6447
926.335	5566
926.432	6751
926.529	7720
926.625	6931
926.722	6488
926.818	5268
926.915	7507
927.011	6263
927.108	6350
927.204	6125
927.301	5672
927.397	6173
927.494	7843
927.590	5022
927.687	4924
927.783	6702
927.879	7249
927.976	5539
928.072	5021
928.168	6132
928.264	6201
928.361	5284
928.457	7319
928.553	5485
928.649	6018
928.745	5570
928.841	5184
928.937	4683
929.033	5703
929.129	5344
929.225	6773
929.321	5419
929.417	5550
929.513	5594
929.609	4941
929.705	4411
929.801	6526
929.897	4264
929.993	5172
930.089	4890
930.184	4784
930.280	5184
930.376	7701
930.471	4528
930.567	5124
930.663	4983
930.758	5281
930.854	4574
930.950	5724
931.045	4158
931.141	4866
931.236	5639
931.332	5203
931.427	3099
931.523	6511
931.618	5426
931.714	3401
931.809	3626
931.905	5873
932.000	3130
932.095	3138
932.191	5099
932.286	6475
932.381	3937
932.476	3438
932.572	4499
932.667	4183
932.762	3343
932.857	4796
932.952	4595
933.047	4838
933.142	2998
933.237	4543
933.332	4824
933.427	5436
933.522	4036
933.617	3297
933.712	2922
933.807	4759
933.902	4880
933.997	5090
934.092	2806
934.187	3669
934.282	3989
934.376	4458
934.471	4904
934.566	3976
934.661	3631
934.755	5213
934.850	4380
934.945	3756
935.039	2847
935.134	3672
935.228	3749
935.323	6063
935.417	3325
935.512	3399
935.606	2382
935.701	3840
935.795	4573
935.890	4192
935.984	3392
936.079	2887
936.173	4270
936.267	4552
936.362	1866
936.456	3005
936.550	5638
936.644	4884
936.738	1708
936.833	3456
936.927	2359
937.021	3680
937.115	3415
937.209	4043
937.303	3296
937.397	3455
937.491	2822
937.585	4161
937.679	3776
937.773	3546
937.867	2677
937.961	3403
938.055	3667
938.149	4397
938.243	2187
938.337	2211
938.430	2348
938.524	3974
938.618	3537
938.712	2693
938.805	2686
938.899	3207
938.993	4344
939.086	3165
939.180	1236
939.274	3095
939.367	3123
939.461	3807
939.554	2048
939.648	1702
939.741	2020
939.835	2871
939.928	4349
940.022	4050
940.115	2020
940.208	3745
940.302	3487
940.395	4751
940.488	2074
940.582	3718
940.675	1897
940.768	2936
940.861	2789
940.954	4111
941.048	1318
941.141	2386
941.234	1798
941.327	2744
941.420	2689
941.513	3690
941.606	2366
941.699	2722
941.792	3090
941.885	2976
941.978	2430
942.071	3019
942.164	2332
942.257	2005
942.349	2542
942.442	3500
942.535	1292
942.628	2090
942.721	1867
942.813	2531
942.906	3048
942.999	2083
943.091	1317
943.184	2734
943.277	2522
943.369	2755
943.462	542
943.554	2459
943.647	1123
943.739	3822
943.832	3741
943.924	743
944.017	1307
944.109	1470
944.201	1379
944.294	2454
944.386	2414
944.478	2285
944.571	1470
944.663	1935
944.755	1162
944.847	2624
944.940	2487
945.032	887
945.124	387
945.216	3533
945.308	1808
945.400	2305
945.492	1649
945.584	2864
945.676	1941
945.768	2519
945.860	2675
945.952	3985
946.044	1852
946.136	1918
946.228	1029
946.320	2266
946.412	1933
946.503	2951
946.595	3289
946.687	1812
946.779	660
946.870	1721
946.962	881
947.054	2426
947.145	2362
947.237	2023
947.329	2074
947.420	1739
947.512	1509
947.603	695
947.695	1417
947.786	1409
947.878	884
947.969	2679
948.061	1794
948.152	1488
948.243	875
948.335	1377
948.426	-130
948.517	1443
948.609	1820
948.700	2148
948.791	1670
948.882	1479
948.973	88
949.065	2353
949.156	748
949.247	475
949.338	1777
949.429	826
949.520	1049
949.611	1218
949.702	2299
949.793	1185
949.884	996
949.975	1337
950.066	-106
950.157	663
950.247	513
950.338	1296
950.429	987
950.520	1081
950.611	158
950.701	1141
950.792	2166
950.883	2144
950.973	1489
951.064	2340
951.155	1074
951.245	2934
951.336	1903
951.427	2531
951.517	2045
951.608	2054
951.698	1026
951.788	1451
951.879	933
951.969	1243
952.060	1134
952.150	1350
952.240	2213
952.331	1575
952.421	2761
952.511	1465
952.602	367
952.692	881
952.782	672
952.872	405
952.962	1865
953.052	913
953.143	215
953.233	2018
953.323	1026
953.413	1560
953.503	1098
953.593	1610
953.683	486
953.773	1023
953.863	4
953.953	426
954.042	1392
954.132	1512
954.222	763
954.312	1008
954.402	822
954.492	1171
954.581	1223
954.671	1569
954.761	562
954.850	2675
954.940	-307
955.030	674
955.119	817
955.209	1250
955.298	472
955.388	1516
955.477	2251
955.567	1161
955.656	1015
955.746	1412
955.835	229
955.925	315
956.014	814
956.103	1071
956.193	2156
956.282	2015
956.371	717
956.461	1281
956.550	638
956.639	1676
956.728	-210
956.817	1101
956.906	1209
956.995	2071
957.085	645
957.174	1082
957.263	699
957.352	1296
957.441	858
957.530	1310
957.619	1188
957.708	878
957.796	989
957.885	1773
957.974	731
958.063	1353
958.152	66
958.241	816
958.329	57
958.418	640
958.507	720
958.596	2414
958.684	48
958.773	2464
958.861	272
958.950	828
959.039	311
959.127	764
959.216	719
959.304	820
959.393	407
959.481	1164
959.570	499
959.658	219
959.746	-454
959.835	808
959.923	-138
960.011	287
960.100	1066
960.188	1654
960.276	859
960.365	471
960.453	-539
960.541	638
960.629	423
960.717	399
960.805	-147
960.893	1127
960.981	-48
961.069	1521
961.158	882
961.245	2488
961.333	780
961.421	1364
961.509	748
961.597	909
961.685	717
961.773	44
961.861	586
961.949	1510
962.036	57
962.124	1027
962.212	-345
962.299	250
962.387	-468
962.475	894
962.562	-709
962.650	1929
962.738	-254
962.825	235
962.913	-152
963.000	1139
963.088	716
963.175	1601
963.263	-92
963.350	937
963.438	565
963.525	344
963.612	870
963.700	485
963.787	804
963.874	1088
963.962	22
964.049	664
964.136	114
964.223	128
964.310	472
964.398	1082
964.485	152
964.572	1072
964.659	363
964.746	363
964.833	312
964.920	1120
965.007	126
965.094	-144
965.181	-354
965.268	1276
965.355	831
965.441	53
965.528	-490
965.615	1615
965.702	-223
965.789	473
965.875	376
965.962	731
966.049	139
966.136	793
966.222	-307
966.309	967
966.395	735
966.482	1107
966.569	736
966.655	338
966.742	79
966.828	1348
966.915	640
967.001	505
967.087	-413
967.174	657
967.260	716
967.347	600
967.433	19
967.519	1231
967.605	377
967.692	412
967.778	-266
967.864	773
967.950	883
968.036	504
968.123	445
968.209	765
968.295	-647
968.381	1667
968.467	30
968.553	-784
968.639	1547
968.725	649
968.811	1049
968.897	1173
968.983	-2
969.069	52
969.154	874
969.240	1604
969.326	-841
969.412	676
969.497	-168
969.583	-282
969.669	238
969.755	1909
969.840	726
969.926	1683
970.012	1517
970.097	3215
970.183	1544
970.268	701
970.354	556
970.439	396
970.525	693
970.610	312
970.696	1752
970.781	425
970.866	-496
970.952	640
971.037	-500
971.122	1309
971.208	-68
971.293	793
971.378	-633
971.463	176
971.549	405
971.634	-20
971.719	175
971.804	506
971.889	267
971.974	328
972.059	414
972.144	629
972.229	28
972.314	565
972.399	159
972.484	-365
972.569	533
972.654	-875
972.739	245
972.824	399
972.908	-72
972.993	730
973.078	283
973.163	376
973.247	387
973.332	-1029
973.417	1021
973.501	688
973.586	0
973.671	602
973.755	-598
973.840	598
973.924	955
974.009	1713
974.093	557
974.178	2066
974.262	607
974.346	332
974.431	291
974.515	355
974.600	381
974.684	595
974.768	-134
974.852	1034
974.937	-1673
975.021	817
975.105	-154
975.189	449
975.273	728
975.358	-164
975.442	-774
975.526	862
975.610	-731
975.694	283
975.778	1044
975.862	-432
975.946	-2118
976.030	1588
976.114	-347
976.198	944
976.281	-644
976.365	349
976.449	106
976.533	271
976.617	-756
976.700	496
976.784	397
976.868	-66
976.951	-723
977.035	751
977.119	282
977.202	517
977.286	-88
977.369	1499
977.453	1776
977.536	1812
977.620	59
977.703	1006
977.787	-518
977.870	1283
977.953	974
978.037	-299
978.120	759
978.203	197
978.287	571
978.370	-16
978.453	-286
978.536	1695
978.620	425
978.703	717
978.786	8
978.869	29
978.952	-1171
979.035	1365
979.118	1322
979.201	-118
979.284	244
979.367	201
979.450	441
979.533	359
979.616	-335
979.699	403
979.782	-547
979.865	796
979.948	-261
980.030	938
980.113	169
980.196	-270
980.279	462
980.361	291
980.444	-72
980.526	578
980.609	580
980.692	2327
980.774	1575
980.857	388
980.939	904
981.022	66
981.104	392
981.187	730
981.269	634
981.352	272
981.434	-855
981.516	541
981.599	339
981.681	342
981.763	3
981.846	610
981.928	768
982.010	822
982.092	65
982.174	255
982.256	495
982.339	321
982.421	166
982.503	1144
982.585	-216
982.667	203
982.749	60
982.831	1106
982.913	-835
982.995	1409
983.077	157
983.158	2139
983.240	-940
983.322	1604
983.404	1528
983.486	1176
983.568	1183
983.649	1534
983.731	831
983.813	776
983.894	246
983.976	1180
984.058	574
984.139	1747
984.221	-486
984.302	1900
984.384	-60
984.465	1172
984.547	83
984.628	31
984.710	2455
984.791	548
984.872	724
984.954	913
985.035	680
985.116	352
985.198	442
985.279	1277
985.360	840
985.441	99
985.522	794
985.604	574
985.685	-769
985.766	1928
985.847	1521
985.928	318
986.009	905
986.090	749
986.171	988
986.252	893
986.333	700
986.414	822
986.495	470
986.576	1910
986.656	622
986.737	2099
986.818	1107
986.899	1173
986.980	128
987.060	1426
987.141	605
987.222	1684
987.302	1476
987.383	1867
987.464	1171
987.544	2183
987.625	628
987.705	1138
987.786	2266
987.866	2095
987.947	1315
988.027	2785
988.108	906
988.188	2061
988.268	726
988.349	1245
988.429	885
988.509	1440
988.589	646
988.670	-720
988.750	1908
988.830	848
988.910	2155
988.990	1323
989.070	1009
989.151	1319
989.231	300
989.311	1716
989.391	656
989.471	1124
989.551	908
989.631	686
989.711	2016
989.791	-216
989.870	404
989.950	1773
990.030	718
990.110	1618
990.190	851
990.269	1341
990.349	334
990.429	1642
990.509	1659
990.588	9
990.668	606
990.747	794
990.827	378
990.907	1113
990.986	962
991.066	1208
991.145	-336
991.225	2369
991.304	297
991.383	395
991.463	587
991.542	1113
991.622	-9
991.701	228
991.780	-769
991.859	699
991.939	-361
992.018	730
992.097	757
992.176	134
992.256	121
992.335	198
992.414	1019
992.493	230
992.572	116
992.651	1140
992.730	-85
992.809	639
992.888	-68
992.967	392
993.046	698
993.125	-552
993.203	-215
993.282	951
993.361	1123
993.440	1646
993.519	-881
993.597	1133
993.676	-212
993.755	1306
993.834	423
993.912	-106
993.991	608
994.069	-316
994.148	-348
994.226	956
994.305	221
994.384	-460
994.462	826
994.540	-520
994.619	-703
994.697	314
994.776	-406
994.854	565
994.932	-586
995.011	64
995.089	-972
995.167	-68
995.245	483
995.324	241
995.402	773
995.480	-328
995.558	-149
995.636	-727
995.714	-1017
995.792	1840
995.870	-349
995.948	21
996.026	-318
996.104	-645
996.182	-357
996.260	-370
996.338	-204
996.416	-299
996.494	-717
996.572	-355
996.649	-789
996.727	-707
996.805	60
996.883	581
996.960	-122
997.038	520
997.116	254
997.193	-442
997.271	-469
997.348	-423
997.426	-584
997.504	-542
997.581	-491
997.658	393
997.736	-1195
997.813	-547
997.891	-491
997.968	-777
998.046	-216
998.123	-21
998.200	-34
998.277	-400
998.355	-227
998.432	-413
998.509	-570
998.586	487
998.663	-798
998.741	-877
998.818	-166
998.895	-9
998.972	-478
999.049	452
999.126	-807
999.203	20
999.280	-1639
999.357	-806
999.434	-1078
999.511	171
999.587	-527
999.664	-765
999.741	-836
999.818	343
999.895	-830
999.971	-805
1000.048	-1667
1000.125	682
1000.202	-961
1000.278	573
1000.355	-880
1000.431	168
1000.508	-1654
1000.584	-832
1000.661	-732
1000.738	-711
1000.814	-601
1000.890	-83
1000.967	-592
1001.043	-394
1001.120	-2005
1001.196	-413
1001.272	-1716
1001.349	236
1001.425	-616
1001.501	-933
1001.577	-760
1001.654	12
1001.730	-1459
1001.806	-761
1001.882	-2473
1001.958	-651
1002.034	77
1002.110	-1096
1002.186	-2044
1002.262	-1363
1002.338	-1861
1002.414	-918
1002.490	-806
1002.566	-1006
1002.642	-1128
1002.718	-400
1002.794	-1781
1002.870	-518
1002.945	-1133
1003.021	-736
1003.097	-800
1003.173	-754
1003.248	-1805
1003.324	-505
1003.400	-1039
1003.475	-916
1003.551	-1082
1003.626	-857
1003.702	-1719
1003.777	-904
1003.853	-1600
1003.928	-1035
1004.004	-1620
1004.079	-989
1004.155	-1500
1004.230	-2128
1004.305	-723
1004.381	-1085
1004.456	-1874
1004.531	-975
1004.607	-644
1004.682	-722
1004.757	-961
1004.832	-868
1004.907	-1758
1004.982	-1260
1005.057	-880
1005.133	-1430
1005.208	-862
1005.283	-837
1005.358	-1362
1005.433	-1301
1005.508	-1084
1005.583	-1997
1005.657	-1023
1005.732	-108
1005.807	-1570
1005.882	-1035
1005.957	-1859
1006.032	-390
1006.106	-1049
1006.181	-367
1006.256	-1452
1006.331	-1275
1006.405	-2185
1006.480	-701
1006.554	-1711
1006.629	-404
1006.704	-1295
1006.778	-1113
1006.853	-699
1006.927	-744
1007.002	-2921
1007.076	-982
1007.150	-1738
1007.225	-1246
1007.299	-1579
1007.373	-1417
1007.448	-1850
1007.522	-1117
1007.596	-1118
1007.671	-1109
1007.745	-1313
1007.819	-1951
1007.893	-997
1007.967	-1127
1008.041	-2365
1008.115	-82
1008.190	-1845
1008.264	-850
1008.338	-2197
1008.412	-1525
1008.486	-1558
1008.560	-626
1008.633	-1931
1008.707	-1646
1008.781	-1711
1008.855	-748
1008.929	-1176
1009.003	-1560
1009.076	-1861
1009.150	-1491
1009.224	-2274
1009.298	-1994
1009.371	-2523
1009.445	-422
1009.519	-1451
1009.592	-2205
1009.666	-1625
1009.739	-1224
1009.813	-1923
1009.886	-334
1009.960	-2986
1010.033	249
1010.107	-1537
1010.180	-1984
1010.253	-2131
1010.327	-1335
1010.400	-1978
1010.473	-1372
1010.547	-1227
1010.620	-1476
1010.693	-1532
1010.766	-1756
1010.840	-2067
1010.913	-1640
1010.986	-1527
1011.059	-1477
1011.132	-2020
1011.205	-1229
1011.278	-1942
1011.351	-1396
1011.424	-1511
1011.497	-2086
1011.570	-1929
1011.643	-1765
1011.716	-2406
1011.789	-1319
1011.862	-1831
1011.934	-387
1012.007	-2927
1012.080	-358
1012.153	-1733
1012.225	-725
1012.298	-1997
1012.371	-2204
1012.443	-1588
1012.516	-1975
1012.588	-1494
1012.661	-1085
1012.733	-2579
1012.806	-1075
1012.879	-2528
1012.951	-837
1013.023	-1475
1013.096	-1185
1013.168	-2512
1013.241	-287
1013.313	-1995
1013.385	-2571
1013.458	-973
1013.530	-908
1013.602	-3123
1013.674	-1062
1013.746	-2559
1013.819	-2047
1013.891	-1714
1013.963	-1536
1014.035	-1788
1014.107	-1721
1014.179	-3171
1014.251	-1606
1014.323	-1503
1014.395	-1256
1014.467	-1974
1014.539	-1977
1014.611	-2789
1014.683	-2062
1014.754	-2048
1014.826	-2221
1014.898	-2121
1014.970	-1648
1015.042	-1147
1015.113	-2278
1015.185	-2133
1015.257	-2556
1015.328	-1292
1015.400	-1543
1015.471	-2191
1015.543	-2428
1015.615	-1750
1015.686	-1798
1015.757	-2134
1015.829	-1283
1015.901	-2221
1015.972	-1900
1016.043	-2321
1016.115	-1651
1016.186	-1796
1016.257	-2083
1016.328	-1768
1016.400	-797
1016.471	-2474
1016.542	-1631
1016.613	-2473
1016.685	-1576
1016.756	-1866
1016.827	-2166
1016.898	-3655
1016.969	-1111
1017.040	-2608
1017.111	-1795
1017.182	-2456
1017.253	-1724
1017.324	-2583
1017.395	-1318
1017.466	-2240
1017.537	-1491
1017.608	-1971
1017.678	-1449
1017.749	-2377
1017.820	-1469
1017.891	-1962
1017.961	-1612
1018.032	-2454
1018.103	-1904
1018.173	-2679
1018.244	-1441
1018.315	-2378
1018.385	-1484
1018.456	-1798
1018.526	-2324
1018.597	-1857
1018.667	-2097
1018.738	-1770
1018.808	-2147
1018.878	-2045
1018.949	-2203
1019.019	-2017
1019.089	-1209
1019.160	-2872
1019.230	-2668
1019.300	-1899
1019.371	-1975
1019.441	-2058
1019.511	-1666
1019.581	-2556
1019.651	-1621
1019.721	-1862
1019.791	-1312
1019.861	-2257
1019.931	-1790
1020.001	-2736
1020.071	-1457
1020.141	-2108
1020.211	-2446
1020.281	-3291
1020.351	-2447
1020.421	-2819
1020.491	-1334
1020.560	-2927
1020.630	-2251
1020.700	-2254
1020.770	-1878
1020.839	-1553
1020.909	-1318
1020.979	-2419
1021.048	-2162
1021.118	-1434
1021.187	-1918
1021.257	-2783
1021.326	-1887
1021.396	-2705
1021.465	-1575
1021.535	-2593
1021.604	-1881
1021.674	-2819
1021.743	-1983
1021.812	-2283
1021.882	-1048
1021.951	-2426
1022.020	-1280
1022.089	-1625
1022.159	-1657
1022.228	-2043
1022.297	-2096
1022.366	-2575
1022.435	-2473
1022.504	-2532
1022.573	-2382
1022.642	-2315
1022.711	-2288
1022.781	-2504
1022.849	-1914
1022.918	-2494
1022.987	-2879
1023.056	-1917
1023.125	-1465
1023.194	-1505
1023.263	-1505
1023.331	-1985
1023.400	-2320
1023.469	-2520
1023.538	-1092
1023.606	-2394
1023.675	-2318
1023.744	-2554
1023.812	-2590
1023.881	-2173
1023.949	-1935
1024.018	-2811
1024.086	-2268
1024.155	-1983
1024.223	-2483
1024.292	-2793
1024.360	-960
1024.429	-2389
1024.497	-2442
1024.565	-2240
1024.634	-1848
1024.702	-1911
1024.770	-1033
1024.838	-2595
1024.907	-1546
1024.975	-2668
1025.043	-1026
1025.111	-2815
1025.179	-1137
1025.247	-1519
1025.315	-1889
1025.383	-2264
1025.451	-1870
1025.519	-2100
1025.587	-2286
1025.655	-2977
1025.723	-1591
1025.791	-2478
1025.859	-1696
1025.927	-2281
1025.995	-1834
1026.062	-2377
1026.130	-2100
1026.198	-2312
1026.266	-2474
1026.333	-2208
1026.401	-2202
1026.469	-2208
1026.536	-2926
1026.604	-2164
1026.671	-2476
1026.739	-1588
1026.806	-2725
1026.874	-2204
1026.941	-1730
1027.009	-2846
1027.076	-2013
1027.144	-1844
1027.211	-2126
1027.278	-2123
1027.345	-1980
1027.413	-2223
1027.480	-1779
1027.547	-2940
1027.614	-1838
1027.682	-2113
1027.749	-1872
1027.816	-2049
1027.883	-1685
1027.950	-1713
1028.017	-2133
1028.084	-1913
1028.151	-2101
1028.218	-2855
1028.285	-1768
1028.352	-2769
1028.419	-2723
1028.486	-2376
1028.553	-1972
1028.619	-3009
1028.686	-2063
1028.753	-1159
1028.820	-2373
1028.886	-2272
1028.953	-1787
1029.020	-2339
1029.086	-2006
1029.153	-1547
1029.220	-2525
1029.286	-1630
1029.353	-1825
1029.419	-2010
1029.486	-1473
1029.552	-1613
1029.619	-1867
1029.685	-2679
1029.751	-1742
1029.818	-1855
1029.884	-2011
1029.951	-1041
1030.017	-2190
1030.083	-3037
1030.149	-1858
1030.216	-1974
1030.282	-2639
1030.348	-2178
1030.414	-2475
1030.480	-2651
1030.546	-1437
1030.612	-1385
1030.678	-1813
1030.744	-2477
1030.810	-2063
1030.876	-3246
1030.942	-1720
1031.008	-2321
1031.074	-2168
1031.140	-2005
1031.206	-970
1031.272	-1975
1031.337	-1741
1031.403	-1492
1031.469	-1850
1031.534	-1947
1031.600	-1630
1031.666	-2659
1031.731	-2555
1031.797	-2079
1031.863	-1434
1031.928	-2389
1031.994	-1824
1032.059	-1993
1032.125	-2299
1032.190	-1881
1032.256	-1847
1032.321	-2894
1032.386	-1758
1032.452	-1499
1032.517	-1937
1032.582	-2108
1032.647	-1394
1032.713	-1748
1032.778	-1681
1032.843	-1369
1032.908	-2216
1032.974	-1527
1033.039	-2117
1033.104	-1270
1033.169	-1693
1033.234	-1968
1033.299	-1288
1033.364	-2417
1033.429	-1362
1033.494	-2502
1033.559	-2131
1033.624	-2218
1033.688	-1623
1033.753	-1542
1033.818	-1404
1033.883	-1989
1033.948	-802
1034.013	-1325
1034.077	-1004
1034.142	-1170
1034.207	-406
1034.271	-118
1034.336	1489
1034.400	-623
1034.465	-1189
1034.530	-1621
1034.594	-1627
1034.658	-2282
1034.723	-1593
1034.787	-2123
1034.852	-1521
1034.916	-2281
1034.981	-2183
1035.045	-1783
1035.109	-1574
1035.173	-1828
1035.238	-2359
1035.302	-1957
1035.366	-1831
1035.430	-2250
1035.495	-1138
1035.559	-1851
1035.623	-1946
1035.687	-2451
1035.751	-2014
1035.815	-2010
1035.879	-1712
1035.943	-2585
1036.007	-1819
1036.071	-1988
1036.135	-2261
1036.198	-2243
1036.262	-2100
1036.326	-1817
1036.390	-1225
1036.454	-2045
1036.517	-2276
1036.581	-2818
1036.645	-1541
1036.709	-2440
1036.772	-1928
1036.836	-1688
1036.900	-1714
1036.963	-2561
1037.026	-1185
1037.090	-2494
1037.154	-2316
1037.217	-1855
1037.280	-1862
1037.344	-1646
1037.407	-1532
1037.471	-1961
1037.534	-913
1037.597	-1707
1037.661	-2393
1037.724	-2205
1037.787	-2109
1037.850	-2610
1037.913	-2122
1037.977	-1462
1038.040	-1823
1038.103	-2543
1038.166	-2491
1038.229	-2440
1038.292	-1673
1038.355	-2694
1038.418	-2040
1038.481	-1279
1038.544	-2318
1038.607	-2383
1038.670	-2565
1038.732	-2315
1038.795	-2476
1038.858	-2918
1038.921	-1496
1038.984	-1810
1039.046	-1553
1039.109	-2189
1039.172	-1277
1039.234	-2234
1039.297	-2092
1039.360	-1058
1039.422	-2450
1039.485	-2346
1039.547	-1746
1039.610	-1554
1039.672	-1203
1039.734	-2432
1039.797	-1597
1039.859	-2329
1039.922	-1891
1039.984	-1434
1040.046	-2073
1040.109	-2518
1040.171	-1742
1040.233	-2160
1040.295	-1798
1040.358	-2923
1040.420	-1560
1040.482	-2486
1040.544	-1586
1040.606	-2488
1040.668	-2152
1040.730	-2536
1040.792	-1783
1040.854	-1743
1040.916	-2087
1040.978	-1565
1041.040	-732
1041.102	-2713
1041.164	-1922
1041.225	-2861
1041.287	-1958
1041.349	-2736
1041.411	-1497
1041.472	-1958
1041.534	-1843
1041.596	-3132
1041.657	-1977
1041.719	-2860
1041.781	-1607
1041.842	-2603
1041.904	-1936
1041.965	-2453
1042.027	-1713
1042.088	-2535
1042.150	-1918
1042.211	-2760
1042.272	-1974
1042.334	-2109
1042.395	-2128
1042.456	-1989
1042.518	-1682
1042.579	-2090
1042.640	-1870
1042.701	-3071
1042.763	-1747
1042.824	-2989
1042.885	-2244
1042.946	-2624
1043.007	-1220
1043.068	-2764
1043.129	-1450
1043.190	-2549
1043.251	-1467
1043.312	-2507
1043.373	-1887
1043.434	-2430
1043.495	-1762
1043.556	-1710
1043.616	-1114
1043.677	-3130
1043.738	-1965
1043.799	-2558
1043.859	-1870
1043.920	-2325
1043.981	-1972
1044.041	-2420
1044.102	-1794
1044.162	-2418
1044.223	-2264
1044.284	-1662
1044.344	-2010
1044.405	-1799
1044.465	-1717
1044.525	-2646
1044.586	-1534
1044.646	-2550
1044.707	-1893
1044.767	-1832
1044.827	-2718
1044.887	-2240
1044.948	-1757
1045.008	-2239
1045.068	-1816
1045.128	-1289
1045.188	-1767
1045.249	-2311
1045.309	-2383
1045.369	-2065
1045.429	-1360
1045.489	-2309
1045.549	-1297
1045.609	-2281
1045.669	-1885
1045.729	-2274
1045.789	-1920
1045.848	-2793
1045.908	-1570
1045.968	-1812
1046.028	-2026
1046.088	-1255
1046.147	-555
1046.207	-1860
1046.267	-2066
1046.326	-2792
1046.386	-1527
1046.446	-1209
1046.505	-1311
1046.565	-1124
1046.624	-1441
1046.684	-1509
1046.743	-166
1046.803	-1299
1046.862	-149
1046.922	0
