'Start Wavelength	183.907
'End Wavelength	1046.922
'Gate Delay	5.000
'Gate Width (ms)	1.050
'Laser Output Level	0.000
'X Position	0.000
'Y Position	0.000
'Z Position	0.000
'Grid Point Number	1.000
'Shot Number	100.000
183.907	761.000
183.977	144.000
184.047	-5
184.116	89
184.186	559
184.256	682
184.325	-57
184.395	-908
184.465	266
184.534	-858
184.604	224
184.674	-72
184.743	-11
184.813	154
184.883	413
184.952	319
185.022	741
185.092	-252
185.161	-52
185.231	449
185.301	298
185.370	-84
185.440	-8
185.509	627
185.579	-219
185.649	464
185.718	-254
185.788	525
185.857	-249
185.927	-365
185.996	-99
186.066	-469
186.136	-735
186.205	34
186.275	-238
186.344	-430
186.414	114
186.483	-460
186.553	1050
186.622	1343
186.692	546
186.761	-372
186.831	1257
186.900	-654
186.970	6
187.039	291
187.109	786
187.178	602
187.248	256
187.317	652
187.387	58
187.456	137
187.526	555
187.595	86
187.664	535
187.734	459
187.803	586
187.873	115
187.942	127
188.012	698
188.081	679
188.150	1137
188.220	379
188.289	916
188.358	33
188.428	544
188.497	-629
188.567	1090
188.636	-297
188.705	56
188.775	548
188.844	-642
188.913	807
188.983	173
189.052	-228
189.121	-60
189.191	327
189.260	-312
189.329	311
189.399	-198
189.468	559
189.537	-64
189.606	73
189.676	-598
189.745	264
189.814	13
189.883	-869
189.953	-259
190.022	672
190.091	389
190.161	-398
190.230	829
190.299	-167
190.368	-21
190.437	280
190.507	-645
190.576	153
190.645	63
190.714	-69
190.783	-26
190.853	894
190.922	405
190.991	-236
191.060	-261
191.129	-426
191.198	985
191.268	511
191.337	-258
191.406	712
191.475	-413
191.544	-76
191.613	-98
191.682	-76
191.752	97
191.821	-309
191.890	-219
191.959	542
192.028	260
192.097	123
192.166	141
192.235	-243
192.304	395
192.373	436
192.442	-336
192.511	407
192.580	-315
192.650	-104
192.719	-89
192.788	333
192.857	360
192.926	-186
192.995	-160
193.064	27
193.133	436
193.202	-432
193.271	1059
193.340	-318
193.409	349
193.478	122
193.547	-589
193.615	-9
193.684	-247
193.753	1056
193.822	-30
193.891	74
193.960	269
194.029	-497
194.098	-271
194.167	-593
194.236	130
194.305	-625
194.374	152
194.443	-502
194.512	317
194.580	-460
194.649	538
194.718	949
194.787	-38
194.856	-347
194.925	427
194.994	-446
195.062	-373
195.131	477
195.200	-275
195.269	-250
195.338	445
195.407	462
195.475	-897
195.544	240
195.613	-35
195.682	-351
195.751	-99
195.819	-143
195.888	-243
195.957	-349
196.026	-730
196.094	565
196.163	102
196.232	-115
196.301	110
196.369	-358
196.438	-44
196.507	1
196.576	-1090
196.644	-429
196.713	99
196.782	308
196.850	4
196.919	24
196.988	-209
197.056	-608
197.125	35
197.194	-79
197.262	-229
197.331	-433
197.400	-876
197.468	-103
197.537	-541
197.606	-313
197.674	209
197.743	198
197.812	-723
197.880	319
197.949	-193
198.017	-190
198.086	-82
198.155	-210
198.223	168
198.292	343
198.360	-15
198.429	-752
198.497	-497
198.566	-215
198.635	149
198.703	353
198.772	21
198.840	351
198.909	-93
198.977	-309
199.046	-506
199.114	24
199.183	-252
199.251	100
199.320	-670
199.388	-545
199.457	-427
199.525	-718
199.594	-341
199.662	-22
199.731	412
199.799	624
199.867	-51
199.936	-277
200.004	358
200.073	1109
200.141	283
200.210	-279
200.278	-42
200.346	545
200.415	206
200.483	-71
200.552	195
200.620	-228
200.688	513
200.757	-49
200.825	-286
200.893	-810
200.962	-125
201.030	-547
201.098	312
201.167	-174
201.235	64
201.303	24
201.372	375
201.440	-88
201.508	-36
201.577	7
201.645	452
201.713	318
201.781	-757
201.850	11
201.918	-299
201.986	-52
202.055	168
202.123	-103
202.191	-528
202.259	97
202.327	-648
202.396	-752
202.464	356
202.532	296
202.600	-208
202.669	34
202.737	-431
202.805	-245
202.873	-577
202.941	-245
203.009	-134
203.078	-361
203.146	412
203.214	-417
203.282	-832
203.350	-14
203.418	-883
203.487	164
203.555	129
203.623	-191
203.691	-188
203.759	-600
203.827	-717
203.895	-809
203.963	-1173
204.031	-693
204.099	-138
204.168	-425
204.236	-291
204.304	-598
204.372	169
204.440	-77
204.508	-49
204.576	-613
204.644	-87
204.712	-666
204.780	-239
204.848	-239
204.916	-234
204.984	-869
205.052	365
205.120	-193
205.188	-144
205.256	-550
205.324	-184
205.392	-966
205.460	57
205.528	-307
205.596	-111
205.664	-103
205.732	28
205.799	-985
205.867	-286
205.935	-947
206.003	901
206.071	-265
206.139	-64
206.207	-418
206.275	-838
206.343	-863
206.411	-408
206.478	-17
206.546	108
206.614	34
206.682	-87
206.750	-156
206.818	-137
206.885	-63
206.953	-481
207.021	912
207.089	441
207.157	-69
207.225	-409
207.292	-285
207.360	-555
207.428	-590
207.496	-876
207.563	150
207.631	-1087
207.699	-786
207.767	-559
207.834	124
207.902	-20
207.970	-516
208.038	87
208.105	-305
208.173	28
208.241	-863
208.309	225
208.376	-569
208.444	23
208.512	-212
208.579	-694
208.647	515
208.715	719
208.782	-473
208.850	-336
208.918	-592
208.985	-169
209.053	-368
209.120	-115
209.188	-533
209.256	-981
209.323	-502
209.391	-276
209.459	1098
209.526	-129
209.594	-868
209.661	-68
209.729	-1183
209.796	22
209.864	108
209.932	-1532
209.999	1282
210.067	-343
210.134	-603
210.202	-677
210.269	778
210.337	887
210.404	242
210.472	-420
210.539	-39
210.607	189
210.674	-409
210.742	-903
210.809	-72
210.877	-157
210.944	-174
211.012	-933
211.079	1389
211.146	-12
211.214	437
211.281	72
211.349	-13
211.416	159
211.484	537
211.551	-675
211.618	140
211.686	147
211.753	-410
211.821	298
211.888	96
211.955	290
212.023	-147
212.090	-747
212.157	242
212.225	-108
212.292	72
212.359	-594
212.427	1190
212.494	-141
212.561	-387
212.629	-568
212.696	-161
212.763	-269
212.831	-586
212.898	1004
212.965	-506
213.032	246
213.100	-98
213.167	-1202
213.234	572
213.301	-644
213.369	318
213.436	-642
213.503	-560
213.570	41
213.638	-359
213.705	-549
213.772	-656
213.839	-458
213.906	269
213.973	-359
214.041	-678
214.108	112
214.175	-507
214.242	-144
214.309	-201
214.376	-77
214.444	-460
214.511	-1460
214.578	-623
214.645	998
214.712	-123
214.779	104
214.846	-1229
214.913	446
214.980	-183
215.048	1235
215.115	1624
215.182	473
215.249	828
215.316	-551
215.383	253
215.450	-159
215.517	69
215.584	55
215.651	-457
215.718	188
215.785	-34
215.852	-804
215.919	345
215.986	-295
216.053	-115
216.120	-456
216.187	-750
216.254	-147
216.321	-522
216.388	-373
216.455	-796
216.522	196
216.589	-873
216.656	-984
216.722	118
216.789	-661
216.856	-1509
216.923	-165
216.990	-281
217.057	10
217.124	-15
217.191	-871
217.258	-278
217.324	323
217.391	478
217.458	-1175
217.525	-780
217.592	131
217.659	-1724
217.725	-72
217.792	-545
217.859	473
217.926	-762
217.993	-706
218.059	-727
218.126	-214
218.193	71
218.260	-154
218.327	-468
218.393	-607
218.460	-519
218.527	-827
218.594	39
218.660	-816
218.727	293
218.794	-1376
218.860	728
218.927	-721
218.994	-276
219.061	97
219.127	50
219.194	-354
219.261	363
219.327	-723
219.394	91
219.461	-777
219.527	159
219.594	-534
219.661	264
219.727	-805
219.794	443
219.860	-216
219.927	1590
219.994	1229
220.060	1565
220.127	2531
220.193	1381
220.260	247
220.326	983
220.393	-182
220.460	-51
220.526	-195
220.593	-1460
220.659	1544
220.726	-175
220.792	329
220.859	-212
220.925	-330
220.992	55
221.058	91
221.125	866
221.191	-208
221.258	-1066
221.324	526
221.391	-426
221.457	352
221.524	-1166
221.590	-71
221.657	465
221.723	-86
221.789	375
221.856	97
221.922	-889
221.989	-60
222.055	921
222.121	-1161
222.188	1575
222.254	527
222.321	-231
222.387	-137
222.453	-71
222.520	-35
222.586	-1221
222.652	-387
222.719	-244
222.785	-152
222.851	-57
222.918	-182
222.984	-547
223.050	-235
223.116	-1098
223.183	490
223.249	-1295
223.315	-1714
223.382	-54
223.448	-311
223.514	-1031
223.580	-350
223.647	-284
223.713	-1564
223.779	83
223.845	-320
223.911	117
223.978	-888
224.044	-199
224.110	-794
224.176	268
224.242	-183
224.309	-1269
224.375	-30
224.441	476
224.507	-356
224.573	-1239
224.639	-307
224.705	-625
224.772	194
224.838	-261
224.904	288
224.970	154
225.036	-124
225.102	-820
225.168	539
225.234	186
225.300	-686
225.366	-888
225.432	175
225.499	-578
225.565	-349
225.631	-405
225.697	-616
225.763	-714
225.829	-434
225.895	-846
225.961	-705
226.027	-184
226.093	-735
226.159	518
226.225	151
226.291	-153
226.357	593
226.423	107
226.489	7
226.554	-871
226.620	-45
226.686	-857
226.752	324
226.818	590
226.884	1417
226.950	1609
227.016	-189
227.082	435
227.148	-66
227.214	-202
227.279	-285
227.345	617
227.411	435
227.477	2585
227.543	5689
227.609	5046
227.674	4093
227.740	1535
227.806	1143
227.872	535
227.938	476
228.003	535
228.069	-248
228.135	-605
228.201	303
228.267	-920
228.332	-500
228.398	-1428
228.464	55
228.530	-1299
228.595	-379
228.661	-1112
228.727	-1410
228.792	632
228.858	-671
228.924	-1605
228.990	1548
229.055	-1410
229.121	-592
229.187	47
229.252	-1031
229.318	-1029
229.384	523
229.449	-943
229.515	-1755
229.581	-1172
229.646	1528
229.712	1
229.777	-541
229.843	-876
229.909	-309
229.974	-368
230.040	-669
230.105	-950
230.171	-1071
230.236	12
230.302	-703
230.368	-1442
230.433	-1602
230.499	126
230.564	329
230.630	-1100
230.695	-1011
230.761	386
230.826	-1570
230.892	801
230.957	-1264
231.023	-322
231.088	307
231.154	-403
231.219	53
231.284	-1365
231.350	-242
231.415	-1396
231.481	425
231.546	-1190
231.612	-163
231.677	-1044
231.742	-1279
231.808	336
231.873	-584
231.939	-2262
232.004	253
232.069	901
232.135	-615
232.200	-1262
232.265	-420
232.331	-189
232.396	-372
232.461	-1285
232.527	-674
232.592	-754
232.657	-175
232.723	-1415
232.788	-359
232.853	598
232.918	-330
232.984	-513
233.049	-1433
233.114	-1144
233.179	143
233.245	1124
233.310	-166
233.375	-1216
233.440	-103
233.506	-824
233.571	-683
233.636	162
233.701	-111
233.766	-635
233.832	-238
233.897	-26
233.962	-2067
234.027	103
234.092	-66
234.157	-482
234.222	-439
234.288	782
234.353	-301
234.418	589
234.483	375
234.548	-409
234.613	-1152
234.678	-256
234.743	-1356
234.808	546
234.873	-1421
234.938	15
235.004	-397
235.069	-706
235.134	-1379
235.199	269
235.264	168
235.329	-1968
235.394	-214
235.459	1138
235.524	-1720
235.589	256
235.654	-1176
235.719	-1721
235.784	-293
235.849	-799
235.913	-497
235.978	-373
236.043	-1075
236.108	-590
236.173	-425
236.238	675
236.303	-1015
236.368	-754
236.433	9
236.498	-682
236.563	406
236.627	-109
236.692	2058
236.757	1810
236.822	325
236.887	-657
236.952	-428
237.017	-1601
237.081	1292
237.146	-966
237.211	-247
237.276	840
237.341	4268
237.405	303
237.470	-248
237.535	-508
237.600	-604
237.664	279
237.729	-1473
237.794	-848
237.859	10
237.923	-1080
237.988	-426
238.053	911
238.118	-688
238.182	-1199
238.247	802
238.312	-1404
238.376	-436
238.441	-1549
238.506	343
238.570	-737
238.635	1524
238.700	-233
238.764	-1100
238.829	-99
238.893	-486
238.958	869
239.023	-889
239.087	50
239.152	223
239.216	-273
239.281	371
239.346	-6
239.410	-272
239.475	-572
239.539	56
239.604	-1010
239.668	707
239.733	2273
239.797	5001
239.862	10502
239.926	9465
239.991	4618
240.055	1479
240.120	479
240.184	1247
240.249	-388
240.313	189
240.378	-598
240.442	-416
240.507	173
240.571	290
240.635	-1385
240.700	-253
240.764	-930
240.829	-123
240.893	-1216
240.957	242
241.022	-381
241.086	431
241.151	-646
241.215	-827
241.279	808
241.344	-676
241.408	224
241.472	-1387
241.537	79
241.601	-513
241.665	-1494
241.730	-156
241.794	472
241.858	-988
241.922	-101
241.987	-284
242.051	-750
242.115	-1210
242.179	-27
242.244	-632
242.308	682
242.372	-376
242.436	-885
242.501	-351
242.565	-1071
242.629	-1050
242.693	26
242.757	-1036
242.822	-820
242.886	195
242.950	2
243.014	-1543
243.078	-816
243.142	-319
243.206	-570
243.271	-514
243.335	-1756
243.399	390
243.463	13
243.527	921
243.591	-280
243.655	-454
243.719	-1083
243.783	481
243.847	108
243.911	7
243.975	-1810
244.040	-1949
244.104	1520
244.168	-459
244.232	-1293
244.296	-229
244.360	49
244.424	-1265
244.488	-284
244.552	317
244.615	-1986
244.679	-444
244.743	-1510
244.807	-988
244.871	272
244.935	523
244.999	-1979
245.063	-801
245.127	-389
245.191	-431
245.255	-1715
245.319	-444
245.383	-1966
245.446	263
245.510	-1724
245.574	-585
245.638	289
245.702	-2123
245.766	-395
245.829	946
245.893	-1712
245.957	-590
246.021	168
246.085	-350
246.149	-512
246.212	-16
246.276	-1143
246.340	-1115
246.404	-232
246.467	-221
246.531	-2365
246.595	792
246.659	-49
246.722	-805
246.786	210
246.850	-532
246.913	-421
246.977	-1905
247.041	-379
247.104	-533
247.168	-517
247.232	-391
247.295	104
247.359	-169
247.423	-499
247.486	180
247.550	-629
247.614	-264
247.677	-894
247.741	-163
247.804	-389
247.868	514
247.932	-687
247.995	1010
248.059	-315
248.122	-1104
248.186	-85
248.249	-493
248.313	727
248.376	1469
248.440	-926
248.503	-2016
248.567	1383
248.630	-1344
248.694	-698
248.757	454
248.821	767
248.884	1528
248.948	-1015
249.011	227
249.075	379
249.138	1472
249.202	-98
249.265	-726
249.328	-143
249.392	-1167
249.455	-266
249.519	393
249.582	102
249.645	32
249.709	466
249.772	-936
249.835	-1092
249.899	-603
249.962	495
250.025	-424
250.089	-221
250.152	601
250.215	-108
250.279	-854
250.342	-208
250.405	78
250.468	-298
250.532	249
250.595	942
250.658	1327
250.721	5638
250.785	519
250.848	901
250.911	2
250.974	-12
251.038	-1326
251.101	802
251.164	-352
251.227	-13
251.290	-139
251.354	560
251.417	2948
251.480	4907
251.543	2028
251.606	8601
251.669	6579
251.732	1052
251.795	252
251.859	819
251.922	4277
251.985	2697
252.048	1243
252.111	100
252.174	-173
252.237	897
252.300	2196
252.363	990
252.426	7629
252.489	801
252.552	-376
252.615	-780
252.678	1083
252.741	981
252.804	717
252.867	7131
252.930	2996
252.993	680
253.056	1446
253.119	-215
253.182	-505
253.245	-635
253.308	845
253.371	-470
253.434	-28
253.497	536
253.559	994
253.622	-367
253.685	-552
253.748	-474
253.811	-264
253.874	-106
253.937	-1382
254.000	-268
254.062	206
254.125	-476
254.188	463
254.251	-431
254.314	689
254.376	-276
254.439	903
254.502	-820
254.565	-515
254.628	44
254.690	-366
254.753	-280
254.816	-1077
254.878	-268
254.941	-20
255.004	6
255.067	36
255.129	-537
255.192	-419
255.255	-1315
255.317	-154
255.380	-239
255.443	-226
255.505	-5
255.568	-63
255.631	-354
255.693	-229
255.756	-86
255.819	920
255.881	64
255.944	597
256.006	-412
256.069	-322
256.132	-564
256.194	-225
256.257	-175
256.319	448
256.382	102
256.444	2158
256.507	1324
256.569	37
256.632	-270
256.694	-1309
256.757	1119
256.819	2903
256.882	176
256.944	40
257.007	1025
257.069	-78
257.132	-116
257.194	570
257.257	-898
257.319	-19
257.381	-701
257.444	1182
257.506	3278
257.569	4967
257.631	398
257.693	-350
257.756	-212
257.818	-859
257.880	-129
257.943	43
258.005	-753
258.067	87
258.130	309
258.192	-113
258.254	-326
258.317	-159
258.379	349
258.441	82
258.503	387
258.566	-219
258.628	33
258.690	-1061
258.753	382
258.815	-142
258.877	-830
258.939	-454
259.001	-79
259.064	-744
259.126	-1524
259.188	-285
259.250	92
259.312	283
259.375	-219
259.437	-1060
259.499	-85
259.561	-268
259.623	188
259.685	-738
259.747	23
259.809	-90
259.872	723
259.934	-672
259.996	122
260.058	134
260.120	-506
260.182	-181
260.244	114
260.306	-288
260.368	338
260.430	-424
260.492	-51
260.554	-194
260.616	-727
260.678	455
260.740	-379
260.802	-512
260.864	-55
260.926	-1235
260.988	363
261.050	249
261.112	-998
261.174	600
261.236	-204
261.298	-483
261.359	-431
261.421	1063
261.483	-1121
261.545	761
261.607	-349
261.669	-136
261.731	-102
261.793	-56
261.854	-1030
261.916	498
261.978	-410
262.040	258
262.102	140
262.164	-443
262.225	441
262.287	384
262.349	-960
262.411	-118
262.472	652
262.534	-195
262.596	-308
262.658	181
262.719	-304
262.781	609
262.843	-1303
262.904	908
262.966	491
263.028	-51
263.090	674
263.151	717
263.213	469
263.275	-628
263.336	-211
263.398	972
263.459	-419
263.521	261
263.583	682
263.644	356
263.706	162
263.767	-443
263.829	-5
263.891	427
263.952	-811
264.014	-299
264.075	-120
264.137	-155
264.198	-173
264.260	-610
264.321	-1
264.383	40
264.444	675
264.506	-576
264.567	577
264.629	328
264.690	-1043
264.752	383
264.813	-48
264.875	-192
264.936	67
264.998	-77
265.059	238
265.120	637
265.182	416
265.243	1481
265.305	1711
265.366	4
265.427	-24
265.489	896
265.550	-853
265.611	256
265.673	-419
265.734	345
265.795	360
265.857	-759
265.918	-976
265.979	1007
266.040	1946
266.102	2662
266.163	715
266.224	397
266.286	727
266.347	-755
266.408	-441
266.469	222
266.530	234
266.592	599
266.653	1189
266.714	-542
266.775	608
266.836	-75
266.898	-282
266.959	-126
267.020	598
267.081	1110
267.142	511
267.203	-322
267.264	-644
267.326	219
267.387	206
267.448	-696
267.509	689
267.570	409
267.631	34
267.692	-100
267.753	481
267.814	-5
267.875	632
267.936	10
267.997	-182
268.058	66
268.119	16
268.180	-956
268.241	47
268.302	400
268.363	426
268.424	-658
268.485	-108
268.546	-718
268.607	249
268.668	184
268.729	-485
268.790	220
268.851	161
268.912	-279
268.972	-123
269.033	-527
269.094	-349
269.155	-129
269.216	-429
269.277	561
269.338	-430
269.398	-38
269.459	103
269.520	222
269.581	-516
269.642	10
269.702	-759
269.763	-107
269.824	-183
269.885	130
269.945	-14
270.006	118
270.067	-1198
270.128	-425
270.188	206
270.249	-480
270.310	-406
270.370	646
270.431	83
270.492	-414
270.553	-165
270.613	-742
270.674	62
270.734	-233
270.795	-53
270.856	264
270.916	319
270.977	-781
271.038	290
271.098	377
271.159	242
271.219	-45
271.280	246
271.340	103
271.401	-565
271.462	777
271.522	-257
271.583	-388
271.643	754
271.704	-184
271.764	-310
271.825	672
271.885	1580
271.946	2459
272.006	295
272.066	936
272.127	3454
272.187	7006
272.248	3805
272.308	466
272.369	1123
272.429	290
272.489	-216
272.550	5
272.610	1954
272.671	641
272.731	459
272.791	-775
272.852	-229
272.912	575
272.972	1436
273.033	685
273.093	717
273.153	1140
273.214	-223
273.274	767
273.334	664
273.394	782
273.455	-388
273.515	859
273.575	1020
273.635	754
273.696	1250
273.756	1249
273.816	1463
273.876	1278
273.936	877
273.997	123
274.057	405
274.117	481
274.177	509
274.237	1334
274.297	1312
274.358	1106
274.418	1229
274.478	1484
274.538	571
274.598	-210
274.658	1117
274.718	905
274.778	546
274.838	853
274.898	433
274.958	1726
275.018	896
275.078	739
275.138	1078
275.198	-298
275.258	1133
275.318	602
275.378	584
275.438	638
275.498	997
275.558	493
275.618	1150
275.678	329
275.738	1302
275.798	1226
275.858	414
275.918	63
275.978	1602
276.038	1100
276.098	1129
276.157	1448
276.217	1039
276.277	958
276.337	312
276.397	708
276.457	1275
276.517	1308
276.576	881
276.636	1042
276.696	987
276.756	1567
276.815	1296
276.875	1149
276.935	689
276.995	1674
277.055	2046
277.114	2258
277.174	1652
277.234	923
277.293	863
277.353	1176
277.413	857
277.472	1192
277.532	862
277.592	1281
277.651	4709
277.711	10779
277.771	3742
277.830	8564
277.890	9050
277.950	5871
278.009	20190
278.069	10084
278.128	6991
278.188	11080
278.248	4695
278.307	10584
278.367	9700
278.426	2419
278.486	1607
278.545	1095
278.605	1352
278.664	1740
278.724	1881
278.783	1885
278.843	2539
278.902	1912
278.962	1070
279.021	1157
279.081	2106
279.140	1723
279.199	1292
279.259	1995
279.318	2541
279.378	3810
279.437	4267
279.496	11244
279.556	38114
279.615	41243
279.675	10633
279.734	5390
279.793	5624
279.853	7581
279.912	4226
279.971	2979
280.031	2017
280.090	3483
280.149	6170
280.208	6073
280.268	23426
280.327	36028
280.386	8849
280.445	4207
280.505	2998
280.564	2939
280.623	2183
280.682	1858
280.742	2617
280.801	1287
280.860	1109
280.919	1998
280.978	1710
281.037	1850
281.097	1622
281.156	1744
281.215	1989
281.274	1405
281.333	2311
281.392	1221
281.451	1576
281.510	1570
281.569	1592
281.628	1694
281.688	1819
281.747	1713
281.806	1703
281.865	1422
281.924	1115
281.983	1836
282.042	1071
282.101	1364
282.160	1282
282.219	1309
282.278	1858
282.337	1029
282.396	1349
282.454	1722
282.513	1546
282.572	1671
282.631	1310
282.690	932
282.749	1336
282.808	1149
282.867	1738
282.926	1394
282.985	1856
283.043	1113
283.102	1384
283.161	1869
283.220	2227
283.279	1743
283.338	1948
283.396	1609
283.455	1917
283.514	2480
283.573	2535
283.631	1857
283.690	2081
283.749	2566
283.808	1806
283.866	1892
283.925	2383
283.984	2598
284.043	2180
284.101	2543
284.160	2221
284.219	3464
284.277	1802
284.336	2279
284.395	2931
284.453	2133
284.512	3221
284.570	2915
284.629	3924
284.688	4472
284.746	5097
284.805	5488
284.863	5527
284.922	8496
284.981	10206
285.039	15257
285.098	23464
285.156	49401
285.215	90280
285.273	94384
285.332	65135
285.390	36084
285.449	21548
285.507	15512
285.566	12118
285.624	8724
285.683	7892
285.741	6539
285.799	5433
285.858	4604
285.916	3756
285.975	4555
286.033	3419
286.091	3366
286.150	3594
286.208	3819
286.267	3385
286.325	3000
286.383	3467
286.442	2975
286.500	3542
286.558	2630
286.616	2947
286.675	2848
286.733	2921
286.791	2753
286.850	3041
286.908	2386
286.966	2337
287.024	2307
287.083	2144
287.141	2212
287.199	2886
287.257	1966
287.315	3024
287.374	1928
287.432	2544
287.490	3046
287.548	2428
287.606	1950
287.664	2345
287.723	2312
287.781	2631
287.839	2033
287.897	2381
287.955	2840
288.013	3238
288.071	3432
288.129	8342
288.187	33859
288.245	18599
288.303	6418
288.361	3811
288.419	3129
288.477	2598
288.535	2692
288.593	2427
288.651	1864
288.709	1809
288.767	2920
288.825	1869
288.883	2416
288.941	2384
288.999	2224
289.057	2530
289.115	2954
289.173	2434
289.231	2813
289.289	1608
289.346	2797
289.404	2441
289.462	2479
289.520	2768
289.578	2638
289.636	2339
289.694	2064
289.751	2627
289.809	2861
289.867	2329
289.925	2878
289.983	1942
290.040	2227
290.098	2708
290.156	1789
290.214	2513
290.271	1719
290.329	3199
290.387	3200
290.444	2459
290.502	2809
290.560	3513
290.617	3017
290.675	3215
290.733	2399
290.790	2906
290.848	2853
290.906	2709
290.963	2586
291.021	3174
291.078	2810
291.136	2346
291.194	3047
291.251	2264
291.309	1916
291.366	2369
291.424	2571
291.481	2445
291.539	2625
291.596	2991
291.654	2939
291.711	2539
291.769	2640
291.826	3018
291.884	2076
291.941	2345
291.999	2514
292.056	2338
292.114	2814
292.171	3043
292.228	3894
292.286	3326
292.343	3017
292.401	2867
292.458	3733
292.515	2975
292.573	2708
292.630	3357
292.687	2733
292.745	2272
292.802	2992
292.859	2603
292.917	2744
292.974	2077
293.031	2607
293.089	2250
293.146	2429
293.203	3190
293.260	2420
293.318	2411
293.375	2959
293.432	2742
293.489	2892
293.546	4099
293.604	3392
293.661	4170
293.718	4739
293.775	4351
293.832	3303
293.889	4707
293.947	4142
294.004	2817
294.061	2699
294.118	2861
294.175	2788
294.232	4822
294.289	3626
294.346	3517
294.403	3518
294.460	3696
294.517	2720
294.574	3397
294.631	3291
294.688	2945
294.745	3685
294.802	4649
294.859	3710
294.916	2467
294.973	2556
295.030	2818
295.087	3045
295.144	2383
295.201	3803
295.258	2017
295.315	2456
295.372	3186
295.429	3491
295.486	2958
295.542	2563
295.599	2616
295.656	3146
295.713	2837
295.770	3521
295.827	2908
295.883	3583
295.940	2714
295.997	3146
296.054	2777
296.111	2495
296.167	3671
296.224	3185
296.281	2333
296.338	2456
296.394	3256
296.451	2695
296.508	3075
296.564	2909
296.621	4052
296.678	4410
296.734	6351
296.791	4173
296.848	2986
296.904	2104
296.961	3241
297.018	3383
297.074	4313
297.131	3140
297.187	3348
297.244	3714
297.301	4363
297.357	5475
297.414	4682
297.470	3954
297.527	3063
297.583	3179
297.640	3144
297.696	2976
297.753	3478
297.809	3213
297.866	2794
297.922	3297
297.979	2459
298.035	2347
298.092	2823
298.148	3517
298.204	4453
298.261	3295
298.317	4080
298.374	4969
298.430	4876
298.486	2359
298.543	3542
298.599	3369
298.656	3127
298.712	3333
298.768	3445
298.824	4355
298.881	2971
298.937	3287
298.993	3874
299.050	3783
299.106	4197
299.162	2505
299.218	4161
299.275	3955
299.331	4457
299.387	5896
299.443	9961
299.500	24512
299.556	28294
299.612	14952
299.668	10928
299.724	23615
299.780	35754
299.837	18739
299.893	11111
299.949	17687
300.005	31367
300.061	24540
300.117	35903
300.173	21226
300.229	10298
300.285	7338
300.341	6769
300.397	6387
300.453	6077
300.510	6424
300.566	8505
300.622	13427
300.678	35107
300.734	55025
300.790	29383
300.845	16087
300.901	20649
300.957	35615
301.013	21993
301.069	10445
301.125	7429
301.181	5915
301.237	6205
301.293	5175
301.349	4643
301.405	4179
301.461	4251
301.516	4115
301.572	4376
301.628	3717
301.684	3906
301.740	4445
301.796	5509
301.851	3706
301.907	3968
301.963	5026
302.019	5189
302.074	12050
302.130	13325
302.186	8774
302.242	4993
302.297	4788
302.353	4087
302.409	4220
302.464	4085
302.520	4300
302.576	4129
302.631	4884
302.687	4423
302.743	4088
302.798	3956
302.854	3566
302.910	3512
302.965	3177
303.021	3945
303.076	3856
303.132	4334
303.187	4595
303.243	3456
303.299	4454
303.354	3542
303.410	3841
303.465	3294
303.521	3797
303.576	3750
303.632	4027
303.687	3886
303.743	4211
303.798	5722
303.853	4367
303.909	3652
303.964	3267
304.020	3139
304.075	3547
304.130	3741
304.186	4197
304.241	5110
304.297	3712
304.352	3718
304.358	3713
304.407	3675
304.449	3948
304.463	4046
304.518	3514
304.539	3299
304.573	2940
304.629	3185
304.630	3195
304.684	3723
304.720	4006
304.739	4150
304.794	5719
304.811	5406
304.850	4664
304.902	4163
304.905	4132
304.960	4176
304.992	3864
305.015	3636
305.071	3445
305.083	3404
305.126	3232
305.173	3317
305.181	3334
305.236	3350
305.264	3287
305.292	3237
305.347	3070
305.354	3224
305.402	4251
305.445	3441
305.457	3162
305.512	3091
305.535	3340
305.567	3776
305.622	3107
305.626	3131
305.678	3482
305.716	3448
305.733	3449
305.788	3517
305.807	3367
305.843	3079
305.897	4243
305.898	4258
305.953	4939
305.988	4308
306.008	3967
306.063	3608
306.078	3509
306.118	3214
306.168	2512
306.173	2447
306.228	2572
306.259	2583
306.283	2590
306.338	2788
306.349	2768
306.393	2697
306.440	2453
306.448	2404
306.503	3359
306.530	3181
306.558	3056
306.613	2665
306.620	2667
306.668	2583
306.711	3182
306.723	3323
306.778	3152
306.801	3126
306.833	3191
306.888	3323
306.892	3316
306.943	3105
306.982	3085
306.997	3075
307.052	2817
307.072	2650
307.107	2438
307.162	3135
307.163	3138
307.217	3021
307.253	2960
307.272	2970
307.327	2026
307.343	2143
307.381	2465
307.434	1845
307.436	1820
307.491	2384
307.524	2800
307.546	2971
307.600	2714
307.614	2578
307.655	2237
307.704	2436
307.710	2441
307.765	2415
307.795	2167
307.819	2035
307.874	2730
307.885	2727
307.929	2930
307.975	4048
307.984	4257
308.038	5233
308.065	5772
308.093	7429
308.148	12539
308.156	14467
308.202	24177
308.246	34796
308.257	36230
308.312	21682
308.336	15674
308.366	10373
308.421	5388
308.426	5167
308.475	3651
308.517	3709
308.530	3630
308.585	3293
308.607	3273
308.639	3389
308.694	3247
308.697	3265
308.748	3569
308.787	3400
308.803	3166
308.857	2612
308.877	2493
308.912	2640
308.967	3947
308.967	3968
309.021	4810
309.058	5393
309.076	6025
309.130	9618
309.148	10947
309.185	18865
309.238	36249
309.239	36328
309.293	49065
309.328	44505
309.348	40210
309.402	21492
309.418	17213
309.457	11514
309.508	8392
309.511	8215
309.566	7691
309.598	7799
309.620	8092
309.674	10562
309.688	11305
309.729	11680
309.778	10660
309.783	10508
309.837	8119
309.868	6888
309.892	6077
309.946	4611
309.959	4396
310.001	4041
310.049	3863
310.055	3788
310.109	3458
310.139	3124
310.163	2908
310.218	2948
310.229	2935
310.272	3044
310.319	3315
310.326	3224
310.381	2299
310.409	2040
310.435	2273
310.489	2511
310.499	2602
310.543	2376
310.589	2148
310.598	2145
310.652	2192
310.679	2208
310.706	2307
310.760	2402
310.769	2454
310.814	2550
310.859	2529
310.868	2514
310.923	2596
310.948	2630
310.977	2638
311.031	2645
311.038	2668
311.085	2292
311.128	1775
311.139	1811
311.193	2233
311.218	2377
311.247	2408
311.301	2623
311.308	2641
311.356	2329
311.398	2173
311.410	2152
311.464	2112
311.488	2039
311.518	1842
311.572	1574
311.578	1557
311.626	1824
311.668	2155
311.680	2242
311.734	2600
311.758	2767
311.788	2588
311.842	2356
311.847	2336
311.896	2322
311.937	2390
311.950	2367
312.004	2303
312.027	2287
312.058	2209
312.112	2102
312.117	2102
312.165	1956
312.207	1859
312.297	1612
312.386	1523
312.476	1108
312.566	2483
312.656	2333
312.745	2803
312.835	2779
312.925	2256
313.015	1897
313.104	2098
313.194	3193
313.284	2181
313.374	2843
313.463	3217
313.553	3222
313.643	2597
313.732	3391
313.822	3877
313.912	3802
314.001	4715
314.091	3873
314.180	3755
314.270	4325
314.360	3946
314.449	4111
314.539	3841
314.628	3918
314.718	4013
314.808	4852
314.897	4735
314.987	4044
315.076	4953
315.166	4743
315.255	4996
315.345	4281
315.434	4006
315.524	4709
315.613	4782
315.703	6482
315.792	17095
315.881	46919
315.971	13684
316.060	6072
316.150	3787
316.239	4266
316.328	3935
316.418	4368
316.507	4436
316.597	5464
316.686	5612
316.775	4673
316.865	5083
316.954	4439
317.043	4143
317.133	3912
317.222	3594
317.311	4452
317.400	1869
317.490	4849
317.579	3959
317.668	4940
317.757	8376
317.847	26413
317.936	68128
318.025	20981
318.114	19036
318.203	9386
318.293	5615
318.382	7073
318.471	7764
318.560	5963
318.649	5340
318.738	4165
318.828	3681
318.917	2093
319.006	2082
319.095	2525
319.184	3867
319.273	3063
319.362	2941
319.451	2853
319.540	3125
319.629	3079
319.718	2957
319.807	2872
319.896	3054
319.985	4813
320.074	3003
320.163	2500
320.252	3744
320.341	4287
320.430	2860
320.519	4308
320.608	3553
320.697	5023
320.786	5582
320.875	6233
320.964	6627
321.053	6742
321.142	7098
321.230	8721
321.319	8240
321.408	9768
321.497	10074
321.586	8316
321.675	7130
321.764	7107
321.852	7865
321.941	6736
322.030	7215
322.119	7350
322.207	9619
322.296	11196
322.385	12244
322.474	13928
322.562	13418
322.651	10929
322.740	7822
322.829	7206
322.917	7108
323.006	4958
323.095	6039
323.183	5358
323.272	4738
323.361	4912
323.449	4321
323.538	4638
323.626	3820
323.715	3847
323.804	3223
323.892	4094
323.981	2980
324.069	4089
324.158	3693
324.246	3703
324.335	4086
324.424	3011
324.512	3824
324.601	3699
324.689	3308
324.778	3554
324.866	2663
324.954	3274
325.043	2837
325.131	1814
325.220	3526
325.308	2611
325.397	3071
325.485	2922
325.574	2398
325.662	3010
325.750	2681
325.839	4066
325.927	2465
326.015	3120
326.104	3169
326.192	3363
326.280	2335
326.369	2538
326.457	2611
326.545	2895
326.634	3083
326.722	2804
326.810	2852
326.898	4194
326.987	3305
327.075	2823
327.163	3488
327.251	2578
327.340	3087
327.428	4950
327.516	5107
327.604	4561
327.692	3301
327.781	3348
327.869	2631
327.957	1737
328.045	1455
328.133	2854
328.221	1533
328.309	3005
328.397	3370
328.485	3364
328.574	5291
328.662	7367
328.750	3381
328.838	3185
328.926	2925
329.014	2981
329.102	2556
329.190	2147
329.278	2440
329.366	2566
329.454	2291
329.542	2236
329.630	1203
329.718	3225
329.806	2324
329.893	2422
329.981	2443
330.069	2097
330.157	3232
330.245	3178
330.333	3332
330.421	2663
330.509	2302
330.597	2861
330.684	2163
330.772	3044
330.860	2138
330.948	2928
331.036	2983
331.123	2122
331.211	2153
331.299	2076
331.387	2778
331.475	3030
331.562	2833
331.650	2472
331.738	2926
331.825	2791
331.913	2446
332.001	2563
332.089	2404
332.176	2557
332.264	2147
332.352	2597
332.439	2594
332.527	2807
332.614	2438
332.702	2614
332.790	3253
332.877	2631
332.965	4425
333.052	3380
333.140	3419
333.228	4815
333.315	3186
333.403	2983
333.490	4045
333.578	3160
333.665	7006
333.753	4302
333.840	4128
333.928	5781
334.015	6105
334.103	7077
334.190	10012
334.278	11875
334.365	16901
334.452	16520
334.540	11735
334.627	11698
334.715	14886
334.802	18369
334.889	29351
334.977	37871
335.064	26326
335.151	13468
335.239	10054
335.326	8166
335.413	9240
335.501	9024
335.588	10047
335.675	10237
335.762	12762
335.850	17267
335.937	23483
336.024	34981
336.111	52831
336.199	47202
336.286	23102
336.373	13708
336.460	9708
336.547	7319
336.635	6948
336.722	5582
336.809	4855
336.896	4135
336.983	4817
337.070	5107
337.157	5689
337.245	4512
337.332	4600
337.419	4716
337.506	4939
337.593	4781
337.680	4024
337.767	4928
337.854	3534
337.941	3689
338.028	3624
338.115	3775
338.202	4115
338.289	4161
338.376	2942
338.463	3599
338.550	2694
338.637	3426
338.724	2286
338.811	3807
338.898	3063
338.984	2844
339.071	2328
339.158	3571
339.245	3159
339.332	2911
339.419	3075
339.506	3143
339.593	2968
339.679	3183
339.766	1929
339.853	2391
339.940	2784
340.027	3133
340.113	2446
340.200	1885
340.287	2379
340.374	2690
340.460	2685
340.547	1588
340.634	3031
340.720	3051
340.807	2205
340.894	3266
340.980	2889
341.067	2530
341.154	3619
341.240	2003
341.327	2124
341.414	2940
341.500	2145
341.587	3508
341.674	2828
341.760	2943
341.847	2385
341.933	3222
342.020	2265
342.106	2331
342.193	2616
342.279	2794
342.366	1910
342.452	3123
342.539	2323
342.625	2246
342.712	1903
342.798	2241
342.885	2550
342.971	2519
343.058	2587
343.144	2344
343.230	2880
343.317	3107
343.403	1848
343.490	3024
343.576	1896
343.662	2704
343.749	2161
343.835	1806
343.921	3022
344.008	4570
344.094	5822
344.180	3363
344.267	2599
344.353	2397
344.439	2965
344.525	2204
344.612	2400
344.698	2458
344.784	1814
344.870	3200
344.957	1754
345.043	2094
345.129	1503
345.215	2524
345.301	1768
345.387	2564
345.474	1949
345.560	2146
345.646	1311
345.732	3000
345.818	2632
345.904	2113
345.990	2506
346.076	2291
346.162	1809
346.249	3593
346.335	2550
346.421	2669
346.507	2963
346.593	3159
346.679	1084
346.765	4294
346.851	6194
346.937	3736
347.023	3701
347.108	2838
347.194	2608
347.280	3151
347.366	3989
347.452	10906
347.538	10099
347.624	6475
347.710	3776
347.796	3048
347.882	3070
347.967	2823
348.053	2432
348.139	2987
348.225	2205
348.311	2434
348.397	2410
348.482	3983
348.568	4173
348.654	5669
348.740	16453
348.825	14506
348.911	6803
348.997	4796
349.083	5194
349.168	2852
349.254	2591
349.340	3358
349.425	2362
349.511	2698
349.597	2432
349.682	2159
349.768	2987
349.854	3251
349.939	3048
350.025	2541
350.110	3384
350.196	3338
350.282	1311
350.367	2346
350.453	3073
350.538	2589
350.624	2228
350.709	2949
350.795	1574
350.880	2101
350.966	3782
351.051	2337
351.137	3351
351.222	2492
351.308	2618
351.393	2507
351.479	1242
351.564	1915
351.649	2183
351.735	2655
351.820	3251
351.906	2784
351.991	1935
352.076	2852
352.162	2760
352.247	2414
352.332	2425
352.418	2018
352.503	2324
352.588	3274
352.673	2121
352.759	2995
352.844	2049
352.929	2045
353.014	1686
353.100	2698
353.185	2225
353.270	2186
353.355	2574
353.441	2497
353.526	2486
353.611	1809
353.696	1478
353.781	3563
353.866	1244
353.952	3397
354.037	1802
354.122	3085
354.207	1543
354.292	2164
354.377	1948
354.462	3215
354.547	2599
354.632	2719
354.717	2457
354.802	1416
354.887	2269
354.972	2695
355.057	2774
355.142	1630
355.227	3530
355.312	2232
355.397	1352
355.482	2705
355.567	1863
355.652	3631
355.737	2943
355.822	2227
355.907	2123
355.991	3373
356.076	1594
356.161	2940
356.246	2479
356.331	2836
356.416	1771
356.501	5815
356.585	2946
356.670	2227
356.755	4700
356.840	3558
356.924	3562
357.009	6111
357.094	4479
357.179	3278
357.263	3056
357.348	3565
357.433	2591
357.517	3217
357.602	2774
357.687	2940
357.771	2986
357.856	3466
357.941	3251
358.025	4365
358.110	8832
358.195	5834
358.279	2667
358.364	2950
358.448	3898
358.533	4116
358.617	3795
358.702	3590
358.787	3437
358.871	2883
358.956	3067
359.040	2998
359.125	2813
359.209	3092
359.294	3497
359.378	6607
359.462	5469
359.547	3043
359.631	2465
359.716	2644
359.800	2689
359.885	3639
359.969	1742
360.053	3937
360.138	2538
360.222	3048
360.306	2256
360.391	3245
360.475	3341
360.559	2822
360.644	3213
360.728	3048
360.812	4451
360.896	5327
360.981	3250
361.065	2643
361.149	4131
361.233	4226
361.318	2825
361.402	3632
361.486	5094
361.570	4071
361.654	3830
361.739	4672
361.823	5666
361.907	8456
361.991	6753
362.075	7968
362.159	11253
362.243	22981
362.327	45421
362.411	61020
362.495	24888
362.580	13837
362.664	13973
362.748	16268
362.832	26032
362.916	49560
363.000	109992
363.084	133882
363.168	52194
363.252	20645
363.336	13186
363.420	11006
363.503	9638
363.587	9026
363.671	8291
363.755	8696
363.839	11411
363.923	11168
364.007	14271
364.091	20116
364.175	30565
364.258	62825
364.342	126435
364.426	197858
364.510	105059
364.594	36128
364.677	19041
364.761	12413
364.845	10466
364.929	7954
365.013	6730
365.096	6423
365.180	4210
365.264	5442
365.347	6845
365.431	4752
365.515	2679
365.598	3398
365.682	6581
365.766	3957
365.849	4207
365.933	4017
366.017	5887
366.100	3952
366.184	3641
366.267	4605
366.351	3896
366.435	3719
366.518	4263
366.602	4234
366.685	4186
366.769	4147
366.852	3683
366.936	3511
367.019	3702
367.103	2684
367.186	5256
367.270	4542
367.353	4041
367.436	5787
367.520	4797
367.603	5844
367.687	3663
367.770	4068
367.853	5410
367.937	5263
368.020	4770
368.104	3310
368.187	4404
368.270	4056
368.353	2896
368.437	3474
368.520	4013
368.603	3624
368.687	2239
368.770	3401
368.853	2297
368.936	4165
369.020	4289
369.103	3392
369.186	2755
369.269	3029
369.352	3039
369.436	2147
369.519	4196
369.602	1609
369.685	4642
369.768	1904
369.851	3964
369.934	2330
370.018	2357
370.101	2156
370.184	5334
370.267	3794
370.350	4007
370.433	3938
370.516	10965
370.599	27914
370.682	10333
370.765	5908
370.848	4666
370.931	2463
371.014	4094
371.097	2700
371.180	4287
371.263	3470
371.346	1835
371.429	3360
371.511	2281
371.594	3242
371.677	4191
371.760	4460
371.843	2423
371.926	6106
372.009	8944
372.091	6949
372.174	2999
372.257	4824
372.340	3475
372.423	3323
372.505	4903
372.588	3217
372.671	3970
372.754	2294
372.836	3058
372.919	4612
373.002	4248
373.085	2816
373.167	4343
373.250	3553
373.332	3931
373.415	8265
373.498	10665
373.580	13345
373.663	41237
373.746	34751
373.828	7484
373.911	5970
373.993	4521
374.076	4990
374.159	4166
374.241	4890
374.324	5023
374.406	5956
374.489	5523
374.571	8639
374.654	4467
374.736	5360
374.819	6586
374.901	9602
374.983	8381
375.066	6211
375.148	6005
375.231	5772
375.313	6842
375.395	6222
375.478	4986
375.560	6318
375.643	5713
375.725	5795
375.807	6318
375.890	8164
375.972	3382
376.054	4957
376.136	4853
376.219	3670
376.301	5275
376.383	4236
376.465	3375
376.548	4589
376.630	3405
376.712	5077
376.794	3639
376.877	3185
376.959	2887
377.041	3923
377.123	3509
377.205	4151
377.287	1680
377.369	4442
377.452	3249
377.534	3777
377.616	4088
377.698	3463
377.780	2565
377.862	3621
377.944	4871
378.026	2312
378.108	4418
378.190	3139
378.272	4077
378.354	2814
378.436	3433
378.518	2602
378.600	3168
378.682	3690
378.764	3128
378.846	3892
378.928	3196
379.010	2612
379.091	3775
379.173	3277
379.255	2460
379.337	2581
379.419	2296
379.501	4892
379.583	3134
379.664	3541
379.746	1694
379.828	5105
379.910	2623
379.991	3966
380.073	2543
380.155	3014
380.237	3272
380.318	3305
380.400	2568
380.482	3977
380.564	3150
380.645	2104
380.727	2048
380.809	4414
380.890	3057
380.972	1981
381.053	2990
381.135	4460
381.217	3201
381.298	4860
381.380	3347
381.461	4023
381.543	4270
381.624	4751
381.706	3012
381.787	3354
381.869	3726
381.951	4559
382.032	6168
382.113	8036
382.195	2610
382.276	5751
382.358	3777
382.439	5082
382.521	6153
382.602	7648
382.684	7043
382.765	9265
382.846	17884
382.928	34841
383.009	19362
383.090	21670
383.172	57967
383.253	69798
383.334	20748
383.416	9878
383.497	9803
383.578	9968
383.659	19315
383.741	58203
383.822	111904
383.903	48758
383.984	13381
384.066	11351
384.147	7659
384.228	7514
384.309	8028
384.390	8225
384.471	7071
384.553	6600
384.634	6150
384.715	5950
384.796	5389
384.877	4956
384.958	6116
385.039	4210
385.120	5204
385.201	6347
385.282	5753
385.363	6916
385.444	6339
385.525	7074
385.606	7150
385.687	7009
385.768	7202
385.849	6137
385.930	8689
386.011	10829
386.092	6401
386.173	6770
386.254	7343
386.335	7718
386.416	6321
386.496	6889
386.577	6883
386.658	7122
386.739	6264
386.820	6971
386.901	6680
386.981	9039
387.062	9293
387.143	9608
387.224	10960
387.304	12731
387.385	12406
387.466	9930
387.547	12898
387.627	12999
387.708	12796
387.789	12821
387.869	10886
387.950	11223
388.031	8474
388.111	6443
388.192	8823
388.273	9502
388.353	7211
388.434	7877
388.514	6787
388.595	8116
388.676	6992
388.756	7353
388.837	7066
388.917	6422
388.998	4449
389.078	6768
389.159	6652
389.239	4358
389.320	7437
389.400	4599
389.480	5372
389.561	5165
389.641	6741
389.722	6961
389.802	4937
389.883	5779
389.963	6750
390.043	4958
390.124	3918
390.204	5240
390.284	6291
390.365	4349
390.445	6585
390.525	7376
390.605	6290
390.686	4996
390.766	6454
390.846	7296
390.927	5940
391.007	5499
391.087	6619
391.167	6171
391.247	5372
391.328	7638
391.408	7246
391.488	7823
391.568	6678
391.648	8058
391.728	9591
391.808	9429
391.888	8721
391.969	10200
392.049	9277
392.129	11455
392.209	11137
392.289	14035
392.369	14081
392.449	14975
392.529	16672
392.609	18840
392.689	21802
392.769	25795
392.849	31363
392.929	41371
393.009	55297
393.089	81175
393.169	139351
393.248	259195
393.328	437370
393.408	432688
393.488	243496
393.568	119727
393.648	69789
393.728	45809
393.807	32716
393.887	27340
393.967	21667
394.047	18638
394.127	16388
394.206	14922
394.286	20563
394.366	49389
394.446	45309
394.525	15479
394.605	11135
394.685	10293
394.764	13234
394.844	21486
394.924	25366
395.003	12524
395.083	9397
395.163	8431
395.242	8659
395.322	8873
395.402	7525
395.481	10671
395.561	12243
395.640	34177
395.720	58346
395.799	29466
395.879	13186
395.958	13145
396.038	23337
396.117	65047
396.197	63503
396.276	24922
396.356	21084
396.435	26190
396.515	36697
396.594	57219
396.673	108125
396.753	236274
396.832	399879
396.912	307827
396.991	126507
397.070	62566
397.150	37508
397.229	33580
397.308	57048
397.388	87548
397.467	43283
397.546	18709
397.625	11125
397.705	13291
397.784	10159
397.863	8767
397.942	8226
398.022	8213
398.101	7075
398.180	6977
398.259	6145
398.338	7413
398.417	6005
398.497	5775
398.576	6998
398.655	4356
398.734	5459
398.813	5269
398.892	5071
398.971	5797
399.050	4204
399.129	4292
399.208	4763
399.287	6019
399.366	3445
399.445	4460
399.524	4652
399.603	2518
399.682	4927
399.761	4542
399.840	5904
399.919	4649
399.998	4264
400.077	2942
400.156	2712
400.235	5494
400.313	2529
400.392	2279
400.471	3942
400.550	3939
400.629	2291
400.708	4214
400.786	2553
400.865	2167
400.944	1658
401.023	4777
401.102	2487
401.180	3479
401.259	3801
401.338	2847
401.416	2677
401.495	1438
401.574	3098
401.652	2930
401.731	3200
401.810	1384
401.888	2371
401.967	2800
402.046	2401
402.124	2695
402.203	1552
402.281	3242
402.360	1606
402.438	3642
402.517	1554
402.596	3498
402.674	2126
402.753	2538
402.831	3228
402.910	4233
402.988	3458
403.066	5084
403.145	5014
403.223	5133
403.302	3713
403.380	4267
403.459	4804
403.537	3404
403.615	4159
403.694	2874
403.772	3701
403.850	4046
403.929	3520
404.007	2135
404.085	4619
404.164	3096
404.242	2262
404.320	5180
404.398	5628
404.477	3922
404.555	5898
404.633	4135
404.711	5194
404.789	3380
404.868	2515
404.946	2551
405.024	2763
405.102	2293
405.180	1161
405.258	1667
405.336	2884
405.415	2026
405.493	2679
405.571	3141
405.649	1888
405.727	1928
405.805	4395
405.883	3664
405.961	3547
406.039	2933
406.117	482
406.195	2820
406.273	1788
406.351	4105
406.429	3362
406.507	1880
406.585	1620
406.663	3307
406.740	2993
406.818	1336
406.896	2496
406.974	2806
407.052	531
407.130	3833
407.208	3506
407.285	3387
407.363	2774
407.441	2735
407.519	3524
407.596	6474
407.674	24091
407.752	76878
407.830	47892
407.907	8179
407.985	3929
408.063	3189
408.141	3224
408.218	3278
408.296	1871
408.373	2773
408.451	3413
408.529	3796
408.606	3537
408.684	3983
408.762	3831
408.839	4003
408.917	4452
408.994	5346
409.072	5391
409.149	6723
409.227	12599
409.304	17684
409.382	18618
409.459	21218
409.537	26970
409.614	23752
409.692	19561
409.769	19329
409.846	27165
409.924	33269
410.001	22500
410.079	18279
410.156	13655
410.233	11257
410.311	8552
410.388	8154
410.465	7683
410.543	6416
410.620	6979
410.697	6295
410.775	6020
410.852	5317
410.929	7431
411.006	7243
411.083	5493
411.161	4711
411.238	5656
411.315	4804
411.392	4433
411.469	4839
411.547	4813
411.624	2122
411.701	3167
411.778	2960
411.855	3366
411.932	2549
412.009	3139
412.086	4087
412.163	3128
412.240	2850
412.317	3561
412.394	2924
412.471	3584
412.548	2560
412.625	2628
412.702	2703
412.779	2884
412.856	2958
412.933	2253
413.010	3119
413.087	2862
413.164	2331
413.241	2711
413.318	1645
413.395	3012
413.471	2447
413.548	1926
413.625	3458
413.702	955
413.779	2215
413.855	2117
413.932	1807
414.009	816
414.086	1980
414.162	2352
414.239	2289
414.316	2214
414.393	3063
414.469	1704
414.546	1706
414.623	1368
414.699	1659
414.776	1740
414.853	1868
414.929	2138
415.006	1769
415.082	1919
415.159	2036
415.236	2227
415.312	2402
415.389	2348
415.465	1475
415.542	2383
415.618	1928
415.695	2497
415.771	1199
415.848	1929
415.924	1953
416.000	1780
416.077	3415
416.153	1709
416.230	1414
416.306	1839
416.383	1989
416.459	2374
416.535	2106
416.612	1999
416.688	1519
416.764	1051
416.841	1154
416.917	1234
416.993	2489
417.069	2158
417.146	2088
417.222	1587
417.298	2074
417.374	1488
417.451	2228
417.527	1557
417.603	2082
417.679	1483
417.755	1972
417.831	998
417.908	2506
417.984	1826
418.060	1576
418.136	2288
418.212	2145
418.288	2202
418.364	2275
418.440	1607
418.516	2675
418.592	2061
418.668	1858
418.744	1994
418.820	3150
418.896	2356
418.972	1820
419.048	2780
419.124	3977
419.200	1715
419.276	3130
419.352	2229
419.428	3755
419.504	2790
419.579	3591
419.655	2724
419.731	3750
419.807	3616
419.883	3833
419.959	3762
420.034	4623
420.110	3868
420.186	4445
420.262	4734
420.337	5237
420.413	5263
420.489	5269
420.565	6644
420.640	6438
420.716	6594
420.792	5705
420.867	7035
420.943	7034
421.019	8842
421.094	8730
421.170	9958
421.245	9460
421.321	11797
421.397	14090
421.472	32251
421.548	65155
421.623	38946
421.699	21215
421.774	21163
421.850	23869
421.925	27865
422.001	32851
422.076	39968
422.152	49843
422.227	65215
422.302	86187
422.378	117299
422.453	165853
422.529	222635
422.604	241138
422.679	204461
422.755	256205
422.830	233308
422.905	164122
422.981	116393
423.056	87598
423.131	66261
423.207	51048
423.282	41888
423.357	36386
423.432	29242
423.508	26307
423.583	22178
423.658	20082
423.733	17495
423.808	16814
423.883	16062
423.959	17069
424.034	18982
424.109	17570
424.184	13518
424.259	12067
424.334	9586
424.409	8496
424.484	8292
424.559	8161
424.634	7392
424.709	7402
424.784	6549
424.859	6337
424.934	5582
425.009	5851
425.084	5938
425.159	4961
425.234	5434
425.309	4100
425.384	4324
425.459	4132
425.534	4976
425.609	3380
425.683	3304
425.758	4142
425.833	3943
425.908	4991
425.983	3478
426.058	4250
426.132	3655
426.207	3115
426.282	4532
426.357	3084
426.431	3042
426.506	3467
426.581	3048
426.655	4128
426.730	2549
426.805	2545
426.879	4559
426.954	2892
427.029	3605
427.103	3168
427.178	2720
427.253	2894
427.327	2604
427.402	2422
427.476	2897
427.551	2985
427.625	2980
427.700	3659
427.774	2590
427.849	2995
427.923	2946
427.998	3797
428.072	5157
428.147	11929
428.221	46522
428.296	110204
428.370	58348
428.444	11775
428.519	5641
428.593	5391
428.667	4936
428.742	7881
428.816	20694
428.890	75345
428.965	99118
429.039	27612
429.113	7339
429.188	3699
429.262	4096
429.336	3250
429.410	4829
429.485	4429
429.559	3757
429.633	5455
429.707	6970
429.781	18785
429.855	70093
429.930	88583
430.004	27733
430.078	22365
430.152	57891
430.226	152193
430.300	135679
430.374	38988
430.448	15569
430.522	9519
430.596	10621
430.670	29794
430.744	92092
430.818	86063
430.892	20114
430.966	6661
431.040	4912
431.114	2969
431.188	2199
431.262	2934
431.336	2655
431.410	3150
431.484	2964
431.557	4063
431.631	4638
431.705	10862
431.779	38538
431.853	111784
431.927	71706
432.000	15259
432.074	5076
432.148	3230
432.222	2221
432.295	1891
432.369	1515
432.443	1506
432.516	1558
432.590	2489
432.664	2089
432.737	1497
432.811	1280
432.885	646
432.958	1246
433.032	969
433.106	596
433.179	2022
433.253	1394
433.326	980
433.400	943
433.473	2004
433.547	1262
433.620	1385
433.694	836
433.767	1582
433.841	1634
433.914	2137
433.988	1951
434.061	2009
434.134	1395
434.208	1610
434.281	1075
434.355	1443
434.428	1727
434.501	1033
434.575	739
434.648	1279
434.721	958
434.795	1422
434.868	2121
434.941	1876
435.014	1859
435.088	2130
435.161	2998
435.234	3996
435.307	3464
435.381	5792
435.454	8725
435.527	14345
435.600	16623
435.673	13855
435.746	11620
435.819	8851
435.892	7254
435.966	5786
436.039	4205
436.112	4212
436.185	3836
436.258	3034
436.331	1575
436.404	2771
436.477	1886
436.550	1334
436.623	2149
436.696	1729
436.769	1630
436.842	1707
436.915	1852
436.987	1298
437.060	1381
437.133	1501
437.206	193
437.279	1616
437.352	935
437.425	668
437.498	739
437.570	1658
437.643	1166
437.716	1094
437.789	840
437.861	1745
437.934	807
438.007	1305
438.080	1058
438.152	905
438.225	818
438.298	1965
438.370	2982
438.443	2638
438.516	1307
438.588	1022
438.661	378
438.734	1579
438.806	817
438.879	1677
438.951	1170
439.024	1117
439.096	899
439.169	551
439.241	1144
439.314	399
439.386	584
439.459	1321
439.531	1467
439.604	707
439.676	897
439.749	484
439.821	731
439.893	1381
439.966	941
440.038	666
440.110	1190
440.183	1222
440.255	896
440.327	1932
440.400	1679
440.472	2197
440.544	1573
440.617	1642
440.689	2378
440.761	2265
440.833	1983
440.905	1870
440.978	1693
441.050	1279
441.122	2268
441.194	1363
441.266	948
441.338	1061
441.411	1946
441.483	2178
441.555	2151
441.627	2749
441.699	2673
441.771	2757
441.843	2706
441.915	2942
441.987	2923
442.059	3823
442.131	5127
442.203	6917
442.275	8241
442.347	14802
442.419	35933
442.491	113910
442.563	197730
442.635	98434
442.706	30744
442.778	14928
442.850	9343
442.922	8377
442.994	8331
443.066	9382
443.137	11982
443.209	16897
443.281	26847
443.353	53450
443.425	136555
443.496	284097
443.568	286570
443.640	150537
443.711	54817
443.783	25532
443.855	15858
443.926	11905
443.998	8954
444.070	7203
444.141	6504
444.213	6455
444.285	5474
444.356	5886
444.428	5487
444.499	4503
444.571	5461
444.642	5723
444.714	6423
444.785	6994
444.857	7769
444.928	9426
445.000	11644
445.071	14704
445.143	18274
445.214	29476
445.285	48212
445.357	101370
445.428	228099
445.500	333608
445.571	291530
445.642	215809
445.714	100589
445.785	42035
445.856	21931
445.928	14904
445.999	11592
446.070	9591
446.141	7453
446.213	6346
446.284	4502
446.355	4279
446.426	4052
446.497	3661
446.569	3078
446.640	2691
446.711	3118
446.782	3078
446.853	2178
446.924	2096
446.995	1779
447.066	2908
447.138	1518
447.209	1924
447.280	1399
447.351	1383
447.422	678
447.493	1133
447.564	1123
447.635	1280
447.706	873
447.777	1346
447.847	437
447.918	1312
447.989	1322
448.060	1067
448.131	1313
448.202	303
448.273	1191
448.344	1136
448.414	779
448.485	1718
448.556	933
448.627	1050
448.698	1286
448.768	841
448.839	177
448.910	429
448.981	792
449.051	1578
449.122	1166
449.193	1212
449.263	808
449.334	889
449.405	1289
449.475	1081
449.546	1494
449.616	2294
449.687	2261
449.758	1739
449.828	1220
449.899	1005
449.969	922
450.040	2051
450.110	-175
450.181	1421
450.251	194
450.322	1000
450.392	1259
450.463	1519
450.533	2049
450.604	1519
450.674	1493
450.744	2178
450.815	2206
450.885	2685
450.955	2497
451.026	2795
451.096	1883
451.166	2443
451.237	3294
451.307	4239
451.377	3630
451.447	2114
451.518	1959
451.588	2003
451.658	1128
451.728	1773
451.799	1185
451.869	2615
451.939	1204
452.009	2223
452.079	1853
452.149	2112
452.219	1898
452.289	2905
452.360	2595
452.430	3308
452.500	5405
452.570	8959
452.640	19598
452.710	42102
452.780	50267
452.850	35244
452.920	20209
452.990	12636
453.060	8568
453.129	5861
453.199	4156
453.269	4478
453.339	3808
453.409	3163
453.479	2857
453.549	3146
453.619	2804
453.688	2080
453.758	2325
453.828	648
453.898	973
453.968	786
454.037	1866
454.087	1620
454.107	1460
454.168	888
454.177	725
454.247	1139
454.249	1219
454.316	1442
454.330	1487
454.386	1373
454.411	1489
454.456	1434
454.492	1357
454.525	1177
454.574	2393
454.595	2877
454.655	2370
454.665	2165
454.734	2652
454.736	2730
454.804	2322
454.817	2549
454.873	3075
454.898	2900
454.943	2381
454.979	2453
455.013	2377
455.060	2728
455.082	2874
455.141	3203
455.152	3307
455.221	5057
455.222	5203
455.291	9316
455.303	11110
455.360	15437
455.384	18469
455.430	18113
455.465	13745
455.499	11206
455.546	6975
455.569	5431
455.627	4586
455.638	4360
455.707	3884
455.708	3958
455.777	4011
455.789	4191
455.846	4817
455.869	4866
455.916	4624
455.950	4719
455.985	4635
456.031	4573
456.054	4574
456.112	5004
456.124	4989
456.193	5348
456.193	5269
456.262	5856
456.274	5995
456.332	6457
456.355	6633
456.401	6674
456.436	6896
456.470	6959
456.516	6981
456.540	6858
456.597	7554
456.609	7644
456.678	8155
456.678	8074
456.747	8321
456.759	8336
456.817	8361
456.840	8699
456.886	9199
456.920	9860
456.955	10198
457.001	10723
457.024	10863
457.082	11244
457.093	11262
457.162	11911
457.163	12015
457.232	13131
457.243	13484
457.301	14538
457.324	14960
457.370	16421
457.405	18259
457.439	19961
457.485	22265
457.508	24093
457.566	30118
457.577	32564
457.646	49180
457.647	49657
457.715	110902
457.727	123659
457.784	216572
457.808	265288
457.853	310519
457.889	349596
457.922	320758
457.969	253299
457.991	272467
458.050	326634
458.060	341492
458.129	497765
458.130	503485
458.198	446110
458.211	424994
458.267	278848
458.292	207734
458.336	170803
458.372	154895
458.405	195008
458.453	267935
458.474	329822
458.533	531067
458.543	543123
458.611	690238
458.614	696294
458.680	459130
458.694	396468
458.749	238376
458.775	168962
458.818	117168
458.855	87174
458.887	73668
458.936	57790
458.955	53537
459.016	43476
459.024	42545
459.093	37134
459.097	36918
459.162	31065
459.177	30181
459.230	28934
459.257	28196
459.299	26861
459.338	26171
459.368	25744
459.418	24688
459.437	24315
459.499	23785
459.505	23602
459.574	22184
459.579	22133
459.643	21583
459.659	21449
459.711	21230
459.740	21441
459.780	21665
459.820	21752
459.849	21700
459.900	22212
459.917	22123
459.981	21631
459.986	21592
460.054	21538
460.061	21542
460.123	21861
460.141	22121
460.191	22869
460.222	23298
460.260	24267
460.302	25463
460.328	26711
460.382	29740
460.397	31748
460.462	40518
460.465	42540
460.534	91330
460.543	97840
460.602	243144
460.623	296123
460.671	433518
460.703	538861
460.739	443098
460.783	311427
460.808	249341
460.864	70974
460.876	61813
460.944	32669
460.945	32446
461.013	26693
461.024	25854
461.081	23434
461.104	22834
461.150	22111
461.184	21560
461.218	22130
461.264	22776
461.286	22169
461.345	20656
461.355	20544
461.423	20100
461.425	20090
461.491	18897
461.505	18811
461.559	19735
461.585	19838
461.628	19605
461.665	19564
461.696	19607
461.745	20320
461.764	20209
461.825	18996
461.832	19014
461.901	19635
461.905	19657
461.969	18951
461.985	18902
462.037	19507
462.065	19614
462.105	19444
462.145	19405
462.173	19587
462.225	19663
462.241	19751
462.305	20444
462.310	20547
462.378	22372
462.385	22541
462.446	22513
462.465	22505
462.514	21962
462.545	21465
462.582	20411
462.625	19156
462.650	19096
462.705	19015
462.718	19046
462.785	19145
462.786	19149
462.854	18754
462.865	18698
462.922	18977
462.945	19156
462.990	19452
463.025	19474
463.058	19465
463.104	19635
463.126	19676
463.184	19500
463.194	19546
463.262	19789
463.264	19795
463.330	19796
463.344	19724
463.398	20246
463.424	20348
463.466	19646
463.504	19285
463.533	19883
463.583	20507
463.601	20394
463.663	20053
463.669	20035
463.737	19616
463.743	19586
463.805	20853
463.823	21088
463.873	21369
463.903	21523
463.940	21397
463.982	21268
464.008	20777
464.062	19504
464.076	19715
464.142	20889
464.144	20891
464.211	19840
464.221	19665
464.279	20671
464.301	20968
464.347	20944
464.381	20988
464.414	20517
464.461	19874
464.482	20239
464.540	20945
464.550	20929
464.617	20479
464.620	20446
464.685	21343
464.699	21469
464.753	21406
464.779	21308
464.820	21909
464.859	22378
464.888	21975
464.938	21322
464.956	21867
465.018	23491
465.023	23437
465.091	22329
465.098	22197
465.158	22616
465.177	22624
465.226	22264
465.257	22014
465.293	21904
465.336	21720
465.361	21804
465.416	21750
465.428	21894
465.495	22701
465.496	22743
465.563	22797
465.575	22827
465.631	24072
465.654	24513
465.698	23663
465.734	22875
465.765	23245
465.813	23577
465.833	23088
465.893	21573
465.900	21785
465.968	23226
465.972	23280
466.035	23183
466.052	23133
466.102	22955
466.131	22690
466.170	23331
466.210	23993
466.237	24053
466.290	24036
466.304	24089
466.369	23981
466.372	24048
466.439	24635
466.449	24665
466.506	24046
466.528	23747
466.573	25039
466.607	25925
466.641	26740
466.687	27725
466.708	28271
466.766	29554
466.775	29342
466.842	27276
466.845	27121
466.909	27405
466.925	27398
466.977	28736
467.004	29340
467.044	29285
467.083	29111
467.111	29681
467.163	30569
467.178	30978
467.242	32340
467.245	32428
467.312	32770
467.321	32744
467.379	33334
467.400	33441
467.446	35341
467.480	36580
467.559	36911
467.638	37286
467.717	40081
467.796	44858
467.875	47773
467.955	51678
468.034	58515
468.113	71010
468.192	84790
468.271	104323
468.350	132822
468.429	161956
468.508	158922
468.588	110564
468.667	77064
468.746	61531
468.825	52329
468.904	46820
468.983	42869
469.062	40625
469.141	40307
469.220	35279
469.299	34197
469.378	33761
469.456	34734
469.535	32467
469.614	31566
469.693	31085
469.772	33852
469.851	33357
469.930	32861
470.009	32308
470.088	34117
470.166	37694
470.245	43498
470.324	46542
470.403	43919
470.482	38995
470.560	35402
470.639	33202
470.718	32269
470.797	31124
470.875	30764
470.954	29200
471.033	29945
471.111	28822
471.190	29150
471.269	29594
471.347	28862
471.426	28609
471.505	28408
471.583	29993
471.662	30107
471.740	28958
471.819	29621
471.898	29035
471.976	30349
472.055	33677
472.133	54824
472.212	79701
472.290	38265
472.369	27107
472.447	28277
472.526	27012
472.604	29555
472.683	28813
472.761	28982
472.839	29088
472.918	29505
472.996	29649
473.075	29547
473.153	31155
473.231	30771
473.310	31035
473.388	31003
473.466	31738
473.545	31551
473.623	31832
473.701	32356
473.780	33572
473.858	31042
473.936	33362
474.014	36217
474.093	55475
474.171	78413
474.249	44437
474.327	32801
474.405	32334
474.484	33601
474.562	31589
474.640	31607
474.718	29995
474.796	30074
474.874	30740
474.952	29135
475.030	28188
475.108	28947
475.187	29019
475.265	28687
475.343	29461
475.421	30539
475.499	29635
475.577	29455
475.655	29252
475.733	28942
475.811	28953
475.889	27784
475.966	27366
476.044	26291
476.122	26093
476.200	27815
476.278	26470
476.356	25734
476.434	26208
476.512	25336
476.590	27587
476.667	26953
476.745	26448
476.823	26590
476.901	25822
476.979	25552
477.056	25604
477.134	25203
477.212	24840
477.290	26133
477.367	25993
477.445	26528
477.523	25104
477.601	25119
477.678	25100
477.756	25267
477.834	25419
477.911	26884
477.989	25567
478.066	26872
478.144	27569
478.222	29265
478.299	39367
478.377	61190
478.454	53708
478.532	26360
478.609	25933
478.687	25807
478.764	26970
478.842	27198
478.919	25678
478.997	25602
479.074	25642
479.152	25569
479.229	27451
479.307	25299
479.384	25430
479.461	26576
479.539	26764
479.616	26891
479.694	25780
479.771	25910
479.848	26375
479.926	26867
480.003	29083
480.080	27750
480.157	28397
480.235	30470
480.312	29411
480.389	31946
480.467	32718
480.544	35160
480.621	37339
480.698	37203
480.775	38138
480.853	37756
480.930	38085
481.007	47142
481.084	102643
481.161	190086
481.238	81869
481.315	34962
481.392	35062
481.470	36401
481.547	36536
481.624	37464
481.701	37561
481.778	38970
481.855	41586
481.932	45224
482.009	49449
482.086	52202
482.163	56166
482.240	62330
482.317	61031
482.393	56648
482.470	54544
482.547	52518
482.624	51224
482.701	51275
482.778	51045
482.855	51828
482.932	54385
483.009	61242
483.085	92942
483.162	151049
483.239	119894
483.316	71717
483.393	66592
483.469	60193
483.546	53618
483.623	50840
483.699	46805
483.776	44035
483.853	43604
483.930	42046
484.006	43245
484.083	48007
484.160	47854
484.236	50638
484.313	51016
484.389	56004
484.466	65063
484.543	75539
484.619	85650
484.696	82764
484.772	60868
484.849	48395
484.925	44044
485.002	43156
485.078	38993
485.155	37290
485.231	35369
485.308	35047
485.384	37960
485.461	43922
485.537	43536
485.614	36494
485.690	32612
485.766	31160
485.843	31838
485.919	31838
485.995	31611
486.072	32929
486.148	31669
486.224	31982
486.301	32384
486.377	33632
486.453	33315
486.530	36382
486.606	40184
486.682	40265
486.758	46262
486.835	60557
486.911	63029
486.987	60681
487.063	68498
487.139	108626
487.215	172103
487.292	135853
487.368	126826
487.444	167475
487.520	257052
487.596	425687
487.672	736373
487.748	1721110
487.824	2315154
487.900	1287055
487.976	512703
488.052	265880
488.128	168431
488.204	117891
488.280	92742
488.356	77389
488.432	67436
488.508	60736
488.584	52824
488.660	49890
488.736	45771
488.812	40134
488.888	40498
488.964	40302
489.039	40892
489.115	49635
489.191	61823
489.267	48172
489.343	36004
489.418	32839
489.494	32868
489.570	31580
489.646	33321
489.722	31884
489.797	33915
489.873	34495
489.949	36588
490.024	35563
490.100	32181
490.176	33381
490.251	32863
490.327	32899
490.403	31115
490.478	30655
490.554	32060
490.629	30968
490.705	31242
490.781	30918
490.856	30159
490.932	29215
491.007	28567
491.083	26501
491.158	27982
491.234	27399
491.309	28352
491.385	25837
491.460	24493
491.536	25407
491.611	23706
491.686	25341
491.762	24538
491.837	24568
491.913	25278
491.988	26631
492.063	24848
492.139	24835
492.214	23417
492.289	23080
492.365	21835
492.440	23005
492.515	22249
492.590	22856
492.666	21831
492.741	23387
492.816	23697
492.891	23853
492.967	25023
493.042	25578
493.117	25662
493.192	29094
493.267	44237
493.342	117361
493.418	131353
493.493	29501
493.568	23443
493.643	22116
493.718	20950
493.793	20778
493.868	21960
493.943	21577
494.018	21308
494.093	21017
494.168	21115
494.243	19552
494.318	21498
494.393	20723
494.468	19991
494.543	20195
494.618	20340
494.693	19710
494.768	21019
494.842	20656
494.917	19833
494.992	20052
495.067	20783
495.142	20447
495.217	20258
495.292	19474
495.366	19991
495.441	19442
495.516	21420
495.591	22378
495.665	26836
495.740	30108
495.815	24776
495.890	24883
495.964	25617
496.039	38493
496.114	79185
496.188	172546
496.263	94401
496.338	29312
496.412	23744
496.487	23999
496.561	22487
496.636	23882
496.710	33829
496.785	43249
496.860	24510
496.934	20880
497.009	20680
497.083	21389
497.158	21340
497.232	21420
497.307	20404
497.381	20401
497.455	20844
497.530	21500
497.604	20761
497.679	19598
497.753	19660
497.827	19370
497.902	19618
497.976	21938
498.050	25566
498.125	45577
498.199	38475
498.273	21431
498.348	20926
498.422	20767
498.496	20698
498.570	21754
498.645	19917
498.719	18024
498.793	21160
498.867	21213
498.941	20733
499.016	29188
499.090	43814
499.164	26789
499.238	21652
499.312	21231
499.386	22614
499.460	22434
499.534	22786
499.609	24311
499.683	22532
499.757	22942
499.831	24273
499.905	35744
499.979	31277
500.053	21627
500.127	21911
500.201	21345
500.275	21686
500.349	22555
500.422	22056
500.496	23085
500.570	24721
500.644	33943
500.718	37955
500.792	25035
500.866	24094
500.940	24448
501.013	24157
501.087	23585
501.161	25479
501.235	24698
501.309	32506
501.382	37023
501.456	31636
501.530	26047
501.603	25061
501.677	23403
501.751	22181
501.825	25193
501.898	24269
501.972	27583
502.046	24703
502.119	22696
502.193	24484
502.266	25236
502.340	23598
502.413	24591
502.487	27111
502.561	24732
502.634	24350
502.708	24732
502.781	25059
502.855	27706
502.928	26073
503.002	28275
503.075	27492
503.149	28600
503.222	31090
503.295	32148
503.369	35594
503.442	41721
503.516	49580
503.589	62459
503.662	71076
503.736	87120
503.809	115195
503.882	153170
503.956	239726
504.029	453736
504.102	1005555
504.175	1299860
504.249	685389
504.322	328490
504.395	187449
504.468	124571
504.542	89219
504.615	69061
504.688	56508
504.761	46272
504.834	43067
504.907	37483
504.980	33752
505.053	31536
505.127	26646
505.200	28752
505.273	24477
505.346	24195
505.419	22438
505.492	25633
505.565	22336
505.638	22360
505.711	20851
505.784	18332
505.857	17593
505.930	20256
506.003	16386
506.076	19573
506.149	16949
506.221	15573
506.294	18489
506.367	17204
506.440	22378
506.513	18810
506.586	15690
506.659	15104
506.731	15863
506.804	15081
506.877	15031
506.950	16260
507.022	16746
507.095	13747
507.168	14199
507.241	16031
507.313	13248
507.386	14137
507.459	15493
507.531	13856
507.604	13740
507.677	15719
507.749	13015
507.822	15446
507.894	14710
507.967	15646
508.040	13899
508.112	15724
508.185	15372
508.257	12863
508.330	15639
508.402	14138
508.475	13985
508.547	14706
508.620	13665
508.692	14965
508.765	14371
508.837	13326
508.909	14231
508.982	14019
509.054	14378
509.127	13559
509.199	13615
509.271	12547
509.344	13115
509.416	14387
509.488	13365
509.560	12910
509.633	13291
509.705	13617
509.777	14066
509.849	13831
509.922	11951
509.994	13117
510.066	14208
510.138	11862
510.210	16795
510.283	14349
510.355	13833
510.427	14150
510.499	13720
510.571	13625
510.643	12802
510.715	15775
510.787	11240
510.859	14790
510.931	14082
511.003	14517
511.076	14532
511.148	12666
511.219	12978
511.291	14525
511.363	14392
511.435	13327
511.507	13090
511.579	14436
511.651	15387
511.723	14236
511.795	13512
511.867	13166
511.939	13687
512.010	13284
512.082	14467
512.154	13151
512.226	14308
512.298	16540
512.369	14983
512.441	15219
512.513	14905
512.585	13244
512.656	15432
512.728	13673
512.800	13801
512.871	15930
512.943	14010
513.015	13112
513.086	14867
513.158	14513
513.230	13212
513.301	14319
513.373	15828
513.444	15086
513.516	14611
513.588	14755
513.659	15827
513.731	14183
513.802	13586
513.874	15978
513.945	16358
514.016	13728
514.088	15655
514.159	13584
514.231	16081
514.302	15109
514.374	15449
514.445	14069
514.516	18435
514.588	15394
514.659	15465
514.730	16286
514.802	16410
514.873	13299
514.944	17109
515.016	16525
515.087	15380
515.158	16958
515.229	18941
515.301	16929
515.372	19187
515.443	17300
515.514	19711
515.585	23293
515.656	25481
515.728	21537
515.799	18571
515.870	21133
515.941	21851
516.012	20481
516.083	21670
516.154	20628
516.225	22876
516.296	26098
516.367	26064
516.438	27993
516.509	34867
516.580	49274
516.651	130255
516.722	365656
516.793	128758
516.864	44952
516.935	43605
517.006	51184
517.077	62480
517.148	132311
517.219	545643
517.289	703223
517.360	113856
517.431	48161
517.502	37686
517.573	37113
517.643	36115
517.714	37178
517.785	41647
517.856	48707
517.926	58770
517.997	66750
518.068	80117
518.138	101671
518.209	152600
518.280	435604
518.350	1193123
518.421	484484
518.492	201055
518.562	226447
518.633	303144
518.703	472185
518.774	897721
518.845	1607067
518.915	1345889
518.986	577373
519.056	291231
519.127	182822
519.197	131722
519.268	100657
519.338	79750
519.408	63569
519.479	53282
519.549	45730
519.620	43200
519.690	38940
519.760	35098
519.831	31968
519.901	29709
519.971	29569
520.042	28545
520.112	27038
520.182	26498
520.253	25189
520.323	23214
520.393	22251
520.463	25172
520.534	20713
520.604	25269
520.674	23456
520.744	23781
520.814	23709
520.885	24154
520.955	23390
521.025	27005
521.095	21739
521.165	22471
521.235	20187
521.305	20666
521.375	21957
521.445	22413
521.515	21982
521.585	23375
521.655	19932
521.725	22091
521.795	22025
521.865	18132
521.935	22068
522.005	20909
522.075	22064
522.145	26558
522.215	32665
522.285	28286
522.355	24507
522.424	27482
522.494	34074
522.564	28794
522.634	22658
522.704	24453
522.774	22549
522.843	25447
522.913	33943
522.983	28888
523.053	23429
523.122	23730
523.192	21206
523.262	23191
523.331	21931
523.401	23134
523.471	23330
523.540	23362
523.610	23557
523.680	26946
523.749	31331
523.819	47184
523.888	46470
523.958	30027
524.027	26939
524.097	26177
524.166	24599
524.236	25023
524.305	28006
524.375	24489
524.444	25163
524.514	29593
524.583	27021
524.653	27141
524.722	29189
524.791	27226
524.861	30798
524.930	29180
524.999	29596
525.069	32657
525.138	32398
525.207	34558
525.277	40486
525.346	43343
525.415	47823
525.484	56732
525.554	67422
525.623	96655
525.692	139587
525.761	131770
525.830	151694
525.900	203056
525.969	332647
526.038	625883
526.107	1179472
526.176	2319482
526.245	1788599
526.314	810825
526.383	1512471
526.452	1758381
526.522	2106512
526.591	1737842
526.660	562299
526.729	337856
526.797	349322
526.867	513021
526.935	1196740
527.004	2414253
527.073	1704446
527.142	529420
527.211	232336
527.280	149358
527.349	108146
527.418	81817
527.487	68534
527.555	56459
527.624	50294
527.693	45831
527.762	45279
527.831	40868
527.899	38393
527.968	34710
528.037	31133
528.106	32593
528.174	29029
528.243	30275
528.312	28482
528.380	28818
528.449	27529
528.518	30390
528.586	26354
528.655	29100
528.723	26187
528.792	27032
528.861	26791
528.929	26539
528.998	31403
529.066	42425
529.135	60454
529.203	55109
529.272	75829
529.340	84938
529.409	76193
529.477	69937
529.545	68972
529.614	74904
529.682	89492
529.751	92130
529.819	99220
529.887	115119
529.956	102641
530.024	97052
530.092	89917
530.161	89963
530.229	94218
530.297	104826
530.365	99058
530.434	111624
530.502	108590
530.570	95604
530.638	84818
530.707	81098
530.775	78101
530.843	83908
530.911	93719
530.979	92220
531.047	106829
531.115	98619
531.183	89506
531.252	84546
531.320	82917
531.388	81487
531.456	95962
531.524	98922
531.592	106183
531.660	115850
531.728	104081
531.796	98925
531.864	98354
531.932	95926
532.000	96869
532.067	109714
532.135	111809
532.203	119676
532.271	125740
532.339	117298
532.407	113188
532.475	110671
532.542	108164
532.610	107554
532.678	116333
532.746	121503
532.814	126945
532.881	125269
532.949	120087
533.017	113085
533.084	108399
533.152	105406
533.220	102498
533.287	107224
533.355	109333
533.423	113313
533.490	115459
533.558	109528
533.625	106022
533.693	100659
533.761	99869
533.828	97317
533.896	99153
533.963	108097
534.031	109215
534.098	119934
534.166	118801
534.233	113377
534.300	116476
534.368	114150
534.435	115779
534.503	120880
534.570	134587
534.637	147477
534.705	167946
534.772	203725
534.840	375396
534.907	1231023
534.974	1168000
535.041	241513
535.109	136350
535.176	111524
535.243	107990
535.310	104473
535.378	98713
535.445	93654
535.512	90537
535.579	87387
535.646	83311
535.714	85562
535.781	87165
535.848	89523
535.915	86367
535.982	86096
536.049	83216
536.116	81892
536.183	75241
536.250	73646
536.317	72786
536.384	74957
536.451	76910
536.518	78669
536.585	77508
536.652	81840
536.719	78144
536.786	72599
536.853	71852
536.920	72800
536.987	70547
537.053	68298
537.120	72452
537.187	74835
537.254	77213
537.321	77952
537.388	76546
537.454	71219
537.521	71496
537.588	69011
537.654	69964
537.721	72180
537.788	71265
537.855	69842
537.921	71413
537.988	69683
538.055	65796
538.121	61012
538.188	59912
538.254	59117
538.321	58031
538.388	63064
538.454	69255
538.521	68728
538.587	69615
538.654	67744
538.720	65304
538.787	64890
538.853	64070
538.920	61108
538.986	56505
539.053	56403
539.119	59610
539.185	58720
539.252	62489
539.318	64004
539.385	69744
539.451	63086
539.517	62177
539.583	60729
539.650	58838
539.716	57689
539.782	56590
539.849	56678
539.915	58255
539.981	57627
540.047	56424
540.114	57541
540.180	60373
540.246	60507
540.312	63197
540.378	60726
540.444	60400
540.510	59551
540.576	59837
540.643	55955
540.709	55651
540.775	57658
540.841	56017
540.907	54033
540.973	55302
541.039	55019
541.105	55973
541.171	59796
541.237	59680
541.303	58606
541.369	60097
541.435	60521
541.500	56559
541.566	52044
541.632	53483
541.698	55049
541.764	57389
541.830	54715
541.896	53682
541.961	54150
542.027	53608
542.093	60295
542.159	59655
542.224	52911
542.290	56707
542.356	53836
542.421	53969
542.487	50750
542.553	50259
542.618	52344
542.684	52046
542.750	52769
542.815	54726
542.881	52869
542.947	57320
543.012	55715
543.078	51453
543.143	51462
543.209	52324
543.274	49412
543.340	51596
543.405	52227
543.471	54564
543.536	54219
543.602	55584
543.667	52463
543.732	54297
543.798	53625
543.863	56163
543.928	53489
543.994	53526
544.059	55039
544.124	56803
544.190	56958
544.255	58337
544.320	58179
544.386	57010
544.451	59307
544.516	57291
544.581	58226
544.646	60268
544.712	59643
544.777	60895
544.842	58791
544.907	58987
544.972	61625
545.037	69034
545.102	74345
545.168	65907
545.233	66619
545.298	65601
545.363	64854
545.428	69728
545.493	68816
545.558	67733
545.623	68914
545.688	69587
545.753	73074
545.818	75133
545.883	80234
545.947	81257
546.012	84694
546.077	84632
546.142	91064
546.207	93188
546.272	97179
546.337	99079
546.401	103756
546.466	108374
546.531	111276
546.596	119927
546.661	124967
546.725	132825
546.790	140375
546.855	151736
546.919	167731
546.984	184546
547.049	198248
547.113	224264
547.178	247665
547.243	277798
547.307	321775
547.372	347158
547.436	346949
547.501	367735
547.565	387483
547.630	352913
547.695	347447
547.759	349570
547.823	355512
547.888	362612
547.952	373923
548.017	406498
548.081	460611
548.146	399800
548.210	398364
548.274	428140
548.339	410268
548.403	376686
548.468	357906
548.532	359148
548.596	370625
548.660	369559
548.725	398759
548.789	425634
548.853	405959
548.917	394013
548.982	375595
549.046	342133
549.110	316426
549.174	331608
549.238	387641
549.303	413550
549.367	422413
549.431	398939
549.495	379047
549.559	384296
549.623	445266
549.687	465986
549.751	464282
549.815	548351
549.879	542702
549.943	529517
550.007	553381
550.071	538830
550.135	486221
550.199	471414
550.263	465884
550.327	446459
550.391	489061
550.455	529647
550.519	532453
550.582	564356
550.646	631070
550.710	634547
550.774	633111
550.838	647343
550.901	680265
550.965	725450
551.029	773413
551.093	840914
551.156	928866
551.220	1013004
551.284	1005832
551.347	814908
551.411	702524
551.475	658403
551.538	664456
551.602	609090
551.666	580876
551.729	547809
551.793	533353
551.856	520098
551.920	514242
551.983	509764
552.047	505885
552.110	515947
552.174	533009
552.237	522352
552.301	475766
552.364	461658
552.428	450484
552.491	469478
552.554	470536
552.618	468610
552.681	473826
552.745	458595
552.808	480960
552.871	504564
552.934	490576
552.998	469019
553.061	458597
553.124	442270
553.187	443123
553.251	456545
553.314	453197
553.377	464122
553.440	506225
553.503	566420
553.567	562011
553.630	484148
553.693	473111
553.756	473110
553.819	459932
553.882	442519
553.945	452192
554.008	458261
554.071	458148
554.134	451450
554.197	421708
554.260	418093
554.323	423827
554.386	433196
554.449	449659
554.512	445629
554.575	429880
554.638	424619
554.701	425463
554.764	416800
554.827	403892
554.889	389740
554.952	365519
555.015	364896
555.078	371961
555.141	374086
555.203	363648
555.266	364263
555.329	359996
555.391	346430
555.454	344111
555.517	333773
555.580	328645
555.642	316188
555.705	309643
555.768	306901
555.830	296024
555.893	280491
555.955	273226
556.018	271699
556.080	274504
556.143	283443
556.206	276979
556.268	267198
556.330	264503
556.393	256051
556.455	252211
556.518	247844
556.580	239786
556.643	229781
556.705	229206
556.767	223685
556.830	222388
556.892	216326
556.955	216497
557.017	209224
557.079	207832
557.142	206395
557.204	206134
557.266	209295
557.328	192015
557.391	179832
557.453	175701
557.515	178268
557.577	180854
557.639	184143
557.701	188060
557.764	189633
557.826	195081
557.888	207178
557.950	219157
558.012	252543
558.074	348914
558.136	764280
558.198	1322040
558.260	488855
558.322	251140
558.384	239653
558.446	250112
558.508	272193
558.570	309948
558.632	371380
558.694	501410
558.756	843101
558.818	1726944
558.880	2291203
558.942	1515944
559.003	1509709
559.065	726514
559.127	372492
559.189	342938
559.251	383615
559.312	554406
559.374	1139144
559.436	2010735
559.498	1156752
559.559	449208
559.621	354470
559.683	400044
559.744	637129
559.806	1457861
559.868	1588325
559.929	563035
559.991	406859
560.052	651087
560.114	1361117
560.176	841710
560.237	944629
560.299	1125399
560.360	294224
560.422	148086
560.483	119729
560.545	105571
560.606	99714
560.667	93128
560.729	87592
560.790	82845
560.852	80969
560.913	77345
560.974	74637
561.036	73400
561.097	74156
561.158	70231
561.220	70339
561.281	66980
561.342	65799
561.403	65385
561.465	63132
561.526	63265
561.587	62979
561.648	60313
561.709	59863
561.771	58995
561.832	57721
561.893	56175
561.954	56525
562.015	54421
562.076	54014
562.137	52389
562.198	53362
562.259	54033
562.320	53087
562.381	53011
562.442	52916
562.503	50754
562.564	50546
562.625	50248
562.686	49865
562.747	50292
562.808	48841
562.869	47478
562.930	47533
562.991	45645
563.051	46379
563.112	46856
563.173	45537
563.234	45682
563.294	44999
563.355	44166
563.416	43240
563.477	44424
563.537	42372
563.598	42367
563.659	43397
563.720	42161
563.780	42660
563.841	43449
563.901	43242
563.962	41192
564.023	39492
564.083	40878
564.144	41594
564.204	39571
564.265	39008
564.325	41176
564.386	40594
564.446	38313
564.507	37881
564.567	37947
564.628	37598
564.688	37945
564.749	37821
564.809	37837
564.869	37279
564.930	37783
564.990	37692
565.050	36287
565.111	37252
565.171	37810
565.231	37218
565.292	38710
565.352	36792
565.412	36526
565.472	36641
565.532	37017
565.593	35823
565.653	35984
565.713	36716
565.773	36347
565.833	38396
565.893	37789
565.953	35124
566.013	34528
566.074	33949
566.134	33529
566.194	32411
566.254	33498
566.314	33612
566.374	33844
566.434	33780
566.494	34986
566.554	33510
566.614	34332
566.673	35991
566.733	36188
566.793	36356
566.853	37119
566.913	35230
566.973	35385
567.033	37350
567.092	34906
567.152	36253
567.212	36219
567.272	36978
567.331	37670
567.391	37795
567.451	39291
567.511	39642
567.570	37861
567.630	37944
567.690	36227
567.749	36307
567.809	35796
567.868	36103
567.928	35652
567.988	37178
568.047	36992
568.107	36579
568.166	35818
568.226	36499
568.285	37939
568.345	37256
568.404	37132
568.464	36569
568.523	36355
568.582	37287
568.642	36487
568.701	34789
568.761	32541
568.820	34599
568.879	34904
568.939	36320
568.998	36605
569.057	35973
569.116	36236
569.176	36999
569.235	35623
569.294	35907
569.353	35311
569.413	34506
569.472	33658
569.531	34494
569.590	33256
569.649	34899
569.708	33859
569.767	34599
569.827	34487
569.886	33488
569.945	33454
570.004	35083
570.063	34296
570.122	35809
570.181	36925
570.240	36746
570.299	37390
570.358	37262
570.417	37386
570.475	37751
570.534	38210
570.593	36136
570.652	37920
570.711	37964
570.770	36703
570.829	37034
570.887	37792
570.946	39214
571.005	36773
571.064	38560
571.122	38404
571.181	37598
571.240	37393
571.299	35799
571.357	35220
571.416	35552
571.475	36508
571.533	39121
571.592	41997
571.650	41270
571.709	44180
571.768	48964
571.826	50914
571.885	47917
571.943	41579
572.002	38975
572.060	37343
572.119	36327
572.177	35760
572.236	36794
572.294	37475
572.352	40621
572.411	39874
572.469	38204
572.528	35779
572.586	35488
572.644	36162
572.703	36184
572.761	33573
572.819	32710
572.877	32551
572.936	31949
572.994	31665
573.052	32852
573.110	35534
573.169	37016
573.227	36661
573.285	35934
573.343	35608
573.401	35517
573.459	36387
573.517	37842
573.576	40324
573.634	40924
573.692	40104
573.750	39602
573.808	38406
573.866	36583
573.924	35412
573.982	35202
574.040	34757
574.098	35755
574.155	35993
574.213	35405
574.271	37323
574.329	41404
574.387	38809
574.445	34460
574.503	34509
574.560	32471
574.618	32656
574.676	33993
574.734	33285
574.792	32627
574.849	30489
574.907	27922
574.965	26616
575.022	27641
575.080	25756
575.138	26924
575.195	26336
575.253	25265
575.311	25990
575.368	26224
575.426	24945
575.483	26975
575.541	28286
575.598	28174
575.656	27602
575.713	28278
575.771	31113
575.828	30011
575.886	27612
575.943	27529
576.001	24662
576.058	25126
576.115	25156
576.173	26698
576.230	27515
576.287	27805
576.345	27312
576.402	28251
576.459	29729
576.517	27132
576.574	25810
576.631	25993
576.688	24502
576.746	24652
576.803	24324
576.860	22918
576.917	24619
576.974	24731
577.031	24707
577.089	24280
577.146	23486
577.203	22531
577.260	23445
577.317	23083
577.374	21939
577.431	23061
577.488	22543
577.545	22730
577.602	23586
577.659	23491
577.716	23440
577.773	25433
577.830	23413
577.886	22457
577.943	21916
578.000	22763
578.057	23267
578.114	24357
578.171	23301
578.227	23784
578.284	22875
578.341	23364
578.398	23559
578.454	23983
578.511	23641
578.568	23376
578.625	24014
578.681	23285
578.738	24434
578.794	23834
578.851	25013
578.908	24131
578.964	23956
579.021	25058
579.077	23518
579.134	24696
579.190	24849
579.247	24253
579.303	24082
579.360	24560
579.416	24590
579.473	24640
579.529	24524
579.586	25618
579.642	25351
579.698	25873
579.755	26069
579.811	27174
579.867	25869
579.924	26353
579.980	26682
580.036	27471
580.093	27916
580.149	29566
580.205	29052
580.261	29518
580.317	30141
580.374	31523
580.430	30235
580.486	31512
580.542	30600
580.598	31278
580.619	31087
580.654	30797
580.692	30784
580.710	30844
580.765	31333
580.767	31392
580.823	31756
580.838	32107
580.879	33197
580.911	33001
580.935	32924
580.984	32459
580.991	32447
581.047	32522
581.057	32502
581.103	32612
581.130	32781
581.159	33037
581.203	32098
581.215	31896
581.270	31770
581.276	31573
581.326	30067
581.349	31043
581.382	32590
581.422	31907
581.438	31672
581.494	32153
581.494	32107
581.550	30420
581.567	30850
581.606	31863
581.640	32212
581.661	32462
581.713	34560
581.717	34762
581.773	32688
581.786	32727
581.829	32858
581.859	32363
581.885	32111
581.932	34209
581.940	34586
581.996	34923
582.004	34789
582.052	34320
582.077	34082
582.107	33816
582.150	34801
582.163	35140
582.219	34229
582.223	34218
582.274	34208
582.296	34391
582.330	34855
582.368	35285
582.386	35495
582.441	36905
582.441	36924
582.497	36788
582.514	36783
582.552	36833
582.587	37621
582.608	38122
582.659	37859
582.663	37842
582.719	39534
582.732	39427
582.774	39385
582.805	39784
582.830	40048
582.877	41251
582.885	41504
582.941	43624
582.950	44307
582.996	47622
583.023	50116
583.052	53012
583.095	51661
583.107	51211
583.162	47429
583.168	47133
583.218	44277
583.240	43307
583.273	41962
583.313	41067
583.328	40889
583.384	40120
583.385	40057
583.439	37492
583.458	37824
583.494	38805
583.531	36948
583.549	35971
583.603	36487
583.605	36495
583.660	35675
583.676	35716
583.715	35852
583.748	35522
583.770	35329
583.820	35372
583.825	35338
583.881	35996
583.893	35564
583.936	34321
583.965	34478
583.991	34426
584.038	35316
584.046	35538
584.101	36296
584.110	36355
584.156	36260
584.183	36298
584.211	36345
584.255	36644
584.266	36747
584.321	38053
584.328	38142
584.376	38341
584.400	38562
584.431	38942
584.472	38676
584.486	38537
584.541	41045
584.545	41142
584.596	42368
584.617	42285
584.651	42183
584.689	43466
584.706	43925
584.761	44988
584.762	45032
584.816	46702
584.834	47419
584.871	48505
584.906	49555
584.926	50150
584.978	53653
584.980	53747
585.035	57449
585.051	58764
585.090	62530
585.123	66615
585.145	69085
585.195	74890
585.200	75458
585.254	86403
585.267	89705
585.309	100103
585.340	109660
585.364	117619
585.412	137409
585.419	140356
585.473	176102
585.484	187254
585.528	239688
585.556	295628
585.583	368603
585.628	560708
585.637	610682
585.692	1060285
585.700	1115440
585.747	1304220
585.772	1133784
585.801	841058
585.845	438395
585.856	362324
585.910	196730
585.917	185140
585.965	131277
585.989	115731
586.019	100265
586.061	86692
586.074	82776
586.128	71762
586.133	71149
586.183	64347
586.205	62278
586.237	59522
586.277	56726
586.292	55545
586.346	52747
586.349	52693
586.401	50743
586.421	50301
586.455	49183
586.493	48230
586.509	48068
586.564	48084
586.565	48203
586.618	50868
586.637	52583
586.672	57317
586.709	64207
586.727	66935
586.781	72570
586.781	72463
586.835	59383
586.853	55933
586.889	49624
586.925	45277
586.944	43623
586.996	41665
586.998	41547
587.052	39900
587.068	39752
587.106	39872
587.140	39380
587.161	38679
587.212	39163
587.215	39145
587.269	38682
587.284	38928
587.323	39106
587.356	39278
587.377	39574
587.427	40197
587.431	40156
587.485	40225
587.499	40464
587.539	41025
587.571	41502
587.593	41815
587.643	43927
587.648	44017
587.702	44118
587.715	44340
587.755	43925
587.786	43339
587.810	43199
587.858	43237
587.864	43165
587.917	43967
587.930	44080
587.971	43507
588.001	43188
588.025	42918
588.073	42210
588.079	42109
588.133	42268
588.145	42471
588.187	42362
588.217	42478
588.241	42640
588.288	43089
588.295	43135
588.348	44861
588.360	45123
588.402	45144
588.431	45289
588.456	44907
588.503	45259
588.510	45440
588.564	48790
588.575	49419
588.617	50979
588.646	52450
588.671	53585
588.718	57234
588.725	57857
588.778	66476
588.789	69248
588.832	89340
588.861	109317
588.886	144969
588.932	241492
588.939	250866
588.993	305689
589.004	291864
589.047	142364
589.075	79266
589.100	62743
589.147	50720
589.154	50007
589.207	47000
589.218	46603
589.261	47923
589.290	49674
589.314	50182
589.361	52847
589.368	53803
589.421	66073
589.433	69874
589.475	101660
589.504	132581
589.528	166527
589.576	242708
589.582	238413
589.635	114204
589.647	95139
589.689	59763
589.718	45549
589.742	43957
589.790	41323
589.795	41242
589.849	41580
589.861	41886
589.902	41163
589.932	40606
589.955	40106
590.004	40015
590.009	39919
590.062	39155
590.075	39135
590.115	39003
590.146	39234
590.168	38832
590.218	37931
590.222	37904
590.275	39688
590.289	40136
590.328	40535
590.360	40865
590.381	41040
590.431	41800
590.435	41668
590.488	41396
590.503	41451
590.541	42020
590.574	42603
590.594	42724
590.645	43703
590.647	43669
590.700	45843
590.716	46539
590.753	47072
590.787	47970
590.806	48220
590.859	49472
590.859	49348
590.912	49077
590.930	49207
590.965	49267
591.001	49567
591.018	49308
591.071	48883
591.072	49013
591.124	47960
591.143	47913
591.177	47821
591.214	48137
591.230	48499
591.283	49966
591.285	50151
591.336	48582
591.356	48101
591.389	47729
591.427	47576
591.442	47365
591.495	47079
591.498	47209
591.547	47113
591.569	47239
591.600	48035
591.640	49438
591.653	49192
591.706	48799
591.711	48910
591.759	50014
591.782	50837
591.811	51593
591.853	53072
591.864	53073
591.917	53767
591.924	54012
591.969	53623
591.995	53707
592.022	53359
592.066	53262
592.075	53416
592.127	55475
592.137	56016
592.180	55737
592.208	55840
592.233	55939
592.279	56608
592.285	56623
592.338	58413
592.350	58988
592.390	58457
592.421	58411
592.443	58894
592.491	60602
592.495	60458
592.548	61191
592.562	61598
592.600	60243
592.633	59459
592.653	59263
592.704	59009
592.705	59377
592.775	61327
592.846	63249
592.916	63380
592.987	65106
593.058	65885
593.128	67712
593.199	66289
593.270	67951
593.341	68669
593.411	72248
593.482	73025
593.553	75882
593.623	76952
593.694	80159
593.764	81210
593.835	80802
593.906	80928
593.976	84823
594.047	85632
594.117	91074
594.188	90214
594.258	91097
594.329	91354
594.399	93589
594.470	96616
594.540	101311
594.611	102185
594.681	100908
594.751	101876
594.822	104918
594.892	110494
594.963	113067
595.033	115313
595.103	119369
595.174	120479
595.244	122484
595.314	126317
595.384	130730
595.455	133444
595.525	138939
595.595	143987
595.665	141042
595.736	139870
595.806	144729
595.876	143319
595.946	146839
596.016	151254
596.087	156439
596.157	155937
596.227	159442
596.297	168412
596.367	177267
596.437	186797
596.507	185243
596.577	184174
596.647	191013
596.717	201001
596.787	205763
596.857	202139
596.927	207451
596.997	207521
597.067	210208
597.137	213970
597.207	214232
597.277	215050
597.347	205776
597.417	203070
597.487	201455
597.557	206448
597.626	212758
597.696	214167
597.766	212724
597.836	201518
597.906	191498
597.975	189380
598.045	192307
598.115	201202
598.185	217712
598.254	239383
598.324	256221
598.394	259395
598.464	254172
598.533	246537
598.603	233279
598.672	228914
598.742	235137
598.812	234575
598.881	242448
598.951	239635
599.020	246417
599.090	252027
599.159	256952
599.229	247907
599.299	245254
599.368	253201
599.437	248357
599.507	230687
599.576	225839
599.646	222231
599.715	221128
599.785	220171
599.854	215193
599.924	212918
599.993	212371
600.062	216927
600.132	224548
600.201	237717
600.270	267014
600.340	282293
600.409	276104
600.478	274149
600.547	280640
600.617	254612
600.686	216239
600.755	200183
600.824	193359
600.894	192060
600.963	194352
601.032	193360
601.101	189182
601.170	182819
601.239	179937
601.308	181121
601.378	185012
601.447	186351
601.516	189292
601.585	192629
601.654	195828
601.723	196117
601.792	203013
601.861	210024
601.930	217257
601.999	220254
602.068	220981
602.137	220887
602.206	224780
602.275	228308
602.343	229905
602.412	230120
602.481	233809
602.550	233598
602.619	240266
602.688	241026
602.756	245025
602.825	243186
602.894	251533
602.963	251005
603.032	255485
603.100	255246
603.169	255645
603.238	259910
603.307	254982
603.375	259257
603.444	263958
603.513	259484
603.581	268041
603.650	273183
603.719	253010
603.787	256788
603.856	263048
603.924	268467
603.993	276867
604.061	285780
604.130	294770
604.198	298868
604.267	307055
604.335	310775
604.404	314915
604.472	320287
604.541	320809
604.609	326430
604.678	330156
604.746	332192
604.815	345892
604.883	340867
604.951	340620
605.020	345419
605.088	343020
605.156	341134
605.225	347612
605.293	345848
605.361	348259
605.429	348386
605.498	358085
605.566	359893
605.634	374803
605.702	384312
605.771	394997
605.839	393168
605.907	382869
605.975	377861
606.043	366700
606.111	367492
606.180	374461
606.248	359906
606.316	358150
606.384	362932
606.452	345596
606.520	343652
606.588	353513
606.656	356377
606.724	347165
606.792	328647
606.860	300409
606.928	278237
606.996	267377
607.064	263723
607.132	270799
607.200	286302
607.267	295862
607.335	301772
607.403	304801
607.471	293967
607.539	288818
607.607	289224
607.674	256130
607.742	256353
607.810	254428
607.878	255018
607.946	261848
608.013	273431
608.081	276061
608.149	278674
608.216	290809
608.284	296683
608.352	296578
608.419	291533
608.487	285770
608.555	281003
608.622	291780
608.690	308530
608.757	337069
608.825	340388
608.893	332339
608.960	311366
609.028	303964
609.095	302022
609.163	299465
609.230	268620
609.298	250654
609.365	263859
609.432	282029
609.500	307076
609.567	349399
609.635	391213
609.702	407226
609.769	381557
609.837	303996
609.904	270687
609.971	284659
610.039	312330
610.106	389291
610.173	642809
610.241	1127165
610.308	718129
610.375	362837
610.442	304718
610.509	285428
610.577	284300
610.644	287053
610.711	295827
610.778	299902
610.845	313979
610.912	330365
610.980	342449
611.047	340740
611.114	334369
611.181	324902
611.248	325939
611.315	343771
611.382	350938
611.449	362926
611.516	365749
611.583	362438
611.650	364269
611.717	371134
611.784	377695
611.851	393502
611.918	416541
611.984	472617
612.051	604730
612.118	966613
612.185	1546240
612.252	1149586
612.319	598261
612.386	493048
612.452	443108
612.519	418129
612.586	402713
612.653	413895
612.719	423424
612.786	405794
612.853	381837
612.919	372849
612.986	377855
613.053	359700
613.120	337406
613.186	331099
613.253	332858
613.319	332137
613.386	334310
613.453	338960
613.519	335953
613.586	330758
613.652	334342
613.719	332574
613.785	337255
613.852	342546
613.918	336963
613.985	344656
614.051	356418
614.118	351431
614.184	339652
614.250	339015
614.317	344875
614.383	342165
614.449	346676
614.516	342967
614.582	347596
614.648	339044
614.715	338663
614.781	328003
614.847	332240
614.914	328484
614.980	320941
615.046	323980
615.112	331697
615.179	333255
615.245	336576
615.311	333130
615.377	337074
615.443	343053
615.509	348385
615.575	361122
615.642	357947
615.708	365795
615.774	381145
615.840	402625
615.906	425022
615.972	497772
616.038	676868
616.104	1109898
616.170	1666334
616.236	1422831
616.302	804383
616.368	648075
616.434	493167
616.500	450420
616.565	495276
616.631	590588
616.697	508725
616.763	519581
616.829	722122
616.895	1111450
616.961	1024554
617.026	568712
617.092	410487
617.158	373886
617.224	356502
617.289	326810
617.355	314008
617.421	308859
617.487	305688
617.552	292756
617.618	290740
617.684	288967
617.749	290264
617.815	276830
617.880	273913
617.946	274787
618.012	278334
618.077	280947
618.143	270990
618.208	275863
618.274	292743
618.339	292468
618.405	244026
618.470	248204
618.536	246439
618.601	241364
618.667	225951
618.732	215795
618.798	213325
618.863	214079
618.928	210955
618.994	214802
619.059	212340
619.124	213715
619.190	210267
619.255	210500
619.320	211375
619.386	214655
619.451	209809
619.516	203992
619.581	208602
619.647	215415
619.712	213191
619.777	205240
619.842	207016
619.907	209613
619.972	212484
620.038	211350
620.103	205324
620.168	206490
620.233	209334
620.298	211560
620.363	214923
620.428	218699
620.493	224470
620.558	226478
620.623	229180
620.688	227118
620.753	225101
620.818	231908
620.883	231204
620.948	229655
621.013	226236
621.078	225986
621.143	228238
621.207	232022
621.272	226310
621.337	218932
621.402	218601
621.467	214472
621.532	215948
621.596	218238
621.661	210481
621.726	209214
621.791	212888
621.855	212513
621.920	209499
621.985	213111
622.049	217530
622.114	219172
622.179	220226
622.243	226356
622.308	231813
622.373	239964
622.437	233825
622.502	220172
622.566	220036
622.631	218734
622.695	223259
622.760	222732
622.824	222668
622.889	223948
622.953	223015
623.018	235643
623.082	236724
623.147	236916
623.211	230625
623.276	230882
623.340	220956
623.404	218559
623.469	217538
623.533	219631
623.597	215700
623.662	215158
623.726	198956
623.790	190888
623.854	184124
623.919	191051
623.983	190781
624.047	193647
624.111	195766
624.176	198362
624.240	200079
624.304	206695
624.368	197384
624.432	199575
624.496	204367
624.560	211699
624.625	211767
624.689	213570
624.753	221263
624.817	210358
624.881	204377
624.945	187481
625.009	183814
625.073	186280
625.137	190548
625.201	198654
625.265	199261
625.329	192969
625.393	194624
625.456	197453
625.520	200610
625.584	202913
625.648	207819
625.712	212839
625.776	209107
625.839	197618
625.903	170527
625.967	161711
626.031	173329
626.095	200649
626.158	181813
626.222	148439
626.286	140596
626.349	135436
626.413	128063
626.477	129749
626.540	128264
626.604	126702
626.668	125752
626.731	124569
626.795	124123
626.858	123926
626.922	120964
626.986	120341
627.049	120783
627.113	126421
627.176	122211
627.240	119163
627.303	117871
627.366	116874
627.430	118794
627.493	116552
627.557	114939
627.620	118726
627.684	121978
627.747	123787
627.810	111681
627.874	102543
627.937	97569
628.000	103359
628.064	97246
628.127	88199
628.190	88500
628.253	86100
628.317	81426
628.380	78346
628.443	75662
628.506	75927
628.569	72497
628.632	70288
628.696	70647
628.759	69273
628.822	64862
628.885	64785
628.948	63216
629.011	63054
629.074	60899
629.137	58540
629.200	55816
629.263	57589
629.326	54783
629.389	56342
629.452	55762
629.515	55988
629.578	54430
629.641	56634
629.704	54376
629.767	53328
629.830	53537
629.892	52641
629.955	50914
630.018	55262
630.081	50355
630.144	51966
630.207	49655
630.269	51996
630.332	48170
630.395	49002
630.458	47139
630.520	45226
630.583	47071
630.646	48524
630.708	48418
630.771	49672
630.834	52514
630.896	50621
630.959	50239
631.021	49628
631.084	49265
631.146	50288
631.209	50288
631.272	50809
631.334	51835
631.397	52823
631.459	52745
631.522	57118
631.584	57334
631.646	61481
631.709	62677
631.771	63605
631.834	60804
631.896	58614
631.958	52884
632.021	53035
632.083	48229
632.145	48901
632.208	47363
632.270	47877
632.332	47002
632.395	47624
632.457	46659
632.519	45831
632.581	45869
632.643	45744
632.706	46788
632.768	43917
632.830	46325
632.892	47889
632.954	46604
633.016	47758
633.078	46428
633.141	47427
633.203	45612
633.265	46311
633.327	45988
633.389	46645
633.451	47852
633.513	46617
633.575	49467
633.637	48404
633.698	50128
633.760	53355
633.822	54617
633.884	55983
633.946	56898
634.008	59617
634.070	61528
634.132	67280
634.193	72750
634.255	79363
634.317	79182
634.379	77585
634.441	68194
634.502	63517
634.564	57487
634.626	53565
634.687	50100
634.749	48133
634.811	48316
634.873	46899
634.934	47085
634.996	47920
635.057	47052
635.119	47764
635.181	49142
635.242	50017
635.304	48806
635.365	51660
635.427	48356
635.488	49458
635.550	50058
635.611	50265
635.673	49969
635.734	55385
635.796	57318
635.857	65083
635.918	68055
635.980	77325
636.041	80282
636.102	86018
636.164	84558
636.225	83019
636.286	69387
636.348	64300
636.409	56710
636.470	53923
636.531	50927
636.593	48857
636.654	45309
636.715	44276
636.776	44552
636.838	42560
636.899	41903
636.960	42117
637.021	40530
637.082	38271
637.143	38404
637.204	37608
637.265	37851
637.326	40681
637.387	40620
637.448	37499
637.509	38636
637.570	40237
637.631	38732
637.692	35690
637.753	35080
637.814	36610
637.875	34668
637.936	37123
637.997	35265
638.058	36165
638.119	35556
638.179	35315
638.240	34230
638.301	36121
638.362	33507
638.423	32284
638.483	34946
638.544	32608
638.605	34653
638.666	34323
638.726	34205
638.787	35376
638.848	33634
638.908	32537
638.969	31278
639.030	31554
639.090	29832
639.151	30580
639.211	32335
639.272	33143
639.332	33550
639.393	34265
639.453	36844
639.514	38442
639.574	32280
639.635	29683
639.695	29789
639.756	29538
639.816	28760
639.877	30415
639.937	30316
639.997	30123
640.058	27968
640.118	29787
640.178	30486
640.239	30432
640.299	29311
640.359	30874
640.420	33492
640.480	39072
640.540	43942
640.600	44221
640.661	41133
640.721	40304
640.781	51982
640.841	52742
640.901	34480
640.961	32191
641.021	33370
641.082	35644
641.142	31034
641.202	30480
641.262	26507
641.322	29433
641.382	26886
641.442	28801
641.502	27728
641.562	29732
641.622	30707
641.682	32944
641.742	37469
641.802	35311
641.861	30093
641.921	27219
641.981	27386
642.041	26172
642.101	26008
642.161	25047
642.221	25881
642.280	26179
642.340	26441
642.400	26052
642.460	27734
642.519	28066
642.579	28294
642.639	27821
642.698	25559
642.758	31618
642.818	29096
642.877	27606
642.937	28397
642.997	29506
643.056	28464
643.116	27692
643.175	31250
643.235	29666
643.294	31058
643.354	32965
643.414	35400
643.473	41409
643.532	49018
643.592	63567
643.651	95273
643.711	153463
643.770	282450
643.830	607381
643.889	885399
643.948	307839
644.008	100164
644.067	60636
644.126	46620
644.186	39573
644.245	34792
644.304	32042
644.363	33487
644.423	29367
644.482	30873
644.541	32798
644.600	34089
644.659	40823
644.719	52511
644.778	74691
644.837	124460
644.896	246521
644.955	454733
645.014	152035
645.073	52504
645.132	39844
645.191	36397
645.250	34713
645.309	37056
645.368	41791
645.427	54984
645.486	95881
645.545	143725
645.604	45688
645.663	31603
645.722	32203
645.781	34342
645.840	37427
645.898	45011
645.957	60802
646.016	88302
646.075	146426
646.134	270096
646.192	618462
646.251	685649
646.310	178155
646.369	72934
646.427	59043
646.486	41903
646.545	34525
646.603	31095
646.662	29260
646.721	28448
646.779	28867
646.838	29689
646.896	37376
646.955	49125
647.014	75836
647.072	146793
647.131	340150
647.189	144443
647.248	35622
647.306	27794
647.365	24797
647.423	20831
647.481	23302
647.540	19714
647.598	21009
647.657	20157
647.715	21266
647.773	19329
647.832	20487
647.890	16365
647.948	19075
648.007	18698
648.065	17246
648.123	16750
648.181	18044
648.240	17815
648.298	16605
648.356	16360
648.414	17395
648.472	16654
648.531	16829
648.589	15659
648.647	16354
648.705	16106
648.763	17290
648.821	17776
648.879	17948
648.937	20182
648.995	23726
649.053	30423
649.111	44590
649.169	69520
649.227	123656
649.285	251064
649.343	558097
649.401	250442
649.459	55096
649.516	32484
649.574	26715
649.632	28317
649.690	31592
649.748	36906
649.806	55687
649.863	101689
649.921	261294
649.979	145598
650.037	29043
650.094	17137
650.152	17768
650.210	15405
650.268	17626
650.325	21344
650.383	26890
650.440	14225
650.498	12667
650.556	12151
650.613	11385
650.671	12403
650.728	13234
650.786	13756
650.843	20547
650.901	13678
650.958	11568
651.016	10086
651.073	10214
651.131	10088
651.188	8570
651.246	9802
651.303	10160
651.360	9208
651.418	9980
651.475	9263
651.532	8553
651.590	9027
651.647	8917
651.704	9450
651.762	9465
651.819	8140
651.876	8382
651.933	8027
651.990	9819
652.048	7930
652.105	8208
652.162	8423
652.219	8470
652.276	7960
652.333	8028
652.390	5859
652.448	7970
652.505	7851
652.562	8086
652.619	7445
652.676	8282
652.733	9448
652.790	7793
652.847	6476
652.904	8644
652.961	5858
653.017	6024
653.074	7728
653.131	7756
653.188	6651
653.245	7715
653.302	7077
653.359	7011
653.415	7163
653.472	7558
653.529	7323
653.586	5357
653.642	7446
653.699	7584
653.756	5704
653.813	7927
653.869	8394
653.926	7763
653.983	6477
654.039	8168
654.096	7175
654.152	7914
654.209	5514
654.266	7964
654.322	5893
654.379	7194
654.435	6220
654.492	7365
654.548	6160
654.605	7864
654.661	9485
654.717	7227
654.774	7565
654.830	7582
654.887	7637
654.943	8951
655.000	12908
655.056	9691
655.112	7031
655.168	6355
655.225	7337
655.281	7674
655.337	6425
655.394	6415
655.450	6353
655.506	6943
655.562	5256
655.618	7492
655.675	5373
655.731	6418
655.787	6235
655.843	6730
655.899	5695
655.955	7225
656.011	6242
656.067	6809
656.123	6581
656.179	6716
656.235	7545
656.291	5654
656.347	7407
656.403	6687
656.459	5835
656.515	7171
656.571	6533
656.627	6790
656.683	5752
656.739	6446
656.795	5894
656.850	5755
656.906	6169
656.962	7274
657.018	6544
657.074	10413
657.129	12636
657.185	21910
657.241	47151
657.297	22956
657.352	7369
657.408	6310
657.464	7085
657.519	5863
657.575	4204
657.630	5270
657.686	5638
657.742	5942
657.797	4831
657.853	6407
657.908	5602
657.964	5293
658.019	6071
658.075	7185
658.130	6166
658.186	4626
658.241	6646
658.297	5210
658.352	5163
658.407	5570
658.463	4207
658.518	6054
658.573	4986
658.629	5681
658.684	5306
658.739	6408
658.795	5217
658.850	5457
658.905	4400
658.960	6010
659.016	4364
659.071	5225
659.126	4687
659.181	5394
659.236	6333
659.291	5727
659.346	5058
659.401	5671
659.457	5746
659.512	5694
659.567	6048
659.622	4800
659.677	5012
659.732	5013
659.787	5363
659.842	4676
659.897	4853
659.952	5690
660.007	5399
660.061	6167
660.116	4213
660.171	5359
660.226	5484
660.281	6027
660.336	4454
660.391	5708
660.445	4203
660.500	5830
660.555	4583
660.610	4700
660.664	4558
660.719	5346
660.774	5046
660.828	5670
660.883	4489
660.938	4261
660.992	3494
661.047	5644
661.101	4429
661.156	5251
661.211	3342
661.265	4680
661.320	3362
661.374	5286
661.429	4670
661.483	5478
661.538	5300
661.592	5726
661.647	8111
661.701	12526
661.755	6826
661.810	5897
661.864	4413
661.919	5299
661.973	5191
662.027	5214
662.081	3182
662.136	4561
662.190	5547
662.244	4773
662.299	3625
662.353	5807
662.407	4377
662.461	4029
662.515	4402
662.569	3924
662.624	4613
662.678	4396
662.732	4609
662.786	4974
662.840	3964
662.894	5144
662.948	4689
663.002	5012
663.056	4750
663.110	4383
663.164	4951
663.218	4903
663.272	4572
663.326	4714
663.380	4712
663.434	4815
663.488	3369
663.542	5390
663.595	3869
663.649	5018
663.703	3710
663.757	5947
663.811	3821
663.864	4696
663.918	4172
663.972	4459
664.026	4411
664.079	4847
664.133	5334
664.187	5272
664.240	4027
664.294	6158
664.348	6336
664.401	5609
664.455	4516
664.508	4807
664.562	4164
664.615	5505
664.669	3968
664.722	4638
664.776	3957
664.829	4711
664.883	3933
664.936	4190
664.990	4486
665.043	5478
665.097	4370
665.150	5666
665.203	4172
665.257	4851
665.310	4858
665.363	5267
665.417	5359
665.470	5958
665.523	5107
665.576	5606
665.630	4183
665.683	6003
665.736	5852
665.789	6067
665.842	4042
665.895	5034
665.949	5245
666.002	5897
666.055	4788
666.108	6131
666.161	5016
666.214	5807
666.267	5293
666.320	6112
666.373	5613
666.426	6631
666.479	5601
666.532	6481
666.585	5967
666.638	6128
666.691	4831
666.744	5487
666.796	5762
666.849	4614
666.902	6033
666.955	5454
667.008	4752
667.060	6020
667.113	5111
667.166	6169
667.219	6201
667.271	5732
667.324	5148
667.377	5977
667.430	5049
667.482	5694
667.535	4827
667.587	5710
667.640	5366
667.693	5638
667.745	5305
667.798	5917
667.850	4769
667.903	6206
667.955	5775
668.008	6593
668.060	5087
668.113	5156
668.165	5115
668.218	5869
668.270	4942
668.322	5295
668.375	5290
668.427	5857
668.479	4784
668.532	5534
668.584	5156
668.636	5436
668.689	5437
668.741	5641
668.793	4749
668.845	5405
668.898	5078
668.950	5259
669.002	4928
669.054	5439
669.106	4721
669.158	5636
669.211	4764
669.263	4713
669.315	4843
669.367	5226
669.419	4485
669.471	5126
669.523	4476
669.575	5877
669.627	4658
669.679	4450
669.731	4510
669.783	5118
669.835	4302
669.886	4793
669.938	4416
669.990	4410
670.042	4464
670.094	4332
670.146	4562
670.197	5169
670.249	6347
670.301	5002
670.353	4980
670.404	6924
670.456	7122
670.508	10220
670.560	14379
670.611	22113
670.663	36209
670.715	88614
670.766	124731
670.818	37066
670.869	10032
670.921	9686
670.972	7883
671.024	6353
671.075	6201
671.127	6872
671.178	6202
671.230	8310
671.281	7739
671.333	9457
671.384	10748
671.436	14734
671.487	21554
671.538	30343
671.590	45649
671.641	76770
671.692	136752
671.744	232373
671.795	172506
671.846	79935
671.897	41505
671.949	26537
672.000	17683
672.051	13931
672.102	11854
672.153	9407
672.204	8296
672.256	8165
672.307	6442
672.358	6323
672.409	6026
672.460	5261
672.511	4727
672.562	4915
672.613	3706
672.664	4465
672.715	4894
672.766	4632
672.817	3400
672.868	3966
672.919	3815
672.970	3957
673.021	3115
673.071	3631
673.122	3751
673.173	3466
673.224	3640
673.275	3048
673.326	3536
673.376	3129
673.427	2900
673.478	4561
673.528	3446
673.579	4075
673.630	3511
673.680	4195
673.731	2866
673.782	3912
673.832	3206
673.883	3498
673.934	3058
673.984	3626
674.035	3254
674.085	3579
674.136	3662
674.186	5146
674.237	3211
674.287	4527
674.338	3192
674.388	4243
674.438	3723
674.489	5085
674.539	4467
674.589	4903
674.640	4126
674.690	4351
674.740	4311
674.791	4229
674.841	3536
674.891	3265
674.942	2920
674.992	3982
675.042	3273
675.092	2180
675.142	2461
675.193	3057
675.243	2353
675.293	3600
675.343	2503
675.393	2883
675.443	3371
675.493	3920
675.543	2829
675.593	3407
675.643	2441
675.693	3332
675.743	3412
675.793	2962
675.843	1637
675.893	2979
675.943	2748
675.993	2910
676.043	1516
676.093	3596
676.142	2701
676.192	3018
676.242	1962
676.292	3074
676.341	1830
676.391	2839
676.441	2193
676.491	2518
676.540	1600
676.590	2329
676.640	1277
676.689	2018
676.739	1356
676.789	2953
676.838	1222
676.888	2237
676.937	1832
676.987	2893
677.037	2419
677.086	1659
677.136	1380
677.185	2548
677.235	2736
677.284	2606
677.333	1427
677.383	2083
677.432	1451
677.482	2743
677.531	1658
677.580	2146
677.630	1836
677.679	1724
677.728	1612
677.778	2810
677.827	1038
677.876	2616
677.925	1491
677.975	2987
678.024	2252
678.073	2881
678.122	2711
678.171	3433
678.220	2936
678.269	4281
678.319	4460
678.368	5476
678.417	2880
678.466	3933
678.515	1766
678.564	2168
678.613	1554
678.662	2259
678.711	1898
678.760	2370
678.809	1505
678.857	2480
678.906	2369
678.955	2882
679.004	3212
679.053	5471
679.102	4059
679.151	2654
679.199	2315
679.248	1579
679.297	1768
679.346	1634
679.394	800
679.443	2032
679.492	1588
679.540	2241
679.589	1545
679.638	2254
679.686	2126
679.735	3465
679.784	3467
679.832	3894
679.881	3295
679.929	3266
679.978	1194
680.026	2169
680.075	2341
680.123	1844
680.172	432
680.220	2320
680.268	2161
680.317	1498
680.365	603
680.414	843
680.462	1284
680.510	1986
680.559	1011
680.607	1373
680.655	996
680.703	1542
680.752	940
680.800	1704
680.848	1052
680.896	1386
680.945	1029
680.993	1335
681.041	1001
681.089	1150
681.137	742
681.185	1378
681.233	1830
681.258	1696
681.281	1538
681.329	1174
681.377	1399
681.380	1448
681.425	1771
681.473	2522
681.502	2415
681.521	2281
681.569	2732
681.617	2122
681.624	2151
681.665	2087
681.713	2424
681.745	2620
681.761	2672
681.809	2807
681.857	3230
681.867	3154
681.904	2757
681.952	2937
681.989	2798
682.000	2715
682.048	2975
682.096	2275
682.111	2594
682.143	3180
682.191	2678
682.233	3133
682.239	3174
682.286	2773
682.334	2638
682.354	2860
682.382	3065
682.430	3876
682.476	2620
682.477	2567
682.525	3475
682.572	2911
682.598	3348
682.620	3646
682.667	2693
682.715	3641
682.720	3693
682.763	3913
682.810	3979
682.841	3451
682.857	3136
682.905	3414
682.952	3277
682.963	3565
683.000	4485
683.047	2547
683.085	4066
683.095	4451
683.142	3579
683.190	4361
683.206	4147
683.237	3649
683.284	4922
683.328	4277
683.332	4201
683.379	4522
683.426	3065
683.449	4152
683.473	5274
683.521	4261
683.568	4722
683.571	4733
683.615	4384
683.662	4359
683.693	3744
683.709	3388
683.757	4142
683.804	4324
683.814	4331
683.851	4332
683.898	4452
683.936	4546
683.945	4546
683.992	3999
684.039	4880
684.057	4874
684.086	4778
684.133	5696
684.179	4278
684.180	4214
684.227	4869
684.274	4502
684.300	5002
684.321	5397
684.368	4213
684.415	5816
684.422	5648
684.462	4567
684.509	4457
684.543	4772
684.556	4866
684.603	6094
684.649	4854
684.665	5013
684.696	5281
684.743	5408
684.786	6341
684.790	6395
684.837	4829
684.883	5578
684.908	5285
684.930	5071
684.977	6183
685.023	6083
685.029	6155
685.070	6512
685.117	5596
685.150	6153
685.164	6336
685.210	5862
685.257	6784
685.272	6628
685.303	6310
685.350	6641
685.393	6220
685.396	6155
685.443	5988
685.490	5886
685.514	6180
685.536	6580
685.583	5695
685.629	6603
685.636	6476
685.675	5581
685.722	6358
685.757	5947
685.768	5799
685.815	6000
685.861	6316
685.878	6557
685.908	7036
685.954	6309
686.000	6901
686.000	6904
686.047	6910
686.093	7494
686.121	7387
686.139	7221
686.185	7449
686.232	7180
686.242	7231
686.278	7350
686.324	7018
686.363	7644
686.370	7787
686.416	7067
686.463	7912
686.484	7906
686.509	7782
686.555	7644
686.601	7474
686.606	7508
686.647	7704
686.693	7378
686.727	7295
686.739	7315
686.785	7337
686.831	7934
686.848	7788
686.877	7488
686.923	8162
686.969	7135
686.969	7129
687.015	8289
687.061	8046
687.090	8976
687.107	9360
687.153	8940
687.199	8830
687.211	8689
687.245	8349
687.291	9264
687.332	8478
687.336	8428
687.382	9210
687.428	9070
687.453	9315
687.474	9607
687.520	10306
687.565	11229
687.574	11305
687.611	13099
687.657	16361
687.695	18301
687.702	19068
687.748	26393
687.794	33380
687.816	34899
687.839	30804
687.885	22278
687.931	16301
687.937	15289
687.976	13226
688.022	11377
688.058	9793
688.067	9757
688.113	10063
688.158	9298
688.179	9446
688.204	9796
688.249	9364
688.295	9772
688.300	9802
688.340	9988
688.386	9988
688.421	9576
688.431	9451
688.477	9479
688.522	9808
688.542	10059
688.567	10645
688.613	10574
688.658	11501
688.663	11478
688.703	10749
688.749	10728
688.784	10358
688.794	10355
688.839	10613
688.884	10935
688.905	10873
688.930	10638
688.975	10511
689.020	10266
689.026	10206
689.065	10773
689.110	12373
689.146	12819
689.155	12905
689.201	14261
689.246	14568
689.267	14740
689.291	13844
689.336	12196
689.381	11291
689.388	10934
689.426	10469
689.471	10985
689.509	10750
689.516	10707
689.561	11044
689.606	10826
689.630	10793
689.651	10775
689.696	10242
689.741	11153
689.750	11069
689.785	10907
689.830	10859
689.871	10532
689.875	10507
689.920	11130
689.965	11140
689.992	11168
690.010	11152
690.054	10709
690.099	10951
690.112	10829
690.144	10730
690.189	10771
690.233	10350
690.233	10363
690.278	10707
690.323	10620
690.354	11098
690.367	11285
690.412	10954
690.457	10703
690.474	10644
690.501	10579
690.546	11498
690.590	10680
690.595	10666
690.635	10645
690.680	10374
690.716	10531
690.724	10616
690.769	10326
690.813	10885
690.836	10453
690.857	10312
690.902	11258
690.946	11661
690.957	11796
690.991	12403
691.035	12787
691.077	13851
691.080	13878
691.124	12955
691.168	12808
691.198	12210
691.213	11996
691.257	12252
691.301	11586
691.318	11635
691.346	11931
691.390	11467
691.434	11502
691.439	11456
691.478	11138
691.522	11363
691.559	11091
691.567	11108
691.611	11734
691.655	11696
691.680	11904
691.699	12143
691.743	11899
691.787	12343
691.800	12319
691.831	12209
691.875	12732
691.919	12701
691.921	12680
691.964	12546
692.008	12401
692.041	12212
692.052	12242
692.096	11954
692.139	12059
692.162	12132
692.183	12049
692.227	12030
692.271	11218
692.282	11238
692.315	11731
692.359	11897
692.402	11911
692.403	11934
692.447	11951
692.490	12096
692.523	11836
692.534	11749
692.578	12367
692.622	12028
692.643	11931
692.666	11932
692.709	11984
692.753	12292
692.763	12261
692.797	12205
692.840	12243
692.884	12290
692.884	12318
692.928	12206
692.971	12562
693.004	12851
693.015	12858
693.059	12331
693.102	12396
693.124	12116
693.146	12076
693.189	12489
693.233	12116
693.245	12194
693.276	12565
693.320	12519
693.363	12713
693.365	12686
693.407	12818
693.450	13390
693.485	13446
693.493	13423
693.537	13447
693.580	13048
693.605	13109
693.624	13309
693.667	13465
693.710	13617
693.725	13564
693.753	14238
693.797	15826
693.840	17107
693.845	17203
693.883	16745
693.926	16055
693.966	15827
693.970	15821
694.013	15034
694.056	14626
694.086	14045
694.099	13922
694.142	13802
694.185	13345
694.206	13107
694.229	12978
694.272	12603
694.315	12703
694.326	12527
694.358	12570
694.401	13321
694.444	13323
694.446	13314
694.487	13540
694.530	13659
694.566	13847
694.573	13901
694.616	13670
694.659	13785
694.686	13787
694.702	13950
694.745	14140
694.787	14217
694.806	14390
694.830	14438
694.873	14154
694.916	14055
694.926	13973
694.959	14377
695.002	14974
695.044	15339
695.046	15334
695.087	15576
695.130	15296
695.166	15290
695.172	15404
695.215	15537
695.258	16028
695.286	16229
695.301	16385
695.343	16764
695.386	17265
695.406	17453
695.428	18270
695.471	19365
695.514	21095
695.526	21492
695.556	22995
695.599	25091
695.641	26640
695.646	26796
695.684	25171
695.726	23015
695.766	21246
695.769	21264
695.811	20545
695.854	20127
695.886	19387
695.896	19519
695.938	20420
695.981	20939
696.005	21337
696.023	22137
696.065	23767
696.108	25512
696.125	26099
696.150	26109
696.192	26199
696.235	26250
696.245	26202
696.277	26572
696.319	26888
696.361	27361
696.365	27312
696.404	26690
696.446	26274
696.485	25561
696.488	25642
696.530	26077
696.572	26346
696.604	26580
696.614	26582
696.656	26115
696.698	25926
696.724	25595
696.740	25732
696.783	26220
696.825	26328
696.844	26473
696.867	26520
696.909	26132
696.951	26079
696.964	25954
696.992	26296
697.034	26796
697.076	27002
697.083	27015
697.118	27890
697.160	28814
697.202	29692
697.203	29642
697.244	29596
697.286	29600
697.323	29367
697.327	29401
697.369	29225
697.411	28864
697.442	28592
697.453	28709
697.494	28890
697.536	29075
697.562	29088
697.578	29177
697.620	29206
697.661	29292
697.682	29274
697.703	30083
697.744	31488
697.786	32990
697.801	33374
697.828	32920
697.869	32231
697.911	31502
697.921	31250
697.952	31299
697.994	31199
698.035	31166
698.040	31078
698.077	31554
698.118	32025
698.160	32509
698.160	32428
698.201	33235
698.243	33930
698.279	34511
698.284	34663
698.325	35234
698.367	35805
698.399	36130
698.408	36301
698.449	36685
698.491	37075
698.518	37238
698.532	37389
698.573	37575
698.614	37742
698.638	37727
698.656	37852
698.697	37955
698.738	38022
698.757	37973
698.779	37998
698.820	37846
698.862	37681
698.877	37525
698.903	37556
698.944	37459
698.985	37349
698.996	37224
699.026	37505
699.067	37759
699.116	37966
699.235	37115
699.354	36916
699.474	34535
699.593	32996
699.713	34074
699.832	34250
699.951	35714
700.070	35182
700.190	32172
700.309	31475
700.428	31155
700.547	30585
700.667	30601
700.786	30468
700.905	28694
701.024	30334
701.143	27997
701.262	31683
701.381	31882
701.500	31802
701.619	29761
701.738	31590
701.857	31427
701.976	28386
702.095	31022
702.214	32236
702.333	30049
702.452	31836
702.571	31619
702.690	31713
702.809	32355
702.928	28728
703.047	27692
703.165	28874
703.284	29073
703.403	27736
703.522	27904
703.640	26022
703.759	25716
703.878	25152
703.997	26627
704.115	27322
704.234	27013
704.353	27199
704.471	24618
704.590	23826
704.708	23933
704.827	24276
704.946	22452
705.064	24865
705.183	23920
705.301	24783
705.420	22128
705.538	23430
705.656	22110
705.775	21134
705.893	26652
706.012	26419
706.130	21387
706.249	22894
706.367	21497
706.485	21701
706.604	22020
706.722	25931
706.840	39126
706.958	88901
707.077	42843
707.195	20890
707.313	21009
707.431	19217
707.549	18889
707.668	17549
707.786	21195
707.904	18356
708.022	20258
708.140	18813
708.258	18498
708.376	20345
708.494	17955
708.612	20306
708.730	20184
708.848	18421
708.966	19709
709.084	18951
709.202	19183
709.320	15849
709.438	18322
709.556	17744
709.674	15369
709.791	17091
709.909	15971
710.027	16251
710.145	15506
710.263	16499
710.380	15751
710.498	15182
710.616	15732
710.733	15253
710.851	14275
710.969	15434
711.086	14737
711.204	15465
711.322	15284
711.439	14881
711.557	13692
711.674	15250
711.792	15149
711.909	14459
712.027	15144
712.144	13896
712.262	14979
712.379	14844
712.497	13864
712.614	14163
712.732	14052
712.849	13145
712.966	15193
713.084	15103
713.201	13036
713.318	15433
713.436	16040
713.553	16915
713.670	19283
713.787	18075
713.905	15629
714.022	17249
714.139	19680
714.256	28457
714.373	47155
714.490	95072
714.608	273021
714.725	970970
714.842	752055
714.959	95277
715.076	39187
715.193	26221
715.310	22723
715.427	16396
715.544	16681
715.661	15776
715.778	14062
715.895	14641
716.011	14504
716.128	14058
716.245	14733
716.362	13668
716.479	10435
716.596	13359
716.713	14922
716.829	12089
716.946	10935
717.063	10267
717.180	9907
717.296	10326
717.413	11464
717.530	10429
717.646	8946
717.763	10125
717.880	10039
717.996	9574
718.113	9287
718.229	9282
718.346	9901
718.462	9641
718.579	10043
718.695	9817
718.812	9705
718.928	9867
719.045	9524
719.161	9801
719.277	10955
719.394	11799
719.510	12021
719.626	14736
719.743	19973
719.859	38088
719.975	92924
720.092	383993
720.208	663409
720.324	77700
720.440	22103
720.557	14505
720.673	14129
720.789	11046
720.905	10504
721.021	10173
721.137	8958
721.253	8859
721.369	8531
721.486	7973
721.602	8182
721.718	8613
721.834	8273
721.950	8812
722.066	8099
722.181	7366
722.297	8225
722.413	8434
722.529	8391
722.645	8627
722.761	8058
722.877	8845
722.993	11029
723.108	18099
723.224	13680
723.340	10126
723.456	8452
723.571	7023
723.687	7153
723.803	7800
723.918	7735
724.034	6814
724.150	7360
724.265	7065
724.381	6389
724.497	5713
724.612	6959
724.728	7328
724.843	6194
724.959	7306
725.074	7148
725.190	7959
725.305	7455
725.421	6821
725.536	7783
725.651	7682
725.767	7900
725.882	7170
725.997	6384
726.113	7350
726.228	7110
726.343	6495
726.459	6487
726.574	7062
726.689	6583
726.804	7031
726.920	6508
727.035	6814
727.150	6021
727.265	6680
727.380	6864
727.495	6718
727.610	6119
727.725	5518
727.841	7120
727.956	9188
728.071	7213
728.186	5486
728.301	5794
728.416	7272
728.531	6539
728.645	5677
728.760	6359
728.875	6974
728.990	5650
729.105	6827
729.220	6229
729.335	6415
729.449	5911
729.564	6542
729.679	6711
729.794	7405
729.908	6189
730.023	6942
730.138	6730
730.253	7057
730.367	6705
730.482	7026
730.596	7736
730.711	10981
730.826	21941
730.940	27714
731.055	11584
731.169	10854
731.284	10958
731.398	11182
731.513	12784
731.627	15047
731.742	18544
731.856	24414
731.970	26577
732.085	37996
732.199	60001
732.313	118227
732.428	315690
732.542	758558
732.656	367984
732.771	83077
732.885	44764
732.999	34707
733.113	32862
733.227	29737
733.342	27150
733.456	25717
733.570	24964
733.684	21804
733.798	21951
733.912	21383
734.026	21589
734.140	21854
734.254	20311
734.368	20355
734.482	20691
734.596	19341
734.710	19390
734.824	18659
734.938	18751
735.052	19508
735.166	17900
735.280	19458
735.393	18253
735.507	17394
735.621	17126
735.735	16754
735.849	18402
735.962	16308
736.076	18012
736.190	16663
736.303	17005
736.417	17232
736.531	15568
736.644	16798
736.758	15913
736.872	16287
736.985	16258
737.099	15259
737.212	15082
737.326	15579
737.439	15779
737.553	13269
737.666	15756
737.780	14114
737.893	15860
738.007	13649
738.120	16021
738.233	13782
738.347	15593
738.460	13537
738.573	16599
738.687	13820
738.800	14614
738.913	15413
739.026	14336
739.140	13558
739.253	14232
739.366	13900
739.479	13479
739.592	14129
739.705	11802
739.818	15566
739.932	12051
740.045	14136
740.158	12976
740.271	14008
740.384	12722
740.497	11102
740.610	13728
740.723	12599
740.836	12389
740.949	12385
741.062	13732
741.174	11636
741.287	12308
741.400	12429
741.513	10887
741.626	12915
741.739	11692
741.851	10413
741.964	12234
742.077	11766
742.189	9779
742.302	12484
742.415	10409
742.527	11427
742.640	10953
742.753	9696
742.865	11083
742.978	10735
743.090	10713
743.203	10722
743.316	10248
743.428	10044
743.541	10352
743.653	9780
743.766	11198
743.878	10370
743.990	9834
744.103	11716
744.215	10072
744.327	9641
744.440	12088
744.552	9901
744.664	9759
744.777	11787
744.889	9116
745.001	10211
745.113	10810
745.226	8832
745.338	9097
745.450	11427
745.562	9638
745.674	8838
745.786	10634
745.898	10366
746.010	9505
746.122	9539
746.234	9921
746.347	9137
746.459	9447
746.570	6431
746.682	10395
746.794	12374
746.906	8617
747.018	8912
747.130	9627
747.242	8430
747.354	8400
747.466	9393
747.577	8308
747.689	9345
747.801	9673
747.913	7684
748.024	8493
748.136	8046
748.248	7856
748.359	7919
748.471	9342
748.583	6510
748.694	7600
748.806	9013
748.918	7267
749.029	6857
749.141	8351
749.252	7774
749.364	6913
749.475	7406
749.587	6440
749.698	6204
749.809	8339
749.921	7811
750.032	6637
750.144	6398
750.255	6561
750.366	6899
750.478	6817
750.589	7856
750.700	6365
750.811	7359
750.923	6445
751.034	5697
751.145	7690
751.256	6542
751.367	5880
751.479	6228
751.590	6277
751.701	5614
751.812	5681
751.923	6248
752.034	7999
752.145	6916
752.256	6390
752.367	7160
752.478	6530
752.589	6940
752.700	7047
752.811	5801
752.922	6062
753.032	6762
753.143	7241
753.254	6421
753.365	9256
753.476	8151
753.586	6630
753.697	5742
753.808	5966
753.919	6423
754.029	5962
754.140	5861
754.251	6290
754.361	5840
754.472	6716
754.582	5064
754.693	5775
754.804	7900
754.914	4863
755.025	5133
755.135	5834
755.246	7366
755.356	6427
755.466	5024
755.577	5103
755.687	6584
755.798	4545
755.908	5679
756.018	4752
756.129	6115
756.239	5590
756.349	7324
756.460	7861
756.570	8984
756.680	5876
756.790	6245
756.900	6838
757.011	5175
757.121	5036
757.231	5619
757.341	6104
757.451	4897
757.561	4473
757.671	5800
757.781	4513
757.891	6283
758.001	5790
758.111	5620
758.221	6888
758.331	6859
758.441	6521
758.551	6511
758.661	7594
758.771	8467
758.880	6891
758.990	6295
759.100	6693
759.210	6763
759.320	6451
759.429	8082
759.539	8766
759.649	10110
759.758	12150
759.868	12796
759.978	12153
760.087	13197
760.197	13049
760.307	12335
760.416	11143
760.526	9902
760.635	11084
760.745	11820
760.854	14018
760.964	16206
761.073	16096
761.182	14193
761.292	11155
761.401	9780
761.511	8581
761.620	7077
761.729	7423
761.839	5954
761.948	6390
762.057	6420
762.166	7115
762.276	5725
762.385	6648
762.494	5878
762.603	5324
762.712	5683
762.822	5471
762.931	4802
763.040	4164
763.149	5028
763.258	5355
763.367	5147
763.476	4129
763.585	4042
763.694	4074
763.803	4817
763.912	4531
764.021	4567
764.130	5158
764.238	5568
764.347	5854
764.456	6702
764.565	5904
764.674	4454
764.783	4369
764.891	4242
765.000	5794
765.109	4576
765.217	4604
765.326	5853
765.435	6382
765.543	6362
765.652	6752
765.761	8588
765.869	10012
765.978	13898
766.086	25466
766.195	48727
766.303	127332
766.412	318020
766.520	246650
766.629	65114
766.737	26382
766.846	16447
766.954	11099
767.062	10545
767.171	8978
767.279	8865
767.387	6217
767.496	5504
767.604	4967
767.712	5516
767.820	5537
767.928	4787
768.037	4620
768.145	5163
768.253	4471
768.361	4475
768.469	3503
768.577	3982
768.685	5545
768.793	5259
768.901	5234
769.009	4893
769.117	5701
769.225	6146
769.333	9142
769.441	12232
769.549	19646
769.657	45325
769.765	144407
769.873	263019
769.981	80887
770.088	21296
770.196	11936
770.304	9719
770.412	8611
770.519	7565
770.627	7525
770.735	6164
770.842	5353
770.950	7550
771.058	7519
771.165	7809
771.273	8905
771.380	9079
771.488	12559
771.595	14847
771.703	13278
771.810	11862
771.918	12421
772.025	14848
772.133	17452
772.240	15736
772.348	19175
772.455	18368
772.562	15664
772.670	14739
772.777	15708
772.884	15662
772.991	14345
773.099	16232
773.206	13467
773.313	15566
773.420	14248
773.528	15203
773.635	14124
773.742	15501
773.849	14385
773.956	15169
774.063	13652
774.170	12422
774.277	13737
774.384	13415
774.491	12579
774.598	13530
774.705	12672
774.812	13193
774.919	12845
775.026	13029
775.133	13251
775.239	12219
775.346	11971
775.453	12595
775.560	11618
775.667	12342
775.773	11055
775.880	11929
775.987	11785
776.093	12210
776.200	13199
776.307	9376
776.413	11296
776.520	13974
776.627	10593
776.733	9666
776.840	10730
776.946	14436
777.053	10974
777.159	12581
777.266	10246
777.372	13058
777.478	13337
777.585	11817
777.691	9155
777.798	11879
777.904	10176
778.010	10736
778.117	10753
778.223	8736
778.329	10922
778.435	8532
778.542	11979
778.648	8866
778.754	8293
778.860	10632
778.966	10296
779.072	8571
779.178	9481
779.284	7984
779.391	8849
779.497	9232
779.603	10349
779.708	7777
779.815	9881
779.920	14370
780.026	14724
780.132	10115
780.238	8202
780.344	7506
780.450	10897
780.556	6953
780.661	8079
780.767	9962
780.873	6450
780.979	8585
781.085	8908
781.190	7808
781.296	7923
781.402	7669
781.507	7530
781.613	6811
781.719	8049
781.824	8586
781.930	7304
782.035	8283
782.141	8844
782.246	6254
782.352	7546
782.457	8537
782.563	7131
782.668	7825
782.773	6401
782.879	5916
782.984	7600
783.090	6726
783.195	7270
783.300	8739
783.405	6347
783.511	6085
783.616	6769
783.721	7242
783.826	5961
783.932	6045
784.037	7167
784.142	6329
784.247	5942
784.352	6791
784.457	5345
784.562	7177
784.667	7252
784.772	5702
784.877	4686
784.982	8148
785.087	6583
785.192	5794
785.297	5708
785.402	6750
785.507	7121
785.611	6772
785.716	5238
785.821	6176
785.926	6073
786.031	5498
786.135	5391
786.240	5647
786.345	3990
786.450	4731
786.554	6756
786.659	4035
786.763	5435
786.868	5406
786.973	6642
787.077	4284
787.182	4244
787.286	5761
787.391	6562
787.495	4235
787.600	3787
787.704	4542
787.809	6206
787.913	4745
788.017	5117
788.122	6574
788.226	5030
788.330	3489
788.435	5562
788.539	6307
788.643	4029
788.747	3651
788.852	5768
788.956	4496
789.060	6423
789.164	4481
789.268	4054
789.372	6318
789.476	5131
789.580	3456
789.684	3521
789.788	6432
789.892	4189
789.996	3609
790.100	4204
790.204	5255
790.308	6282
790.412	3011
790.516	3304
790.620	4173
790.724	5643
790.828	4444
790.931	2783
791.035	5288
791.139	4142
791.242	3742
791.346	4967
791.450	4500
791.554	3781
791.657	2442
791.761	5599
791.864	5225
791.968	4620
792.072	4072
792.175	3652
792.279	3005
792.382	3821
792.486	3355
792.589	4146
792.693	4332
792.796	3194
792.899	6004
793.003	5029
793.106	2319
793.209	3609
793.313	4100
793.416	1239
793.519	4334
793.623	5076
793.726	4477
793.829	2644
793.932	2770
794.035	2156
794.138	4523
794.242	5041
794.345	2470
794.448	2680
794.551	3114
794.654	6368
794.757	7770
794.860	4108
794.963	3452
795.066	3436
795.169	4543
795.272	3290
795.375	5582
795.477	2674
795.580	2986
795.683	3129
795.786	4396
795.889	2519
795.991	4099
796.094	4567
796.197	2605
796.300	4334
796.402	5142
796.505	2282
796.608	2717
796.710	2844
796.813	4190
796.915	4409
797.018	4071
797.120	4087
797.223	3381
797.326	5005
797.428	3234
797.530	3451
797.633	3693
797.735	5256
797.838	3279
797.940	4290
798.042	3199
798.145	3194
798.247	3309
798.349	1046
798.452	4381
798.554	4058
798.656	4206
798.758	5840
798.860	3886
798.962	3189
799.065	2331
799.167	2067
799.269	4114
799.371	5498
799.473	7285
799.575	5355
799.677	3942
799.779	4657
799.881	2299
799.983	4427
800.085	3317
800.187	3592
800.289	1978
800.390	3118
800.492	5066
800.594	4386
800.696	1984
800.798	2602
800.899	2021
801.001	3624
801.103	3743
801.205	3448
801.306	3838
801.408	3106
801.509	3078
801.611	3336
801.713	3395
801.814	1760
801.916	1975
802.017	2357
802.119	2217
802.220	2976
802.322	1013
802.423	2804
802.525	1650
802.626	2174
802.727	3391
802.829	3365
802.930	-297
803.031	3351
803.133	2794
803.234	2695
803.335	2420
803.436	2468
803.538	2329
803.639	1466
803.740	3351
803.841	1633
803.942	3686
804.043	3555
804.144	1178
804.245	2141
804.346	3012
804.447	1792
804.548	2879
804.649	3200
804.750	1673
804.851	2370
804.952	1490
805.053	2126
805.154	748
805.255	3315
805.355	2364
805.456	2391
805.557	1558
805.658	809
805.758	2397
805.859	2609
805.960	2090
806.061	1309
806.161	1639
806.262	1233
806.362	1548
806.463	1202
806.564	2382
806.664	2405
806.765	1989
806.865	1849
806.966	1358
807.066	1754
807.166	2825
807.267	2370
807.367	1417
807.468	2638
807.568	355
807.668	2800
807.769	2472
807.869	1898
807.969	2079
808.069	2136
808.170	1642
808.270	1999
808.370	2251
808.470	3020
808.570	1760
808.670	1274
808.770	1142
808.870	666
808.970	2082
809.070	684
809.170	1026
809.271	3302
809.370	1425
809.470	2333
809.570	1168
809.670	620
809.770	2094
809.870	1680
809.970	2263
810.070	1990
810.169	2152
810.269	347
810.369	3065
810.469	2217
810.568	2004
810.668	1705
810.768	1370
810.867	1646
810.967	1385
811.066	805
811.166	1937
811.265	2559
811.365	929
811.464	2183
811.564	2068
811.663	1806
811.763	667
811.862	2198
811.962	3066
812.061	899
812.160	860
812.260	1935
812.359	1967
812.458	1457
812.557	2824
812.657	1988
812.756	2670
812.855	1315
812.954	2286
813.053	1835
813.153	2027
813.252	884
813.351	2616
813.450	2331
813.549	1551
813.648	1873
813.747	1580
813.846	3376
813.945	2297
814.044	2345
814.143	2409
814.242	2941
814.341	1299
814.439	2642
814.538	2957
814.637	2476
814.736	2684
814.835	3132
814.933	3894
815.032	3094
815.131	4843
815.229	10856
815.328	15583
815.427	10111
815.525	9126
815.624	8975
815.722	8248
815.821	9872
815.919	9244
816.018	9892
816.116	10049
816.215	10068
816.313	10544
816.412	11559
816.510	12977
816.609	13624
816.707	14335
816.805	13178
816.904	12999
817.002	13632
817.100	14155
817.198	14981
817.296	11568
817.395	13303
817.493	12734
817.591	11955
817.689	10153
817.787	11219
817.885	11478
817.983	10389
818.081	10916
818.179	11189
818.277	13336
818.375	11597
818.473	10467
818.571	9997
818.669	11106
818.767	11727
818.865	10325
818.963	9010
819.061	10632
819.158	9896
819.256	12610
819.354	10633
819.452	13319
819.549	10947
819.647	10998
819.745	9342
819.842	9441
819.940	10162
820.038	8990
820.135	9277
820.233	11084
820.330	8998
820.428	8958
820.525	11542
820.623	8973
820.720	8140
820.818	9678
820.915	9843
821.012	8203
821.110	7705
821.207	8886
821.304	7652
821.402	9929
821.499	9176
821.596	7970
821.693	9642
821.791	9626
821.888	8320
821.985	8913
822.082	6527
822.179	9121
822.276	9147
822.373	6641
822.470	7369
822.567	8078
822.664	7225
822.761	8556
822.858	8419
822.955	8351
823.052	6709
823.149	7682
823.246	7846
823.343	6236
823.440	6658
823.536	7781
823.633	7641
823.730	6049
823.827	8288
823.923	7881
824.020	6753
824.117	8166
824.213	7722
824.310	7404
824.407	5697
824.503	8301
824.600	7331
824.696	6150
824.793	8461
824.889	8438
824.986	5890
825.082	4539
825.179	5312
825.275	7374
825.371	7464
825.468	5868
825.564	3429
825.660	7770
825.757	9238
825.853	6404
825.949	4824
826.045	4683
826.142	6267
826.238	7461
826.334	7072
826.430	5484
826.526	5092
826.622	3648
826.718	7826
826.814	7676
826.910	6453
827.006	3748
827.102	4451
827.198	6291
827.294	7171
827.390	6415
827.486	4612
827.582	3973
827.678	4758
827.774	7737
827.869	4441
827.965	6068
828.061	4267
828.157	7274
828.252	7200
828.348	4182
828.444	5458
828.539	5092
828.635	6106
828.731	5485
828.826	3871
828.922	6403
829.017	6694
829.113	7451
829.208	5142
829.304	5973
829.399	8858
829.495	6231
829.590	6118
829.685	5159
829.781	6956
829.876	6244
829.971	2847
830.066	3637
830.162	5363
830.257	7910
830.352	5141
830.447	4916
830.543	4813
830.638	5773
830.733	8303
830.828	4508
830.923	6542
831.018	6734
831.113	6042
831.208	3307
831.303	3466
831.398	3888
831.493	4716
831.588	8428
831.683	4262
831.778	3820
831.873	4648
831.967	6409
832.062	5925
832.157	4040
832.252	4686
832.346	3826
832.441	6691
832.536	4206
832.631	4462
832.725	3213
832.820	4562
832.914	4628
833.009	4316
833.104	2938
833.198	3759
833.293	4690
833.387	6019
833.482	4095
833.576	3908
833.670	5811
833.765	5691
833.859	6637
833.954	5045
834.048	4676
834.142	4106
834.237	2381
834.331	3922
834.425	4492
834.519	3928
834.613	3169
834.708	3239
834.802	2757
834.896	3953
834.990	4379
835.084	3032
835.178	2841
835.272	3908
835.366	4663
835.460	5992
835.554	3961
835.648	3399
835.742	2175
835.836	2477
835.930	3104
836.024	4165
836.117	4446
836.211	2708
836.305	2947
836.399	4077
836.493	1929
836.586	3500
836.680	3840
836.774	2462
836.867	2578
836.961	1665
837.055	2357
837.148	2100
837.242	3763
837.335	3724
837.429	3734
837.522	3338
837.616	2792
837.709	3193
837.803	2218
837.896	4521
837.989	3360
838.083	2211
838.176	2098
838.269	1115
838.363	2923
838.456	2394
838.549	3596
838.642	1444
838.735	2464
838.829	3622
838.922	2971
839.015	2360
839.108	2608
839.201	3337
839.294	3241
839.387	2876
839.480	1521
839.573	2234
839.666	1965
839.759	2370
839.852	1935
839.945	3562
840.038	2768
840.131	1678
840.223	2208
840.316	3172
840.409	2735
840.502	2431
840.594	4084
840.687	164
840.780	1721
840.873	1407
840.965	1044
841.058	2881
841.150	2453
841.243	1443
841.336	1702
841.428	1951
841.521	1369
841.613	2204
841.706	1834
841.798	1666
841.890	3158
841.983	882
842.075	2027
842.167	2760
842.260	2377
842.352	3509
842.444	2636
842.537	1812
842.629	1301
842.721	1630
842.813	2397
842.905	2030
842.997	2685
843.090	1959
843.182	1993
843.274	416
843.366	2402
843.458	2525
843.550	3237
843.642	1527
843.734	2672
843.826	1310
843.918	1519
844.009	2685
844.101	644
844.193	2575
844.285	2166
844.377	2469
844.469	2289
844.560	1150
844.652	1255
844.744	1741
844.835	2074
844.927	2310
845.019	2378
845.110	2177
845.202	3146
845.293	1830
845.385	1046
845.476	2177
845.568	2560
845.659	1188
845.751	2172
845.842	1280
845.934	1769
846.025	1052
846.116	2817
846.208	2007
846.299	1264
846.390	1690
846.482	1431
846.573	2659
846.664	1745
846.755	1149
846.846	2419
846.937	1058
847.029	1158
847.120	1484
847.211	1853
847.302	2969
847.393	1770
847.484	1682
847.575	167
847.666	495
847.757	800
847.847	1641
847.938	2802
848.029	1815
848.120	2046
848.211	1749
848.302	1081
848.392	870
848.483	1909
848.574	1432
848.664	2756
848.755	2501
848.846	2041
848.936	2446
849.027	2144
849.118	3046
849.208	2878
849.299	5814
849.389	9949
849.480	18652
849.570	35289
849.661	68264
849.751	99093
849.841	33107
849.932	7252
850.022	3110
850.112	3014
850.203	3300
850.293	2929
850.383	1477
850.474	1051
850.564	1146
850.654	1823
850.744	1589
850.834	1918
850.924	2155
851.014	3860
851.104	1842
851.194	1943
851.284	1947
851.374	1868
851.464	723
851.554	1704
851.644	1392
851.734	2584
851.824	2315
851.914	2025
852.004	3240
852.094	1534
852.183	1519
852.273	2012
852.363	2034
852.452	2008
852.542	1606
852.632	1283
852.721	2727
852.811	1995
852.901	3549
852.990	3426
853.080	3373
853.169	4057
853.259	5410
853.348	4749
853.438	6857
853.527	9266
853.617	12905
853.706	21940
853.795	38474
853.885	74270
853.974	123951
854.063	208618
854.152	246693
854.242	117039
854.331	40123
854.420	19360
854.509	13531
854.598	9700
854.687	7528
854.777	5900
854.866	4219
854.955	4162
855.044	3391
855.133	3729
855.222	2905
855.311	2601
855.400	1741
855.488	2107
855.577	1337
855.666	1864
855.755	2565
855.844	1732
855.933	3090
856.021	2459
856.110	2298
856.199	1639
856.288	1352
856.376	1380
856.465	1003
856.554	2458
856.642	2231
856.731	2252
856.819	2452
856.908	861
856.996	1762
857.085	1037
857.173	1022
857.262	1427
857.350	405
857.438	925
857.527	1093
857.615	1236
857.703	1005
857.792	1240
857.880	1271
857.968	431
858.056	1467
858.145	1216
858.233	1340
858.321	1257
858.409	1851
858.497	1313
858.585	1200
858.673	2040
858.761	547
858.849	1137
858.937	1403
859.025	878
859.113	1536
859.201	1578
859.289	1849
859.377	784
859.465	1643
859.552	1514
859.640	867
859.728	1308
859.816	696
859.903	1183
859.991	1194
860.079	1688
860.166	1176
860.254	953
860.342	1626
860.429	986
860.517	1586
860.604	1284
860.692	957
860.779	432
860.867	1226
860.954	2006
861.042	1838
861.129	2202
861.216	1736
861.304	1327
861.391	1262
861.478	1306
861.565	1292
861.653	2232
861.740	907
861.827	605
861.914	1179
862.001	1761
862.089	1690
862.176	966
862.263	1223
862.350	1347
862.437	1394
862.524	825
862.611	1286
862.698	1651
862.785	1705
862.871	3520
862.958	1717
863.045	1873
863.132	1321
863.219	736
863.306	655
863.392	1947
863.479	1200
863.566	1893
863.652	1732
863.739	2160
863.826	2206
863.912	1489
863.999	2272
864.086	1750
864.172	2159
864.259	3024
864.345	2713
864.432	3837
864.518	3072
864.604	2826
864.691	3105
864.777	3549
864.863	4759
864.950	7789
865.036	9884
865.122	18052
865.209	17671
865.295	15751
865.381	15451
865.467	15725
865.553	16780
865.639	20589
865.726	29812
865.812	48070
865.898	77593
865.984	114207
866.070	177633
866.156	163063
866.242	64898
866.328	29067
866.414	19389
866.499	16704
866.585	14905
866.671	13274
866.757	13486
866.843	12597
866.928	11812
867.014	11204
867.100	11197
867.186	11602
867.271	10592
867.357	11283
867.442	9924
867.528	11233
867.614	9796
867.699	10811
867.785	11373
867.870	10628
867.956	10560
868.041	11173
868.127	10710
868.212	9677
868.297	10243
868.383	9607
868.468	10761
868.553	10442
868.639	9169
868.724	9113
868.809	9397
868.894	8939
868.979	9415
869.065	9277
869.150	7239
869.235	9299
869.320	8459
869.405	8058
869.490	9312
869.575	8566
869.660	8295
869.745	9305
869.830	10108
869.915	8039
870.000	8137
870.085	7912
870.169	10669
870.254	10172
870.339	6167
870.424	7708
870.509	8925
870.593	11037
870.678	9374
870.763	7807
870.847	6731
870.932	8959
871.016	8639
871.101	6005
871.186	8859
871.270	9542
871.355	5502
871.439	7478
871.523	8296
871.608	6534
871.692	6189
871.777	9487
871.861	8719
871.945	6985
872.030	7861
872.114	6960
872.198	6250
872.282	7498
872.367	7230
872.451	6937
872.535	7605
872.619	6719
872.703	7461
872.787	7392
872.871	7655
872.955	6303
873.039	4373
873.123	7974
873.207	7700
873.291	4548
873.375	6099
873.459	8007
873.543	5864
873.627	5500
873.711	6242
873.794	7721
873.878	6487
873.962	4026
874.045	6024
874.129	5900
874.137	5988
874.213	6873
874.245	6648
874.296	6284
874.352	5466
874.380	5071
874.460	5783
874.464	5813
874.547	5577
874.568	5867
874.631	6739
874.676	6733
874.714	6702
874.784	6959
874.798	7023
874.881	6390
874.892	6137
874.965	4423
874.999	5230
875.048	6286
875.107	6231
875.131	6205
875.215	4780
875.215	4779
875.298	3774
875.323	4461
875.381	6139
875.430	6917
875.465	7397
875.538	6343
875.548	6189
875.631	4803
875.646	4644
875.714	4035
875.753	4547
875.798	5152
875.861	6231
875.881	6516
875.964	4991
875.968	4946
876.047	4429
876.076	4711
876.130	5100
876.183	5758
876.213	6173
876.291	5878
876.296	5844
876.379	4817
876.398	4537
876.462	3673
876.506	3503
876.545	3402
876.613	4441
876.628	4666
876.711	4948
876.721	5106
876.794	6382
876.828	6235
876.877	5821
876.935	4288
876.960	3705
877.043	4998
877.043	4999
877.125	5346
877.150	5485
877.208	5695
877.258	4790
877.291	4133
877.365	4041
877.374	4036
877.456	4352
877.472	4290
877.539	4200
877.579	4869
877.622	5525
877.687	5134
877.704	5030
877.787	4552
877.794	4621
877.869	5206
877.901	4936
877.952	4423
878.008	3441
878.034	3012
878.115	3232
878.117	3247
878.199	3983
878.222	4097
878.282	4268
878.329	5013
878.364	5463
878.437	4989
878.447	4891
878.529	4182
878.544	4067
878.611	3774
878.651	3739
878.694	3930
878.758	4934
878.776	5147
878.858	5289
878.865	5245
878.941	4148
878.972	3743
879.023	3382
879.078	3519
879.105	3808
879.185	5132
879.187	5149
879.269	5662
879.292	5507
879.351	4954
879.399	4026
879.433	3354
879.506	4072
879.516	4225
879.598	4926
879.613	4762
879.680	3696
879.720	4322
879.762	5117
879.827	4236
879.844	3991
879.926	4028
879.933	4080
880.007	4636
880.040	4203
880.089	3259
880.147	3935
880.171	4483
880.253	5088
880.254	5089
880.335	4736
880.360	5053
880.417	6446
880.467	6714
880.499	6822
880.574	7879
880.580	7872
880.662	6594
880.680	6145
880.744	4314
880.787	3711
880.825	3676
880.893	4049
880.907	4077
880.989	3618
881.000	3708
881.070	5146
881.106	5158
881.152	4500
881.213	3866
881.233	3758
881.315	4137
881.319	4132
881.396	4179
881.426	4221
881.478	4599
881.532	5531
881.559	5739
881.639	5026
881.641	5006
881.722	3887
881.745	3856
881.803	4420
881.852	4404
881.885	4035
881.958	3417
881.966	3412
882.047	3710
882.064	3681
882.129	3327
882.171	3246
882.210	3001
882.277	2454
882.291	2542
882.372	3632
882.383	3794
882.454	5243
882.489	5574
882.535	5074
882.596	4753
882.616	4857
882.697	4543
882.702	4507
882.778	3403
882.808	3319
882.859	3288
882.914	3256
882.940	3425
883.020	4020
883.021	4029
883.102	4330
883.127	4665
883.183	5572
883.233	5456
883.264	4609
883.339	2911
883.345	2859
883.426	2669
883.445	2691
883.507	3315
883.551	3727
883.587	4242
883.657	5110
883.668	5188
883.749	5339
883.763	5299
883.830	3660
883.869	2882
883.910	2611
883.975	2603
883.991	2820
884.072	3498
884.081	3628
884.152	4865
884.187	5124
884.233	5346
884.292	5529
884.314	4943
884.394	2408
884.398	2315
884.475	2063
884.504	1952
884.555	2145
884.610	2402
884.636	2669
884.716	3825
884.716	3841
884.797	5892
884.821	6341
884.877	5143
884.927	3984
884.958	3706
885.033	3285
885.038	3253
885.118	2613
885.139	2546
885.199	2656
885.244	2746
885.279	3423
885.350	4990
885.359	5178
885.439	6446
885.456	6505
885.520	4401
885.561	3421
885.600	3272
885.667	3529
885.680	3719
885.760	3959
885.773	4043
885.840	3113
885.878	2616
885.920	2708
885.984	2801
886.000	2935
886.080	3854
886.089	3950
886.160	4644
886.195	4656
886.240	4176
886.300	3990
886.320	4159
886.400	4482
886.406	4506
886.480	3374
886.511	2996
886.560	3269
886.616	3240
886.640	3143
886.720	3155
886.722	3145
886.800	3281
886.827	3471
886.879	4011
886.932	4466
886.959	4587
887.038	4508
887.039	4508
887.119	4328
887.143	4197
887.198	4436
887.248	4748
887.278	4503
887.354	3666
887.358	3670
887.437	3706
887.459	3739
887.517	3927
887.564	3913
887.596	3642
887.669	3193
887.676	3135
887.755	2374
887.774	2156
887.835	2467
887.880	2824
887.914	3101
887.985	3531
887.994	3704
888.073	5268
888.090	5551
888.153	6231
888.195	6664
888.232	5565
888.300	3613
888.311	3563
888.391	3132
888.405	3041
888.470	2604
888.510	2317
888.549	2646
888.615	3446
888.628	3606
888.708	4258
888.720	4356
888.787	4564
888.825	4676
888.866	3571
888.930	1860
888.945	2123
889.024	3527
889.035	3709
889.103	4595
889.140	5032
889.182	4384
889.245	3445
889.261	3539
889.340	3947
889.349	3991
889.419	3718
889.454	3561
889.498	3270
889.559	2900
889.577	3168
889.656	4321
889.664	4433
889.735	4428
889.768	4413
889.814	4152
889.873	3783
889.978	2919
890.083	3895
890.187	3855
890.292	5247
890.397	3922
890.501	3352
890.606	2377
890.710	3706
890.815	4926
890.919	3841
891.024	3828
891.128	3208
891.233	3159
891.337	4962
891.442	4404
891.546	3732
891.650	2893
891.755	2915
891.859	4006
891.963	4528
892.068	4244
892.172	2439
892.276	2131
892.380	3118
892.484	4676
892.589	5274
892.693	4859
892.797	2115
892.901	2326
893.005	2590
893.109	5326
893.213	5310
893.317	3802
893.421	2696
893.525	2136
893.629	2100
893.733	4678
893.837	3527
893.941	3087
894.045	2955
894.148	1654
894.252	2735
894.356	4491
894.460	5847
894.564	2511
894.667	3060
894.771	2073
894.875	1513
894.978	2731
895.082	3767
895.186	4216
895.289	3633
895.393	2397
895.496	3830
895.600	2938
895.703	2132
895.807	2378
895.910	3944
896.014	3024
896.117	2639
896.221	3795
896.324	4103
896.427	2647
896.531	1068
896.634	3250
896.737	2763
896.840	3860
896.944	3871
897.047	4710
897.150	2262
897.253	1653
897.356	1984
897.460	1631
897.563	2340
897.666	5026
897.769	4598
897.872	1451
897.975	2067
898.078	2588
898.181	2316
898.284	2234
898.387	4801
898.490	4393
898.593	2849
898.695	2128
898.798	2315
898.901	2437
899.004	2632
899.107	3240
899.209	2075
899.312	5089
899.415	2530
899.518	2102
899.620	1310
899.723	2555
899.826	2361
899.928	1204
900.031	2441
900.133	3825
900.236	2445
900.338	1798
900.441	2669
900.543	2797
900.646	3019
900.748	2903
900.851	3887
900.953	2891
901.055	2330
901.158	2342
901.260	2000
901.362	2173
901.465	1648
901.567	3239
901.669	3412
901.771	2419
901.873	3195
901.976	2217
902.078	3535
902.180	1718
902.282	2250
902.384	2724
902.486	4693
902.588	3889
902.690	1270
902.792	1444
902.894	2363
902.996	3036
903.098	3496
903.200	1960
903.302	2401
903.404	2013
903.505	2483
903.607	2241
903.709	3994
903.811	3999
903.913	2869
904.014	1209
904.116	886
904.218	1537
904.319	2376
904.421	4641
904.523	3401
904.624	1889
904.726	2503
904.827	1161
904.929	1852
905.030	1729
905.132	3844
905.233	3694
905.335	1460
905.436	2459
905.537	1629
905.639	1923
905.740	2485
905.841	2992
905.943	2487
906.044	2400
906.145	1898
906.247	1943
906.348	1363
906.449	2582
906.550	2647
906.651	2585
906.752	2154
906.854	1921
906.955	1654
907.056	2860
907.157	3403
907.258	3368
907.359	1647
907.460	2068
907.561	2033
907.662	2845
907.762	1969
907.863	3499
907.964	3410
908.065	2777
908.166	1454
908.267	2479
908.367	1430
908.468	1834
908.569	2093
908.670	3584
908.770	2642
908.871	2228
908.971	2756
909.072	1684
909.173	1561
909.273	2364
909.374	2834
909.474	2648
909.575	1801
909.675	2581
909.776	3203
909.876	2468
909.977	2423
910.077	2784
910.177	3489
910.278	2422
910.378	1509
910.478	2243
910.579	4079
910.679	3008
910.779	2908
910.879	3220
910.980	2808
911.080	3803
911.180	2868
911.280	2380
911.380	1713
911.480	1938
911.580	2494
911.680	2213
911.780	2599
911.880	2947
911.980	1575
912.080	2923
912.180	2320
912.280	2653
912.380	2027
912.480	1029
912.580	1547
912.679	1752
912.779	3297
912.879	3023
912.979	2339
913.078	1793
913.178	1422
913.278	1429
913.377	2246
913.477	2234
913.577	2404
913.676	3634
913.776	3602
913.875	2266
913.975	2325
914.074	1887
914.174	3386
914.273	946
914.373	2469
914.472	1858
914.572	1570
914.671	1675
914.770	2574
914.870	1869
914.969	1994
915.068	3064
915.167	3735
915.267	1636
915.366	2027
915.465	2698
915.564	2855
915.663	3336
915.763	3617
915.862	3682
915.961	3030
916.060	1742
916.159	1855
916.258	2021
916.357	1552
916.456	2635
916.555	3638
916.654	2594
916.752	3078
916.851	2672
916.950	1850
917.049	1767
917.148	2207
917.247	1046
917.345	1934
917.444	2010
917.543	2227
917.642	1881
917.740	1921
917.839	4405
917.937	4509
918.036	3867
918.135	2218
918.233	2987
918.332	2669
918.430	2025
918.529	3100
918.627	2320
918.726	3613
918.824	3264
918.923	2209
919.021	2414
919.119	2358
919.218	2629
919.316	1885
919.414	3098
919.512	2891
919.611	4075
919.709	2455
919.807	3675
919.905	3657
920.003	3656
920.102	3654
920.200	4400
920.298	4285
920.396	4672
920.494	3830
920.592	4283
920.690	3959
920.788	3711
920.886	3782
920.984	3974
921.082	4591
921.180	4719
921.277	5406
921.375	6046
921.473	8079
921.571	8272
921.669	6930
921.766	6156
921.864	8031
921.962	7470
922.060	6952
922.157	7137
922.255	7733
922.352	7337
922.450	8225
922.548	7482
922.645	8686
922.743	12160
922.840	17891
922.938	21027
923.035	18553
923.133	18365
923.230	20602
923.327	25009
923.425	22676
923.522	22643
923.619	21452
923.717	18772
923.814	18014
923.911	18417
924.008	19501
924.106	17944
924.203	16796
924.300	19240
924.397	17883
924.494	18831
924.591	17940
924.688	16663
924.786	17727
924.883	17755
924.979	17653
925.077	17375
925.173	17109
925.270	16728
925.367	16877
925.464	19870
925.561	18621
925.658	20405
925.755	16121
925.852	19716
925.948	18727
926.045	17415
926.142	18009
926.239	17538
926.335	13497
926.432	16515
926.529	16679
926.625	19033
926.722	14672
926.818	15356
926.915	17178
927.011	16805
927.108	15994
927.204	15954
927.301	14336
927.397	16979
927.494	18644
927.590	12657
927.687	12489
927.783	19020
927.879	16641
927.976	15845
928.072	12792
928.168	16418
928.264	17189
928.361	14685
928.457	18582
928.553	14274
928.649	14949
928.745	16740
928.841	13633
928.937	14541
929.033	14791
929.129	13381
929.225	17772
929.321	14718
929.417	11171
929.513	15831
929.609	13114
929.705	11871
929.801	16378
929.897	13056
929.993	13176
930.089	14554
930.184	12184
930.280	13283
930.376	17722
930.471	13265
930.567	12068
930.663	14147
930.758	11714
930.854	13210
930.950	12447
931.045	12224
931.141	12273
931.236	15234
931.332	13407
931.427	10247
931.523	16074
931.618	14331
931.714	9264
931.809	11556
931.905	13967
932.000	10442
932.095	8415
932.191	14176
932.286	15150
932.381	13487
932.476	9168
932.572	12595
932.667	10845
932.762	10319
932.857	12161
932.952	15056
933.047	13084
933.142	9756
933.237	12175
933.332	13249
933.427	13863
933.522	12146
933.617	9818
933.712	10408
933.807	13559
933.902	14970
933.997	14400
934.092	9840
934.187	12331
934.282	12541
934.376	11914
934.471	13218
934.566	10662
934.661	9537
934.755	13006
934.850	13185
934.945	11176
935.039	9519
935.134	9145
935.228	10479
935.323	17033
935.417	9799
935.512	7649
935.606	8895
935.701	11575
935.795	13415
935.890	11791
935.984	10202
936.079	7504
936.173	10409
936.267	9857
936.362	8419
936.456	10264
936.550	14183
936.644	10845
936.738	8135
936.833	8916
936.927	6469
937.021	8867
937.115	10695
937.209	10524
937.303	10699
937.397	7854
937.491	7998
937.585	10500
937.679	10950
937.773	7750
937.867	7948
937.961	7332
938.055	12445
938.149	10633
938.243	6828
938.337	6927
938.430	8011
938.524	11903
938.618	9856
938.712	7308
938.805	8209
938.899	10725
938.993	13078
939.086	8082
939.180	5317
939.274	7221
939.367	10010
939.461	10615
939.554	8432
939.648	6747
939.741	7764
939.835	8428
939.928	12506
940.022	11046
940.115	8727
940.208	9679
940.302	11576
940.395	12510
940.488	7988
940.582	8229
940.675	6813
940.768	7221
940.861	10522
940.954	10809
941.048	6858
941.141	6373
941.234	7268
941.327	8437
941.420	9618
941.513	9690
941.606	8081
941.699	7585
941.792	10805
941.885	9542
941.978	9369
942.071	9180
942.164	6623
942.257	6603
942.349	6808
942.442	8845
942.535	6461
942.628	6595
942.721	7345
942.813	7863
942.906	8619
942.999	8092
943.091	6181
943.184	6975
943.277	6801
943.369	5935
943.462	4917
943.554	6970
943.647	7390
943.739	9679
943.832	9539
943.924	4623
944.017	4924
944.109	5489
944.201	6883
944.294	6426
944.386	7058
944.478	6874
944.571	5144
944.663	5901
944.755	6780
944.847	8334
944.940	7586
945.032	4459
945.124	4998
945.216	7796
945.308	6739
945.400	6266
945.492	7376
945.584	8147
945.676	10033
945.768	7752
945.860	8435
945.952	9715
946.044	6693
946.136	6578
946.228	5962
946.320	5238
946.412	6677
946.503	8443
946.595	8598
946.687	6161
946.779	4662
946.870	5290
946.962	5333
947.054	5493
947.145	7566
947.237	6020
947.329	6194
947.420	6944
947.512	5922
947.603	3794
947.695	5113
947.786	4868
947.878	5000
947.969	6726
948.061	6899
948.152	6635
948.243	4353
948.335	4965
948.426	4227
948.517	5865
948.609	7604
948.700	6884
948.791	5191
948.882	3502
948.973	4436
949.065	5735
949.156	5708
949.247	2475
949.338	6009
949.429	3742
949.520	4304
949.611	5056
949.702	6667
949.793	4822
949.884	5232
949.975	4769
950.066	3899
950.157	4311
950.247	4999
950.338	3892
950.429	3570
950.520	5536
950.611	4493
950.701	5017
950.792	7832
950.883	6408
950.973	4388
951.064	5992
951.155	6064
951.245	6461
951.336	6024
951.427	7376
951.517	8605
951.608	6255
951.698	5989
951.788	3164
951.879	4086
951.969	4270
952.060	4559
952.150	5615
952.240	7492
952.331	5155
952.421	7053
952.511	3857
952.602	3299
952.692	3703
952.782	3526
952.872	4291
952.962	5067
953.052	4330
953.143	5368
953.233	4473
953.323	5572
953.413	5432
953.503	6490
953.593	5087
953.683	5651
953.773	4135
953.863	3035
953.953	3607
954.042	5287
954.132	5863
954.222	6126
954.312	4330
954.402	4424
954.492	4029
954.581	4552
954.671	4736
954.761	4663
954.850	4984
954.940	2182
955.030	2384
955.119	3525
955.209	3532
955.298	4620
955.388	5222
955.477	6517
955.567	2909
955.656	3573
955.746	4621
955.835	3946
955.925	3274
956.014	4862
956.103	4764
956.193	7381
956.282	5911
956.371	4111
956.461	4773
956.550	4474
956.639	4770
956.728	3984
956.817	3752
956.906	3892
956.995	6083
957.085	5051
957.174	3602
957.263	4278
957.352	3531
957.441	4203
957.530	3987
957.619	3883
957.708	3540
957.796	4909
957.885	4245
957.974	4423
958.063	5356
958.152	2861
958.241	2529
958.329	2851
958.418	3792
958.507	4453
958.596	6175
958.684	3299
958.773	3768
958.861	3218
958.950	2277
959.039	2441
959.127	2748
959.216	3869
959.304	3338
959.393	4661
959.481	4307
959.570	3848
959.658	2469
959.746	3366
959.835	3730
959.923	3193
960.011	2013
960.100	4460
960.188	4862
960.276	3805
960.365	3165
960.453	2854
960.541	1886
960.629	2701
960.717	2323
960.805	1847
960.893	2790
960.981	4009
961.069	5436
961.158	5932
961.245	6923
961.333	5313
961.421	3506
961.509	3506
961.597	3940
961.685	3421
961.773	3690
961.861	3514
961.949	4947
962.036	3544
962.124	3259
962.212	3600
962.299	2765
962.387	2100
962.475	3507
962.562	2596
962.650	4795
962.738	3575
962.825	2147
962.913	2500
963.000	2847
963.088	4444
963.175	4298
963.263	3055
963.350	2898
963.438	3127
963.525	2449
963.612	3201
963.700	2254
963.787	4862
963.874	3812
963.962	3280
964.049	2515
964.136	2719
964.223	2953
964.310	2473
964.398	2983
964.485	2865
964.572	3707
964.659	3350
964.746	2443
964.833	1741
964.920	2460
965.007	3461
965.094	2360
965.181	3706
965.268	4678
965.355	3415
965.441	3416
965.528	2579
965.615	4625
965.702	3471
965.789	2055
965.875	3378
965.962	4117
966.049	3299
966.136	4833
966.222	5498
966.309	6128
966.395	5422
966.482	5482
966.569	3759
966.655	3362
966.742	4250
966.828	3668
966.915	2540
967.001	2667
967.087	1910
967.174	2363
967.260	3331
967.347	3192
967.433	3041
967.519	4554
967.605	4379
967.692	3668
967.778	3387
967.864	2532
967.950	2966
968.036	3553
968.123	3931
968.209	3935
968.295	1349
968.381	3646
968.467	3197
968.553	1868
968.639	5264
968.725	4213
968.811	7434
968.897	6053
968.983	4206
969.069	2211
969.154	2578
969.240	1870
969.326	2170
969.412	2125
969.497	2345
969.583	2823
969.669	3433
969.755	4363
969.840	4076
969.926	6926
970.012	9233
970.097	12773
970.183	10614
970.268	5551
970.354	4574
970.439	2307
970.525	3242
970.610	2102
970.696	5234
970.781	2977
970.866	1697
970.952	3867
971.037	2529
971.122	2770
971.208	3875
971.293	2781
971.378	2147
971.463	3151
971.549	3026
971.634	3350
971.719	2879
971.804	2231
971.889	3072
971.974	2769
972.059	3240
972.144	3268
972.229	2845
972.314	2069
972.399	2763
972.484	2084
972.569	2817
972.654	1917
972.739	2943
972.824	2439
972.908	2870
972.993	1803
973.078	2366
973.163	2910
973.247	2775
973.332	1060
973.417	4121
973.501	2841
973.586	2420
973.671	3129
973.755	2392
973.840	3202
973.924	4787
974.009	5062
974.093	4870
974.178	6379
974.262	3257
974.346	3887
974.431	3664
974.515	2460
974.600	4011
974.684	3558
974.768	2815
974.852	3320
974.937	2365
975.021	3696
975.105	2862
975.189	3402
975.273	3141
975.358	2128
975.442	1566
975.526	3174
975.610	2985
975.694	2950
975.778	3438
975.862	2768
975.946	1468
976.030	4448
976.114	3133
976.198	3515
976.281	2597
976.365	3537
976.449	3438
976.533	1874
976.617	2871
976.700	2519
976.784	2473
976.868	1679
976.951	3256
977.035	2333
977.119	3053
977.202	2564
977.286	4316
977.369	3827
977.453	6653
977.536	6406
977.620	4232
977.703	4595
977.787	2770
977.870	3782
977.953	4413
978.037	2617
978.120	4355
978.203	2528
978.287	3959
978.370	3687
978.453	3410
978.536	2563
978.620	3763
978.703	3270
978.786	2999
978.869	1596
978.952	2622
979.035	4352
979.118	3923
979.201	2808
979.284	3225
979.367	2982
979.450	3771
979.533	2660
979.616	2796
979.699	3024
979.782	3622
979.865	3427
979.948	3229
980.030	3391
980.113	2620
980.196	2258
980.279	3780
980.361	3102
980.444	2796
980.526	5298
980.609	6106
980.692	6787
980.774	6932
980.857	4061
980.939	5723
981.022	3958
981.104	3781
981.187	3317
981.269	3945
981.352	4121
981.434	3230
981.516	3861
981.599	5528
981.681	5157
981.763	4029
981.846	3577
981.928	3899
982.010	3401
982.092	2439
982.174	4340
982.256	3502
982.339	2990
982.421	3634
982.503	3495
982.585	2968
982.667	3115
982.749	3972
982.831	2822
982.913	3200
982.995	4196
983.077	3443
983.158	4820
983.240	3315
983.322	5796
983.404	7745
983.486	6647
983.568	6566
983.649	5801
983.731	5914
983.813	4908
983.894	5084
983.976	4919
984.058	4209
984.139	5191
984.221	4642
984.302	4863
984.384	4060
984.465	4347
984.547	5637
984.628	3446
984.710	5507
984.791	4524
984.872	4689
984.954	4018
985.035	5313
985.116	4203
985.198	3935
985.279	5288
985.360	4344
985.441	4652
985.522	5071
985.604	4956
985.685	2881
985.766	5573
985.847	5983
985.928	5159
986.009	4433
986.090	4390
986.171	5535
986.252	5389
986.333	5214
986.414	4282
986.495	4870
986.576	6305
986.656	4991
986.737	5479
986.818	5923
986.899	5432
986.980	5137
987.060	5417
987.141	4625
987.222	6505
987.302	7205
987.383	7386
987.464	7195
987.544	8090
987.625	6579
987.705	7472
987.786	7314
987.866	6699
987.947	7192
988.027	6798
988.108	6500
988.188	6685
988.268	5435
988.349	5883
988.429	6019
988.509	5831
988.589	5372
988.670	3839
988.750	7308
988.830	5670
988.910	6543
988.990	6472
989.070	5614
989.151	5695
989.231	5306
989.311	5663
989.391	4561
989.471	5803
989.551	5512
989.631	5148
989.711	6134
989.791	4936
989.870	4737
989.950	5893
990.030	5253
990.110	6361
990.190	4482
990.269	4324
990.349	5349
990.429	5588
990.509	4711
990.588	2964
990.668	4710
990.747	4806
990.827	4234
990.907	4852
990.986	5178
991.066	4755
991.145	3614
991.225	5439
991.304	4301
991.383	5265
991.463	4157
991.542	5040
991.622	4171
991.701	3199
991.780	3709
991.859	3216
991.939	4309
992.018	4503
992.097	5400
992.176	3734
992.256	3789
992.335	3505
992.414	4016
992.493	3985
992.572	2974
992.651	5130
992.730	4230
992.809	3781
992.888	2934
992.967	4427
993.046	4798
993.125	1975
993.203	3506
993.282	4009
993.361	3200
993.440	3692
993.519	3285
993.597	3855
993.676	3526
993.755	4208
993.834	3760
993.912	2393
993.991	4696
994.069	2727
994.148	3436
994.226	3272
994.305	3591
994.384	3148
994.462	4701
994.540	1993
994.619	2340
994.697	3285
994.776	3135
994.854	3413
994.932	2087
995.011	2263
995.089	2343
995.167	1770
995.245	2666
995.324	2775
995.402	3738
995.480	1929
995.558	2427
995.636	1423
995.714	2708
995.792	3861
995.870	2347
995.948	2146
996.026	2406
996.104	1068
996.182	3013
996.260	1294
996.338	2752
996.416	1784
996.494	3060
996.572	2747
996.649	2302
996.727	1124
996.805	2836
996.883	2435
996.960	1585
997.038	3756
997.116	3196
997.193	1279
997.271	1768
997.348	1731
997.426	1639
997.504	1604
997.581	2966
997.658	2258
997.736	333
997.813	699
997.891	2571
997.968	1202
998.046	1528
998.123	1807
998.200	2424
998.277	1591
998.355	2898
998.432	848
998.509	1579
998.586	1953
998.663	2241
998.741	1140
998.818	1287
998.895	-238
998.972	2452
999.049	2359
999.126	2200
999.203	2198
999.280	1201
999.357	1107
999.434	1983
999.511	1885
999.587	1411
999.664	337
999.741	1319
999.818	1476
999.895	786
999.971	301
1000.048	897
1000.125	1730
1000.202	390
1000.278	1333
1000.355	1663
1000.431	957
1000.508	-82
1000.584	935
1000.661	1686
1000.738	614
1000.814	976
1000.890	2236
1000.967	1448
1001.043	1035
1001.120	-117
1001.196	756
1001.272	228
1001.349	662
1001.425	1100
1001.501	735
1001.577	539
1001.654	1296
1001.730	245
1001.806	558
1001.882	255
1001.958	1966
1002.034	1311
1002.110	315
1002.186	-519
1002.262	500
1002.338	515
1002.414	1148
1002.490	1425
1002.566	-706
1002.642	666
1002.718	755
1002.794	517
1002.870	456
1002.945	-57
1003.021	-45
1003.097	490
1003.173	979
1003.248	887
1003.324	918
1003.400	100
1003.475	-157
1003.551	471
1003.626	1123
1003.702	-209
1003.777	194
1003.853	45
1003.928	-319
1004.004	-318
1004.079	1049
1004.155	1343
1004.230	-623
1004.305	766
1004.381	-272
1004.456	337
1004.531	-282
1004.607	582
1004.682	696
1004.757	-482
1004.832	-252
1004.907	-134
1004.982	400
1005.057	1029
1005.133	-68
1005.208	-341
1005.283	-185
1005.358	512
1005.433	-1457
1005.508	-80
1005.583	-300
1005.657	1242
1005.732	-336
1005.807	-920
1005.882	-741
1005.957	-253
1006.032	273
1006.106	-650
1006.181	222
1006.256	576
1006.331	53
1006.405	-10
1006.480	-350
1006.554	238
1006.629	-108
1006.704	91
1006.778	-474
1006.853	555
1006.927	-632
1007.002	-1210
1007.076	-470
1007.150	-949
1007.225	40
1007.299	-647
1007.373	-214
1007.448	-348
1007.522	629
1007.596	129
1007.671	-545
1007.745	659
1007.819	-479
1007.893	335
1007.967	-769
1008.041	-656
1008.115	-32
1008.190	-907
1008.264	280
1008.338	-557
1008.412	-134
1008.486	-525
1008.560	-359
1008.633	-528
1008.707	-419
1008.781	289
1008.855	-182
1008.929	-111
1009.003	-1023
1009.076	-846
1009.150	-566
1009.224	-211
1009.298	-101
1009.371	-1940
1009.445	-248
1009.519	-652
1009.592	-1420
1009.666	475
1009.739	59
1009.813	-1058
1009.886	-96
1009.960	-1101
1010.033	-313
1010.107	155
1010.180	-1200
1010.253	-798
1010.327	-1412
1010.400	-1072
1010.473	-388
1010.547	966
1010.620	-858
1010.693	-242
1010.766	-525
1010.840	-816
1010.913	-229
1010.986	-1164
1011.059	-1047
1011.132	-949
1011.205	-620
1011.278	-423
1011.351	-541
1011.424	-326
1011.497	-1919
1011.570	-474
1011.643	-847
1011.716	-917
1011.789	-657
1011.862	-665
1011.934	-563
1012.007	-1204
1012.080	-790
1012.153	-1188
1012.225	-66
1012.298	-1208
1012.371	-1021
1012.443	-428
1012.516	-1501
1012.588	-625
1012.661	-391
1012.733	-1252
1012.806	-658
1012.879	-1678
1012.951	-866
1013.023	-1016
1013.096	-570
1013.168	-1119
1013.241	117
1013.313	-934
1013.385	-1095
1013.458	-900
1013.530	-660
1013.602	-1161
1013.674	-229
1013.746	-1433
1013.819	-1224
1013.891	-1132
1013.963	-985
1014.035	-186
1014.107	-713
1014.179	-728
1014.251	-829
1014.323	-325
1014.395	-751
1014.467	-1243
1014.539	-790
1014.611	-1108
1014.683	-858
1014.754	-1257
1014.826	-809
1014.898	-1070
1014.970	-1382
1015.042	-821
1015.113	-542
1015.185	294
1015.257	-2055
1015.328	-841
1015.400	-831
1015.471	-1127
1015.543	-1380
1015.615	-740
1015.686	-2111
1015.757	-689
1015.829	39
1015.901	-1090
1015.972	-559
1016.043	-1546
1016.115	-1429
1016.186	-573
1016.257	-1401
1016.328	-381
1016.400	-875
1016.471	-1662
1016.542	-1613
1016.613	-772
1016.685	-496
1016.756	-574
1016.827	-1346
1016.898	-1667
1016.969	-1119
1017.040	-1564
1017.111	-1081
1017.182	-1001
1017.253	-460
1017.324	-1585
1017.395	-1759
1017.466	-903
1017.537	-1362
1017.608	-1041
1017.678	-1131
1017.749	-896
1017.820	-1723
1017.891	-424
1017.961	-1236
1018.032	-1831
1018.103	-800
1018.173	-937
1018.244	-1572
1018.315	-1367
1018.385	-118
1018.456	-1805
1018.526	-1735
1018.597	-1208
1018.667	-438
1018.738	-1068
1018.808	-1264
1018.878	-1276
1018.949	-1170
1019.019	-981
1019.089	-1243
1019.160	-1484
1019.230	-1918
1019.300	-512
1019.371	-1552
1019.441	-1061
1019.511	-872
1019.581	-870
1019.651	-1038
1019.721	-1597
1019.791	-1505
1019.861	-1857
1019.931	-1845
1020.001	-863
1020.071	-1224
1020.141	-1518
1020.211	-829
1020.281	-1055
1020.351	-1248
1020.421	-884
1020.491	-1430
1020.560	-367
1020.630	-697
1020.700	-1362
1020.770	-1529
1020.839	-1001
1020.909	-1618
1020.979	-1213
1021.048	-1492
1021.118	-1012
1021.187	-1677
1021.257	-1269
1021.326	-601
1021.396	-1103
1021.465	-1184
1021.535	-944
1021.604	-1487
1021.674	-655
1021.743	-798
1021.812	-727
1021.882	-846
1021.951	-381
1022.020	-981
1022.089	-701
1022.159	-895
1022.228	-1556
1022.297	-1542
1022.366	-910
1022.435	-1428
1022.504	-1316
1022.573	-1677
1022.642	-1300
1022.711	-1818
1022.781	-989
1022.849	-1627
1022.918	-844
1022.987	-1431
1023.056	-837
1023.125	-1266
1023.194	-1327
1023.263	-1100
1023.331	-1520
1023.400	-1369
1023.469	-1129
1023.538	-1562
1023.606	-1485
1023.675	-1518
1023.744	-1565
1023.812	-2025
1023.881	-1023
1023.949	-2356
1024.018	-790
1024.086	-1447
1024.155	-1342
1024.223	-1896
1024.292	-1330
1024.360	-1063
1024.429	-1200
1024.497	-1912
1024.565	-718
1024.634	-1414
1024.702	-1178
1024.770	-1321
1024.838	-1010
1024.907	-1550
1024.975	-1721
1025.043	-314
1025.111	-1932
1025.179	-1489
1025.247	-1499
1025.315	-1548
1025.383	-1673
1025.451	-1665
1025.519	-1529
1025.587	-2008
1025.655	-810
1025.723	-1452
1025.791	-731
1025.859	-1047
1025.927	-464
1025.995	-1740
1026.062	-1393
1026.130	-910
1026.198	-1292
1026.266	-2383
1026.333	-1316
1026.401	-1292
1026.469	-1306
1026.536	-1400
1026.604	-1526
1026.671	-908
1026.739	-1271
1026.806	-760
1026.874	-1454
1026.941	-1168
1027.009	-615
1027.076	-1793
1027.144	-923
1027.211	-921
1027.278	-1701
1027.345	-1419
1027.413	-1304
1027.480	-1619
1027.547	-1836
1027.614	-480
1027.682	-618
1027.749	-662
1027.816	-1320
1027.883	-1228
1027.950	-1703
1028.017	-1400
1028.084	-202
1028.151	-1752
1028.218	-1099
1028.285	-1480
1028.352	-1414
1028.419	-1973
1028.486	-1793
1028.553	-1949
1028.619	-1683
1028.686	-540
1028.753	-1572
1028.820	-1532
1028.886	-1745
1028.953	-1306
1029.020	-1079
1029.086	-1534
1029.153	-2045
1029.220	-1866
1029.286	-1358
1029.353	-1634
1029.419	-2085
1029.486	-1688
1029.552	-1492
1029.619	-773
1029.685	-1019
1029.751	-1654
1029.818	-218
1029.884	-1988
1029.951	-421
1030.017	-1557
1030.083	-1258
1030.149	-2427
1030.216	-857
1030.282	-1411
1030.348	-1089
1030.414	-1622
1030.480	-1391
1030.546	-1973
1030.612	-1755
1030.678	-1059
1030.744	-1160
1030.810	-1593
1030.876	-1845
1030.942	-1118
1031.008	-800
1031.074	-1492
1031.140	-633
1031.206	-1520
1031.272	-2059
1031.337	-1379
1031.403	-1335
1031.469	-2019
1031.534	-2546
1031.600	-1450
1031.666	-1902
1031.731	-2319
1031.797	-1004
1031.863	-2519
1031.928	-1972
1031.994	-2228
1032.059	-1743
1032.125	-964
1032.190	-853
1032.256	-2044
1032.321	-1210
1032.386	-1130
1032.452	-1401
1032.517	-815
1032.582	-1549
1032.647	-200
1032.713	-691
1032.778	-1330
1032.843	-1629
1032.908	-1398
1032.974	-1259
1033.039	-1733
1033.104	-979
1033.169	-1431
1033.234	-1658
1033.299	-569
1033.364	-2157
1033.429	-998
1033.494	-928
1033.559	-1346
1033.624	-523
1033.688	-803
1033.753	-870
1033.818	-861
1033.883	-283
1033.948	749
1034.013	357
1034.077	1461
1034.142	3222
1034.207	4067
1034.271	7081
1034.336	8421
1034.400	6223
1034.465	3354
1034.530	1013
1034.594	-106
1034.658	-613
1034.723	-572
1034.787	-952
1034.852	-1014
1034.916	-1513
1034.981	-2363
1035.045	-1809
1035.109	-1639
1035.173	-162
1035.238	-2140
1035.302	-950
1035.366	-2045
1035.430	-1254
1035.495	-1568
1035.559	-1163
1035.623	-1928
1035.687	-1218
1035.751	-1819
1035.815	-1618
1035.879	-1959
1035.943	-2214
1036.007	-1591
1036.071	-1537
1036.135	-1145
1036.198	-1488
1036.262	-1413
1036.326	-1823
1036.390	-1691
1036.454	-1591
1036.517	-1416
1036.581	-1121
1036.645	-1877
1036.709	-749
1036.772	-2111
1036.836	-1852
1036.900	-1350
1036.963	-2124
1037.026	-1668
1037.090	-2080
1037.154	-978
1037.217	-1332
1037.280	-2475
1037.344	-1961
1037.407	-1967
1037.471	-1802
1037.534	-1291
1037.597	-1737
1037.661	-1134
1037.724	-1024
1037.787	-1461
1037.850	-1508
1037.913	-2217
1037.977	-580
1038.040	-1910
1038.103	-1949
1038.166	-1286
1038.229	-1449
1038.292	-1717
1038.355	-1803
1038.418	-2672
1038.481	-1110
1038.544	-1924
1038.607	-2052
1038.670	-1815
1038.732	-1525
1038.795	-2437
1038.858	-1891
1038.921	-1836
1038.984	-2312
1039.046	-2464
1039.109	-2569
1039.172	-558
1039.234	-1906
1039.297	-1407
1039.360	-1697
1039.422	-2022
1039.485	-1274
1039.547	-2008
1039.610	-1567
1039.672	-1710
1039.734	-1929
1039.797	-1681
1039.859	-1309
1039.922	-2253
1039.984	-1182
1040.046	-1761
1040.109	-1113
1040.171	-1901
1040.233	-1504
1040.295	-2241
1040.358	-2551
1040.420	-2287
1040.482	-2311
1040.544	-1812
1040.606	-2020
1040.668	-1796
1040.730	-1963
1040.792	-2662
1040.854	-2333
1040.916	-2435
1040.978	-2583
1041.040	-1020
1041.102	-1803
1041.164	-2276
1041.225	-1479
1041.287	-1790
1041.349	-1025
1041.411	-2082
1041.472	-2080
1041.534	-1955
1041.596	-2397
1041.657	-994
1041.719	-1620
1041.781	-1847
1041.842	-2408
1041.904	-2523
1041.965	-1551
1042.027	-1395
1042.088	-1719
1042.150	-2284
1042.211	-2439
1042.272	-2102
1042.334	-2325
1042.395	-1905
1042.456	-2744
1042.518	-2517
1042.579	-1705
1042.640	-2107
1042.701	-2139
1042.763	-2735
1042.824	-2638
1042.885	-2268
1042.946	-2165
1043.007	-1638
1043.068	-2657
1043.129	-2526
1043.190	-2556
1043.251	-2363
1043.312	-2714
1043.373	-1263
1043.434	-1870
1043.495	-2971
1043.556	-1660
1043.616	-2433
1043.677	-1985
1043.738	-1884
1043.799	-1622
1043.859	-1496
1043.920	-2070
1043.981	-1753
1044.041	-1630
1044.102	-2214
1044.162	-2101
1044.223	-2565
1044.284	-2156
1044.344	-1228
1044.405	-2093
1044.465	-2005
1044.525	-2032
1044.586	-1494
1044.646	-946
1044.707	-1297
1044.767	-1915
1044.827	-1437
1044.887	-2193
1044.948	-1297
1045.008	-2034
1045.068	-2254
1045.128	-1677
1045.188	-1681
1045.249	-1754
1045.309	-2001
1045.369	-1794
1045.429	-1224
1045.489	-2008
1045.549	-1755
1045.609	-1768
1045.669	-2489
1045.729	-1826
1045.789	-1577
1045.848	-1094
1045.908	-1421
1045.968	-1759
1046.028	-1959
1046.088	-2429
1046.147	-785
1046.207	-610
1046.267	-1056
1046.326	-1237
1046.386	-1511
1046.446	-1694
1046.505	-1425
1046.565	-1118
1046.624	-1252
1046.684	-707
1046.743	-876
1046.803	-659
1046.862	-385
1046.922	0
