'Start Wavelength	183.907
'End Wavelength	1046.922
'Gate Delay	5.000
'Gate Width (ms)	1.050
'Laser Output Level	0.000
'X Position	0.000
'Y Position	0.000
'Z Position	0.000
'Grid Point Number	1.000
'Shot Number	100.000
183.907	672.000
183.977	-85.000
184.047	-36
184.116	889
184.186	799
184.256	-442
184.325	-235
184.395	-199
184.465	178
184.534	-357
184.604	-87
184.674	-214
184.743	-389
184.813	646
184.883	-242
184.952	-448
185.022	419
185.092	729
185.161	175
185.231	40
185.301	361
185.370	611
185.440	-320
185.509	-551
185.579	-390
185.649	353
185.718	194
185.788	422
185.857	-142
185.927	-46
185.996	-432
186.066	-104
186.136	276
186.205	-606
186.275	84
186.344	-207
186.414	774
186.483	-355
186.553	677
186.622	-71
186.692	587
186.761	-301
186.831	402
186.900	-8
186.970	-130
187.039	150
187.109	-235
187.178	-65
187.248	-497
187.317	-140
187.387	-267
187.456	700
187.526	-430
187.595	650
187.664	-344
187.734	126
187.803	232
187.873	-259
187.942	-68
188.012	515
188.081	42
188.150	-69
188.220	600
188.289	354
188.358	181
188.428	33
188.497	-193
188.567	740
188.636	11
188.705	-321
188.775	127
188.844	-225
188.913	-72
188.983	319
189.052	-178
189.121	251
189.191	20
189.260	174
189.329	282
189.399	-107
189.468	-192
189.537	-73
189.606	-191
189.676	-45
189.745	43
189.814	-64
189.883	-62
189.953	-449
190.022	-87
190.091	-341
190.161	-202
190.230	306
190.299	117
190.368	-486
190.437	-123
190.507	124
190.576	11
190.645	53
190.714	-179
190.783	-472
190.853	193
190.922	215
190.991	52
191.060	611
191.129	-414
191.198	-37
191.268	160
191.337	-313
191.406	171
191.475	-374
191.544	57
191.613	223
191.682	9
191.752	21
191.821	122
191.890	-604
191.959	233
192.028	-137
192.097	401
192.166	-170
192.235	231
192.304	71
192.373	194
192.442	-274
192.511	-338
192.580	34
192.650	179
192.719	229
192.788	-75
192.857	905
192.926	-456
192.995	118
193.064	-72
193.133	418
193.202	-643
193.271	-100
193.340	-347
193.409	-121
193.478	942
193.547	465
193.615	-257
193.684	157
193.753	-436
193.822	-348
193.891	-990
193.960	-295
194.029	-135
194.098	318
194.167	-715
194.236	1003
194.305	-181
194.374	-880
194.443	-199
194.512	379
194.580	507
194.649	632
194.718	69
194.787	240
194.856	-167
194.925	84
194.994	-298
195.062	-220
195.131	-568
195.200	121
195.269	-217
195.338	-155
195.407	97
195.475	-173
195.544	177
195.613	92
195.682	-252
195.751	-132
195.819	-875
195.888	91
195.957	510
196.026	72
196.094	761
196.163	-247
196.232	174
196.301	-365
196.369	-233
196.438	-89
196.507	334
196.576	-357
196.644	360
196.713	-347
196.782	-495
196.850	313
196.919	-126
196.988	-312
197.056	-256
197.125	-83
197.194	513
197.262	-159
197.331	-301
197.400	-117
197.468	18
197.537	-207
197.606	362
197.674	-307
197.743	-18
197.812	-662
197.880	-464
197.949	143
198.017	149
198.086	-824
198.155	-511
198.223	-257
198.292	-64
198.360	-285
198.429	327
198.497	-133
198.566	-413
198.635	75
198.703	-481
198.772	497
198.840	2
198.909	-512
198.977	421
199.046	-508
199.114	931
199.183	581
199.251	77
199.320	-650
199.388	19
199.457	-117
199.525	-395
199.594	-110
199.662	-812
199.731	-350
199.799	-360
199.867	-44
199.936	-604
200.004	-61
200.073	284
200.141	-322
200.210	-642
200.278	80
200.346	137
200.415	-453
200.483	160
200.552	608
200.620	-21
200.688	-726
200.757	495
200.825	-297
200.893	70
200.962	388
201.030	-303
201.098	-433
201.167	-851
201.235	-59
201.303	22
201.372	-160
201.440	-644
201.508	233
201.577	-104
201.645	-384
201.713	-307
201.781	26
201.850	915
201.918	45
201.986	220
202.055	-331
202.123	264
202.191	-434
202.259	695
202.327	-284
202.396	718
202.464	-143
202.532	-326
202.600	-25
202.669	-477
202.737	-710
202.805	-587
202.873	-379
202.941	-301
203.009	-479
203.078	-254
203.146	550
203.214	-308
203.282	-346
203.350	827
203.418	-292
203.487	356
203.555	-222
203.623	135
203.691	-204
203.759	12
203.827	-678
203.895	548
203.963	-284
204.031	-622
204.099	127
204.168	450
204.236	192
204.304	162
204.372	-170
204.440	-309
204.508	150
204.576	63
204.644	-251
204.712	95
204.780	526
204.848	-7
204.916	-422
204.984	-130
205.052	55
205.120	-487
205.188	-328
205.256	-166
205.324	41
205.392	-510
205.460	-172
205.528	-12
205.596	-63
205.664	208
205.732	-552
205.799	-483
205.867	-202
205.935	-687
206.003	254
206.071	-375
206.139	-158
206.207	-331
206.275	-411
206.343	-12
206.411	-651
206.478	-156
206.546	126
206.614	-299
206.682	-570
206.750	-529
206.818	-174
206.885	-268
206.953	-482
207.021	149
207.089	189
207.157	-604
207.225	-22
207.292	-1498
207.360	316
207.428	-1015
207.496	-1215
207.563	-255
207.631	69
207.699	21
207.767	20
207.834	-234
207.902	-620
207.970	-475
208.038	-158
208.105	-270
208.173	-82
208.241	-399
208.309	-555
208.376	-366
208.444	315
208.512	-145
208.579	-825
208.647	32
208.715	-163
208.782	-1047
208.850	-100
208.918	-437
208.985	-551
209.053	-265
209.120	-76
209.188	-402
209.256	-1293
209.323	-1029
209.391	-493
209.459	381
209.526	-278
209.594	-736
209.661	-407
209.729	-227
209.796	-19
209.864	68
209.932	-1128
209.999	974
210.067	-491
210.134	-419
210.202	28
210.269	-242
210.337	312
210.404	-586
210.472	-652
210.539	687
210.607	-621
210.674	743
210.742	148
210.809	-209
210.877	-63
210.944	-110
211.012	-905
211.079	915
211.146	-362
211.214	-311
211.281	-87
211.349	-349
211.416	-329
211.484	297
211.551	-727
211.618	-7
211.686	-46
211.753	-681
211.821	757
211.888	-346
211.955	68
212.023	185
212.090	-145
212.157	-387
212.225	-465
212.292	-282
212.359	88
212.427	-462
212.494	-1114
212.561	-356
212.629	-166
212.696	-450
212.763	-460
212.831	-473
212.898	0
212.965	-706
213.032	-748
213.100	-444
213.167	-863
213.234	548
213.301	-432
213.369	40
213.436	-385
213.503	-508
213.570	281
213.638	-17
213.705	-796
213.772	-533
213.839	-1277
213.906	235
213.973	-788
214.041	-584
214.108	-286
214.175	54
214.242	-36
214.309	529
214.376	-638
214.444	-950
214.511	-381
214.578	-744
214.645	521
214.712	-432
214.779	372
214.846	-871
214.913	-91
214.980	62
215.048	215
215.115	494
215.182	-812
215.249	-382
215.316	88
215.383	431
215.450	-833
215.517	-67
215.584	-241
215.651	12
215.718	378
215.785	31
215.852	-520
215.919	-58
215.986	334
216.053	-346
216.120	-763
216.187	-755
216.254	-246
216.321	-96
216.388	-21
216.455	-316
216.522	-1030
216.589	-387
216.656	-522
216.722	-163
216.789	-476
216.856	-289
216.923	-225
216.990	-489
217.057	-848
217.124	-367
217.191	-1093
217.258	-186
217.324	-704
217.391	-200
217.458	-397
217.525	-402
217.592	-131
217.659	-1093
217.725	88
217.792	-555
217.859	460
217.926	-1292
217.993	-206
218.059	150
218.126	-988
218.193	-565
218.260	-605
218.327	-57
218.393	-38
218.460	-153
218.527	-751
218.594	-704
218.660	-804
218.727	-8
218.794	-435
218.860	-185
218.927	-931
218.994	-806
219.061	-705
219.127	448
219.194	-108
219.261	-412
219.327	-549
219.394	638
219.461	-1045
219.527	824
219.594	-146
219.661	115
219.727	-1131
219.794	429
219.860	-157
219.927	410
219.994	-666
220.060	626
220.127	549
220.193	509
220.260	-843
220.326	571
220.393	-445
220.460	-613
220.526	-658
220.593	-563
220.659	1154
220.726	-303
220.792	-121
220.859	-194
220.925	-1225
220.992	-499
221.058	-618
221.125	-534
221.191	-885
221.258	-969
221.324	204
221.391	-879
221.457	-1113
221.524	-397
221.590	-325
221.657	-515
221.723	-1241
221.789	-516
221.856	208
221.922	-554
221.989	89
222.055	52
222.121	-1307
222.188	753
222.254	532
222.321	40
222.387	-810
222.453	-264
222.520	-82
222.586	-673
222.652	-152
222.719	-593
222.785	336
222.851	292
222.918	-332
222.984	-289
223.050	-580
223.116	-1088
223.183	378
223.249	-1087
223.315	-257
223.382	-405
223.448	-831
223.514	-538
223.580	235
223.647	-160
223.713	-976
223.779	-691
223.845	-403
223.911	128
223.978	-1380
224.044	-463
224.110	-266
224.176	1211
224.242	285
224.309	-646
224.375	-427
224.441	499
224.507	-1542
224.573	-1402
224.639	-149
224.705	-349
224.772	-329
224.838	-403
224.904	-558
224.970	-157
225.036	-564
225.102	-1395
225.168	160
225.234	788
225.300	-435
225.366	-332
225.432	-9
225.499	-88
225.565	-200
225.631	-329
225.697	-690
225.763	-652
225.829	-142
225.895	-382
225.961	-1352
226.027	-409
226.093	-1612
226.159	229
226.225	115
226.291	-228
226.357	-285
226.423	-150
226.489	-11
226.554	-629
226.620	-1151
226.686	-400
226.752	408
226.818	52
226.884	-789
226.950	-113
227.016	-712
227.082	-228
227.148	-452
227.214	-390
227.279	-353
227.345	-784
227.411	-580
227.477	689
227.543	1098
227.609	1379
227.674	1058
227.740	-56
227.806	234
227.872	-25
227.938	-463
228.003	-484
228.069	-849
228.135	-531
228.201	135
228.267	-893
228.332	-313
228.398	-1927
228.464	448
228.530	-505
228.595	-311
228.661	-1348
228.727	-997
228.792	882
228.858	-508
228.924	-1316
228.990	1174
229.055	-689
229.121	-307
229.187	-240
229.252	-329
229.318	-837
229.384	-629
229.449	-176
229.515	-1798
229.581	-1648
229.646	275
229.712	194
229.777	-866
229.843	-1370
229.909	-61
229.974	-300
230.040	-550
230.105	-44
230.171	-1374
230.236	-685
230.302	-558
230.368	-1733
230.433	-816
230.499	-173
230.564	-293
230.630	-1420
230.695	208
230.761	140
230.826	-1947
230.892	425
230.957	-1297
231.023	-737
231.088	-471
231.154	-112
231.219	72
231.284	-1405
231.350	-743
231.415	-1270
231.481	-108
231.546	-351
231.612	-680
231.677	-1427
231.742	-1226
231.808	677
231.873	-457
231.939	-1973
232.004	530
232.069	252
232.135	-487
232.200	-895
232.265	-329
232.331	-713
232.396	-1015
232.461	-512
232.527	-558
232.592	-1175
232.657	-747
232.723	-664
232.788	-241
232.853	312
232.918	-775
232.984	-894
233.049	-830
233.114	-1407
233.179	-9
233.245	5
233.310	-414
233.375	-1853
233.440	49
233.506	-1217
233.571	-690
233.636	-747
233.701	-423
233.766	-1088
233.832	-170
233.897	-495
233.962	-1707
234.027	218
234.092	-465
234.157	-1072
234.222	-1030
234.288	-181
234.353	-513
234.418	-739
234.483	-128
234.548	-422
234.613	-421
234.678	-433
234.743	-841
234.808	-362
234.873	-1930
234.938	483
235.004	-549
235.069	-844
235.134	-962
235.199	94
235.264	93
235.329	-1242
235.394	145
235.459	332
235.524	-1400
235.589	565
235.654	-1120
235.719	-1314
235.784	-3
235.849	-307
235.913	-221
235.978	-165
236.043	-518
236.108	-219
236.173	-703
236.238	-157
236.303	-969
236.368	-1192
236.433	-147
236.498	-1536
236.563	-419
236.627	-1015
236.692	-253
236.757	-826
236.822	-1403
236.887	-1219
236.952	-236
237.017	-2086
237.081	72
237.146	-1362
237.211	278
237.276	-679
237.341	-489
237.405	-1246
237.470	-281
237.535	-446
237.600	-162
237.664	-481
237.729	-1220
237.794	-1585
237.859	-580
237.923	-505
237.988	-661
238.053	92
238.118	-759
238.182	-1237
238.247	682
238.312	-1504
238.376	2
238.441	-1955
238.506	369
238.570	-1612
238.635	220
238.700	-55
238.764	-1167
238.829	-160
238.893	-1302
238.958	-93
239.023	-676
239.087	-108
239.152	-16
239.216	-1043
239.281	257
239.346	19
239.410	-668
239.475	-612
239.539	-360
239.604	-1530
239.668	626
239.733	-67
239.797	983
239.862	3335
239.926	2383
239.991	800
240.055	59
240.120	236
240.184	401
240.249	-768
240.313	113
240.378	-64
240.442	-1096
240.507	-594
240.571	-519
240.635	-803
240.700	-309
240.764	-405
240.829	-163
240.893	-939
240.957	-355
241.022	-514
241.086	276
241.151	-605
241.215	-921
241.279	565
241.344	-1632
241.408	-141
241.472	-1344
241.537	-53
241.601	-531
241.665	-1401
241.730	-1643
241.794	403
241.858	-718
241.922	-821
241.987	-691
242.051	-1221
242.115	-1675
242.179	-858
242.244	-1174
242.308	134
242.372	-1516
242.436	-1311
242.501	-1229
242.565	-1500
242.629	-1571
242.693	737
242.757	-961
242.822	-758
242.886	-59
242.950	527
243.014	-1886
243.078	-163
243.142	-1080
243.206	-1300
243.271	-399
243.335	-1686
243.399	54
243.463	-1051
243.527	-308
243.591	-835
243.655	-861
243.719	-1535
243.783	-156
243.847	-697
243.911	-305
243.975	-1524
244.040	-2128
244.104	942
244.168	-103
244.232	-1063
244.296	-716
244.360	-1022
244.424	-1992
244.488	-894
244.552	-447
244.615	-1650
244.679	-688
244.743	-1244
244.807	-1888
244.871	120
244.935	-322
244.999	-1935
245.063	-1450
245.127	635
245.191	-1275
245.255	-1334
245.319	-652
245.383	-1570
245.446	475
245.510	-1351
245.574	-701
245.638	-279
245.702	-2038
245.766	-93
245.829	487
245.893	-1542
245.957	-1221
246.021	274
246.085	-940
246.149	-1239
246.212	1066
246.276	-1182
246.340	-1154
246.404	-337
246.467	318
246.531	-2659
246.595	444
246.659	876
246.722	-1267
246.786	-231
246.850	-777
246.913	-243
246.977	-1613
247.041	-352
247.104	-1031
247.168	-1022
247.232	-68
247.295	-436
247.359	-690
247.423	-639
247.486	-444
247.550	542
247.614	-1476
247.677	-1312
247.741	-637
247.804	-917
247.868	-128
247.932	-1063
247.995	39
248.059	-1142
248.122	-1898
248.186	257
248.249	-727
248.313	298
248.376	-24
248.440	-329
248.503	-1674
248.567	829
248.630	-1206
248.694	-643
248.757	-374
248.821	475
248.884	590
248.948	-1254
249.011	-583
249.075	-92
249.138	89
249.202	-233
249.265	-994
249.328	92
249.392	-1108
249.455	-538
249.519	-287
249.582	-528
249.645	-95
249.709	-420
249.772	-1505
249.835	-152
249.899	-970
249.962	399
250.025	-887
250.089	-129
250.152	-185
250.215	-923
250.279	-1195
250.342	-394
250.405	-196
250.468	-1102
250.532	-1109
250.595	-780
250.658	-1932
250.721	-1047
250.785	-1513
250.848	548
250.911	-1129
250.974	342
251.038	-1023
251.101	-611
251.164	-1113
251.227	15
251.290	-598
251.354	-124
251.417	-1179
251.480	-667
251.543	-940
251.606	-608
251.669	-82
251.732	211
251.795	-641
251.859	21
251.922	-1459
251.985	-872
252.048	270
252.111	-1844
252.174	-1681
252.237	-110
252.300	-56
252.363	-1267
252.426	727
252.489	-968
252.552	-659
252.615	-1422
252.678	111
252.741	-529
252.804	-1828
252.867	-147
252.930	-510
252.993	-573
253.056	-177
253.119	-981
253.182	-1131
253.245	-1497
253.308	172
253.371	-1315
253.434	-689
253.497	-297
253.559	301
253.622	-976
253.685	-874
253.748	-1548
253.811	-1887
253.874	-82
253.937	-840
254.000	-1171
254.062	-551
254.125	-574
254.188	82
254.251	-1098
254.314	-939
254.376	-215
254.439	-208
254.502	-411
254.565	-90
254.628	326
254.690	-1641
254.753	-834
254.816	-1482
254.878	-1211
254.941	-142
255.004	-639
255.067	-1009
255.129	-1029
255.192	-865
255.255	-1364
255.317	-230
255.380	-346
255.443	-985
255.505	-770
255.568	-1521
255.631	-1109
255.693	119
255.756	-985
255.819	-408
255.881	-1164
255.944	-453
256.006	-874
256.069	-812
256.132	-1124
256.194	-196
256.257	-634
256.319	-1030
256.382	-1049
256.444	346
256.507	-701
256.569	-1016
256.632	-1021
256.694	-1611
256.757	-611
256.819	-575
256.882	-1686
256.944	-405
257.007	260
257.069	-823
257.132	-966
257.194	-595
257.257	-795
257.319	-1748
257.381	-1194
257.444	68
257.506	-999
257.569	-418
257.631	-462
257.693	-320
257.756	-1099
257.818	-1162
257.880	-189
257.943	-51
258.005	-1651
258.067	-390
258.130	-17
258.192	-590
258.254	-221
258.317	-1142
258.379	-217
258.441	-1453
258.503	-617
258.566	-1013
258.628	-400
258.690	-1796
258.753	-269
258.815	-875
258.877	-545
258.939	-254
259.001	-496
259.064	-997
259.126	-2009
259.188	-964
259.250	-175
259.312	-652
259.375	-521
259.437	-779
259.499	132
259.561	-665
259.623	-61
259.685	-967
259.747	-685
259.809	-618
259.872	-533
259.934	-996
259.996	-101
260.058	111
260.120	-1526
260.182	-749
260.244	-519
260.306	-965
260.368	-345
260.430	-1548
260.492	-187
260.554	28
260.616	-1398
260.678	-579
260.740	-869
260.802	-692
260.864	-460
260.926	-1940
260.988	-184
261.050	-761
261.112	-976
261.174	-265
261.236	-144
261.298	-917
261.359	-243
261.421	-338
261.483	-996
261.545	200
261.607	-1628
261.669	-219
261.731	-516
261.793	-267
261.854	-1944
261.916	-93
261.978	-658
262.040	-614
262.102	-343
262.164	-1060
262.225	-75
262.287	-483
262.349	-1178
262.411	-649
262.472	-584
262.534	-1015
262.596	-1121
262.658	463
262.719	-1000
262.781	-494
262.843	-1633
262.904	-499
262.966	-240
263.028	-553
263.090	316
263.151	-1203
263.213	151
263.275	-1111
263.336	-1341
263.398	116
263.459	-832
263.521	130
263.583	-491
263.644	-248
263.706	-552
263.767	-1556
263.829	-601
263.891	-347
263.952	-640
264.014	-945
264.075	-919
264.137	-423
264.198	-28
264.260	-801
264.321	-838
264.383	-906
264.444	-635
264.506	-539
264.567	-462
264.629	-101
264.690	-1898
264.752	119
264.813	-685
264.875	-701
264.936	-365
264.998	-528
265.059	-1192
265.120	-565
265.182	-1029
265.243	-1205
265.305	-382
265.366	-736
265.427	-602
265.489	-149
265.550	-2193
265.611	20
265.673	-1183
265.734	30
265.795	-480
265.857	-1229
265.918	-1400
265.979	-462
266.040	-1025
266.102	-471
266.163	-726
266.224	-765
266.286	-308
266.347	-1695
266.408	-615
266.469	-564
266.530	-1167
266.592	85
266.653	-199
266.714	-1205
266.775	-1003
266.836	-491
266.898	-1101
266.959	-896
267.020	-706
267.081	-275
267.142	-1212
267.203	-1028
267.264	-1040
267.326	-846
267.387	-1274
267.448	-893
267.509	-40
267.570	-576
267.631	-779
267.692	-2149
267.753	-1718
267.814	-1144
267.875	-532
267.936	-610
267.997	-1025
268.058	-1366
268.119	-1262
268.180	-1030
268.241	-1858
268.302	-1139
268.363	-693
268.424	-384
268.485	-42
268.546	-1168
268.607	-379
268.668	-1372
268.729	-82
268.790	-319
268.851	-1438
268.912	-1376
268.972	-1244
269.033	-639
269.094	-1012
269.155	-707
269.216	-207
269.277	-1092
269.338	-431
269.398	-60
269.459	-1026
269.520	-1351
269.581	-452
269.642	-1797
269.702	-1287
269.763	-1378
269.824	-593
269.885	-1281
269.945	-1049
270.006	138
270.067	-1088
270.128	-300
270.188	-326
270.249	-858
270.310	-313
270.370	-39
270.431	-274
270.492	-517
270.553	-832
270.613	-1304
270.674	-292
270.734	-621
270.795	-374
270.856	-764
270.916	-1714
270.977	-437
271.038	-542
271.098	-42
271.159	-1266
271.219	-1268
271.280	-1047
271.340	-247
271.401	-1107
271.462	-777
271.522	-518
271.583	-392
271.643	-997
271.704	-173
271.764	-874
271.825	-1096
271.885	953
271.946	-196
272.006	-1137
272.066	-159
272.127	138
272.187	2364
272.248	259
272.308	-1053
272.369	-218
272.429	-680
272.489	-811
272.550	-1050
272.610	-363
272.671	-441
272.731	-731
272.791	-960
272.852	-1309
272.912	-489
272.972	244
273.033	-639
273.093	-1358
273.153	103
273.214	-1072
273.274	-590
273.334	-793
273.394	-678
273.455	-436
273.515	-541
273.575	-292
273.635	-177
273.696	-244
273.756	-25
273.816	-934
273.876	-216
273.936	-893
273.997	-1026
274.057	-619
274.117	-1381
274.177	-490
274.237	-1088
274.297	172
274.358	-910
274.418	-525
274.478	-257
274.538	-503
274.598	-610
274.658	-44
274.718	-430
274.778	-82
274.838	-738
274.898	-1402
274.958	-289
275.018	-409
275.078	-445
275.138	-433
275.198	-326
275.258	-528
275.318	-758
275.378	-695
275.438	-1072
275.498	-724
275.558	-731
275.618	-349
275.678	-616
275.738	-187
275.798	-107
275.858	-557
275.918	-1133
275.978	-699
276.038	409
276.098	-604
276.157	-950
276.217	-394
276.277	-1251
276.337	33
276.397	-433
276.457	-432
276.517	37
276.576	-47
276.636	-203
276.696	-913
276.756	588
276.815	-1286
276.875	-104
276.935	-867
276.995	-452
277.055	94
277.114	-432
277.174	-553
277.234	-1268
277.293	-728
277.353	-662
277.413	-415
277.472	311
277.532	-1091
277.592	-207
277.651	195
277.711	-159
277.771	-197
277.830	688
277.890	594
277.950	763
278.009	2374
278.069	705
278.128	157
278.188	1097
278.248	-23
278.307	1080
278.367	1010
278.426	-385
278.486	-385
278.545	-1048
278.605	-78
278.664	-879
278.724	-259
278.783	-241
278.843	185
278.902	-342
278.962	-1242
279.021	-688
279.081	172
279.140	123
279.199	-777
279.259	-582
279.318	-342
279.378	239
279.437	412
279.496	3693
279.556	12062
279.615	9555
279.675	785
279.734	-274
279.793	441
279.853	3076
279.912	1095
279.971	82
280.031	-169
280.090	1167
280.149	2252
280.208	1075
280.268	5535
280.327	7185
280.386	-110
280.445	751
280.505	-77
280.564	-230
280.623	-1313
280.682	-162
280.742	-452
280.801	-385
280.860	-975
280.919	-253
280.978	-174
281.037	-828
281.097	-472
281.156	213
281.215	-97
281.274	-17
281.333	405
281.392	-508
281.451	-592
281.510	-266
281.569	-738
281.628	-415
281.688	-451
281.747	26
281.806	-1120
281.865	-282
281.924	-226
281.983	-1127
282.042	-370
282.101	-290
282.160	-161
282.219	-909
282.278	-417
282.337	-1023
282.396	19
282.454	183
282.513	-655
282.572	-475
282.631	-736
282.690	-863
282.749	-779
282.808	-265
282.867	-64
282.926	-173
282.985	-357
283.043	-728
283.102	-1183
283.161	-1019
283.220	-24
283.279	-51
283.338	-632
283.396	-1280
283.455	-86
283.514	-721
283.573	-507
283.631	90
283.690	-246
283.749	-790
283.808	-110
283.866	-228
283.925	-425
283.984	60
284.043	-716
284.101	155
284.160	-1349
284.219	14
284.277	-214
284.336	-106
284.395	-76
284.453	154
284.512	176
284.570	-280
284.629	-447
284.688	-562
284.746	563
284.805	123
284.863	33
284.922	226
284.981	143
285.039	1073
285.098	1096
285.156	4862
285.215	19177
285.273	21300
285.332	7956
285.390	3258
285.449	1653
285.507	890
285.566	-147
285.624	1211
285.683	308
285.741	92
285.799	-370
285.858	390
285.916	-709
285.975	344
286.033	-585
286.091	-96
286.150	-257
286.208	-747
286.267	-216
286.325	-868
286.383	-1040
286.442	-1271
286.500	-192
286.558	-384
286.616	-1340
286.675	949
286.733	749
286.791	-382
286.850	769
286.908	-970
286.966	-662
287.024	1
287.083	229
287.141	-426
287.199	261
287.257	-174
287.315	223
287.374	65
287.432	-443
287.490	-14
287.548	246
287.606	-225
287.664	-353
287.723	499
287.781	-338
287.839	-150
287.897	-707
287.955	-311
288.013	-703
288.071	-62
288.129	108
288.187	-213
288.245	-590
288.303	-546
288.361	383
288.419	-2
288.477	-474
288.535	-325
288.593	-335
288.651	-256
288.709	-495
288.767	531
288.825	-533
288.883	-40
288.941	-197
288.999	-661
289.057	-243
289.115	81
289.173	358
289.231	-361
289.289	-479
289.346	-411
289.404	297
289.462	-396
289.520	-676
289.578	366
289.636	-400
289.694	-634
289.751	-24
289.809	32
289.867	-207
289.925	964
289.983	186
290.040	226
290.098	-677
290.156	-179
290.214	-268
290.271	-64
290.329	-201
290.387	172
290.444	161
290.502	-714
290.560	-478
290.617	-285
290.675	-332
290.733	-81
290.790	-183
290.848	-521
290.906	-432
290.963	88
291.021	122
291.078	-590
291.136	-805
291.194	180
291.251	56
291.309	-215
291.366	-89
291.424	59
291.481	-26
291.539	-401
291.596	118
291.654	-58
291.711	-549
291.769	-45
291.826	-204
291.884	304
291.941	-178
291.999	-627
292.056	124
292.114	267
292.171	171
292.228	611
292.286	317
292.343	-278
292.401	-29
292.458	382
292.515	756
292.573	172
292.630	935
292.687	367
292.745	-921
292.802	14
292.859	197
292.917	332
292.974	-14
293.031	21
293.089	400
293.146	-57
293.203	441
293.260	-611
293.318	-102
293.375	-465
293.432	-138
293.489	-109
293.546	-96
293.604	-825
293.661	-158
293.718	521
293.775	228
293.832	201
293.889	189
293.947	29
294.004	-315
294.061	-163
294.118	-866
294.175	303
294.232	266
294.289	62
294.346	1188
294.403	309
294.460	-236
294.517	-563
294.574	313
294.631	-172
294.688	-221
294.745	11
294.802	189
294.859	-81
294.916	-271
294.973	921
295.030	-367
295.087	-871
295.144	424
295.201	103
295.258	-160
295.315	222
295.372	251
295.429	202
295.486	-635
295.542	-382
295.599	381
295.656	703
295.713	250
295.770	509
295.827	410
295.883	524
295.940	54
295.997	142
296.054	-107
296.111	610
296.167	98
296.224	138
296.281	-190
296.338	254
296.394	-293
296.451	-412
296.508	81
296.564	712
296.621	376
296.678	386
296.734	2359
296.791	457
296.848	267
296.904	72
296.961	230
297.018	722
297.074	235
297.131	694
297.187	79
297.244	-482
297.301	731
297.357	2188
297.414	776
297.470	785
297.527	-368
297.583	-80
297.640	309
297.696	558
297.753	17
297.809	-411
297.866	-438
297.922	-337
297.979	-49
298.035	141
298.092	271
298.148	435
298.204	761
298.261	-843
298.317	725
298.374	1640
298.430	1065
298.486	157
298.543	-105
298.599	-155
298.656	-82
298.712	-10
298.768	394
298.824	104
298.881	346
298.937	946
298.993	-691
299.050	-156
299.106	428
299.162	180
299.218	198
299.275	429
299.331	-282
299.387	742
299.443	2652
299.500	8342
299.556	9020
299.612	4155
299.668	2928
299.724	6662
299.780	11129
299.837	5034
299.893	2275
299.949	5655
300.005	10007
300.061	7580
300.117	10980
300.173	6346
300.229	2363
300.285	1490
300.341	1694
300.397	1531
300.453	1036
300.510	1235
300.566	1254
300.622	3226
300.678	10877
300.734	18374
300.790	8492
300.845	4847
300.901	6838
300.957	11502
301.013	6322
301.069	2300
301.125	1333
301.181	1568
301.237	579
301.293	261
301.349	775
301.405	393
301.461	615
301.516	1044
301.572	722
301.628	576
301.684	358
301.740	801
301.796	521
301.851	866
301.907	286
301.963	676
302.019	1364
302.074	4136
302.130	4808
302.186	2888
302.242	1049
302.297	890
302.353	993
302.409	374
302.464	-153
302.520	338
302.576	1033
302.631	1506
302.687	280
302.743	949
302.798	183
302.854	-145
302.910	158
302.965	179
303.021	623
303.076	444
303.132	-199
303.187	703
303.243	236
303.299	-8
303.354	-136
303.410	482
303.465	819
303.521	-100
303.576	347
303.632	305
303.687	609
303.743	1395
303.798	1833
303.853	487
303.909	-70
303.964	270
304.020	755
304.075	147
304.130	59
304.186	-550
304.241	2316
304.297	526
304.352	574
304.358	487
304.407	-217
304.449	84
304.463	190
304.518	30
304.539	280
304.573	657
304.629	384
304.630	393
304.684	793
304.720	1212
304.739	1434
304.794	1163
304.811	1304
304.850	1602
304.902	1011
304.905	973
304.960	118
304.992	181
305.015	225
305.071	-36
305.083	-1
305.126	91
305.173	-56
305.181	-61
305.236	-166
305.264	256
305.292	599
305.347	-77
305.354	-24
305.402	449
305.445	394
305.457	334
305.512	521
305.535	367
305.567	251
305.622	-61
305.626	-12
305.678	699
305.716	846
305.733	944
305.788	811
305.807	944
305.843	1145
305.897	1100
305.898	1099
305.953	1550
305.988	1079
306.008	790
306.063	-103
306.078	24
306.118	446
306.168	448
306.173	443
306.228	989
306.259	656
306.283	444
306.338	848
306.349	734
306.393	156
306.440	-191
306.448	-223
306.503	497
306.530	521
306.558	449
306.613	490
306.620	391
306.668	-165
306.711	353
306.723	523
306.778	188
306.801	727
306.833	1362
306.888	309
306.892	319
306.943	417
306.982	254
306.997	248
307.052	258
307.072	281
307.107	297
307.162	807
307.163	804
307.217	478
307.253	100
307.272	-116
307.327	-164
307.343	-190
307.381	-25
307.434	289
307.436	297
307.491	674
307.524	541
307.546	511
307.600	1020
307.614	942
307.655	432
307.704	84
307.710	68
307.765	-6
307.795	-15
307.819	-46
307.874	158
307.885	70
307.929	12
307.975	899
307.984	1027
308.038	930
308.065	885
308.093	880
308.148	562
308.156	680
308.202	1064
308.246	917
308.257	942
308.312	429
308.336	543
308.366	501
308.421	309
308.426	291
308.475	523
308.517	577
308.530	524
308.585	252
308.607	236
308.639	269
308.694	-116
308.697	-102
308.748	605
308.787	999
308.803	946
308.857	496
308.877	308
308.912	174
308.967	326
308.967	323
309.021	481
309.058	840
309.076	901
309.130	684
309.148	648
309.185	1319
309.238	2070
309.239	2065
309.293	2013
309.328	1803
309.348	1765
309.402	1240
309.418	1149
309.457	1185
309.508	949
309.511	935
309.566	1118
309.598	1215
309.620	1308
309.674	1154
309.688	1294
309.729	1843
309.778	1954
309.783	1883
309.837	1288
309.868	615
309.892	701
309.946	1398
309.959	1559
310.001	1271
310.049	916
310.055	943
310.109	876
310.139	987
310.163	860
310.218	685
310.229	565
310.272	708
310.319	1299
310.326	1264
310.381	708
310.409	344
310.435	438
310.489	948
310.499	1002
310.543	701
310.589	317
310.598	403
310.652	1373
310.679	1624
310.706	1211
310.760	509
310.769	413
310.814	827
310.859	1083
310.868	1046
310.923	867
310.948	823
310.977	905
311.031	1119
311.038	1127
311.085	1159
311.128	1262
311.139	1282
311.193	1358
311.218	1306
311.247	932
311.301	466
311.308	410
311.356	1093
311.398	1528
311.410	1384
311.464	893
311.488	616
311.518	508
311.572	378
311.578	368
311.626	470
311.668	517
311.680	741
311.734	1765
311.758	2220
311.788	2028
311.842	1709
311.847	1668
311.896	1628
311.937	1618
311.950	1470
312.004	829
312.027	547
312.058	793
312.112	1246
312.117	1296
312.165	1568
312.207	1810
312.297	1640
312.386	765
312.476	1117
312.566	521
312.656	1313
312.745	598
312.835	1669
312.925	1544
313.015	1059
313.104	1423
313.194	1817
313.284	1191
313.374	1401
313.463	1668
313.553	2286
313.643	1342
313.732	2630
313.822	2364
313.912	2368
314.001	2731
314.091	2821
314.180	2084
314.270	3101
314.360	1310
314.449	2934
314.539	1773
314.628	2679
314.718	2561
314.808	3145
314.897	3285
314.987	3978
315.076	3074
315.166	3498
315.255	3270
315.345	3691
315.434	2189
315.524	3796
315.613	2531
315.703	4287
315.792	9248
315.881	30423
315.971	9507
316.060	4550
316.150	3350
316.239	2219
316.328	3283
316.418	3479
316.507	2986
316.597	3734
316.686	3665
316.775	2991
316.865	3336
316.954	2784
317.043	2447
317.133	2620
317.222	2034
317.311	2340
317.400	1117
317.490	3423
317.579	2938
317.668	2939
317.757	4522
317.847	15731
317.936	44772
318.025	15601
318.114	10929
318.203	5951
318.293	3089
318.382	4940
318.471	5265
318.560	4648
318.649	3040
318.738	2386
318.828	1622
318.917	2136
319.006	1620
319.095	1523
319.184	2086
319.273	1792
319.362	1903
319.451	1416
319.540	860
319.629	2229
319.718	2039
319.807	1886
319.896	1317
319.985	2654
320.074	2026
320.163	1736
320.252	1850
320.341	1892
320.430	2074
320.519	2556
320.608	2542
320.697	3358
320.786	3468
320.875	5411
320.964	5232
321.053	5140
321.142	4766
321.230	5637
321.319	5606
321.408	7665
321.497	7446
321.586	7251
321.675	5133
321.764	5135
321.852	5078
321.941	5018
322.030	4818
322.119	5512
322.207	6152
322.296	7795
322.385	8712
322.474	9887
322.562	10678
322.651	8093
322.740	6828
322.829	5218
322.917	4370
323.006	4151
323.095	3541
323.183	3248
323.272	2820
323.361	3462
323.449	2815
323.538	3130
323.626	2870
323.715	2934
323.804	1945
323.892	2790
323.981	1913
324.069	2321
324.158	1560
324.246	2474
324.335	1930
324.424	2686
324.512	2687
324.601	2192
324.689	1353
324.778	1873
324.866	2437
324.954	1970
325.043	1587
325.131	937
325.220	1905
325.308	844
325.397	1901
325.485	1669
325.574	1094
325.662	2064
325.750	635
325.839	2187
325.927	1895
326.015	2031
326.104	942
326.192	1484
326.280	1149
326.369	1823
326.457	1423
326.545	1139
326.634	1319
326.722	1853
326.810	1851
326.898	2686
326.987	2742
327.075	1701
327.163	2419
327.251	1540
327.340	2172
327.428	3511
327.516	3688
327.604	3030
327.692	2006
327.781	1630
327.869	1367
327.957	1461
328.045	1121
328.133	2066
328.221	966
328.309	1686
328.397	1261
328.485	1827
328.574	3698
328.662	5429
328.750	2484
328.838	1580
328.926	2125
329.014	1637
329.102	1567
329.190	2683
329.278	1537
329.366	1589
329.454	768
329.542	1211
329.630	759
329.718	2153
329.806	1283
329.893	1922
329.981	1023
330.069	1538
330.157	1551
330.245	1340
330.333	1677
330.421	1650
330.509	1436
330.597	1759
330.684	1701
330.772	1841
330.860	1434
330.948	1594
331.036	1351
331.123	1705
331.211	2036
331.299	1811
331.387	1713
331.475	1427
331.562	1004
331.650	2610
331.738	604
331.825	1950
331.913	1734
332.001	2462
332.089	1731
332.176	1414
332.264	1339
332.352	1718
332.439	1856
332.527	1147
332.614	805
332.702	1458
332.790	1025
332.877	1960
332.965	1288
333.052	1970
333.140	2124
333.228	1989
333.315	1770
333.403	2162
333.490	2249
333.578	1742
333.665	2267
333.753	3993
333.840	1760
333.928	3299
334.015	3731
334.103	5409
334.190	6465
334.278	9272
334.365	11888
334.452	13219
334.540	8463
334.627	7929
334.715	10350
334.802	14368
334.889	21634
334.977	28386
335.064	20396
335.151	10002
335.239	7664
335.326	5879
335.413	5970
335.501	6519
335.588	6279
335.675	7435
335.762	8438
335.850	12673
335.937	17522
336.024	26610
336.111	39498
336.199	36364
336.286	18507
336.373	10183
336.460	6579
336.547	5724
336.635	4007
336.722	4400
336.809	3643
336.896	2991
336.983	2954
337.070	3137
337.157	2682
337.245	3100
337.332	2970
337.419	2928
337.506	3262
337.593	3112
337.680	2771
337.767	2889
337.854	2307
337.941	2461
338.028	1897
338.115	2333
338.202	2897
338.289	2668
338.376	1299
338.463	2606
338.550	1232
338.637	1524
338.724	1675
338.811	3029
338.898	1324
338.984	2529
339.071	1709
339.158	2261
339.245	1491
339.332	2953
339.419	1972
339.506	2695
339.593	1385
339.679	2198
339.766	1871
339.853	2215
339.940	1468
340.027	1831
340.113	1220
340.200	1538
340.287	1738
340.374	1010
340.460	1430
340.547	844
340.634	1331
340.720	2360
340.807	544
340.894	2585
340.980	884
341.067	1502
341.154	1766
341.240	1541
341.327	1395
341.414	2361
341.500	1198
341.587	1779
341.674	2012
341.760	2069
341.847	1492
341.933	2431
342.020	985
342.106	1971
342.193	1695
342.279	2203
342.366	1458
342.452	1499
342.539	1113
342.625	1351
342.712	1424
342.798	1885
342.885	1088
342.971	649
343.058	781
343.144	1566
343.230	1787
343.317	1590
343.403	1049
343.490	1579
343.576	1087
343.662	2226
343.749	553
343.835	1494
343.921	1796
344.008	3942
344.094	5500
344.180	2039
344.267	807
344.353	2025
344.439	644
344.525	1746
344.612	1627
344.698	1323
344.784	111
344.870	1640
344.957	916
345.043	2031
345.129	340
345.215	2402
345.301	995
345.387	1087
345.474	1011
345.560	1218
345.646	632
345.732	1662
345.818	914
345.904	1402
345.990	1084
346.076	1528
346.162	959
346.249	2662
346.335	1201
346.421	1962
346.507	1222
346.593	2666
346.679	545
346.765	2980
346.851	3819
346.937	2517
347.023	2370
347.108	1679
347.194	1432
347.280	1990
347.366	2669
347.452	7964
347.538	9117
347.624	6286
347.710	2008
347.796	2091
347.882	2094
347.967	2131
348.053	311
348.139	1689
348.225	1129
348.311	1710
348.397	1528
348.482	2122
348.568	1767
348.654	3941
348.740	11053
348.825	12021
348.911	5624
348.997	3611
349.083	3489
349.168	2149
349.254	1326
349.340	1329
349.425	2093
349.511	1598
349.597	1034
349.682	1209
349.768	2476
349.854	2266
349.939	1630
350.025	2192
350.110	1268
350.196	1476
350.282	933
350.367	2356
350.453	1483
350.538	2024
350.624	523
350.709	1737
350.795	671
350.880	1803
350.966	2012
351.051	2128
351.137	1197
351.222	1609
351.308	1416
351.393	1861
351.479	645
351.564	1537
351.649	1666
351.735	1885
351.820	1313
351.906	1471
351.991	478
352.076	1931
352.162	2063
352.247	1631
352.332	269
352.418	1166
352.503	759
352.588	2929
352.673	777
352.759	1775
352.844	1029
352.929	2596
353.014	2076
353.100	2172
353.185	1612
353.270	1803
353.355	1072
353.441	1922
353.526	593
353.611	833
353.696	574
353.781	1888
353.866	669
353.952	2243
354.037	-236
354.122	2210
354.207	804
354.292	1304
354.377	1156
354.462	1291
354.547	1547
354.632	1723
354.717	1660
354.802	1316
354.887	993
354.972	1464
355.057	838
355.142	1300
355.227	1908
355.312	691
355.397	1292
355.482	1274
355.567	924
355.652	1970
355.737	1810
355.822	1494
355.907	1070
355.991	2746
356.076	835
356.161	2247
356.246	1440
356.331	2078
356.416	817
356.501	4972
356.585	2179
356.670	428
356.755	2944
356.840	2569
356.924	3018
357.009	6588
357.094	2954
357.179	1576
357.263	1422
357.348	1855
357.433	1603
357.517	2531
357.602	1464
357.687	1613
357.771	2138
357.856	1761
357.941	1599
358.025	3596
358.110	9204
358.195	4748
358.279	1464
358.364	2389
358.448	2073
358.533	3346
358.617	2248
358.702	2415
358.787	1698
358.871	2521
358.956	2495
359.040	2209
359.125	886
359.209	2806
359.294	2145
359.378	3558
359.462	3573
359.547	2727
359.631	1793
359.716	1378
359.800	2356
359.885	3023
359.969	1411
360.053	2224
360.138	1512
360.222	2460
360.306	1631
360.391	1967
360.475	2023
360.559	1855
360.644	2466
360.728	1356
360.812	3466
360.896	5650
360.981	2225
361.065	2170
361.149	2778
361.233	2281
361.318	2209
361.402	3123
361.486	3211
361.570	2798
361.654	3235
361.739	3161
361.823	4259
361.907	6873
361.991	4135
362.075	6108
362.159	6851
362.243	16668
362.327	33165
362.411	47815
362.495	19397
362.580	9982
362.664	9059
362.748	11277
362.832	18467
362.916	34459
363.000	80658
363.084	102093
363.168	42037
363.252	15992
363.336	10716
363.420	8598
363.503	6430
363.587	6379
363.671	6365
363.755	6553
363.839	7852
363.923	7468
364.007	9808
364.091	13756
364.175	19421
364.258	44613
364.342	89945
364.426	143036
364.510	80572
364.594	29333
364.677	15099
364.761	9541
364.845	7657
364.929	6211
365.013	4436
365.096	4517
365.180	2249
365.264	3988
365.347	3896
365.431	3304
365.515	2067
365.598	2180
365.682	4087
365.766	2428
365.849	2371
365.933	2569
366.017	4203
366.100	2764
366.184	1943
366.267	4240
366.351	2245
366.435	2745
366.518	1921
366.602	3106
366.685	2750
366.769	3019
366.852	2927
366.936	2729
367.019	2482
367.103	2071
367.186	3573
367.270	2692
367.353	2381
367.436	3835
367.520	2913
367.603	4152
367.687	1389
367.770	2841
367.853	3135
367.937	3858
368.020	3702
368.104	1852
368.187	2861
368.270	3363
368.353	1547
368.437	2396
368.520	2723
368.603	3051
368.687	1377
368.770	3702
368.853	1905
368.936	2565
369.020	2916
369.103	2553
369.186	1386
369.269	1599
369.352	1807
369.436	2032
369.519	2026
369.602	555
369.685	3305
369.768	1460
369.851	2029
369.934	1056
370.018	1785
370.101	610
370.184	3449
370.267	3104
370.350	2200
370.433	2695
370.516	5675
370.599	17522
370.682	7220
370.765	4511
370.848	2818
370.931	2839
371.014	3075
371.097	1220
371.180	2118
371.263	3043
371.346	-47
371.429	2355
371.511	1043
371.594	1339
371.677	2056
371.760	3168
371.843	1739
371.926	5470
372.009	7339
372.091	5012
372.174	1684
372.257	4081
372.340	1661
372.423	2047
372.505	3603
372.588	2051
372.671	2844
372.754	2556
372.836	1610
372.919	2797
373.002	2641
373.085	1307
373.167	2607
373.250	2604
373.332	4002
373.415	7807
373.498	9041
373.580	9228
373.663	25750
373.746	24679
373.828	4845
373.911	4520
373.993	2338
374.076	3585
374.159	2293
374.241	2790
374.324	4046
374.406	4455
374.489	4051
374.571	7372
374.654	4089
374.736	4604
374.819	5751
374.901	8946
374.983	7828
375.066	5002
375.148	4339
375.231	4659
375.313	3983
375.395	4225
375.478	4031
375.560	4099
375.643	3973
375.725	4093
375.807	5499
375.890	6265
375.972	2241
376.054	3653
376.136	2657
376.219	3079
376.301	3527
376.383	4343
376.465	2836
376.548	2188
376.630	2451
376.712	4172
376.794	2702
376.877	2486
376.959	1533
377.041	2284
377.123	2533
377.205	2441
377.287	1806
377.369	2563
377.452	2432
377.534	2869
377.616	2440
377.698	2235
377.780	1604
377.862	1589
377.944	3134
378.026	1485
378.108	3416
378.190	2297
378.272	2393
378.354	2176
378.436	1194
378.518	1183
378.600	1878
378.682	2204
378.764	1949
378.846	1967
378.928	1729
379.010	1553
379.091	2388
379.173	2897
379.255	1245
379.337	1456
379.419	1211
379.501	3602
379.583	2753
379.664	2426
379.746	991
379.828	4012
379.910	1527
379.991	3252
380.073	458
380.155	2389
380.237	1081
380.318	2153
380.400	1968
380.482	2539
380.564	2124
380.645	1900
380.727	1339
380.809	3563
380.890	2101
380.972	1089
381.053	1228
381.135	2915
381.217	934
381.298	3180
381.380	1711
381.461	2586
381.543	3329
381.624	3722
381.706	1371
381.787	2262
381.869	2104
381.951	2961
382.032	6343
382.113	7316
382.195	607
382.276	3611
382.358	2431
382.439	2755
382.521	4380
382.602	6200
382.684	3893
382.765	4445
382.846	4365
382.928	7693
383.009	4721
383.090	5691
383.172	12156
383.253	16061
383.334	6045
383.416	5854
383.497	4071
383.578	3380
383.659	4282
383.741	12499
383.822	26763
383.903	12217
383.984	5014
384.066	7187
384.147	4027
384.228	4731
384.309	4519
384.390	5586
384.471	4702
384.553	4470
384.634	2859
384.715	4465
384.796	2812
384.877	2549
384.958	4107
385.039	2711
385.120	2944
385.201	4487
385.282	2842
385.363	5014
385.444	3990
385.525	4365
385.606	5443
385.687	5646
385.768	4253
385.849	4195
385.930	6796
386.011	10252
386.092	4414
386.173	4476
386.254	4275
386.335	5084
386.416	3643
386.496	4580
386.577	4398
386.658	4311
386.739	3848
386.820	4968
386.901	3703
386.981	6453
387.062	6341
387.143	6739
387.224	7589
387.304	10204
387.385	9339
387.466	7433
387.547	8894
387.627	8539
387.708	9526
387.789	10226
387.869	8561
387.950	7639
388.031	6161
388.111	4893
388.192	6729
388.273	7090
388.353	4966
388.434	4633
388.514	4282
388.595	5751
388.676	6504
388.756	4898
388.837	4727
388.917	4047
388.998	1544
389.078	5108
389.159	4328
389.239	3113
389.320	5110
389.400	2113
389.480	4127
389.561	3763
389.641	4722
389.722	3742
389.802	3431
389.883	4233
389.963	4988
390.043	3292
390.124	2455
390.204	4017
390.284	3692
390.365	3136
390.445	4079
390.525	3067
390.605	3092
390.686	3548
390.766	4420
390.846	6076
390.927	3001
391.007	2616
391.087	4798
391.167	5222
391.247	3110
391.328	4974
391.408	5757
391.488	5282
391.568	3296
391.648	4910
391.728	4834
391.808	6272
391.888	5072
391.969	6334
392.049	6260
392.129	7140
392.209	7474
392.289	10084
392.369	8670
392.449	9856
392.529	10249
392.609	12563
392.689	14001
392.769	16557
392.849	20224
392.929	27396
393.009	35666
393.089	51971
393.169	88765
393.248	180075
393.328	318332
393.408	303568
393.488	167542
393.568	84015
393.648	46784
393.728	31879
393.807	22326
393.887	19055
393.967	14240
394.047	11711
394.127	10194
394.206	9473
394.286	8057
394.366	9482
394.446	9759
394.525	6993
394.605	6657
394.685	6256
394.764	8479
394.844	14426
394.924	17775
395.003	8952
395.083	7047
395.163	6020
395.242	5493
395.322	6714
395.402	3878
395.481	7774
395.561	7937
395.640	21926
395.720	42145
395.799	20834
395.879	8235
395.958	6954
396.038	8444
396.117	10245
396.197	10864
396.276	11999
396.356	12373
396.435	17236
396.515	23152
396.594	35550
396.673	70417
396.753	164142
396.832	289617
396.912	217130
396.991	89761
397.070	44264
397.150	25386
397.229	23820
397.308	37949
397.388	64339
397.467	33243
397.546	14104
397.625	7887
397.705	9250
397.784	6826
397.863	6069
397.942	5878
398.022	5280
398.101	4648
398.180	4673
398.259	4365
398.338	5574
398.417	3733
398.497	3319
398.576	4123
398.655	2586
398.734	3841
398.813	3732
398.892	3768
398.971	3396
399.050	2431
399.129	2556
399.208	2925
399.287	4008
399.366	1860
399.445	3232
399.524	2226
399.603	1697
399.682	2288
399.761	2351
399.840	3267
399.919	3104
399.998	2077
400.077	1689
400.156	1164
400.235	4687
400.313	1755
400.392	1300
400.471	2802
400.550	2802
400.629	1730
400.708	2750
400.786	1009
400.865	1447
400.944	71
401.023	3834
401.102	1668
401.180	2670
401.259	1340
401.338	1500
401.416	2328
401.495	756
401.574	2034
401.652	1497
401.731	2726
401.810	917
401.888	1196
401.967	1545
402.046	1822
402.124	2125
402.203	241
402.281	2554
402.360	604
402.438	1697
402.517	-151
402.596	2162
402.674	675
402.753	1714
402.831	2781
402.910	2330
402.988	3690
403.066	7831
403.145	5122
403.223	4879
403.302	7064
403.380	6764
403.459	5654
403.537	3310
403.615	2659
403.694	1306
403.772	3183
403.850	2238
403.929	1444
404.007	1655
404.085	3591
404.164	2393
404.242	1069
404.320	2325
404.398	1800
404.477	1954
404.555	4539
404.633	3594
404.711	2072
404.789	2603
404.868	1640
404.946	1118
405.024	1533
405.102	1941
405.180	631
405.258	81
405.336	1861
405.415	437
405.493	1535
405.571	2506
405.649	860
405.727	1421
405.805	2389
405.883	2432
405.961	2602
406.039	1491
406.117	787
406.195	2602
406.273	816
406.351	3173
406.429	2694
406.507	1049
406.585	1522
406.663	2741
406.740	1072
406.818	970
406.896	451
406.974	1945
407.052	-966
407.130	2733
407.208	2328
407.285	2502
407.363	599
407.441	2257
407.519	637
407.596	3279
407.674	10461
407.752	36655
407.830	24971
407.907	4549
407.985	1647
408.063	2877
408.141	518
408.218	2412
408.296	589
408.373	2120
408.451	2159
408.529	2381
408.606	1246
408.684	2704
408.762	2282
408.839	2891
408.917	2975
408.994	3457
409.072	3260
409.149	4232
409.227	8293
409.304	12575
409.382	13562
409.459	15381
409.537	19920
409.614	18603
409.692	14900
409.769	14313
409.846	20305
409.924	25142
410.001	16364
410.079	13227
410.156	9683
410.233	7621
410.311	5978
410.388	5172
410.465	4411
410.543	3734
410.620	4779
410.697	4748
410.775	3809
410.852	2936
410.929	4700
411.006	5768
411.083	3376
411.161	3617
411.238	4123
411.315	3242
411.392	2423
411.469	3478
411.547	3058
411.624	1863
411.701	1315
411.778	2581
411.855	1483
411.932	1610
412.009	1583
412.086	2762
412.163	2438
412.240	1311
412.317	2143
412.394	1784
412.471	1487
412.548	1962
412.625	1808
412.702	1714
412.779	1758
412.856	2360
412.933	427
413.010	1525
413.087	1192
413.164	978
413.241	1558
413.318	815
413.395	1597
413.471	1102
413.548	1980
413.625	1354
413.702	184
413.779	1372
413.855	1368
413.932	813
414.009	217
414.086	1361
414.162	920
414.239	1730
414.316	1334
414.393	2234
414.469	214
414.546	487
414.623	347
414.699	1216
414.776	358
414.853	1088
414.929	711
415.006	1492
415.082	885
415.159	1017
415.236	813
415.312	1694
415.389	1212
415.465	363
415.542	672
415.618	732
415.695	911
415.771	1094
415.848	1067
415.924	1544
416.000	1021
416.077	2169
416.153	326
416.230	70
416.306	163
416.383	1115
416.459	1491
416.535	848
416.612	655
416.688	1827
416.764	555
416.841	1103
416.917	323
416.993	1010
417.069	863
417.146	833
417.222	122
417.298	839
417.374	32
417.451	1327
417.527	331
417.603	1144
417.679	535
417.755	1599
417.831	524
417.908	1824
417.984	476
418.060	-44
418.136	1247
418.212	1408
418.288	674
418.364	1291
418.440	647
418.516	1355
418.592	970
418.668	1470
418.744	1002
418.820	1991
418.896	1060
418.972	765
419.048	1169
419.124	3300
419.200	634
419.276	2275
419.352	1008
419.428	2493
419.504	1392
419.579	2470
419.655	1683
419.731	2847
419.807	1367
419.883	2835
419.959	2534
420.034	2889
420.110	2525
420.186	2908
420.262	3531
420.337	2852
420.413	3899
420.489	4964
420.565	4928
420.640	4130
420.716	5016
420.792	4157
420.867	6085
420.943	5137
421.019	5618
421.094	6386
421.170	6351
421.245	6669
421.321	8188
421.397	9076
421.472	18427
421.548	34109
421.623	23449
421.699	15235
421.774	15822
421.850	17925
421.925	21478
422.001	26156
422.076	31089
422.152	37750
422.227	49344
422.302	65408
422.378	86020
422.453	117126
422.529	151795
422.604	153290
422.679	126119
422.755	148916
422.830	153292
422.905	118644
422.981	88384
423.056	68728
423.131	53314
423.207	42272
423.282	33225
423.357	28987
423.432	23731
423.508	21463
423.583	17147
423.658	16353
423.733	14506
423.808	13205
423.883	13812
423.959	13034
424.034	14428
424.109	13521
424.184	9389
424.259	8555
424.334	7625
424.409	6634
424.484	5688
424.559	5524
424.634	4852
424.709	4947
424.784	5236
424.859	4329
424.934	4309
425.009	3890
425.084	4621
425.159	2753
425.234	3886
425.309	3067
425.384	3985
425.459	2825
425.534	3493
425.609	2605
425.683	2911
425.758	2836
425.833	1791
425.908	2324
425.983	1394
426.058	4084
426.132	2673
426.207	2178
426.282	2710
426.357	1992
426.431	2646
426.506	2456
426.581	2086
426.655	2193
426.730	942
426.805	1809
426.879	1888
426.954	2193
427.029	1450
427.103	2886
427.178	2910
427.253	2469
427.327	1220
427.402	1788
427.476	1390
427.551	1328
427.625	1350
427.700	2108
427.774	1033
427.849	2991
427.923	1892
427.998	3064
428.072	3294
428.147	8669
428.221	30098
428.296	77156
428.370	41998
428.444	9290
428.519	3491
428.593	2646
428.667	3137
428.742	4369
428.816	12883
428.890	50014
428.965	68770
429.039	19993
429.113	5551
429.188	2629
429.262	2186
429.336	2463
429.410	1951
429.485	2222
429.559	1732
429.633	3246
429.707	4241
429.781	11716
429.855	47266
429.930	63327
430.004	20965
430.078	14579
430.152	37253
430.226	102531
430.300	96521
430.374	29645
430.448	10759
430.522	6404
430.596	6319
430.670	18895
430.744	61589
430.818	61464
430.892	15097
430.966	4401
431.040	2750
431.114	1765
431.188	1441
431.262	1860
431.336	1461
431.410	2431
431.484	756
431.557	2325
431.631	2787
431.705	5916
431.779	25476
431.853	76061
431.927	50422
432.000	11503
432.074	3166
432.148	1962
432.222	658
432.295	1643
432.369	1489
432.443	124
432.516	1226
432.590	1883
432.664	520
432.737	715
432.811	-612
432.885	131
432.958	466
433.032	469
433.106	144
433.179	993
433.253	314
433.326	619
433.400	17
433.473	1019
433.547	-912
433.620	1008
433.694	-135
433.767	927
433.841	367
433.914	322
433.988	637
434.061	919
434.134	479
434.208	1083
434.281	264
434.355	356
434.428	521
434.501	176
434.575	619
434.648	740
434.721	-83
434.795	-48
434.868	395
434.941	894
435.014	620
435.088	1368
435.161	1779
435.234	1972
435.307	2346
435.381	3528
435.454	6467
435.527	10942
435.600	11320
435.673	10517
435.746	7953
435.819	5825
435.892	4671
435.966	3892
436.039	2236
436.112	2991
436.185	1597
436.258	1816
436.331	663
436.404	1294
436.477	1203
436.550	690
436.623	496
436.696	1490
436.769	833
436.842	903
436.915	-100
436.987	772
437.060	319
437.133	1009
437.206	38
437.279	999
437.352	-81
437.425	606
437.498	-230
437.570	-244
437.643	227
437.716	505
437.789	-237
437.861	733
437.934	166
438.007	460
438.080	-125
438.152	616
438.225	284
438.298	1404
438.370	3969
438.443	2258
438.516	650
438.588	316
438.661	44
438.734	428
438.806	-938
438.879	-159
438.951	-112
439.024	781
439.096	-25
439.169	1040
439.241	-127
439.314	-162
439.386	211
439.459	1007
439.531	201
439.604	308
439.676	1048
439.749	499
439.821	2
439.893	1278
439.966	607
440.038	651
440.110	250
440.183	706
440.255	-532
440.327	911
440.400	778
440.472	1438
440.544	1600
440.617	770
440.689	1370
440.761	1417
440.833	412
440.905	1222
440.978	483
441.050	1165
441.122	1547
441.194	876
441.266	985
441.338	611
441.411	1518
441.483	1459
441.555	1152
441.627	1776
441.699	1488
441.771	1216
441.843	2055
441.915	2830
441.987	1834
442.059	2361
442.131	2543
442.203	4861
442.275	6186
442.347	11968
442.419	24720
442.491	79463
442.563	136582
442.635	70066
442.706	21693
442.778	10928
442.850	6972
442.922	7107
442.994	5616
443.066	7675
443.137	9087
443.209	12923
443.281	20427
443.353	41107
443.425	96159
443.496	190235
443.568	193386
443.640	107047
443.711	39093
443.783	20090
443.855	12105
443.926	8066
443.998	5633
444.070	6002
444.141	4684
444.213	4375
444.285	4032
444.356	3729
444.428	3748
444.499	4121
444.571	3618
444.642	4910
444.714	4970
444.785	5072
444.857	5128
444.928	6923
445.000	8056
445.071	10699
445.143	13663
445.214	23361
445.285	36288
445.357	73501
445.428	156630
445.500	219636
445.571	199977
445.642	153060
445.714	74354
445.785	32295
445.856	17050
445.928	11296
445.999	8077
446.070	7000
446.141	5555
446.213	4589
446.284	2909
446.355	3561
446.426	3490
446.497	2436
446.569	1942
446.640	1624
446.711	784
446.782	2614
446.853	1823
446.924	1965
446.995	1611
447.066	875
447.138	794
447.209	1451
447.280	856
447.351	873
447.422	-248
447.493	229
447.564	750
447.635	767
447.706	1085
447.777	931
447.847	-219
447.918	191
447.989	49
448.060	656
448.131	997
448.202	755
448.273	756
448.344	19
448.414	-83
448.485	260
448.556	685
448.627	689
448.698	1049
448.768	-741
448.839	-365
448.910	456
448.981	421
449.051	992
449.122	39
449.193	2
449.263	264
449.334	530
449.405	222
449.475	409
449.546	1052
449.616	800
449.687	1408
449.758	649
449.828	320
449.899	657
449.969	-76
450.040	485
450.110	110
450.181	-177
450.251	-85
450.322	263
450.392	728
450.463	1190
450.533	30
450.604	1390
450.674	1077
450.744	1400
450.815	770
450.885	2512
450.955	2012
451.026	2870
451.096	1834
451.166	2111
451.237	2721
451.307	3316
451.377	2388
451.447	2098
451.518	1045
451.588	1600
451.658	1627
451.728	1020
451.799	666
451.869	980
451.939	919
452.009	1358
452.079	741
452.149	2687
452.219	869
452.289	2083
452.360	2454
452.430	3682
452.500	4150
452.570	7849
452.640	16108
452.710	36800
452.780	43807
452.850	29595
452.920	15493
452.990	9320
453.060	5923
453.129	4803
453.199	2585
453.269	3002
453.339	2679
453.409	2378
453.479	2167
453.549	1753
453.619	663
453.688	1035
453.758	715
453.828	1161
453.898	187
453.968	1082
454.037	1497
454.087	1310
454.107	1220
454.168	449
454.177	315
454.247	943
454.249	933
454.316	163
454.330	340
454.386	979
454.411	484
454.456	-466
454.492	17
454.525	415
454.574	680
454.595	781
454.655	775
454.665	750
454.734	1069
454.736	1102
454.804	1591
454.817	1546
454.873	1256
454.898	1193
454.943	1069
454.979	868
455.013	557
455.060	853
455.082	1003
455.141	1158
455.152	1157
455.221	1612
455.222	1628
455.291	1243
455.303	1261
455.360	1226
455.384	1479
455.430	1826
455.465	2113
455.499	2315
455.546	1328
455.569	838
455.627	1878
455.638	2082
455.707	1812
455.708	1834
455.777	2076
455.789	1915
455.846	1145
455.869	1237
455.916	1342
455.950	1315
455.985	1237
456.031	1765
456.054	2009
456.112	1557
456.124	1458
456.193	2657
456.193	2638
456.262	2196
456.274	2328
456.332	2724
456.355	2522
456.401	2120
456.436	2403
456.470	2656
456.516	2948
456.540	3048
456.597	2656
456.609	2567
456.678	2991
456.678	2971
456.747	2924
456.759	2848
456.817	2684
456.840	2872
456.886	2983
456.920	3267
456.955	3547
457.001	3818
457.024	3839
457.082	3281
457.093	3220
457.162	4335
457.163	4359
457.232	4016
457.243	4119
457.301	4642
457.324	4838
457.370	5238
457.405	5643
457.439	5994
457.485	6664
457.508	7158
457.566	8809
457.577	9400
457.646	13405
457.647	13510
457.715	30315
457.727	34168
457.784	61531
457.808	80322
457.853	102912
457.889	120676
457.922	119005
457.969	88118
457.991	90297
458.050	100489
458.060	103761
458.129	164770
458.130	166714
458.198	166099
458.211	154963
458.267	101796
458.292	74733
458.336	52346
458.372	46129
458.405	54568
458.453	75285
458.474	93840
458.533	162864
458.543	168272
458.611	245199
458.614	246965
458.680	167142
458.694	139517
458.749	80104
458.775	58206
458.818	36593
458.855	28071
458.887	22581
458.936	17500
458.955	15853
459.016	12864
459.024	12518
459.093	10979
459.097	10902
459.162	9270
459.177	9090
459.230	8924
459.257	8553
459.299	7745
459.338	7526
459.368	7306
459.418	6992
459.437	6992
459.499	6883
459.505	6847
459.574	6327
459.579	6342
459.643	6588
459.659	6682
459.711	6835
459.740	6715
459.780	6432
459.820	6336
459.849	6268
459.900	6216
459.917	6231
459.981	6369
459.986	6360
460.054	6580
460.061	6557
460.123	6226
460.141	6376
460.191	6994
460.222	7128
460.260	7342
460.302	7441
460.328	7526
460.382	8155
460.397	8443
460.462	9579
460.465	9976
460.534	19606
460.543	20912
460.602	57535
460.623	72199
460.671	114260
460.703	149938
460.739	133892
460.783	102851
460.808	85452
460.864	24345
460.876	19980
460.944	10252
460.945	10142
461.013	7523
461.024	7154
461.081	6025
461.104	6109
461.150	6783
461.184	6583
461.218	6164
461.264	6406
461.286	6458
461.345	6040
461.355	6009
461.423	6460
461.425	6448
461.491	6020
461.505	6155
461.559	6388
461.585	6189
461.628	5927
461.665	5996
461.696	6208
461.745	6216
461.764	6040
461.825	5741
461.832	5841
461.901	6756
461.905	6834
461.969	6107
461.985	5716
462.037	6278
462.065	6851
462.105	6173
462.145	5584
462.173	5794
462.225	5999
462.241	6038
462.305	6104
462.310	6131
462.378	6724
462.385	6784
462.446	7102
462.465	7197
462.514	6816
462.545	6481
462.582	6504
462.625	6740
462.650	6726
462.705	6340
462.718	6199
462.785	6071
462.786	6078
462.854	5402
462.865	5406
462.922	6046
462.945	6242
462.990	6109
463.025	5974
463.058	6076
463.104	6263
463.126	6167
463.184	6431
463.194	6558
463.262	6296
463.264	6302
463.330	6030
463.344	5904
463.398	6481
463.424	6877
463.466	6265
463.504	5696
463.533	6044
463.583	6704
463.601	6613
463.663	5885
463.669	5872
463.737	5972
463.743	5953
463.805	6512
463.823	6793
463.873	6743
463.903	6484
463.940	6116
463.982	5952
464.008	6233
464.062	6276
464.076	6150
464.142	6264
464.144	6276
464.211	5909
464.221	5908
464.279	5993
464.301	5890
464.347	5824
464.381	5947
464.414	6027
464.461	6003
464.482	6027
464.540	6168
464.550	6191
464.617	6031
464.620	6024
464.685	6651
464.699	6762
464.753	6534
464.779	6456
464.820	6674
464.859	6955
464.888	6724
464.938	5996
464.956	6168
465.018	6924
465.023	6954
465.091	7271
465.098	7278
465.158	7196
465.177	7233
465.226	6993
465.257	6780
465.293	6852
465.336	6818
465.361	6727
465.416	6492
465.428	6578
465.495	7092
465.496	7098
465.563	6237
465.575	6093
465.631	6600
465.654	6838
465.698	6504
465.734	6087
465.765	6317
465.813	6730
465.833	6749
465.893	6756
465.900	6803
465.968	7114
465.972	7129
466.035	6637
466.052	6457
466.102	6453
466.131	6476
466.170	5985
466.210	5446
466.237	6109
466.290	7378
466.304	7440
466.369	7587
466.372	7579
466.439	7073
466.449	6966
466.506	6678
466.528	6592
466.573	6851
466.607	6951
466.641	6684
466.687	6404
466.708	6842
466.766	7912
466.775	7959
466.842	8298
466.845	8297
466.909	8126
466.925	8073
466.977	8346
467.004	8482
467.044	8601
467.083	8684
467.111	8623
467.163	8462
467.178	8305
467.242	7579
467.245	7594
467.312	7691
467.321	7693
467.379	8744
467.400	9101
467.446	8957
467.480	8827
467.559	9919
467.638	9132
467.717	10084
467.796	10699
467.875	11032
467.955	11544
468.034	12636
468.113	14650
468.192	18630
468.271	24268
468.350	32399
468.429	45288
468.508	47128
468.588	30440
468.667	18587
468.746	14527
468.825	12091
468.904	10666
468.983	10941
469.062	10415
469.141	9793
469.220	9188
469.299	9545
469.378	7422
469.456	9578
469.535	8394
469.614	8343
469.693	7578
469.772	9370
469.851	8662
469.930	7847
470.009	8710
470.088	9044
470.166	8968
470.245	10167
470.324	8923
470.403	8490
470.482	9173
470.560	8802
470.639	8639
470.718	7697
470.797	8634
470.875	7748
470.954	7731
471.033	8341
471.111	8671
471.190	8309
471.269	7285
471.347	7784
471.426	7114
471.505	7569
471.583	8539
471.662	8038
471.740	8174
471.819	7879
471.898	7317
471.976	8874
472.055	8007
472.133	10413
472.212	14448
472.290	9316
472.369	7957
472.447	8221
472.526	7490
472.604	8264
472.683	8090
472.761	7906
472.839	7685
472.918	8487
472.996	8310
473.075	9122
473.153	8337
473.231	8535
473.310	8951
473.388	8851
473.466	8049
473.545	9669
473.623	8935
473.701	9361
473.780	9552
473.858	8249
473.936	10744
474.014	8598
474.093	12086
474.171	14398
474.249	11744
474.327	8342
474.405	8957
474.484	8543
474.562	8901
474.640	8952
474.718	8926
474.796	8416
474.874	8714
474.952	8276
475.030	7969
475.108	8469
475.187	7426
475.265	8205
475.343	9692
475.421	10189
475.499	9053
475.577	8541
475.655	8871
475.733	8319
475.811	7825
475.889	7705
475.966	8614
476.044	7623
476.122	8871
476.200	8944
476.278	7043
476.356	7194
476.434	8055
476.512	9438
476.590	9096
476.667	9915
476.745	7715
476.823	8234
476.901	7852
476.979	8055
477.056	7801
477.134	7958
477.212	7694
477.290	8368
477.367	7364
477.445	8251
477.523	7466
477.601	7051
477.678	7905
477.756	7859
477.834	8016
477.911	6965
477.989	8068
478.066	8154
478.144	7825
478.222	8770
478.299	10696
478.377	13363
478.454	11431
478.532	8201
478.609	7771
478.687	7985
478.764	7245
478.842	7477
478.919	7143
478.997	7882
479.074	8158
479.152	7916
479.229	8550
479.307	7878
479.384	8032
479.461	7852
479.539	7347
479.616	7545
479.694	6819
479.771	7477
479.848	7848
479.926	6539
480.003	8920
480.080	8189
480.157	7693
480.235	7388
480.312	8450
480.389	7931
480.467	7932
480.544	9275
480.621	10052
480.698	9610
480.775	10513
480.853	9576
480.930	9654
481.007	9515
481.084	17396
481.161	30393
481.238	15953
481.315	9108
481.392	7607
481.470	9111
481.547	8077
481.624	8303
481.701	9473
481.778	9344
481.855	10514
481.932	10605
482.009	11591
482.086	12077
482.163	14492
482.240	16724
482.317	18111
482.393	15659
482.470	13662
482.547	13415
482.624	11358
482.701	12621
482.778	12174
482.855	10584
482.932	12024
483.009	13357
483.085	17400
483.162	26769
483.239	25749
483.316	17649
483.393	16618
483.469	14824
483.546	12643
483.623	11897
483.699	10801
483.776	9830
483.853	9201
483.930	9184
484.006	10186
484.083	10688
484.160	11240
484.236	10653
484.313	10971
484.389	11650
484.466	15183
484.543	17579
484.619	22593
484.696	24642
484.772	16604
484.849	12848
484.925	10652
485.002	10670
485.078	9021
485.155	9238
485.231	8640
485.308	8888
485.384	8513
485.461	10234
485.537	9100
485.614	8444
485.690	8644
485.766	8092
485.843	7554
485.919	7968
485.995	8651
486.072	8671
486.148	8396
486.224	7411
486.301	8485
486.377	8166
486.453	7175
486.530	8674
486.606	9400
486.682	9353
486.758	10139
486.835	12761
486.911	11978
486.987	13380
487.063	13933
487.139	20479
487.215	28852
487.292	27314
487.368	25718
487.444	33867
487.520	50154
487.596	81481
487.672	164971
487.748	484314
487.824	750414
487.900	293281
487.976	91058
488.052	45865
488.128	30588
488.204	21548
488.280	17678
488.356	14733
488.432	13391
488.508	12926
488.584	11719
488.660	11064
488.736	10924
488.812	8720
488.888	9750
488.964	8980
489.039	9689
489.115	11812
489.191	13638
489.267	10582
489.343	7498
489.418	8087
489.494	8135
489.570	6543
489.646	8670
489.722	8198
489.797	8411
489.873	8477
489.949	9303
490.024	8028
490.100	7997
490.176	8339
490.251	8702
490.327	8780
490.403	8068
490.478	7756
490.554	7914
490.629	8139
490.705	7537
490.781	8265
490.856	7508
490.932	8190
491.007	7232
491.083	7408
491.158	7473
491.234	6480
491.309	6709
491.385	6114
491.460	6592
491.536	8008
491.611	6479
491.686	7222
491.762	6602
491.837	6989
491.913	7254
491.988	7726
492.063	6819
492.139	6901
492.214	5358
492.289	6464
492.365	6115
492.440	7212
492.515	5811
492.590	6220
492.666	5949
492.741	5833
492.816	5857
492.891	6069
492.967	6889
493.042	6368
493.117	5868
493.192	6230
493.267	6287
493.342	8329
493.418	7988
493.493	6087
493.568	5348
493.643	5423
493.718	4550
493.793	5624
493.868	5222
493.943	6240
494.018	6064
494.093	5501
494.168	5895
494.243	4852
494.318	5321
494.393	6259
494.468	6029
494.543	5981
494.618	5274
494.693	5268
494.768	5373
494.842	5392
494.917	5873
494.992	5812
495.067	6156
495.142	5905
495.217	5743
495.292	5660
495.366	5201
495.441	4131
495.516	6091
495.591	4995
495.665	6600
495.740	8274
495.815	6985
495.890	5755
495.964	3738
496.039	9069
496.114	12529
496.188	26791
496.263	17371
496.338	6544
496.412	5118
496.487	5913
496.561	5249
496.636	6570
496.710	6606
496.785	9157
496.860	5907
496.934	4723
497.009	6710
497.083	5149
497.158	5481
497.232	5371
497.307	5773
497.381	4994
497.455	5474
497.530	5678
497.604	5702
497.679	6053
497.753	5366
497.827	4772
497.902	5242
497.976	6100
498.050	5413
498.125	5443
498.199	4849
498.273	4847
498.348	5055
498.422	5679
498.496	5457
498.570	5470
498.645	5549
498.719	3853
498.793	5262
498.867	5836
498.941	5246
499.016	4910
499.090	4845
499.164	5216
499.238	5312
499.312	5930
499.386	5162
499.460	5353
499.534	5813
499.609	5579
499.683	5091
499.757	6410
499.831	6309
499.905	5175
499.979	5562
500.053	4887
500.127	5420
500.201	5990
500.275	6530
500.349	5123
500.422	4560
500.496	6874
500.570	5971
500.644	6195
500.718	5913
500.792	6493
500.866	6634
500.940	6282
501.013	6986
501.087	6380
501.161	6029
501.235	5316
501.309	7810
501.382	5932
501.456	7324
501.530	5877
501.603	5936
501.677	6033
501.751	4703
501.825	6993
501.898	5663
501.972	5856
502.046	5504
502.119	5409
502.193	5266
502.266	5122
502.340	6317
502.413	5165
502.487	5415
502.561	5344
502.634	6669
502.708	6657
502.781	5495
502.855	7407
502.928	5096
503.002	6274
503.075	5266
503.149	6414
503.222	6384
503.295	6636
503.369	8642
503.442	8250
503.516	10910
503.589	11976
503.662	14369
503.736	19235
503.809	23966
503.882	31821
503.956	48954
504.029	101580
504.102	276051
504.175	398520
504.249	169766
504.322	67019
504.395	36761
504.468	24135
504.542	16115
504.615	13624
504.688	11893
504.761	9053
504.834	10102
504.907	8107
504.980	7092
505.053	7187
505.127	4132
505.200	9067
505.273	5911
505.346	5166
505.419	4764
505.492	5829
505.565	5791
505.638	5667
505.711	4846
505.784	3637
505.857	4454
505.930	6025
506.003	3189
506.076	5372
506.149	3746
506.221	1760
506.294	5956
506.367	3065
506.440	4356
506.513	4809
506.586	4903
506.659	4118
506.731	2845
506.804	3638
506.877	3534
506.950	4027
507.022	5355
507.095	3129
507.168	3605
507.241	5308
507.313	3511
507.386	2621
507.459	4861
507.531	3764
507.604	3424
507.677	4405
507.749	2509
507.822	5242
507.894	2404
507.967	4206
508.040	2398
508.112	3848
508.185	4222
508.257	2837
508.330	5188
508.402	3668
508.475	2632
508.547	3703
508.620	2783
508.692	3356
508.765	3774
508.837	3140
508.909	4100
508.982	3217
509.054	5047
509.127	3602
509.199	3301
509.271	2181
509.344	3481
509.416	3339
509.488	3013
509.560	3764
509.633	3494
509.705	2421
509.777	2920
509.849	3854
509.922	2506
509.994	3293
510.066	4889
510.138	1350
510.210	4981
510.283	2525
510.355	3949
510.427	3854
510.499	3400
510.571	3558
510.643	1971
510.715	4645
510.787	1162
510.859	3665
510.931	3569
511.003	3901
511.076	4616
511.148	2446
511.219	2361
511.291	3877
511.363	4328
511.435	3351
511.507	2459
511.579	4222
511.651	4453
511.723	3291
511.795	3532
511.867	2219
511.939	3245
512.010	2554
512.082	3417
512.154	3080
512.226	2995
512.298	3884
512.369	2980
512.441	2369
512.513	3786
512.585	2188
512.656	4425
512.728	2236
512.800	2466
512.871	4450
512.943	3370
513.015	2947
513.086	3470
513.158	3379
513.230	2760
513.301	3527
513.373	4302
513.444	4069
513.516	3700
513.588	3095
513.659	3668
513.731	4116
513.802	1803
513.874	4968
513.945	3188
514.016	2435
514.088	4062
514.159	2665
514.231	3474
514.302	2497
514.374	2834
514.445	1690
514.516	5024
514.588	2230
514.659	2666
514.730	2786
514.802	4573
514.873	926
514.944	5743
515.016	4514
515.087	2779
515.158	3478
515.229	5091
515.301	2777
515.372	3932
515.443	3467
515.514	3178
515.585	4199
515.656	5438
515.728	4728
515.799	2903
515.870	3850
515.941	4463
516.012	2553
516.083	4837
516.154	2825
516.225	3670
516.296	5297
516.367	4347
516.438	3871
516.509	3937
516.580	5138
516.651	10677
516.722	22296
516.793	11873
516.864	5283
516.935	6246
517.006	7605
517.077	6607
517.148	10968
517.219	34961
517.289	50271
517.360	8396
517.431	6697
517.502	4415
517.573	6317
517.643	5377
517.714	5607
517.785	6599
517.856	6807
517.926	9218
517.997	9760
518.068	9890
518.138	13670
518.209	15652
518.280	36142
518.350	103303
518.421	49397
518.492	33822
518.562	42373
518.633	59946
518.703	91369
518.774	203482
518.845	478683
518.915	430132
518.986	137807
519.056	60576
519.127	36634
519.197	24416
519.268	17471
519.338	14888
519.408	11579
519.479	9785
519.549	8046
519.620	10533
519.690	7375
519.760	6614
519.831	7119
519.901	5791
519.971	6378
520.042	5864
520.112	4071
520.182	5049
520.253	4970
520.323	4147
520.393	3834
520.463	6135
520.534	1862
520.604	6915
520.674	5237
520.744	3355
520.814	3814
520.885	5088
520.955	3386
521.025	3712
521.095	4209
521.165	5138
521.235	3723
521.305	3586
521.375	4555
521.445	5144
521.515	4397
521.585	4851
521.655	1819
521.725	4473
521.795	5071
521.865	2200
521.935	6758
522.005	4097
522.075	3900
522.145	5533
522.215	5305
522.285	4885
522.355	4238
522.424	5889
522.494	5566
522.564	5884
522.634	6102
522.704	5974
522.774	3814
522.843	5507
522.913	7164
522.983	5533
523.053	4372
523.122	5142
523.192	5028
523.262	4220
523.331	4275
523.401	5855
523.471	5102
523.540	6162
523.610	4807
523.680	6353
523.749	6507
523.819	8849
523.888	8814
523.958	6666
524.027	5628
524.097	5120
524.166	5564
524.236	4628
524.305	7983
524.375	5417
524.444	4963
524.514	8163
524.583	5902
524.653	4498
524.722	7148
524.791	5714
524.861	8232
524.930	6283
524.999	6591
525.069	8219
525.138	6933
525.207	7251
525.277	8992
525.346	9060
525.415	11432
525.484	12841
525.554	14444
525.623	21134
525.692	30289
525.761	32106
525.830	38454
525.900	51569
525.969	82174
526.038	159826
526.107	308342
526.176	813673
526.245	608930
526.314	202376
526.383	427909
526.452	547227
526.522	729156
526.591	628933
526.660	133669
526.729	79288
526.797	84552
526.867	120813
526.935	312878
527.004	1002225
527.073	627001
527.142	118782
527.211	51585
527.280	32214
527.349	24249
527.418	17556
527.487	15797
527.555	11598
527.624	11744
527.693	9197
527.762	10469
527.831	7912
527.899	9823
527.968	7817
528.037	5845
528.106	8074
528.174	7829
528.243	8020
528.312	7064
528.380	6322
528.449	5259
528.518	6779
528.586	5963
528.655	7148
528.723	6665
528.792	6163
528.861	5626
528.929	4643
528.998	6456
529.066	5755
529.135	5729
529.203	4520
529.272	4006
529.340	5238
529.409	6525
529.477	5048
529.545	4782
529.614	7537
529.682	4103
529.751	4979
529.819	8369
529.887	5897
529.956	5010
530.024	6083
530.092	4832
530.161	6115
530.229	6037
530.297	4766
530.365	6293
530.434	5620
530.502	6160
530.570	6345
530.638	4137
530.707	6040
530.775	7538
530.843	5605
530.911	6644
530.979	6754
531.047	5497
531.115	6082
531.183	5740
531.252	7287
531.320	6333
531.388	5710
531.456	6194
531.524	4794
531.592	8172
531.660	8165
531.728	5841
531.796	5794
531.864	6411
531.932	6677
532.000	5419
532.067	6306
532.135	6696
532.203	8272
532.271	6586
532.339	9622
532.407	8249
532.475	8772
532.542	8265
532.610	8540
532.678	6973
532.746	9972
532.814	11450
532.881	8978
532.949	9454
533.017	8661
533.084	8695
533.152	7965
533.220	8366
533.287	7262
533.355	7893
533.423	8224
533.490	8260
533.558	8721
533.625	9226
533.693	8075
533.761	9961
533.828	9310
533.896	7266
533.963	9584
534.031	10620
534.098	12905
534.166	15074
534.233	15061
534.300	18705
534.368	17935
534.435	17857
534.503	20405
534.570	22470
534.637	26425
534.705	30310
534.772	37657
534.840	80221
534.907	346236
534.974	392463
535.041	56640
535.109	25215
535.176	19649
535.243	17287
535.310	16808
535.378	15056
535.445	15565
535.512	16049
535.579	15949
535.646	14107
535.714	15775
535.781	16863
535.848	16593
535.915	16525
535.982	14800
536.049	14876
536.116	15806
536.183	14936
536.250	14387
536.317	14805
536.384	16846
536.451	17527
536.518	17503
536.585	14512
536.652	17646
536.719	16448
536.786	14577
536.853	15770
536.920	17680
536.987	16986
537.053	14781
537.120	18209
537.187	18878
537.254	18829
537.321	18366
537.388	19211
537.454	17427
537.521	18068
537.588	16869
537.654	18127
537.721	20039
537.788	19360
537.855	17428
537.921	18053
537.988	17002
538.055	17705
538.121	15755
538.188	14384
538.254	15397
538.321	15763
538.388	17466
538.454	20308
538.521	19935
538.587	19866
538.654	18366
538.720	18193
538.787	18351
538.853	18934
538.920	17780
538.986	15747
539.053	15418
539.119	18005
539.185	16351
539.252	18550
539.318	17991
539.385	21499
539.451	18448
539.517	18832
539.583	18900
539.650	18427
539.716	17820
539.782	18205
539.849	17098
539.915	17848
539.981	16558
540.047	17545
540.114	17800
540.180	18873
540.246	18859
540.312	19513
540.378	19259
540.444	20681
540.510	20038
540.576	19430
540.643	17438
540.709	17099
540.775	18192
540.841	17685
540.907	17854
540.973	18388
541.039	17285
541.105	18662
541.171	19070
541.237	20420
541.303	19751
541.369	21599
541.435	19111
541.500	18352
541.566	17294
541.632	17512
541.698	18304
541.764	20584
541.830	17938
541.896	17693
541.961	19405
542.027	18196
542.093	20227
542.159	20512
542.224	16368
542.290	19598
542.356	17533
542.421	18489
542.487	17282
542.553	16479
542.618	17762
542.684	17602
542.750	18483
542.815	18842
542.881	17679
542.947	19250
543.012	20017
543.078	17290
543.143	16752
543.209	18573
543.274	17718
543.340	17190
543.405	18821
543.471	19781
543.536	19496
543.602	19792
543.667	18364
543.732	19976
543.798	18397
543.863	20342
543.928	18784
543.994	19115
544.059	19703
544.124	20221
544.190	19610
544.255	20957
544.320	21947
544.386	20292
544.451	22049
544.516	20976
544.581	20620
544.646	22135
544.712	22310
544.777	21955
544.842	22214
544.907	21252
544.972	22622
545.037	23760
545.102	24557
545.168	23623
545.233	24317
545.298	25145
545.363	24348
545.428	26589
545.493	26729
545.558	25604
545.623	24817
545.688	25725
545.753	27778
545.818	27567
545.883	31274
545.947	29440
546.012	32060
546.077	31857
546.142	34968
546.207	34722
546.272	38009
546.337	37527
546.401	40251
546.466	41963
546.531	41337
546.596	47378
546.661	47331
546.725	51911
546.790	54429
546.855	59409
546.919	64170
546.984	72765
547.049	78544
547.113	89295
547.178	98836
547.243	110799
547.307	127415
547.372	140633
547.436	141467
547.501	147962
547.565	157156
547.630	143975
547.695	140176
547.759	140512
547.823	143463
547.888	145311
547.952	150082
548.017	157224
548.081	169790
548.146	158443
548.210	161815
548.274	174257
548.339	170405
548.403	153873
548.468	145627
548.532	144552
548.596	149791
548.660	149772
548.725	162454
548.789	172638
548.853	169998
548.917	163254
548.982	155907
549.046	142133
549.110	129572
549.174	135627
549.238	157762
549.303	171374
549.367	175556
549.431	164748
549.495	157273
549.559	159468
549.623	184393
549.687	198416
549.751	192236
549.815	227937
549.879	230872
549.943	221274
550.007	233348
550.071	227162
550.135	205614
550.199	197170
550.263	193902
550.327	185857
550.391	191639
550.455	214992
550.519	221112
550.582	233411
550.646	261777
550.710	263041
550.774	261087
550.838	266397
550.901	274013
550.965	292813
551.029	305387
551.093	325588
551.156	352860
551.220	390457
551.284	409276
551.347	330289
551.411	283803
551.475	273511
551.538	282060
551.602	262051
551.666	249838
551.729	234030
551.793	229497
551.856	225813
551.920	223621
551.983	223713
552.047	218273
552.110	221414
552.174	226014
552.237	228293
552.301	210360
552.364	202741
552.428	196316
552.491	203042
552.554	208219
552.618	205695
552.681	208378
552.745	198626
552.808	206264
552.871	217388
552.934	212575
552.998	207035
553.061	202603
553.124	193593
553.187	196050
553.251	201156
553.314	201071
553.377	204943
553.440	216428
553.503	221146
553.567	218289
553.630	216475
553.693	215142
553.756	216368
553.819	210849
553.882	203141
553.945	206152
554.008	207106
554.071	208744
554.134	209246
554.197	197365
554.260	193043
554.323	196425
554.386	199702
554.449	206183
554.512	206177
554.575	199735
554.638	197514
554.701	196172
554.764	194906
554.827	185320
554.889	181152
554.952	172338
555.015	168032
555.078	170786
555.141	174876
555.203	169732
555.266	168996
555.329	168644
555.391	161572
555.454	159395
555.517	155111
555.580	148933
555.642	145242
555.705	143789
555.768	142186
555.830	137518
555.893	130175
555.955	127745
556.018	126182
556.080	127945
556.143	131114
556.206	126840
556.268	125393
556.330	122072
556.393	120223
556.455	116232
556.518	113727
556.580	108870
556.643	105157
556.705	103118
556.767	100225
556.830	101863
556.892	97818
556.955	96803
557.017	95542
557.079	96288
557.142	92900
557.204	91152
557.266	92477
557.328	86315
557.391	80411
557.453	80206
557.515	80516
557.577	81286
557.639	82767
557.701	82160
557.764	81862
557.826	85041
557.888	87470
557.950	91461
558.012	101446
558.074	130047
558.136	257428
558.198	518528
558.260	202897
558.322	98538
558.384	97142
558.446	101250
558.508	107868
558.570	121014
558.632	139802
558.694	177773
558.756	286602
558.818	663005
558.880	1125796
558.942	578955
559.003	579352
559.065	290016
559.127	136915
559.189	126474
559.251	138545
559.312	192861
559.374	393132
559.436	904335
559.498	489200
559.559	165236
559.621	129129
559.683	146070
559.744	221545
559.806	556875
559.868	706559
559.929	214668
559.991	146513
560.052	218107
560.114	520993
560.176	339347
560.237	326122
560.299	457469
560.360	121306
560.422	56308
560.483	47271
560.545	43738
560.606	40504
560.667	39186
560.729	37215
560.790	36124
560.852	34444
560.913	33962
560.974	32709
561.036	31724
561.097	32440
561.158	31314
561.220	30402
561.281	29599
561.342	29085
561.403	29344
561.465	28482
561.526	28948
561.587	29338
561.648	27002
561.709	26308
561.771	26742
561.832	26489
561.893	25318
561.954	26049
562.015	25263
562.076	24964
562.137	24020
562.198	24571
562.259	24125
562.320	23902
562.381	24628
562.442	24005
562.503	23647
562.564	24241
562.625	23367
562.686	23768
562.747	22458
562.808	22876
562.869	21707
562.930	21775
562.991	21386
563.051	21349
563.112	21652
563.173	21500
563.234	21040
563.294	20336
563.355	20326
563.416	20673
563.477	20509
563.537	19307
563.598	19209
563.659	20261
563.720	19387
563.780	19985
563.841	20485
563.901	19814
563.962	19308
564.023	19244
564.083	18563
564.144	18972
564.204	19113
564.265	18098
564.325	17802
564.386	19035
564.446	18867
564.507	17613
564.567	17969
564.628	17463
564.688	18008
564.749	17182
564.809	18565
564.869	18476
564.930	18070
564.990	17799
565.050	17728
565.111	18685
565.171	18216
565.231	18010
565.292	18753
565.352	17558
565.412	18115
565.472	18527
565.532	17449
565.593	17932
565.653	17992
565.713	17335
565.773	18473
565.833	18690
565.893	19274
565.953	16301
566.013	16617
566.074	16534
566.134	16678
566.194	16147
566.254	15888
566.314	16605
566.374	16474
566.434	15742
566.494	16025
566.554	17043
566.614	17286
566.673	16703
566.733	18673
566.793	18051
566.853	16905
566.913	17864
566.973	17245
567.033	18251
567.092	17513
567.152	17401
567.212	17611
567.272	18431
567.331	18821
567.391	18673
567.451	19387
567.511	19371
567.570	19280
567.630	18600
567.690	17385
567.749	17951
567.809	18574
567.868	18512
567.928	18382
567.988	18685
568.047	18318
568.107	17652
568.166	19750
568.226	19088
568.285	18186
568.345	19755
568.404	19123
568.464	18935
568.523	18858
568.582	18889
568.642	18952
568.701	18893
568.761	17236
568.820	17223
568.879	17901
568.939	18010
568.998	18222
569.057	17586
569.116	17882
569.176	17626
569.235	18961
569.294	19626
569.353	18298
569.413	17775
569.472	17351
569.531	17195
569.590	17002
569.649	17992
569.708	17309
569.767	18438
569.827	17739
569.886	17973
569.945	16801
570.004	18534
570.063	18429
570.122	19792
570.181	19098
570.240	19417
570.299	20011
570.358	19248
570.417	19970
570.475	20435
570.534	20347
570.593	20043
570.652	19150
570.711	19741
570.770	19303
570.829	18366
570.887	19507
570.946	19616
571.005	19744
571.064	20043
571.122	20349
571.181	19549
571.240	19273
571.299	19452
571.357	18722
571.416	18812
571.475	19782
571.533	21027
571.592	21869
571.650	22095
571.709	22637
571.768	24541
571.826	26519
571.885	25448
571.943	21745
572.002	21515
572.060	20658
572.119	21127
572.177	20132
572.236	19836
572.294	20984
572.352	22109
572.411	21555
572.469	21920
572.528	20870
572.586	20308
572.644	19673
572.703	20210
572.761	18978
572.819	19022
572.877	17913
572.936	17824
572.994	17848
573.052	18529
573.110	18900
573.169	19486
573.227	20052
573.285	19925
573.343	20882
573.401	18589
573.459	19717
573.517	21315
573.576	21487
573.634	20950
573.692	20291
573.750	20849
573.808	20587
573.866	18608
573.924	18755
573.982	19687
574.040	19714
574.098	20068
574.155	19551
574.213	20059
574.271	19058
574.329	21953
574.387	20718
574.445	19619
574.503	18433
574.560	17894
574.618	18750
574.676	18756
574.734	18108
574.792	18134
574.849	17024
574.907	16410
574.965	15740
575.022	15413
575.080	15639
575.138	14738
575.195	15550
575.253	14533
575.311	15476
575.368	14236
575.426	13744
575.483	14466
575.541	15996
575.598	14939
575.656	15107
575.713	16108
575.771	16804
575.828	17127
575.886	15573
575.943	15690
576.001	13940
576.058	13661
576.115	14542
576.173	16311
576.230	15752
576.287	16338
576.345	15367
576.402	15919
576.459	16985
576.517	15555
576.574	14662
576.631	14633
576.688	14043
576.746	14435
576.803	13036
576.860	13662
576.917	14299
576.974	14441
577.031	14945
577.089	14765
577.146	13267
577.203	14027
577.260	13641
577.317	12757
577.374	13308
577.431	13364
577.488	12949
577.545	13833
577.602	14254
577.659	13986
577.716	13779
577.773	13695
577.830	13407
577.886	13845
577.943	12816
578.000	13260
578.057	13473
578.114	13400
578.171	13584
578.227	13338
578.284	12673
578.341	13349
578.398	13566
578.454	13659
578.511	14332
578.568	14259
578.625	12839
578.681	13534
578.738	13864
578.794	13118
578.851	13850
578.908	13896
578.964	13498
579.021	13964
579.077	13687
579.134	14735
579.190	14389
579.247	13432
579.303	13500
579.360	13955
579.416	14490
579.473	14280
579.529	13901
579.586	13330
579.642	14012
579.698	14799
579.755	14965
579.811	14272
579.867	14404
579.924	14255
579.980	14503
580.036	14352
580.093	14368
580.149	15289
580.205	15352
580.261	14973
580.317	15685
580.374	16888
580.430	16241
580.486	15676
580.542	15329
580.598	15393
580.619	15824
580.654	16593
580.692	15612
580.710	15154
580.765	16188
580.767	16238
580.823	17259
580.838	17219
580.879	17186
580.911	17031
580.935	16949
580.984	16399
580.991	16344
581.047	16583
581.057	16533
581.103	16346
581.130	16469
581.159	16666
581.203	16203
581.215	16088
581.270	15340
581.276	15350
581.326	15644
581.349	15269
581.382	14697
581.422	14896
581.438	15007
581.494	15145
581.494	15132
581.550	14796
581.567	14838
581.606	15016
581.640	15378
581.661	15603
581.713	15057
581.717	15028
581.773	15510
581.786	15623
581.829	15969
581.859	15448
581.885	15096
581.932	15627
581.940	15708
581.996	15962
582.004	15998
582.052	16231
582.077	15570
582.107	14823
582.150	15232
582.163	15386
582.219	14284
582.223	14353
582.274	15107
582.296	14817
582.330	14455
582.368	15401
582.386	15864
582.441	15625
582.441	15629
582.497	15212
582.514	14991
582.552	14655
582.587	14519
582.608	14430
582.659	14482
582.663	14479
582.719	15266
582.732	15139
582.774	14958
582.805	14922
582.830	14793
582.877	15401
582.885	15500
582.941	14851
582.950	14822
582.996	14691
583.023	14950
583.052	15484
583.095	14782
583.107	14498
583.162	14576
583.168	14644
583.218	15252
583.240	14730
583.273	13963
583.313	14251
583.328	14448
583.384	14255
583.385	14251
583.439	13802
583.458	13839
583.494	14119
583.531	14484
583.549	14666
583.603	14826
583.605	14819
583.660	14905
583.676	14938
583.715	15317
583.748	15716
583.770	15972
583.820	16111
583.825	16094
583.881	15930
583.893	15755
583.936	15437
583.965	15708
583.991	15814
584.038	15501
584.046	15427
584.101	15357
584.110	15365
584.156	15703
584.183	16054
584.211	16268
584.255	16366
584.266	16402
584.321	16459
584.328	16450
584.376	16710
584.400	17229
584.431	17685
584.472	18000
584.486	18142
584.541	18228
584.545	18244
584.596	18306
584.617	18298
584.651	18601
584.689	19972
584.706	20330
584.761	20649
584.762	20660
584.816	21841
584.834	22664
584.871	24275
584.906	25224
584.926	25696
584.978	26297
584.980	26330
585.035	29676
585.051	30956
585.090	34171
585.123	36811
585.145	38635
585.195	42433
585.200	42836
585.254	51096
585.267	53203
585.309	60454
585.340	66831
585.364	72119
585.412	84004
585.419	85989
585.473	109891
585.484	116368
585.528	149144
585.556	182962
585.583	233320
585.628	356478
585.637	391774
585.692	693930
585.700	739184
585.747	904878
585.772	810260
585.801	604993
585.845	320028
585.856	269113
585.910	140169
585.917	129891
585.965	91282
585.989	78174
586.019	65901
586.061	54562
586.074	51845
586.128	45308
586.133	44872
586.183	40838
586.205	39628
586.237	38004
586.277	36586
586.292	36158
586.346	34810
586.349	34757
586.401	33614
586.421	33450
586.455	33194
586.493	33144
586.509	33380
586.564	33536
586.565	33591
586.618	35727
586.637	36904
586.672	40538
586.709	45722
586.727	48221
586.781	54563
586.781	54540
586.835	46103
586.853	43472
586.889	38234
586.925	34833
586.944	33743
586.996	32190
586.998	32163
587.052	31642
587.068	31546
587.106	31136
587.140	30862
587.161	30762
587.212	31714
587.215	31763
587.269	31288
587.284	31570
587.323	32139
587.356	32427
587.377	32733
587.427	33898
587.431	33927
587.485	33452
587.499	33581
587.539	34595
587.571	35256
587.593	35828
587.643	38115
587.648	38252
587.702	37795
587.715	37948
587.755	37813
587.786	37631
587.810	37938
587.858	38756
587.864	38701
587.917	38078
587.930	37906
587.971	38321
588.001	38672
588.025	38345
588.073	37587
588.079	37605
588.133	37686
588.145	37763
588.187	37420
588.217	37348
588.241	37442
588.288	37629
588.295	37676
588.348	38574
588.360	38629
588.402	38274
588.431	38013
588.456	37950
588.503	38343
588.510	38480
588.564	39897
588.575	40122
588.617	40762
588.646	41552
588.671	42034
588.718	42797
588.725	42947
588.778	44445
588.789	45028
588.832	50943
588.861	56537
588.886	69934
588.932	100213
588.939	103424
588.993	132264
589.004	130287
589.047	78040
589.075	51061
589.100	45022
589.147	40701
589.154	40433
589.207	38544
589.218	38291
589.261	39451
589.290	40089
589.314	40246
589.361	41001
589.368	41299
589.421	44024
589.433	44943
589.475	54000
589.504	61259
589.528	72718
589.576	100714
589.582	99129
589.635	64538
589.647	57998
589.689	45841
589.718	40579
589.742	40499
589.790	40215
589.795	40193
589.849	39876
589.861	39916
589.902	39960
589.932	39833
589.955	40088
590.004	40894
590.009	40869
590.062	40339
590.075	40239
590.115	40290
590.146	40441
590.168	40357
590.218	40050
590.222	40078
590.275	40904
590.289	41127
590.328	41963
590.360	42441
590.381	42542
590.431	43102
590.435	43124
590.488	43328
590.503	43467
590.541	44030
590.574	44590
590.594	45103
590.645	46567
590.647	46625
590.700	48331
590.716	48876
590.753	50194
590.787	51407
590.806	51771
590.859	52946
590.859	52942
590.912	52925
590.930	53009
590.965	54182
591.001	55253
591.018	54584
591.071	52416
591.072	52407
591.124	52122
591.143	52102
591.177	52590
591.214	53220
591.230	53482
591.283	54403
591.285	54437
591.336	54032
591.356	53961
591.389	53656
591.427	53234
591.442	52987
591.495	52157
591.498	52111
591.547	53176
591.569	53767
591.600	54265
591.640	54737
591.653	54821
591.706	55363
591.711	55434
591.759	56988
591.782	57855
591.811	59050
591.853	60731
591.864	60593
591.917	59840
591.924	59746
591.969	59242
591.995	59002
592.022	60175
592.066	62157
592.075	62293
592.127	63200
592.137	63401
592.180	63843
592.208	64035
592.233	64856
592.279	66599
592.285	66698
592.338	67621
592.350	67827
592.390	68123
592.421	68399
592.443	68772
592.491	69655
592.495	69686
592.548	70306
592.562	70489
592.600	70645
592.633	70827
592.653	70880
592.704	70664
592.705	71090
592.775	72324
592.846	76136
592.916	76216
592.987	75581
593.058	76837
593.128	77938
593.199	79130
593.270	78562
593.341	80456
593.411	83628
593.482	85303
593.553	88660
593.623	91341
593.694	93689
593.764	95419
593.835	93535
593.906	95063
593.976	98862
594.047	100738
594.117	105142
594.188	108248
594.258	107419
594.329	107827
594.399	112040
594.470	115096
594.540	117574
594.611	120189
594.681	120721
594.751	119955
594.822	124884
594.892	129286
594.963	133299
595.033	136713
595.103	139523
595.174	142207
595.244	145031
595.314	148067
595.384	154057
595.455	157386
595.525	162694
595.595	170275
595.665	170142
595.736	165414
595.806	168260
595.876	170927
595.946	172291
596.016	179165
596.087	186500
596.157	184063
596.227	185998
596.297	197537
596.367	209772
596.437	221521
596.507	221393
596.577	217437
596.647	225488
596.717	237962
596.787	240007
596.857	241324
596.927	244393
596.997	243769
597.067	246050
597.137	251894
597.207	251951
597.277	253396
597.347	243926
597.417	236245
597.487	235746
597.557	241941
597.626	248228
597.696	251734
597.766	248508
597.836	233627
597.906	222356
597.975	216889
598.045	222331
598.115	230365
598.185	249244
598.254	277529
598.324	302765
598.394	306430
598.464	295084
598.533	288960
598.603	270237
598.672	261711
598.742	266801
598.812	267626
598.881	275335
598.951	273264
599.020	281925
599.090	288641
599.159	293636
599.229	281988
599.299	278092
599.368	284107
599.437	280215
599.507	257063
599.576	247383
599.646	244625
599.715	240958
599.785	238450
599.854	232981
599.924	227042
599.993	225868
600.062	230801
600.132	236736
600.201	252869
600.270	292592
600.340	308597
600.409	302841
600.478	300693
600.547	307524
600.617	274528
600.686	219945
600.755	196379
600.824	185932
600.894	181723
600.963	184352
601.032	181501
601.101	173747
601.170	164072
601.239	157788
601.308	159321
601.378	160435
601.447	159312
601.516	159681
601.585	161104
601.654	162791
601.723	163463
601.792	169000
601.861	175075
601.930	180751
601.999	179583
602.068	181318
602.137	181573
602.206	187025
602.275	187757
602.343	190891
602.412	192480
602.481	193434
602.550	195061
602.619	201347
602.688	201944
602.756	204630
602.825	206600
602.894	212342
602.963	216896
603.032	220787
603.100	221635
603.169	220852
603.238	222476
603.307	225713
603.375	228746
603.444	231729
603.513	238517
603.581	241056
603.650	241670
603.719	241191
603.787	248543
603.856	257581
603.924	262519
603.993	273690
604.061	282744
604.130	295394
604.198	298870
604.267	307340
604.335	310039
604.404	317139
604.472	317582
604.541	323408
604.609	325943
604.678	323795
604.746	327261
604.815	338177
604.883	341588
604.951	341948
605.020	348120
605.088	356225
605.156	365573
605.225	369383
605.293	370285
605.361	371002
605.429	374834
605.498	380122
605.566	392333
605.634	410508
605.702	423332
605.771	437007
605.839	434197
605.907	429806
605.975	411524
606.043	407618
606.111	409586
606.180	408260
606.248	402509
606.316	399373
606.384	397453
606.452	405456
606.520	417785
606.588	430026
606.656	434851
606.724	427048
606.792	403096
606.860	366754
606.928	337061
606.996	322470
607.064	317213
607.132	325229
607.200	346386
607.267	354749
607.335	362927
607.403	368491
607.471	357675
607.539	349058
607.607	348744
607.674	310073
607.742	305437
607.810	305994
607.878	307351
607.946	314392
608.013	330308
608.081	334808
608.149	335081
608.216	350780
608.284	360620
608.352	362060
608.419	357529
608.487	348209
608.555	342535
608.622	353695
608.690	377102
608.757	410945
608.825	419744
608.893	409292
608.960	384124
609.028	369804
609.095	371287
609.163	370767
609.230	331535
609.298	303851
609.365	322720
609.432	346242
609.500	375206
609.567	428196
609.635	483891
609.702	499733
609.769	478100
609.837	374294
609.904	331099
609.971	339078
610.039	364519
610.106	430847
610.173	648225
610.241	1082504
610.308	791563
610.375	435067
610.442	371579
610.509	347597
610.577	347631
610.644	350382
610.711	361691
610.778	367987
610.845	384453
610.912	407098
610.980	420439
611.047	417347
611.114	411087
611.181	401180
611.248	398754
611.315	421432
611.382	432108
611.449	443087
611.516	448601
611.583	445045
611.650	445793
611.717	456365
611.784	460966
611.851	475633
611.918	490630
611.984	544411
612.051	664830
612.118	952782
612.185	1409135
612.252	1177599
612.319	715309
612.386	599328
612.452	539686
612.519	511387
612.586	496621
612.653	503970
612.719	522887
612.786	502926
612.853	469694
612.919	463356
612.986	469235
613.053	446298
613.120	420066
613.186	406821
613.253	408789
613.319	407103
613.386	410689
613.453	415170
613.519	416545
613.586	407523
613.652	414353
613.719	407392
613.785	418435
613.852	417991
613.918	416885
613.985	421965
614.051	435781
614.118	432757
614.184	414736
614.250	417366
614.317	425400
614.383	421878
614.449	431203
614.516	425709
614.582	428206
614.648	421813
614.715	418941
614.781	409326
614.847	409832
614.914	408996
614.980	397998
615.046	398243
615.112	412865
615.179	413646
615.245	420106
615.311	412095
615.377	417095
615.443	423161
615.509	427950
615.575	440329
615.642	438465
615.708	448078
615.774	462687
615.840	486583
615.906	504313
615.972	566084
616.038	720078
616.104	1080651
616.170	1505606
616.236	1376130
616.302	903870
616.368	748276
616.434	589196
616.500	537278
616.565	568845
616.631	676019
616.697	596305
616.763	591697
616.829	767791
616.895	1130851
616.961	1095693
617.026	678647
617.092	504306
617.158	461165
617.224	440204
617.289	406591
617.355	386897
617.421	380728
617.487	380895
617.552	363661
617.618	360560
617.684	360788
617.749	360446
617.815	346095
617.880	339105
617.946	339946
618.012	345935
618.077	350816
618.143	336739
618.208	340013
618.274	366230
618.339	363862
618.405	305798
618.470	307277
618.536	306654
618.601	299493
618.667	280283
618.732	265578
618.798	264446
618.863	263703
618.928	259664
618.994	264059
619.059	260694
619.124	263330
619.190	259477
619.255	259054
619.320	259543
619.386	264541
619.451	260742
619.516	252544
619.581	255047
619.647	264639
619.712	262580
619.777	252662
619.842	256423
619.907	260382
619.972	262740
620.038	261764
620.103	252080
620.168	255151
620.233	258841
620.298	258831
620.363	264430
620.428	271040
620.493	275233
620.558	276737
620.623	284116
620.688	283277
620.753	279749
620.818	288469
620.883	288220
620.948	285800
621.013	282358
621.078	278348
621.143	282734
621.207	286778
621.272	279894
621.337	271689
621.402	270884
621.467	267266
621.532	267634
621.596	269694
621.661	260501
621.726	258724
621.791	263709
621.855	262466
621.920	258358
621.985	264778
622.049	269042
622.114	271277
622.179	271466
622.243	278020
622.308	288701
622.373	296440
622.437	290397
622.502	273803
622.566	272806
622.631	274425
622.695	279310
622.760	278138
622.824	275276
622.889	279123
622.953	279771
623.018	296307
623.082	298255
623.147	292839
623.211	286717
623.276	288112
623.340	277368
623.404	272526
623.469	271062
623.533	274448
623.597	267680
623.662	267969
623.726	248402
623.790	234399
623.854	228713
623.919	232095
623.983	235628
624.047	240485
624.111	242339
624.176	247211
624.240	249211
624.304	256280
624.368	246085
624.432	247066
624.496	253802
624.560	266313
624.625	267040
624.689	267426
624.753	279091
624.817	264994
624.881	260640
624.945	234709
625.009	228420
625.073	233852
625.137	240336
625.201	250442
625.265	250204
625.329	240186
625.393	242665
625.456	247329
625.520	253884
625.584	255166
625.648	262574
625.712	268706
625.776	265286
625.839	251504
625.903	214628
625.967	201807
626.031	215626
626.095	251885
626.158	234406
626.222	187257
626.286	178338
626.349	170747
626.413	158324
626.477	158661
626.540	159135
626.604	160307
626.668	155222
626.731	153795
626.795	155717
626.858	155330
626.922	153752
626.986	151174
627.049	152509
627.113	158537
627.176	152344
627.240	149719
627.303	148296
627.366	146008
627.430	150796
627.493	146056
627.557	144205
627.620	146894
627.684	153857
627.747	154056
627.810	139357
627.874	126794
627.937	124588
628.000	127522
628.064	123193
628.127	110983
628.190	108320
628.253	107909
628.317	103451
628.380	97656
628.443	94495
628.506	94758
628.569	91710
628.632	87593
628.696	86557
628.759	86379
628.822	81331
628.885	81165
628.948	79817
629.011	79037
629.074	75611
629.137	73842
629.200	71841
629.263	71992
629.326	70268
629.389	71854
629.452	67975
629.515	68778
629.578	67780
629.641	69095
629.704	67824
629.767	67523
629.830	66714
629.892	64286
629.955	63914
630.018	65543
630.081	64119
630.144	65190
630.207	62578
630.269	65833
630.332	61166
630.395	61091
630.458	58634
630.520	57402
630.583	57880
630.646	60124
630.708	60294
630.771	60548
630.834	65171
630.896	62365
630.959	61918
631.021	60517
631.084	61778
631.146	61544
631.209	62243
631.272	61213
631.334	63661
631.397	63752
631.459	63591
631.522	66283
631.584	69857
631.646	74437
631.709	73980
631.771	73712
631.834	70845
631.896	68139
631.958	64459
632.021	63745
632.083	59938
632.145	60253
632.208	58109
632.270	59342
632.332	57416
632.395	57387
632.457	58783
632.519	56353
632.581	58316
632.643	56064
632.706	56903
632.768	55368
632.830	56414
632.892	58069
632.954	56633
633.016	59623
633.078	57293
633.141	58842
633.203	57536
633.265	57928
633.327	57075
633.389	57771
633.451	57667
633.513	57651
633.575	59420
633.637	58933
633.698	60087
633.760	64257
633.822	65479
633.884	67320
633.946	68995
634.008	70770
634.070	72888
634.132	76859
634.193	81344
634.255	88903
634.317	87703
634.379	88060
634.441	79798
634.502	73210
634.564	67333
634.626	63120
634.687	59771
634.749	58014
634.811	57313
634.873	56963
634.934	57799
634.996	57427
635.057	57554
635.119	57466
635.181	59102
635.242	60426
635.304	58520
635.365	61592
635.427	58058
635.488	58401
635.550	58276
635.611	59878
635.673	59194
635.734	64915
635.796	67547
635.857	73994
635.918	76529
635.980	84269
636.041	88023
636.102	94670
636.164	93883
636.225	91047
636.286	79375
636.348	72961
636.409	65961
636.470	61670
636.531	59707
636.593	57143
636.654	56112
636.715	52753
636.776	53462
636.838	50640
636.899	50722
636.960	49541
637.021	48365
637.082	48242
637.143	46505
637.204	45677
637.265	46440
637.326	47687
637.387	49117
637.448	47218
637.509	48124
637.570	47337
637.631	47395
637.692	44049
637.753	43742
637.814	44846
637.875	43280
637.936	44299
637.997	43926
638.058	44031
638.119	44323
638.179	44235
638.240	42921
638.301	43118
638.362	41563
638.423	41411
638.483	41780
638.544	39895
638.605	41492
638.666	40355
638.726	41078
638.787	42097
638.848	41219
638.908	39831
638.969	38769
639.030	37444
639.090	37063
639.151	38636
639.211	40105
639.272	40054
639.332	40768
639.393	42248
639.453	42588
639.514	44706
639.574	39310
639.635	36822
639.695	36450
639.756	35879
639.816	36686
639.877	36053
639.937	37007
639.997	37020
640.058	35573
640.118	36184
640.178	36728
640.239	35844
640.299	36242
640.359	37138
640.420	40218
640.480	44646
640.540	49623
640.600	50922
640.661	46168
640.721	45862
640.781	52388
640.841	50543
640.901	39228
640.961	37625
641.021	39056
641.082	41802
641.142	38922
641.202	35640
641.262	32242
641.322	36049
641.382	33180
641.442	34348
641.502	34260
641.562	34754
641.622	35220
641.682	39369
641.742	43196
641.802	40709
641.861	36263
641.921	33251
641.981	32552
642.041	32514
642.101	31744
642.161	29638
642.221	31122
642.280	32198
642.340	31115
642.400	32029
642.460	33273
642.519	34491
642.579	33206
642.639	34234
642.698	32182
642.758	36485
642.818	34355
642.877	33757
642.937	33710
642.997	34480
643.056	33034
643.116	32834
643.175	36040
643.235	34594
643.294	36145
643.354	38666
643.414	40021
643.473	45699
643.532	52388
643.592	65875
643.651	93127
643.711	148092
643.770	262033
643.830	536377
643.889	793767
643.948	333964
644.008	112457
644.067	68788
644.126	51801
644.186	44660
644.245	41215
644.304	36414
644.363	36937
644.423	33725
644.482	36022
644.541	37431
644.600	38075
644.659	45891
644.719	54075
644.778	74257
644.837	119008
644.896	228083
644.955	431914
645.014	165113
645.073	58480
645.132	45315
645.191	40735
645.250	38344
645.309	41778
645.368	43876
645.427	58689
645.486	99420
645.545	158337
645.604	52170
645.663	36257
645.722	34651
645.781	37616
645.840	40903
645.898	46848
645.957	61152
646.016	83980
646.075	137965
646.134	247587
646.192	540919
646.251	635581
646.310	197190
646.369	82325
646.427	65512
646.486	48112
646.545	38951
646.603	34675
646.662	32698
646.721	32609
646.779	31489
646.838	31937
646.896	39030
646.955	49519
647.014	76305
647.072	136138
647.131	325667
647.189	158941
647.248	40083
647.306	31171
647.365	29442
647.423	23707
647.481	26832
647.540	24144
647.598	24596
647.657	23898
647.715	24758
647.773	22272
647.832	24153
647.890	20091
647.948	20305
648.007	22690
648.065	19761
648.123	20629
648.181	21912
648.240	20888
648.298	19465
648.356	19604
648.414	20631
648.472	19554
648.531	20112
648.589	18590
648.647	19260
648.705	18898
648.763	19406
648.821	19620
648.879	20278
648.937	21852
648.995	25595
649.053	31556
649.111	42216
649.169	65201
649.227	112680
649.285	224731
649.343	498963
649.401	257950
649.459	62011
649.516	34691
649.574	27667
649.632	27082
649.690	29770
649.748	37019
649.806	53687
649.863	96245
649.921	249625
649.979	156722
650.037	32405
650.094	19524
650.152	19897
650.210	17050
650.268	18216
650.325	19358
650.383	24005
650.440	14224
650.498	13831
650.556	13825
650.613	13521
650.671	13598
650.728	14749
650.786	16766
650.843	23258
650.901	16871
650.958	13882
651.016	12592
651.073	12830
651.131	11111
651.188	11405
651.246	12497
651.303	11109
651.360	11179
651.418	11528
651.475	10567
651.532	10795
651.590	11517
651.647	10546
651.704	10350
651.762	10818
651.819	10308
651.876	10768
651.933	10575
651.990	11099
652.048	8793
652.105	10845
652.162	9708
652.219	9227
652.276	9452
652.333	10028
652.390	8697
652.448	9412
652.505	9527
652.562	9825
652.619	9032
652.676	9354
652.733	10318
652.790	9023
652.847	8301
652.904	9382
652.961	7505
653.017	8378
653.074	9686
653.131	9017
653.188	7547
653.245	10036
653.302	8217
653.359	8131
653.415	8973
653.472	8459
653.529	9425
653.586	8933
653.642	8784
653.699	9101
653.756	8635
653.813	8953
653.869	9656
653.926	8494
653.983	8571
654.039	10250
654.096	8201
654.152	9157
654.209	6804
654.266	8566
654.322	7260
654.379	8697
654.435	8795
654.492	7957
654.548	7904
654.605	8517
654.661	9909
654.717	9125
654.774	8084
654.830	8463
654.887	8877
654.943	9915
655.000	11312
655.056	9354
655.112	7941
655.168	6988
655.225	9134
655.281	8889
655.337	8999
655.394	7675
655.450	7652
655.506	7458
655.562	7525
655.618	8334
655.675	7223
655.731	8340
655.787	6957
655.843	8453
655.899	7270
655.955	8682
656.011	9517
656.067	7759
656.123	8802
656.179	8908
656.235	9367
656.291	7304
656.347	10240
656.403	8617
656.459	8808
656.515	7985
656.571	7881
656.627	8180
656.683	7729
656.739	8272
656.795	7896
656.850	7849
656.906	8497
656.962	9438
657.018	8511
657.074	11103
657.129	14686
657.185	23906
657.241	53700
657.297	27792
657.352	9406
657.408	7272
657.464	8892
657.519	7771
657.575	5826
657.630	6499
657.686	7216
657.742	7186
657.797	5684
657.853	6841
657.908	8074
657.964	5508
658.019	7356
658.075	6999
658.130	7089
658.186	5825
658.241	6850
658.297	5543
658.352	5964
658.407	7476
658.463	5379
658.518	7131
658.573	6758
658.629	5517
658.684	6040
658.739	7288
658.795	5982
658.850	5608
658.905	6049
658.960	6681
659.016	5811
659.071	5476
659.126	6254
659.181	5295
659.236	6817
659.291	7336
659.346	5905
659.401	6044
659.457	6979
659.512	5015
659.567	6655
659.622	5931
659.677	6534
659.732	5502
659.787	6048
659.842	5459
659.897	6035
659.952	6657
660.007	5857
660.061	5817
660.116	4521
660.171	6122
660.226	5669
660.281	6582
660.336	5111
660.391	6695
660.445	5131
660.500	5805
660.555	5074
660.610	5736
660.664	6253
660.719	5671
660.774	5497
660.828	5669
660.883	4847
660.938	5966
660.992	5003
661.047	5394
661.101	4845
661.156	5800
661.211	4922
661.265	5567
661.320	5530
661.374	6090
661.429	4740
661.483	6520
661.538	4597
661.592	6265
661.647	6667
661.701	10401
661.755	6607
661.810	5148
661.864	4766
661.919	4584
661.973	5407
662.027	5853
662.081	4082
662.136	4818
662.190	5418
662.244	6036
662.299	4471
662.353	6084
662.407	4372
662.461	5157
662.515	5038
662.569	4003
662.624	4501
662.678	4867
662.732	5173
662.786	5244
662.840	5025
662.894	5605
662.948	5296
663.002	4358
663.056	5403
663.110	4700
663.164	4973
663.218	5306
663.272	5172
663.326	5980
663.380	4115
663.434	4665
663.488	4165
663.542	5613
663.595	5200
663.649	4921
663.703	5214
663.757	5058
663.811	4152
663.864	4546
663.918	5048
663.972	5352
664.026	5168
664.079	4243
664.133	4968
664.187	6048
664.240	5732
664.294	6983
664.348	5671
664.401	6356
664.455	4800
664.508	4998
664.562	4551
664.615	5032
664.669	4323
664.722	5757
664.776	4181
664.829	4995
664.883	5119
664.936	4639
664.990	4745
665.043	5133
665.097	4414
665.150	5929
665.203	4088
665.257	5004
665.310	5174
665.363	6005
665.417	5535
665.470	5582
665.523	4545
665.576	5453
665.630	5369
665.683	4546
665.736	5551
665.789	5939
665.842	5245
665.895	5761
665.949	5341
666.002	6115
666.055	5492
666.108	5351
666.161	5500
666.214	6151
666.267	5437
666.320	5389
666.373	5751
666.426	6475
666.479	5731
666.532	6216
666.585	5975
666.638	6529
666.691	5828
666.744	6283
666.796	5401
666.849	6580
666.902	6016
666.955	6245
667.008	5315
667.060	6607
667.113	5570
667.166	6019
667.219	5771
667.271	6937
667.324	6333
667.377	6284
667.430	5744
667.482	6402
667.535	4924
667.587	5605
667.640	5622
667.693	6008
667.745	6284
667.798	6025
667.850	5572
667.903	6563
667.955	5912
668.008	6089
668.060	5427
668.113	6387
668.165	5021
668.218	5500
668.270	6307
668.322	6025
668.375	5036
668.427	6308
668.479	5424
668.532	5522
668.584	5391
668.636	5540
668.689	5958
668.741	5238
668.793	5164
668.845	4981
668.898	5341
668.950	5528
669.002	5686
669.054	5056
669.106	4895
669.158	5332
669.211	4422
669.263	4568
669.315	4540
669.367	5660
669.419	4496
669.471	5579
669.523	5300
669.575	4972
669.627	4563
669.679	5235
669.731	5267
669.783	5273
669.835	4742
669.886	4966
669.938	5014
669.990	5154
670.042	4753
670.094	4735
670.146	5035
670.197	5004
670.249	3945
670.301	5399
670.353	5082
670.404	5324
670.456	4660
670.508	4563
670.560	4678
670.611	5254
670.663	3966
670.715	6687
670.766	6052
670.818	5286
670.869	5255
670.921	5797
670.972	4921
671.024	5670
671.075	5255
671.127	5045
671.178	5413
671.230	6600
671.281	7009
671.333	7980
671.384	10306
671.436	12919
671.487	18044
671.538	27342
671.590	42321
671.641	68924
671.692	120550
671.744	206743
671.795	153195
671.846	68844
671.897	35228
671.949	22449
672.000	17172
672.051	12152
672.102	10849
672.153	8810
672.204	6988
672.256	8197
672.307	6501
672.358	6690
672.409	4850
672.460	5794
672.511	4972
672.562	4597
672.613	4034
672.664	4747
672.715	5030
672.766	3919
672.817	3364
672.868	3351
672.919	3571
672.970	3601
673.021	3641
673.071	3469
673.122	2990
673.173	3891
673.224	3322
673.275	2959
673.326	2660
673.376	3437
673.427	2261
673.478	2495
673.528	3557
673.579	3884
673.630	3788
673.680	4986
673.731	3948
673.782	3354
673.832	3943
673.883	3106
673.934	2629
673.984	3564
674.035	3364
674.085	3760
674.136	3566
674.186	4647
674.237	3607
674.287	3955
674.338	3745
674.388	4540
674.438	3363
674.489	5076
674.539	4670
674.589	4360
674.640	3732
674.690	4776
674.740	3593
674.791	3562
674.841	3862
674.891	4019
674.942	2277
674.992	2709
675.042	2785
675.092	1822
675.142	2702
675.193	3050
675.243	1734
675.293	3096
675.343	2575
675.393	2834
675.443	3684
675.493	3016
675.543	2340
675.593	3010
675.643	2940
675.693	3846
675.743	2766
675.793	3259
675.843	1973
675.893	3139
675.943	2222
675.993	2757
676.043	3217
676.093	3402
676.142	2824
676.192	2486
676.242	2011
676.292	2356
676.341	2240
676.391	2455
676.441	1767
676.491	2567
676.540	1170
676.590	2786
676.640	2326
676.689	1715
676.739	2260
676.789	2089
676.838	2588
676.888	2552
676.937	1669
676.987	1872
677.037	831
677.086	2549
677.136	1438
677.185	2847
677.235	1951
677.284	2200
677.333	2411
677.383	2335
677.432	2246
677.482	2077
677.531	1841
677.580	736
677.630	1875
677.679	2582
677.728	1665
677.778	2392
677.827	1520
677.876	1836
677.925	1563
677.975	2393
678.024	2190
678.073	2803
678.122	2205
678.171	2483
678.220	2038
678.269	3759
678.319	4032
678.368	3869
678.417	3422
678.466	2859
678.515	2240
678.564	1749
678.613	910
678.662	1923
678.711	1000
678.760	1266
678.809	1581
678.857	2626
678.906	2250
678.955	2046
679.004	3053
679.053	2808
679.102	1774
679.151	2035
679.199	2356
679.248	1396
679.297	2293
679.346	2035
679.394	823
679.443	2168
679.492	1457
679.540	1520
679.589	1875
679.638	1234
679.686	2387
679.735	1710
679.784	2131
679.832	3201
679.881	2478
679.929	1635
679.978	1426
680.026	1668
680.075	1319
680.123	1633
680.172	918
680.220	635
680.268	1134
680.317	1495
680.365	1712
680.414	856
680.462	1053
680.510	1652
680.559	1112
680.607	1834
680.655	1097
680.703	1530
680.752	1369
680.800	1316
680.848	1435
680.896	1937
680.945	696
680.993	1293
681.041	371
681.089	1509
681.137	1316
681.185	1066
681.233	1418
681.258	1508
681.281	1549
681.329	893
681.377	1240
681.380	1272
681.425	1014
681.473	2473
681.502	2064
681.521	1696
681.569	2446
681.617	1756
681.624	1972
681.665	2969
681.713	2216
681.745	2072
681.761	1950
681.809	2232
681.857	2792
681.867	2918
681.904	3114
681.952	3282
681.989	2325
682.000	1999
682.048	2357
682.096	1714
682.111	2101
682.143	2739
682.191	2579
682.233	3976
682.239	4144
682.286	3342
682.334	3482
682.354	3496
682.382	3425
682.430	4112
682.476	3596
682.477	3546
682.525	3685
682.572	3658
682.598	3964
682.620	4117
682.667	3940
682.715	4144
682.720	4110
682.763	3410
682.810	4599
682.841	4454
682.857	4316
682.905	4173
682.952	3747
682.963	3963
683.000	4604
683.047	4578
683.085	5538
683.095	5752
683.142	4711
683.190	5209
683.206	4938
683.237	4322
683.284	5750
683.328	5523
683.332	5467
683.379	5325
683.426	4820
683.449	5160
683.473	5499
683.521	5069
683.568	5823
683.571	5864
683.615	5835
683.662	6287
683.693	5967
683.709	5729
683.757	5785
683.804	5281
683.814	5324
683.851	5415
683.898	6226
683.936	6469
683.945	6513
683.992	5535
684.039	6533
684.057	6310
684.086	5801
684.133	6097
684.179	5819
684.180	5785
684.227	6677
684.274	6489
684.300	6598
684.321	6691
684.368	6334
684.415	7009
684.422	6993
684.462	6733
684.509	7338
684.543	7150
684.556	7037
684.603	8329
684.649	7987
684.665	7903
684.696	7634
684.743	7728
684.786	8188
684.790	8193
684.837	7013
684.883	7764
684.908	7723
684.930	7793
684.977	8207
685.023	8053
685.029	8160
685.070	8693
685.117	8479
685.150	8706
685.164	8759
685.210	8236
685.257	9017
685.272	9144
685.303	9442
685.350	9423
685.393	8948
685.396	8859
685.443	7993
685.490	8708
685.514	8563
685.536	8574
685.583	8678
685.629	8063
685.636	8211
685.675	9135
685.722	8438
685.757	9200
685.768	9371
685.815	8907
685.861	8651
685.878	8820
685.908	9273
685.954	9157
686.000	9834
686.000	9832
686.047	9455
686.093	10230
686.121	10047
686.139	9928
686.185	10478
686.232	10917
686.242	10923
686.278	10735
686.324	10261
686.363	10272
686.370	10286
686.416	10384
686.463	10562
686.484	10412
686.509	10213
686.555	10401
686.601	9969
686.606	10023
686.647	10546
686.693	10336
686.727	10561
686.739	10595
686.785	10602
686.831	10197
686.848	10306
686.877	10630
686.923	10651
686.969	11075
686.969	11077
687.015	11557
687.061	11683
687.090	12621
687.107	12974
687.153	12339
687.199	12566
687.211	12425
687.245	11964
687.291	11880
687.332	12300
687.336	12381
687.382	12715
687.428	12644
687.453	12958
687.474	13194
687.520	13908
687.565	14277
687.574	14215
687.611	15390
687.657	18269
687.695	19810
687.702	20386
687.748	25372
687.794	30597
687.816	31934
687.839	29124
687.885	23803
687.931	19696
687.937	19018
687.976	17364
688.022	15609
688.058	14139
688.067	14125
688.113	14107
688.158	13361
688.179	13678
688.204	14073
688.249	13609
688.295	13784
688.300	13716
688.340	13488
688.386	14096
688.421	13662
688.431	13551
688.477	13872
688.522	14403
688.542	14352
688.567	14574
688.613	15111
688.658	15806
688.663	15850
688.703	15537
688.749	15361
688.784	14805
688.794	14740
688.839	15353
688.884	14704
688.905	14805
688.930	14922
688.975	15224
689.020	15132
689.026	15083
689.065	15210
689.110	15859
689.146	16249
689.155	16426
689.201	17622
689.246	18080
689.267	18214
689.291	17413
689.336	16799
689.381	15053
689.388	14865
689.426	15008
689.471	14877
689.509	15372
689.516	15468
689.561	15268
689.606	14761
689.630	14935
689.651	15284
689.696	15293
689.741	15366
689.750	15512
689.785	15953
689.830	16227
689.871	15569
689.875	15500
689.920	15434
689.965	15355
689.992	15388
690.010	15571
690.054	15046
690.099	15887
690.112	15798
690.144	15501
690.189	15536
690.233	15009
690.233	15029
690.278	15264
690.323	15474
690.354	15932
690.367	16123
690.412	15928
690.457	15568
690.474	15690
690.501	15821
690.546	15425
690.590	15309
690.595	15259
690.635	15020
690.680	15299
690.716	14985
690.724	15035
690.769	15087
690.813	16152
690.836	15881
690.857	15686
690.902	16356
690.946	16317
690.957	16442
690.991	16684
691.035	16654
691.077	16750
691.080	16792
691.124	16720
691.168	17025
691.198	16878
691.213	16807
691.257	16814
691.301	16966
691.318	16835
691.346	16618
691.390	16663
691.434	16507
691.439	16448
691.478	16456
691.522	17058
691.559	17088
691.567	17199
691.611	17685
691.655	17940
691.680	18255
691.699	18221
691.743	17924
691.787	17788
691.800	17662
691.831	17679
691.875	17830
691.919	18085
691.921	18053
691.964	17951
692.008	17546
692.041	17509
692.052	17564
692.096	17704
692.139	17533
692.162	17492
692.183	17579
692.227	17781
692.271	17842
692.282	17834
692.315	17699
692.359	17576
692.402	17427
692.403	17463
692.447	17494
692.490	17733
692.523	17491
692.534	17424
692.578	17638
692.622	17775
692.643	17793
692.666	17810
692.709	17536
692.753	17572
692.763	17536
692.797	17641
692.840	17611
692.884	17532
692.884	17571
692.928	17616
692.971	18287
693.004	18520
693.015	18497
693.059	17923
693.102	17860
693.124	17599
693.146	17691
693.189	18442
693.233	18660
693.245	18740
693.276	18711
693.320	18151
693.363	17926
693.365	17883
693.407	18495
693.450	19015
693.485	19103
693.493	19009
693.537	18997
693.580	18318
693.605	18181
693.624	18347
693.667	18210
693.710	18489
693.725	18416
693.753	18114
693.797	18106
693.840	17556
693.845	17480
693.883	18014
693.926	18511
693.966	18974
693.970	19023
694.013	18738
694.056	18992
694.086	18929
694.099	19015
694.142	19337
694.185	19349
694.206	19389
694.229	19422
694.272	19366
694.315	19374
694.326	19316
694.358	19298
694.401	19659
694.444	19379
694.446	19327
694.487	19370
694.530	19665
694.566	19550
694.573	19578
694.616	19349
694.659	19766
694.686	19760
694.702	20066
694.745	20908
694.787	21635
694.806	21885
694.830	21648
694.873	21141
694.916	20618
694.926	20478
694.959	21155
695.002	21889
695.044	22566
695.046	22545
695.087	22869
695.130	22954
695.166	23189
695.172	23261
695.215	23259
695.258	23211
695.286	22982
695.301	23193
695.343	24148
695.386	24915
695.406	25131
695.428	26083
695.471	28023
695.514	29789
695.526	30282
695.556	32346
695.599	35222
695.641	37906
695.646	38109
695.684	35971
695.726	33325
695.766	31109
695.769	31149
695.811	30525
695.854	29771
695.886	29271
695.896	29419
695.938	29804
695.981	29741
696.005	29916
696.023	30907
696.065	32891
696.108	34989
696.125	35727
696.150	36411
696.192	37498
696.235	38513
696.245	38708
696.277	38693
696.319	38394
696.361	38237
696.365	38117
696.404	37581
696.446	36940
696.485	36257
696.488	36344
696.530	36369
696.572	36288
696.604	36258
696.614	36343
696.656	36151
696.698	36080
696.724	35927
696.740	36271
696.783	36930
696.825	37498
696.844	37745
696.867	37887
696.909	37816
696.951	37797
696.964	37719
696.992	38229
697.034	38767
697.076	39287
697.083	39290
697.118	40535
697.160	41879
697.202	43183
697.203	43109
697.244	42381
697.286	41579
697.323	40751
697.327	40893
697.369	41305
697.411	41666
697.442	41822
697.453	41886
697.494	41634
697.536	41445
697.562	41251
697.578	41409
697.620	41498
697.661	41547
697.682	41537
697.703	42485
697.744	43973
697.786	45618
697.801	46067
697.828	45949
697.869	45547
697.911	45182
697.921	44992
697.952	44502
697.994	43655
698.035	42717
698.040	42505
698.077	43197
698.118	43827
698.160	44420
698.160	44307
698.201	45959
698.243	47460
698.279	48699
698.284	48915
698.325	49718
698.367	50555
698.399	51037
698.408	51265
698.449	51732
698.491	52181
698.518	52364
698.532	52530
698.573	52585
698.614	52662
698.638	52554
698.656	52829
698.697	53175
698.738	53509
698.757	53522
698.779	53379
698.820	52833
698.862	52308
698.877	51973
698.903	52174
698.944	52276
698.985	52374
698.996	52267
699.026	52233
699.067	51995
699.116	51578
699.235	52145
699.354	51163
699.474	48326
699.593	47678
699.713	49790
699.832	48271
699.951	50402
700.070	49839
700.190	47037
700.309	45594
700.428	44466
700.547	42880
700.667	43153
700.786	42227
700.905	41530
701.024	42310
701.143	41627
701.262	44821
701.381	45232
701.500	45632
701.619	43491
701.738	45222
701.857	44269
701.976	40622
702.095	43394
702.214	43985
702.333	41721
702.452	44125
702.571	44380
702.690	43579
702.809	42738
702.928	40930
703.047	37791
703.165	40133
703.284	40091
703.403	39345
703.522	39256
703.640	36897
703.759	38382
703.878	35607
703.997	38100
704.115	38859
704.234	37634
704.353	41116
704.471	34611
704.590	34607
704.708	33936
704.827	33806
704.946	34141
705.064	33887
705.183	33025
705.301	34864
705.420	32769
705.538	32024
705.656	30602
705.775	29369
705.893	32553
706.012	31502
706.130	30353
706.249	32870
706.367	30287
706.485	30799
706.604	30041
706.722	34041
706.840	43777
706.958	79430
707.077	49646
707.195	30767
707.313	29084
707.431	26535
707.549	27838
707.668	25191
707.786	29303
707.904	26719
708.022	28480
708.140	28121
708.258	26430
708.376	29086
708.494	26497
708.612	29468
708.730	29482
708.848	27611
708.966	28173
709.084	26978
709.202	28311
709.320	25914
709.438	24816
709.556	25125
709.674	22671
709.791	23108
709.909	23242
710.027	22759
710.145	21857
710.263	23005
710.380	22780
710.498	22385
710.616	22855
710.733	21242
710.851	21143
710.969	22218
711.086	21484
711.204	22554
711.322	22016
711.439	21708
711.557	19973
711.674	21212
711.792	21332
711.909	19361
712.027	20008
712.144	19724
712.262	21155
712.379	20620
712.497	19921
712.614	19648
712.732	21207
712.849	19647
712.966	20593
713.084	22738
713.201	19652
713.318	22010
713.436	23642
713.553	22297
713.670	25608
713.787	24739
713.905	23412
714.022	26766
714.139	30263
714.256	38404
714.373	61454
714.490	117240
714.608	311320
714.725	1003776
714.842	891186
714.959	150968
715.076	58901
715.193	40329
715.310	33377
715.427	23550
715.544	24293
715.661	23025
715.778	21381
715.895	20197
716.011	20788
716.128	19935
716.245	19450
716.362	18303
716.479	16969
716.596	17860
716.713	18736
716.829	17564
716.946	16034
717.063	15613
717.180	14314
717.296	15490
717.413	15734
717.530	15186
717.646	13833
717.763	14193
717.880	14569
717.996	14033
718.113	14630
718.229	13948
718.346	13763
718.462	13740
718.579	14393
718.695	14690
718.812	14877
718.928	13431
719.045	14238
719.161	13982
719.277	14661
719.394	16085
719.510	16560
719.626	18983
719.743	26788
719.859	46752
719.975	106313
720.092	399522
720.208	744215
720.324	120911
720.440	33265
720.557	23072
720.673	19587
720.789	16759
720.905	15626
721.021	14186
721.137	13309
721.253	11837
721.369	13029
721.486	13352
721.602	11598
721.718	11517
721.834	12506
721.950	12109
722.066	11650
722.181	11016
722.297	12101
722.413	11764
722.529	12144
722.645	11506
722.761	12025
722.877	12656
722.993	16067
723.108	23239
723.224	19800
723.340	13196
723.456	11410
723.571	11219
723.687	10190
723.803	10615
723.918	11343
724.034	10177
724.150	10701
724.265	9642
724.381	9844
724.497	9787
724.612	9911
724.728	10122
724.843	9456
724.959	10566
725.074	10454
725.190	9893
725.305	10747
725.421	9978
725.536	10325
725.651	10474
725.767	10276
725.882	9747
725.997	10007
726.113	10471
726.228	10748
726.343	9359
726.459	10392
726.574	9907
726.689	9508
726.804	9633
726.920	9893
727.035	9432
727.150	9895
727.265	8690
727.380	9265
727.495	9617
727.610	10016
727.725	9221
727.841	8629
727.956	9478
728.071	9398
728.186	8523
728.301	8978
728.416	9980
728.531	9561
728.645	9319
728.760	9683
728.875	10168
728.990	9945
729.105	8905
729.220	9541
729.335	9777
729.449	9126
729.564	9748
729.679	8592
729.794	9531
729.908	9789
730.023	9638
730.138	10128
730.253	10352
730.367	9666
730.482	10648
730.596	11023
730.711	13392
730.826	24238
730.940	30384
731.055	15924
731.169	14667
731.284	16253
731.398	16991
731.513	18478
731.627	21256
731.742	27937
731.856	34188
731.970	39595
732.085	53975
732.199	86303
732.313	159615
732.428	383797
732.542	846280
732.656	484885
732.771	127611
732.885	67626
732.999	49454
733.113	47155
733.227	41120
733.342	37612
733.456	35987
733.570	33386
733.684	30991
733.798	30233
733.912	29773
734.026	31225
734.140	29431
734.254	28586
734.368	27398
734.482	27517
734.596	27902
734.710	25351
734.824	26060
734.938	24544
735.052	27333
735.166	25752
735.280	25020
735.393	25424
735.507	24533
735.621	23416
735.735	23254
735.849	25040
735.962	22244
736.076	23438
736.190	22589
736.303	23522
736.417	23777
736.531	22036
736.644	23388
736.758	21239
736.872	21967
736.985	21616
737.099	20996
737.212	21103
737.326	21179
737.439	21674
737.553	19182
737.666	21306
737.780	19074
737.893	21287
738.007	18853
738.120	22010
738.233	17870
738.347	20953
738.460	18476
738.573	21476
738.687	17707
738.800	19660
738.913	20851
739.026	19389
739.140	17564
739.253	19386
739.366	19065
739.479	18574
739.592	18705
739.705	17106
739.818	20869
739.932	16452
740.045	18819
740.158	17249
740.271	18714
740.384	18271
740.497	15479
740.610	18672
740.723	16563
740.836	17286
740.949	17246
741.062	18828
741.174	16216
741.287	16442
741.400	16777
741.513	14508
741.626	17196
741.739	15047
741.851	15256
741.964	17076
742.077	15145
742.189	14437
742.302	17081
742.415	15843
742.527	15255
742.640	15840
742.753	14208
742.865	15686
742.978	14448
743.090	13682
743.203	15426
743.316	14171
743.428	14362
743.541	15911
743.653	12564
743.766	14620
743.878	13579
743.990	12792
744.103	15134
744.215	14346
744.327	13184
744.440	16908
744.552	12782
744.664	12507
744.777	14687
744.889	12910
745.001	13434
745.113	13801
745.226	13821
745.338	12403
745.450	14292
745.562	12670
745.674	11358
745.786	14265
745.898	13128
746.010	12271
746.122	13043
746.234	13386
746.347	12942
746.459	13756
746.570	10596
746.682	14957
746.794	16284
746.906	11800
747.018	11886
747.130	13721
747.242	10425
747.354	12024
747.466	12927
747.577	11280
747.689	11765
747.801	11827
747.913	10303
748.024	11319
748.136	10469
748.248	10633
748.359	10744
748.471	11777
748.583	10618
748.694	9494
748.806	11195
748.918	9831
749.029	9340
749.141	10103
749.252	12420
749.364	8990
749.475	9889
749.587	9193
749.698	8701
749.809	11190
749.921	10194
750.032	9293
750.144	9163
750.255	9682
750.366	9039
750.478	9478
750.589	10430
750.700	8240
750.811	10093
750.923	8426
751.034	8573
751.145	10600
751.256	8706
751.367	8413
751.479	8834
751.590	9816
751.701	8055
751.812	8166
751.923	8640
752.034	11351
752.145	9577
752.256	10219
752.367	8727
752.478	8972
752.589	10097
752.700	9420
752.811	8712
752.922	8781
753.032	9926
753.143	9721
753.254	9143
753.365	12108
753.476	10365
753.586	9329
753.697	8262
753.808	9092
753.919	7760
754.029	8590
754.140	8058
754.251	8112
754.361	8368
754.472	8774
754.582	7777
754.693	8059
754.804	9982
754.914	8601
755.025	7078
755.135	8499
755.246	8902
755.356	7730
755.466	7378
755.577	7811
755.687	7948
755.798	7614
755.908	7332
756.018	8378
756.129	7714
756.239	8479
756.349	8273
756.460	10090
756.570	11072
756.680	8626
756.790	8550
756.900	7872
757.011	7491
757.121	7411
757.231	7694
757.341	8184
757.451	6923
757.561	6019
757.671	7477
757.781	8220
757.891	7585
758.001	6559
758.111	8010
758.221	9652
758.331	9279
758.441	9450
758.551	9370
758.661	11453
758.771	10225
758.880	10250
758.990	8277
759.100	9103
759.210	10146
759.320	8936
759.429	10239
759.539	11577
759.649	12956
759.758	15587
759.868	16464
759.978	16279
760.087	18353
760.197	17773
760.307	16852
760.416	15736
760.526	13902
760.635	15015
760.745	15634
760.854	17278
760.964	21310
761.073	21292
761.182	19265
761.292	16200
761.401	13052
761.511	11160
761.620	9418
761.729	9557
761.839	7734
761.948	8629
762.057	7098
762.166	8812
762.276	8161
762.385	8435
762.494	7702
762.603	7929
762.712	7505
762.822	6955
762.931	6557
763.040	5259
763.149	5918
763.258	6178
763.367	6819
763.476	5168
763.585	5919
763.694	5880
763.803	5312
763.912	5969
764.021	5680
764.130	5795
764.238	6214
764.347	7253
764.456	7341
764.565	7226
764.674	6262
764.783	5289
764.891	4574
765.000	6488
765.109	5290
765.217	5175
765.326	5450
765.435	5028
765.543	6267
765.652	5187
765.761	5296
765.869	4888
765.978	4619
766.086	5643
766.195	4828
766.303	5724
766.412	11408
766.520	10645
766.629	4979
766.737	5583
766.846	4514
766.954	3998
767.062	6067
767.171	5824
767.279	6990
767.387	5018
767.496	4805
767.604	4557
767.712	4854
767.820	4838
767.928	4594
768.037	4187
768.145	4958
768.253	4975
768.361	4284
768.469	4631
768.577	3778
768.685	5219
768.793	4753
768.901	4607
769.009	5141
769.117	4779
769.225	5083
769.333	5263
769.441	6064
769.549	5866
769.657	5676
769.765	5751
769.873	10797
769.981	6689
770.088	5598
770.196	5587
770.304	6329
770.412	6113
770.519	6550
770.627	7215
770.735	6239
770.842	7415
770.950	7251
771.058	8329
771.165	9508
771.273	10965
771.380	11664
771.488	16050
771.595	18770
771.703	16232
771.810	14849
771.918	15325
772.025	18697
772.133	22321
772.240	20029
772.348	24103
772.455	22079
772.562	19062
772.670	18696
772.777	19915
772.884	19479
772.991	17462
773.099	20982
773.206	18271
773.313	18636
773.420	19758
773.528	18749
773.635	16896
773.742	18581
773.849	17168
773.956	18641
774.063	17414
774.170	17617
774.277	18087
774.384	15859
774.491	16494
774.598	16988
774.705	16744
774.812	17570
774.919	16395
775.026	17331
775.133	16750
775.239	16317
775.346	15734
775.453	15269
775.560	16224
775.667	16428
775.773	14698
775.880	15302
775.987	16520
776.093	15375
776.200	18383
776.307	12489
776.413	13889
776.520	16263
776.627	15194
776.733	12927
776.840	12241
776.946	18647
777.053	17089
777.159	16768
777.266	14261
777.372	16707
777.478	17618
777.585	14652
777.691	11897
777.798	14803
777.904	13701
778.010	12102
778.117	13465
778.223	12454
778.329	13774
778.435	11521
778.542	14261
778.648	12521
778.754	11382
778.860	13252
778.966	12425
779.072	11554
779.178	13408
779.284	10079
779.391	11668
779.497	13103
779.603	13494
779.708	10814
779.815	10818
779.920	12009
780.026	10276
780.132	11143
780.238	11199
780.344	9533
780.450	15504
780.556	10375
780.661	9314
780.767	12464
780.873	9303
780.979	10417
781.085	12313
781.190	9329
781.296	10226
781.402	10816
781.507	10640
781.613	7700
781.719	9640
781.824	12099
781.930	10317
782.035	10550
782.141	12729
782.246	7959
782.352	8712
782.457	10973
782.563	9786
782.668	9941
782.773	7943
782.879	8434
782.984	9901
783.090	9768
783.195	9892
783.300	10461
783.405	8537
783.511	8362
783.616	9185
783.721	9405
783.826	9087
783.932	7630
784.037	8632
784.142	9567
784.247	7971
784.352	9850
784.457	6986
784.562	8470
784.667	9490
784.772	7042
784.877	6209
784.982	9787
785.087	9386
785.192	7476
785.297	7170
785.402	9647
785.507	8928
785.611	8710
785.716	6743
785.821	8374
785.926	8136
786.031	7744
786.135	8787
786.240	7307
786.345	6451
786.450	6344
786.554	7911
786.659	6626
786.763	6983
786.868	7475
786.973	8938
787.077	5588
787.182	5841
787.286	7571
787.391	8736
787.495	5143
787.600	5265
787.704	7347
787.809	6764
787.913	6770
788.017	7106
788.122	7880
788.226	6576
788.330	3825
788.435	7821
788.539	8903
788.643	6473
788.747	5043
788.852	6896
788.956	5995
789.060	7325
789.164	7260
789.268	5930
789.372	7023
789.476	6278
789.580	4887
789.684	4466
789.788	7148
789.892	6844
789.996	4265
790.100	4873
790.204	5823
790.308	8473
790.412	4772
790.516	4532
790.620	4679
790.724	7417
790.828	5449
790.931	3154
791.035	6008
791.139	6213
791.242	5052
791.346	5568
791.450	6740
791.554	4687
791.657	3944
791.761	6664
791.864	5995
791.968	6373
792.072	6104
792.175	4805
792.279	5037
792.382	4739
792.486	4235
792.589	4708
792.693	5371
792.796	4153
792.899	5766
793.003	6187
793.106	4565
793.209	5345
793.313	4795
793.416	3094
793.519	4646
793.623	7318
793.726	6101
793.829	3787
793.932	2640
794.035	2886
794.138	6064
794.242	7101
794.345	4082
794.448	3232
794.551	3846
794.654	5951
794.757	5258
794.860	4135
794.963	5396
795.066	4042
795.169	5280
795.272	3924
795.375	5784
795.477	2995
795.580	4220
795.683	3199
795.786	5259
795.889	4481
795.991	4637
796.094	4857
796.197	3374
796.300	6353
796.402	5819
796.505	3521
796.608	3414
796.710	5056
796.813	5787
796.915	6077
797.018	5474
797.120	6445
797.223	4077
797.326	7546
797.428	4177
797.530	3846
797.633	4620
797.735	6987
797.838	5120
797.940	6383
798.042	5134
798.145	4931
798.247	4462
798.349	2592
798.452	5405
798.554	5590
798.656	5832
798.758	7283
798.860	5305
798.962	4115
799.065	4084
799.167	3663
799.269	4958
799.371	6650
799.473	7702
799.575	7250
799.677	4400
799.779	6201
799.881	3154
799.983	6388
800.085	4490
800.187	4527
800.289	2663
800.390	4997
800.492	5911
800.594	5712
800.696	2764
800.798	3032
800.899	3266
801.001	4338
801.103	5671
801.205	4541
801.306	5053
801.408	3854
801.509	4661
801.611	4176
801.713	3521
801.814	3488
801.916	2814
802.017	3601
802.119	1878
802.220	2932
802.322	2247
802.423	5967
802.525	2395
802.626	3675
802.727	4468
802.829	4537
802.930	709
803.031	4387
803.133	3268
803.234	3358
803.335	3391
803.436	2417
803.538	3861
803.639	2621
803.740	3422
803.841	3271
803.942	3643
804.043	4263
804.144	2740
804.245	3434
804.346	2650
804.447	3856
804.548	3362
804.649	4735
804.750	2739
804.851	2844
804.952	3065
805.053	2926
805.154	2338
805.255	3563
805.355	2923
805.456	2605
805.557	2636
805.658	1859
805.758	3997
805.859	3610
805.960	3319
806.061	1952
806.161	2538
806.262	3417
806.362	2805
806.463	1875
806.564	4375
806.664	3468
806.765	1846
806.865	2243
806.966	2477
807.066	3250
807.166	2916
807.267	4119
807.367	1976
807.468	3668
807.568	1321
807.668	3797
807.769	3857
807.869	3386
807.969	2258
808.069	2298
808.170	2876
808.270	2141
808.370	3076
808.470	2900
808.570	2485
808.670	3689
808.770	3082
808.870	2725
808.970	2505
809.070	2732
809.170	2383
809.271	2970
809.370	2911
809.470	3284
809.570	1848
809.670	1538
809.770	2614
809.870	2947
809.970	2263
810.070	3727
810.169	3549
810.269	2037
810.369	3246
810.469	3159
810.568	2752
810.668	2802
810.768	2328
810.867	2979
810.967	1566
811.066	2046
811.166	2750
811.265	3504
811.365	2536
811.464	2255
811.564	2353
811.663	3375
811.763	2148
811.862	3525
811.962	3030
812.061	2747
812.160	2205
812.260	2437
812.359	2854
812.458	2954
812.557	2857
812.657	2936
812.756	2699
812.855	3146
812.954	1707
813.053	2005
813.153	2368
813.252	2062
813.351	2937
813.450	4358
813.549	2564
813.648	3315
813.747	2761
813.846	3501
813.945	3209
814.044	2746
814.143	3143
814.242	2959
814.341	2694
814.439	4363
814.538	4611
814.637	4097
814.736	4046
814.835	4768
814.933	4007
815.032	6115
815.131	6901
815.229	13254
815.328	19402
815.427	14547
815.525	11976
815.624	12148
815.722	11150
815.821	12660
815.919	12557
816.018	12609
816.116	12704
816.215	13141
816.313	12946
816.412	16984
816.510	16626
816.609	18280
816.707	19032
816.805	17207
816.904	16767
817.002	18159
817.100	17766
817.198	19059
817.296	17289
817.395	17897
817.493	16287
817.591	15400
817.689	15110
817.787	16358
817.885	15063
817.983	13892
818.081	14273
818.179	13367
818.277	16408
818.375	14466
818.473	13593
818.571	12066
818.669	14629
818.767	15730
818.865	12366
818.963	11247
819.061	13875
819.158	13853
819.256	15245
819.354	11790
819.452	13548
819.549	12927
819.647	14560
819.745	11761
819.842	11393
819.940	11681
820.038	11393
820.135	11720
820.233	13659
820.330	12270
820.428	10816
820.525	14177
820.623	11052
820.720	11606
820.818	13123
820.915	12399
821.012	11166
821.110	10894
821.207	12043
821.304	11045
821.402	12066
821.499	13171
821.596	9899
821.693	11146
821.791	11904
821.888	10315
821.985	12670
822.082	9017
822.179	11178
822.276	11197
822.373	9588
822.470	9879
822.567	10714
822.664	10004
822.761	10018
822.858	10936
822.955	9972
823.052	9463
823.149	10526
823.246	11289
823.343	7914
823.440	9301
823.536	10630
823.633	10622
823.730	8562
823.827	10470
823.923	9303
824.020	8440
824.117	11180
824.213	10827
824.310	8899
824.407	7691
824.503	10309
824.600	9327
824.696	8011
824.793	11024
824.889	10585
824.986	8140
825.082	5244
825.179	7419
825.275	9722
825.371	11813
825.468	8081
825.564	4545
825.660	10597
825.757	11980
825.853	8805
825.949	6476
826.045	5913
826.142	7934
826.238	9948
826.334	9846
826.430	8419
826.526	5745
826.622	4452
826.718	9446
826.814	10624
826.910	8483
827.006	5034
827.102	5453
827.198	8116
827.294	9192
827.390	9566
827.486	6773
827.582	4438
827.678	6085
827.774	9364
827.869	5925
827.965	7290
828.061	5517
828.157	9511
828.252	9425
828.348	7096
828.444	6173
828.539	6885
828.635	8153
828.731	9026
828.826	6107
828.922	8479
829.017	9417
829.113	9154
829.208	6119
829.304	7685
829.399	10716
829.495	8867
829.590	7019
829.685	7040
829.781	8691
829.876	8717
829.971	5029
830.066	4133
830.162	7099
830.257	10308
830.352	8115
830.447	5227
830.543	6014
830.638	7464
830.733	9461
830.828	6961
830.923	8360
831.018	8214
831.113	9241
831.208	5499
831.303	4086
831.398	4416
831.493	7520
831.588	10276
831.683	5522
831.778	4850
831.873	5912
831.967	8624
832.062	8409
832.157	5996
832.252	6526
832.346	6447
832.441	8956
832.536	5900
832.631	6218
832.725	4547
832.820	5980
832.914	6027
833.009	3886
833.104	3965
833.198	4474
833.293	6133
833.387	8072
833.482	6505
833.576	7619
833.670	6364
833.765	7926
833.859	9174
833.954	7012
834.048	6218
834.142	4873
834.237	3208
834.331	6486
834.425	5960
834.519	5664
834.613	4850
834.708	4167
834.802	4653
834.896	5244
834.990	6425
835.084	3929
835.178	3915
835.272	4949
835.366	6829
835.460	7835
835.554	5605
835.648	4936
835.742	2756
835.836	3445
835.930	3509
836.024	6388
836.117	5328
836.211	4627
836.305	3332
836.399	3874
836.493	3735
836.586	4816
836.680	4218
836.774	3069
836.867	4273
836.961	2686
837.055	3770
837.148	4178
837.242	4217
837.335	4394
837.429	3870
837.522	3626
837.616	3010
837.709	4127
837.803	3397
837.896	5846
837.989	4863
838.083	3724
838.176	2433
838.269	1804
838.363	4430
838.456	4042
838.549	4794
838.642	4156
838.735	3176
838.829	4718
838.922	3623
839.015	3034
839.108	2821
839.201	3125
839.294	5427
839.387	4264
839.480	2758
839.573	3523
839.666	3098
839.759	3045
839.852	3619
839.945	4936
840.038	2672
840.131	2565
840.223	3055
840.316	3407
840.409	3808
840.502	4581
840.594	5272
840.687	1472
840.780	2478
840.873	2852
840.965	2557
841.058	3848
841.150	4239
841.243	2088
841.336	3061
841.428	3051
841.521	2299
841.613	2990
841.706	3146
841.798	2715
841.890	3978
841.983	2286
842.075	2607
842.167	2822
842.260	2883
842.352	4387
842.444	4297
842.537	1794
842.629	1779
842.721	1474
842.813	2361
842.905	2752
842.997	3281
843.090	3964
843.182	2997
843.274	1535
843.366	2487
843.458	2592
843.550	4109
843.642	2793
843.734	3515
843.826	1840
843.918	1820
844.009	3264
844.101	2750
844.193	2988
844.285	3189
844.377	3988
844.469	2955
844.560	1387
844.652	1886
844.744	2609
844.835	2867
844.927	3869
845.019	4121
845.110	2239
845.202	2873
845.293	2412
845.385	1145
845.476	3073
845.568	3382
845.659	1650
845.751	2595
845.842	2645
845.934	3283
846.025	2743
846.116	2902
846.208	3662
846.299	2065
846.390	1704
846.482	1981
846.573	3138
846.664	1896
846.755	1598
846.846	2980
846.937	689
847.029	1650
847.120	2588
847.211	2438
847.302	4469
847.393	2044
847.484	2920
847.575	1474
847.666	1433
847.757	1962
847.847	2571
847.938	3401
848.029	3360
848.120	2291
848.211	2013
848.302	2180
848.392	844
848.483	2147
848.574	1933
848.664	2430
848.755	2931
848.846	2298
848.936	3005
849.027	3178
849.118	3118
849.208	3455
849.299	5541
849.389	8996
849.480	17374
849.570	32631
849.661	58839
849.751	91420
849.841	37987
849.932	10100
850.022	4990
850.112	3824
850.203	4530
850.293	2374
850.383	3321
850.474	2494
850.564	2411
850.654	1888
850.744	1754
850.834	1633
850.924	3079
851.014	3601
851.104	2794
851.194	2166
851.284	2513
851.374	2190
851.464	2099
851.554	2432
851.644	2793
851.734	3320
851.824	2948
851.914	2119
852.004	3918
852.094	2451
852.183	2692
852.273	2212
852.363	3133
852.452	3586
852.542	3891
852.632	3105
852.721	3050
852.811	2426
852.901	4119
852.990	4753
853.080	4647
853.169	3497
853.259	5164
853.348	4920
853.438	6833
853.527	9351
853.617	13261
853.706	21359
853.795	36282
853.885	65462
853.974	109442
854.063	177821
854.152	214933
854.242	115182
854.331	45494
854.420	22700
854.509	15287
854.598	10712
854.687	8940
854.777	7275
854.866	5128
854.955	4895
855.044	4159
855.133	3642
855.222	3839
855.311	2577
855.400	3678
855.488	3229
855.577	3309
855.666	2746
855.755	2871
855.844	2281
855.933	2773
856.021	3189
856.110	2483
856.199	846
856.288	1051
856.376	2049
856.465	2211
856.554	2262
856.642	2866
856.731	3494
856.819	2740
856.908	1983
856.996	2402
857.085	1722
857.173	2010
857.262	2190
857.350	2170
857.438	2256
857.527	2128
857.615	2150
857.703	3296
857.792	1694
857.880	2135
857.968	1676
858.056	2768
858.145	1691
858.233	1970
858.321	2162
858.409	1919
858.497	2099
858.585	1695
858.673	1785
858.761	1448
858.849	1447
858.937	1890
859.025	1470
859.113	2637
859.201	2676
859.289	2346
859.377	2580
859.465	2678
859.552	1954
859.640	1994
859.728	2508
859.816	2349
859.903	1602
859.991	1198
860.079	2172
860.166	2714
860.254	3150
860.342	2146
860.429	1819
860.517	1917
860.604	1866
860.692	1801
860.779	1770
860.867	1867
860.954	2380
861.042	2576
861.129	3166
861.216	2880
861.304	2323
861.391	2480
861.478	2298
861.565	2668
861.653	2514
861.740	1619
861.827	1464
861.914	2758
862.001	1827
862.089	2720
862.176	1846
862.263	2358
862.350	2189
862.437	2293
862.524	1924
862.611	2454
862.698	2579
862.785	2951
862.871	3349
862.958	4080
863.045	3319
863.132	3042
863.219	2497
863.306	1398
863.392	2420
863.479	2405
863.566	2648
863.652	2861
863.739	3028
863.826	3182
863.912	3278
863.999	2406
864.086	2566
864.172	4191
864.259	3573
864.345	3949
864.432	4094
864.518	3857
864.604	3608
864.691	4075
864.777	3857
864.863	6133
864.950	8770
865.036	11639
865.122	19373
865.209	21021
865.295	18272
865.381	17612
865.467	17866
865.553	19989
865.639	23103
865.726	29970
865.812	46181
865.898	70438
865.984	100894
866.070	154047
866.156	149497
866.242	69005
866.328	32809
866.414	22786
866.499	19001
866.585	16725
866.671	16330
866.757	16553
866.843	15209
866.928	13800
867.014	13366
867.100	14069
867.186	13259
867.271	12719
867.357	13033
867.442	12573
867.528	12775
867.614	12678
867.699	13156
867.785	13069
867.870	13028
867.956	12784
868.041	12727
868.127	11291
868.212	12174
868.297	11705
868.383	12632
868.468	12800
868.553	12316
868.639	11166
868.724	11600
868.809	11704
868.894	10675
868.979	11126
869.065	11579
869.150	9317
869.235	11310
869.320	10946
869.405	9388
869.490	12401
869.575	10765
869.660	8982
869.745	11480
869.830	12170
869.915	9718
870.000	10007
870.085	9980
870.169	12656
870.254	12497
870.339	8068
870.424	8379
870.509	10742
870.593	11908
870.678	11674
870.763	10475
870.847	8832
870.932	11435
871.016	11244
871.101	7474
871.186	10029
871.270	12321
871.355	7751
871.439	9043
871.523	10824
871.608	8357
871.692	8317
871.777	10908
871.861	10133
871.945	8480
872.030	9974
872.114	9444
872.198	8290
872.282	8177
872.367	8297
872.451	8378
872.535	8041
872.619	8863
872.703	8092
872.787	10639
872.871	9563
872.955	7178
873.039	6570
873.123	8471
873.207	9789
873.291	7032
873.375	7645
873.459	10156
873.543	8026
873.627	7880
873.711	6606
873.794	9707
873.878	7398
873.962	6407
874.045	6682
874.129	8175
874.137	8173
874.213	8147
874.245	7963
874.296	7678
874.352	7026
874.380	6710
874.460	7097
874.464	7116
874.547	6763
874.568	7129
874.631	8202
874.676	7605
874.714	7113
874.784	8778
874.798	9108
874.881	7809
874.892	7500
874.965	5443
874.999	6033
875.048	6808
875.107	7381
875.131	7612
875.215	5712
875.215	5710
875.298	4597
875.323	4988
875.381	5975
875.430	7442
875.465	8463
875.538	7925
875.548	7850
875.631	5299
875.646	5161
875.714	4402
875.753	5026
875.798	5828
875.861	7157
875.881	7554
875.964	5781
875.968	5729
876.047	4834
876.076	5055
876.130	5499
876.183	6103
876.213	6440
876.291	6638
876.296	6642
876.379	5480
876.398	5362
876.462	5041
876.506	4396
876.545	3827
876.613	4600
876.628	4767
876.711	5965
876.721	6089
876.794	7005
876.828	6668
876.877	6165
876.935	4728
876.960	4147
877.043	4576
877.043	4581
877.125	5416
877.150	5988
877.208	7361
877.258	5796
877.291	4687
877.365	4275
877.374	4232
877.456	4393
877.472	4308
877.539	4025
877.579	4968
877.622	5822
877.687	5480
877.704	5432
877.787	5414
877.794	5396
877.869	5022
877.901	5178
877.952	5583
878.008	4225
878.034	3506
878.115	3664
878.117	3667
878.199	4049
878.222	4174
878.282	4681
878.329	5226
878.364	5471
878.437	5515
878.447	5537
878.529	3520
878.544	3496
878.611	3176
878.651	3489
878.694	4081
878.758	4742
878.776	4865
878.858	4655
878.865	4645
878.941	4413
878.972	3878
879.023	2956
879.078	3393
879.105	3690
879.185	4105
879.187	4111
879.269	3886
879.292	4095
879.351	4347
879.399	3389
879.433	2850
879.506	3990
879.516	4107
879.598	3896
879.613	3733
879.680	3280
879.720	3798
879.762	4208
879.827	3594
879.844	3393
879.926	2874
879.933	2950
880.007	4026
880.040	3724
880.089	3205
880.147	3770
880.171	3975
880.253	4341
880.254	4340
880.335	3234
880.360	3422
880.417	4087
880.467	4110
880.499	3980
880.574	3874
880.580	3889
880.662	4763
880.680	4337
880.744	2389
880.787	2502
880.825	2840
880.893	3055
880.907	3047
880.989	2664
881.000	2736
881.070	3539
881.106	3959
881.152	4071
881.213	2680
881.233	2333
881.315	2540
881.319	2578
881.396	3274
881.426	3360
881.478	3540
881.532	3962
881.559	4047
881.639	3151
881.641	3125
881.722	2424
881.745	2691
881.803	3634
881.852	3487
881.885	3079
881.958	2239
881.966	2234
882.047	3305
882.064	3351
882.129	2780
882.171	2297
882.210	1954
882.277	2087
882.291	2208
882.372	2961
882.383	3109
882.454	4070
882.489	3998
882.535	3466
882.596	3532
882.616	3629
882.697	2939
882.702	2898
882.778	2247
882.808	2246
882.859	2119
882.914	1983
882.940	1922
883.020	2249
883.021	2248
883.102	2693
883.127	2841
883.183	3526
883.233	3546
883.264	3167
883.339	2291
883.345	2208
883.426	1308
883.445	1287
883.507	1695
883.551	2221
883.587	2799
883.657	3148
883.668	3148
883.749	3571
883.763	3418
883.830	2012
883.869	1543
883.910	1472
883.975	2137
883.991	2251
884.072	2522
884.081	2520
884.152	2857
884.187	3142
884.233	3275
884.292	2922
884.314	2685
884.394	1288
884.398	1275
884.475	1040
884.504	1104
884.555	1668
884.610	1767
884.636	1681
884.716	2337
884.716	2338
884.797	3100
884.821	3216
884.877	2488
884.927	1885
884.958	1802
885.033	1921
885.038	1903
885.118	1468
885.139	1494
885.199	1844
885.244	1881
885.279	1869
885.350	2273
885.359	2346
885.439	2857
885.456	2811
885.520	2053
885.561	1642
885.600	1350
885.667	1404
885.680	1493
885.760	1727
885.773	1756
885.840	1197
885.878	1067
885.920	1094
885.984	1140
886.000	1283
886.080	1758
886.089	1823
886.160	2040
886.195	2126
886.240	1990
886.300	1760
886.320	1733
886.400	1991
886.406	1970
886.480	934
886.511	793
886.560	1139
886.616	1274
886.640	1135
886.720	737
886.722	735
886.800	1061
886.827	1223
886.879	1713
886.932	2306
886.959	2380
887.038	2438
887.039	2431
887.119	2229
887.143	2194
887.198	1966
887.248	1869
887.278	1786
887.354	1459
887.358	1454
887.437	1387
887.459	1425
887.517	1632
887.564	1737
887.596	1538
887.669	1052
887.676	1034
887.755	968
887.774	996
887.835	1301
887.880	1413
887.914	1388
887.985	1482
887.994	1504
888.073	1752
888.090	1763
888.153	1993
888.195	2187
888.232	1911
888.300	1390
888.311	1376
888.391	1525
888.405	1531
888.470	940
888.510	548
888.549	693
888.615	1210
888.628	1269
888.708	1457
888.720	1485
888.787	1701
888.825	1835
888.866	1364
888.930	712
888.945	812
889.024	1450
889.035	1524
889.103	1477
889.140	1477
889.182	1425
889.245	1406
889.261	1449
889.340	1653
889.349	1681
889.419	1516
889.454	1442
889.498	706
889.559	-256
889.577	144
889.656	1937
889.664	2123
889.735	1655
889.768	1439
889.814	1706
889.873	2065
889.978	1087
890.083	916
890.187	1337
890.292	1358
890.397	742
890.501	1081
890.606	1207
890.710	546
890.815	1417
890.919	1372
891.024	589
891.128	1317
891.233	438
891.337	1905
891.442	1586
891.546	792
891.650	22
891.755	1421
891.859	2341
891.963	1440
892.068	909
892.172	1511
892.276	-617
892.380	1119
892.484	2032
892.589	1376
892.693	718
892.797	1391
892.901	705
893.005	741
893.109	1490
893.213	2016
893.317	881
893.421	213
893.525	808
893.629	871
893.733	1221
893.837	955
893.941	849
894.045	852
894.148	439
894.252	1127
894.356	994
894.460	1851
894.564	927
894.667	653
894.771	1287
894.875	266
894.978	305
895.082	724
895.186	1529
895.289	1884
895.393	1247
895.496	1276
895.600	1200
895.703	302
895.807	950
895.910	1029
896.014	822
896.117	828
896.221	314
896.324	1282
896.427	72
896.531	329
896.634	760
896.737	99
896.840	1150
896.944	1106
897.047	1396
897.150	744
897.253	398
897.356	400
897.460	303
897.563	558
897.666	1403
897.769	1124
897.872	902
897.975	-520
898.078	160
898.181	386
898.284	450
898.387	1481
898.490	1393
898.593	365
898.695	576
898.798	1064
898.901	-156
899.004	544
899.107	489
899.209	1427
899.312	1049
899.415	1091
899.518	366
899.620	1111
899.723	89
899.826	1453
899.928	503
900.031	874
900.133	1230
900.236	1124
900.338	-294
900.441	565
900.543	-62
900.646	346
900.748	155
900.851	1836
900.953	801
901.055	908
901.158	541
901.260	561
901.362	41
901.465	-174
901.567	429
901.669	889
901.771	-213
901.873	777
901.976	-122
902.078	484
902.180	308
902.282	582
902.384	459
902.486	984
902.588	600
902.690	416
902.792	636
902.894	1329
902.996	938
903.098	401
903.200	227
903.302	204
903.404	221
903.505	671
903.607	949
903.709	1392
903.811	1206
903.913	761
904.014	19
904.116	83
904.218	709
904.319	768
904.421	1463
904.523	1699
904.624	1503
904.726	1361
904.827	260
904.929	386
905.030	360
905.132	880
905.233	1064
905.335	1066
905.436	322
905.537	475
905.639	-200
905.740	97
905.841	617
905.943	966
906.044	-179
906.145	587
906.247	-211
906.348	760
906.449	994
906.550	790
906.651	540
906.752	419
906.854	-239
906.955	629
907.056	-229
907.157	548
907.258	897
907.359	-183
907.460	836
907.561	339
907.662	474
907.762	128
907.863	1116
907.964	242
908.065	912
908.166	133
908.267	-224
908.367	297
908.468	-491
908.569	-176
908.670	525
908.770	582
908.871	1106
908.971	882
909.072	-473
909.173	-180
909.273	-306
909.374	300
909.474	358
909.575	-349
909.675	-60
909.776	1149
909.876	1049
909.977	665
910.077	839
910.177	297
910.278	242
910.378	-222
910.478	562
910.579	900
910.679	926
910.779	893
910.879	586
910.980	708
911.080	620
911.180	-58
911.280	91
911.380	-365
911.480	-408
911.580	144
911.680	754
911.780	656
911.880	-170
911.980	618
912.080	-500
912.180	592
912.280	-150
912.380	281
912.480	383
912.580	-306
912.679	-251
912.779	-311
912.879	488
912.979	340
913.078	174
913.178	-473
913.278	133
913.377	189
913.477	37
913.577	276
913.676	892
913.776	242
913.875	-227
913.975	593
914.074	196
914.174	1109
914.273	-494
914.373	1535
914.472	572
914.572	-408
914.671	-19
914.770	981
914.870	134
914.969	475
915.068	524
915.167	994
915.267	-109
915.366	-128
915.465	1121
915.564	1012
915.663	812
915.763	274
915.862	239
915.961	380
916.060	-65
916.159	300
916.258	-724
916.357	233
916.456	411
916.555	-158
916.654	283
916.752	413
916.851	444
916.950	890
917.049	-312
917.148	539
917.247	1073
917.345	-317
917.444	714
917.543	-779
917.642	139
917.740	180
917.839	226
917.937	1908
918.036	957
918.135	257
918.233	207
918.332	-234
918.430	-182
918.529	551
918.627	-191
918.726	1573
918.824	206
918.923	-523
919.021	-36
919.119	-2
919.218	-153
919.316	524
919.414	-507
919.512	312
919.611	-57
919.709	1101
919.807	652
919.905	1041
920.003	541
920.102	904
920.200	603
920.298	948
920.396	207
920.494	1098
920.592	73
920.690	1443
920.788	973
920.886	734
920.984	665
921.082	767
921.180	1509
921.277	1327
921.375	1034
921.473	2199
921.571	1183
921.669	1636
921.766	1153
921.864	1409
921.962	2126
922.060	1265
922.157	1454
922.255	1963
922.352	1088
922.450	2476
922.548	2299
922.645	2220
922.743	3783
922.840	5719
922.938	6531
923.035	5274
923.133	5676
923.230	6163
923.327	7799
923.425	7375
923.522	6667
923.619	7219
923.717	5398
923.814	4783
923.911	5632
924.008	6715
924.106	4938
924.203	5689
924.300	4583
924.397	4922
924.494	5571
924.591	5763
924.688	5718
924.786	5707
924.883	5821
924.979	5659
925.077	5485
925.173	5536
925.270	4947
925.367	4849
925.464	6295
925.561	5576
925.658	6258
925.755	5357
925.852	5883
925.948	5371
926.045	6343
926.142	5500
926.239	5901
926.335	4402
926.432	5558
926.529	6357
926.625	7488
926.722	5207
926.818	4292
926.915	5869
927.011	4980
927.108	4562
927.204	5072
927.301	4620
927.397	4958
927.494	5969
927.590	3827
927.687	3998
927.783	5641
927.879	5815
927.976	4913
928.072	3850
928.168	4914
928.264	4744
928.361	4050
928.457	6348
928.553	4222
928.649	4285
928.745	5844
928.841	3836
928.937	5027
929.033	5230
929.129	3943
929.225	5303
929.321	4191
929.417	3423
929.513	4164
929.609	3608
929.705	3645
929.801	4719
929.897	3476
929.993	3657
930.089	4223
930.184	3208
930.280	4115
930.376	5674
930.471	2782
930.567	3265
930.663	3610
930.758	3158
930.854	3224
930.950	4475
931.045	3260
931.141	4143
931.236	5123
931.332	4601
931.427	2003
931.523	4981
931.618	3955
931.714	2702
931.809	2930
931.905	4554
932.000	2530
932.095	3269
932.191	3596
932.286	4741
932.381	3306
932.476	2094
932.572	3144
932.667	2271
932.762	3082
932.857	3773
932.952	3939
933.047	3550
933.142	2496
933.237	3210
933.332	3542
933.427	3556
933.522	3466
933.617	2401
933.712	3370
933.807	3796
933.902	4255
933.997	4098
934.092	2806
934.187	2976
934.282	3182
934.376	3294
934.471	3817
934.566	2241
934.661	2603
934.755	2558
934.850	3702
934.945	3102
935.039	1814
935.134	2281
935.228	2707
935.323	5040
935.417	3342
935.512	2117
935.606	1434
935.701	3266
935.795	2480
935.890	2581
935.984	2264
936.079	1775
936.173	2608
936.267	2274
936.362	1378
936.456	3035
936.550	3955
936.644	3750
936.738	1443
936.833	2426
936.927	1695
937.021	2270
937.115	2308
937.209	2462
937.303	3399
937.397	1793
937.491	2209
937.585	3347
937.679	2550
937.773	2253
937.867	1279
937.961	2020
938.055	3178
938.149	3202
938.243	1369
938.337	1691
938.430	2105
938.524	3916
938.618	3409
938.712	1801
938.805	1100
938.899	2574
938.993	3719
939.086	2874
939.180	2218
939.274	3046
939.367	2789
939.461	2864
939.554	1213
939.648	1751
939.741	2035
939.835	1965
939.928	4080
940.022	2807
940.115	931
940.208	2956
940.302	2917
940.395	3528
940.488	1807
940.582	2208
940.675	978
940.768	1923
940.861	1110
940.954	3336
941.048	668
941.141	1099
941.234	668
941.327	1978
941.420	2085
941.513	1931
941.606	2049
941.699	2235
941.792	2651
941.885	2699
941.978	1457
942.071	2201
942.164	1328
942.257	709
942.349	1994
942.442	2516
942.535	879
942.628	1864
942.721	1862
942.813	1243
942.906	2470
942.999	1537
943.091	1193
943.184	1418
943.277	1532
943.369	1981
943.462	458
943.554	1568
943.647	1573
943.739	2245
943.832	2590
943.924	-121
944.017	1322
944.109	907
944.201	1325
944.294	1263
944.386	1811
944.478	1807
944.571	636
944.663	973
944.755	730
944.847	1877
944.940	1544
945.032	-672
945.124	878
945.216	2141
945.308	1211
945.400	1625
945.492	1040
945.584	1621
945.676	2394
945.768	1982
945.860	2414
945.952	2013
946.044	1333
946.136	902
946.228	1090
946.320	1594
946.412	1210
946.503	1699
946.595	2609
946.687	881
946.779	997
946.870	906
946.962	777
947.054	881
947.145	1701
947.237	804
947.329	1025
947.420	764
947.512	615
947.603	897
947.695	267
947.786	775
947.878	155
947.969	1608
948.061	1033
948.152	1099
948.243	25
948.335	306
948.426	-526
948.517	388
948.609	1461
948.700	1054
948.791	984
948.882	202
948.973	-220
949.065	1001
949.156	1177
949.247	-372
949.338	498
949.429	-198
949.520	617
949.611	71
949.702	1629
949.793	855
949.884	474
949.975	338
950.066	-492
950.157	127
950.247	273
950.338	154
950.429	-413
950.520	442
950.611	343
950.701	981
950.792	1566
950.883	1530
950.973	214
951.064	1288
951.155	1259
951.245	1057
951.336	697
951.427	1082
951.517	1273
951.608	1068
951.698	587
951.788	-5
951.879	-165
951.969	446
952.060	213
952.150	668
952.240	1599
952.331	85
952.421	2104
952.511	762
952.602	-325
952.692	-259
952.782	-168
952.872	-68
952.962	-285
953.052	471
953.143	33
953.233	-94
953.323	825
953.413	354
953.503	352
953.593	750
953.683	293
953.773	-187
953.863	139
953.953	-170
954.042	278
954.132	530
954.222	635
954.312	-331
954.402	-196
954.492	-154
954.581	-544
954.671	568
954.761	74
954.850	1824
954.940	796
955.030	136
955.119	-247
955.209	-84
955.298	66
955.388	282
955.477	780
955.567	-518
955.656	343
955.746	1060
955.835	339
955.925	-550
956.014	415
956.103	1106
956.193	1237
956.282	1884
956.371	682
956.461	308
956.550	1037
956.639	337
956.728	-516
956.817	235
956.906	308
956.995	1389
957.085	393
957.174	577
957.263	-62
957.352	-182
957.441	-108
957.530	439
957.619	-49
957.708	935
957.796	91
957.885	6
957.974	-109
958.063	1262
958.152	-943
958.241	348
958.329	-320
958.418	126
958.507	-1419
958.596	1618
958.684	464
958.773	861
958.861	-447
958.950	-154
959.039	-224
959.127	-94
959.216	851
959.304	166
959.393	337
959.481	288
959.570	175
959.658	8
959.746	-310
959.835	-170
959.923	-660
960.011	-452
960.100	659
960.188	272
960.276	-144
960.365	402
960.453	-415
960.541	-729
960.629	160
960.717	-235
960.805	-1061
960.893	663
960.981	-695
961.069	772
961.158	-573
961.245	641
961.333	671
961.421	320
961.509	475
961.597	588
961.685	-158
961.773	792
961.861	-20
961.949	1691
962.036	-241
962.124	331
962.212	-280
962.299	-206
962.387	-1191
962.475	-194
962.562	-542
962.650	287
962.738	868
962.825	-528
962.913	-544
963.000	-884
963.088	270
963.175	-19
963.263	351
963.350	580
963.438	-366
963.525	-394
963.612	-46
963.700	-180
963.787	436
963.874	-168
963.962	-387
964.049	230
964.136	107
964.223	-800
964.310	-452
964.398	-3
964.485	-998
964.572	381
964.659	-60
964.746	-593
964.833	-735
964.920	889
965.007	-86
965.094	462
965.181	277
965.268	291
965.355	343
965.441	684
965.528	6
965.615	881
965.702	-204
965.789	-199
965.875	459
965.962	681
966.049	-147
966.136	856
966.222	576
966.309	463
966.395	548
966.482	1492
966.569	-875
966.655	-14
966.742	-634
966.828	850
966.915	-363
967.001	44
967.087	-846
967.174	494
967.260	-703
967.347	540
967.433	-301
967.519	371
967.605	66
967.692	-220
967.778	422
967.864	218
967.950	356
968.036	774
968.123	-165
968.209	465
968.295	-758
968.381	869
968.467	-396
968.553	-1325
968.639	630
968.725	-232
968.811	1143
968.897	1237
968.983	246
969.069	102
969.154	423
969.240	43
969.326	-837
969.412	-151
969.497	80
969.583	-622
969.669	157
969.755	257
969.840	-470
969.926	607
970.012	1143
970.097	2632
970.183	994
970.268	547
970.354	487
970.439	-988
970.525	415
970.610	-399
970.696	736
970.781	124
970.866	-1012
970.952	268
971.037	-1046
971.122	226
971.208	-217
971.293	-375
971.378	-893
971.463	194
971.549	858
971.634	-170
971.719	-472
971.804	77
971.889	52
971.974	-745
972.059	-239
972.144	347
972.229	-429
972.314	-59
972.399	72
972.484	-1293
972.569	-218
972.654	-1304
972.739	367
972.824	-89
972.908	-880
972.993	-569
973.078	-1085
973.163	542
973.247	59
973.332	-1484
973.417	1549
973.501	170
973.586	174
973.671	-630
973.755	-234
973.840	30
973.924	900
974.009	-280
974.093	-88
974.178	1069
974.262	-211
974.346	77
974.431	-387
974.515	-163
974.600	-458
974.684	894
974.768	-430
974.852	583
974.937	-888
975.021	1203
975.105	82
975.189	-472
975.273	259
975.358	-40
975.442	-752
975.526	1776
975.610	-530
975.694	-705
975.778	738
975.862	85
975.946	-2306
976.030	1376
976.114	-549
976.198	-522
976.281	-192
976.365	363
976.449	-449
976.533	808
976.617	409
976.700	-260
976.784	-104
976.868	-520
976.951	-673
977.035	-371
977.119	-544
977.202	-315
977.286	982
977.369	178
977.453	1366
977.536	1260
977.620	368
977.703	880
977.787	-417
977.870	1181
977.953	838
978.037	-1169
978.120	1000
978.203	-79
978.287	223
978.370	3
978.453	-482
978.536	-236
978.620	-136
978.703	956
978.786	331
978.869	-834
978.952	-1048
979.035	933
979.118	797
979.201	-463
979.284	161
979.367	-339
979.450	672
979.533	-797
979.616	-445
979.699	-246
979.782	-614
979.865	-21
979.948	519
980.030	-286
980.113	-1288
980.196	-568
980.279	473
980.361	-314
980.444	-807
980.526	573
980.609	657
980.692	1845
980.774	970
980.857	-381
980.939	815
981.022	-118
981.104	-240
981.187	-385
981.269	69
981.352	395
981.434	-490
981.516	-125
981.599	1579
981.681	127
981.763	-197
981.846	553
981.928	493
982.010	-96
982.092	-575
982.174	473
982.256	-173
982.339	79
982.421	233
982.503	291
982.585	-841
982.667	79
982.749	-4
982.831	79
982.913	-453
982.995	365
983.077	-1349
983.158	1160
983.240	-1011
983.322	1113
983.404	856
983.486	638
983.568	1300
983.649	539
983.731	768
983.813	930
983.894	254
983.976	159
984.058	425
984.139	1251
984.221	-56
984.302	941
984.384	854
984.465	111
984.547	627
984.628	207
984.710	590
984.791	528
984.872	262
984.954	68
985.035	6
985.116	1
985.198	-410
985.279	1078
985.360	-275
985.441	466
985.522	364
985.604	481
985.685	-1413
985.766	1090
985.847	1503
985.928	514
986.009	-305
986.090	495
986.171	755
986.252	-186
986.333	334
986.414	1538
986.495	589
986.576	-96
986.656	1079
986.737	1053
986.818	708
986.899	414
986.980	440
987.060	1421
987.141	172
987.222	547
987.302	1424
987.383	1609
987.464	-321
987.544	1919
987.625	396
987.705	1704
987.786	909
987.866	1313
987.947	1589
988.027	384
988.108	335
988.188	-314
988.268	217
988.349	1523
988.429	631
988.509	849
988.589	1390
988.670	-288
988.750	1613
988.830	128
988.910	598
988.990	630
989.070	-375
989.151	830
989.231	374
989.311	1084
989.391	591
989.471	392
989.551	408
989.631	1204
989.711	345
989.791	578
989.870	-244
989.950	1258
990.030	351
990.110	213
990.190	625
990.269	165
990.349	593
990.429	-206
990.509	-402
990.588	71
990.668	628
990.747	294
990.827	67
990.907	-325
990.986	544
991.066	1166
991.145	-487
991.225	1405
991.304	616
991.383	546
991.463	161
991.542	335
991.622	-230
991.701	26
991.780	245
991.859	-12
991.939	-111
992.018	209
992.097	154
992.176	194
992.256	169
992.335	-643
992.414	88
992.493	-325
992.572	-274
992.651	922
992.730	348
992.809	530
992.888	-588
992.967	470
993.046	-352
993.125	-1276
993.203	-130
993.282	168
993.361	-212
993.440	6
993.519	-632
993.597	411
993.676	-1227
993.755	-227
993.834	502
993.912	-290
993.991	902
994.069	-356
994.148	-476
994.226	-201
994.305	-27
994.384	-445
994.462	-9
994.540	-1287
994.619	-1190
994.697	877
994.776	654
994.854	59
994.932	-648
995.011	-237
995.089	-1330
995.167	-71
995.245	-692
995.324	-550
995.402	-183
995.480	-642
995.558	-357
995.636	-1424
995.714	487
995.792	925
995.870	-308
995.948	-16
996.026	201
996.104	-1028
996.182	56
996.260	-715
996.338	-759
996.416	-877
996.494	-973
996.572	366
996.649	-477
996.727	-1154
996.805	-11
996.883	-154
996.960	-737
997.038	313
997.116	-772
997.193	-1387
997.271	-33
997.348	-1018
997.426	-543
997.504	-381
997.581	688
997.658	64
997.736	-1886
997.813	-1871
997.891	-206
997.968	-971
998.046	-447
998.123	-602
998.200	-954
998.277	-1104
998.355	-222
998.432	-1730
998.509	-483
998.586	-754
998.663	-337
998.741	-629
998.818	-362
998.895	-1181
998.972	-1178
999.049	-89
999.126	-706
999.203	-537
999.280	-1248
999.357	-426
999.434	-1375
999.511	-410
999.587	-30
999.664	-1862
999.741	-1032
999.818	261
999.895	-631
999.971	-820
1000.048	-394
1000.125	-943
1000.202	-1281
1000.278	-761
1000.355	-929
1000.431	-905
1000.508	-1116
1000.584	-595
1000.661	-735
1000.738	-1990
1000.814	-1399
1000.890	-696
1000.967	-1189
1001.043	-813
1001.120	-2018
1001.196	-1331
1001.272	-1850
1001.349	-754
1001.425	-506
1001.501	-566
1001.577	-1369
1001.654	-571
1001.730	-1271
1001.806	-787
1001.882	-1607
1001.958	-416
1002.034	-862
1002.110	-557
1002.186	-569
1002.262	-1647
1002.338	-1384
1002.414	-269
1002.490	-920
1002.566	-972
1002.642	-1473
1002.718	-1253
1002.794	-1076
1002.870	-1329
1002.945	-2039
1003.021	-845
1003.097	-681
1003.173	-125
1003.248	-1819
1003.324	-976
1003.400	-207
1003.475	-1159
1003.551	-528
1003.626	-302
1003.702	-861
1003.777	-1407
1003.853	-1639
1003.928	-1744
1004.004	-869
1004.079	-1009
1004.155	-1269
1004.230	-1139
1004.305	-354
1004.381	-1726
1004.456	-984
1004.531	-1741
1004.607	-1588
1004.682	-982
1004.757	-574
1004.832	-1083
1004.907	-2172
1004.982	-414
1005.057	-922
1005.133	-819
1005.208	-1376
1005.283	-596
1005.358	-974
1005.433	-2008
1005.508	-1497
1005.583	-1720
1005.657	-1438
1005.732	-401
1005.807	-2307
1005.882	-833
1005.957	-1455
1006.032	-616
1006.106	-1339
1006.181	-594
1006.256	-1566
1006.331	-1287
1006.405	-2425
1006.480	-684
1006.554	-2026
1006.629	-751
1006.704	-2455
1006.778	-1368
1006.853	-174
1006.927	-1311
1007.002	-1411
1007.076	-409
1007.150	-2143
1007.225	-539
1007.299	-988
1007.373	-1877
1007.448	-1507
1007.522	-1262
1007.596	-658
1007.671	-2242
1007.745	-888
1007.819	-1370
1007.893	-2388
1007.967	-1117
1008.041	-2585
1008.115	-1823
1008.190	-2075
1008.264	-1279
1008.338	-2691
1008.412	-1557
1008.486	-1725
1008.560	-1663
1008.633	-1881
1008.707	-1042
1008.781	-962
1008.855	-2005
1008.929	-1551
1009.003	-1765
1009.076	-1430
1009.150	-1529
1009.224	-805
1009.298	-890
1009.371	-1478
1009.445	-451
1009.519	-1260
1009.592	-2422
1009.666	-1539
1009.739	-1106
1009.813	-2426
1009.886	-809
1009.960	-2022
1010.033	-803
1010.107	-1848
1010.180	-2295
1010.253	-1910
1010.327	-2660
1010.400	-1461
1010.473	-2301
1010.547	-573
1010.620	-1234
1010.693	-1307
1010.766	-1881
1010.840	-1760
1010.913	-725
1010.986	-1705
1011.059	-1687
1011.132	-1248
1011.205	-1569
1011.278	-1366
1011.351	-1821
1011.424	-1122
1011.497	-1819
1011.570	-1896
1011.643	-1984
1011.716	-1919
1011.789	-2060
1011.862	-1037
1011.934	-1047
1012.007	-2608
1012.080	-1746
1012.153	-1723
1012.225	-296
1012.298	-1800
1012.371	-2031
1012.443	-1542
1012.516	-2447
1012.588	-1888
1012.661	-1422
1012.733	-1941
1012.806	-1459
1012.879	-1835
1012.951	-2072
1013.023	-1665
1013.096	-1764
1013.168	-2237
1013.241	-1121
1013.313	-1932
1013.385	-1459
1013.458	-2459
1013.530	-1663
1013.602	-2420
1013.674	-266
1013.746	-2412
1013.819	-1327
1013.891	-1266
1013.963	-1677
1014.035	-1914
1014.107	-1676
1014.179	-1969
1014.251	-1781
1014.323	-1660
1014.395	-994
1014.467	-1957
1014.539	-1016
1014.611	-2442
1014.683	-1978
1014.754	-1387
1014.826	-1743
1014.898	-1124
1014.970	-2545
1015.042	-1142
1015.113	-1078
1015.185	-1185
1015.257	-2368
1015.328	-1629
1015.400	-2716
1015.471	-2032
1015.543	-2462
1015.615	-1935
1015.686	-1851
1015.757	-2394
1015.829	-1086
1015.901	-1572
1015.972	-996
1016.043	-1848
1016.115	-2465
1016.186	-2124
1016.257	-2194
1016.328	-2367
1016.400	-1394
1016.471	-2292
1016.542	-1813
1016.613	-2165
1016.685	-1667
1016.756	-2008
1016.827	-1725
1016.898	-1761
1016.969	-878
1017.040	-2032
1017.111	-1914
1017.182	-2577
1017.253	-1482
1017.324	-2476
1017.395	-1910
1017.466	-1625
1017.537	-1651
1017.608	-1578
1017.678	-1706
1017.749	-2312
1017.820	-1031
1017.891	-2444
1017.961	-1469
1018.032	-2558
1018.103	-1493
1018.173	-1575
1018.244	-1942
1018.315	-2209
1018.385	-1095
1018.456	-1526
1018.526	-1627
1018.597	-1073
1018.667	-918
1018.738	-2375
1018.808	-1463
1018.878	-1854
1018.949	-1030
1019.019	-2415
1019.089	-2316
1019.160	-2114
1019.230	-2916
1019.300	-1611
1019.371	-2126
1019.441	-1690
1019.511	-1778
1019.581	-2549
1019.651	-2044
1019.721	-1928
1019.791	-1931
1019.861	-1886
1019.931	-1567
1020.001	-2026
1020.071	-877
1020.141	-2022
1020.211	-1819
1020.281	-2464
1020.351	-1945
1020.421	-1772
1020.491	-586
1020.560	-1834
1020.630	-2199
1020.700	-1730
1020.770	-2266
1020.839	-1833
1020.909	-1601
1020.979	-2386
1021.048	-1570
1021.118	-1937
1021.187	-2029
1021.257	-2128
1021.326	-2057
1021.396	-2126
1021.465	-1360
1021.535	-1783
1021.604	-2030
1021.674	-1605
1021.743	-2114
1021.812	-1629
1021.882	-1606
1021.951	-2107
1022.020	-1913
1022.089	-1479
1022.159	-1766
1022.228	-1860
1022.297	-2321
1022.366	-2108
1022.435	-2238
1022.504	-2178
1022.573	-1382
1022.642	-1462
1022.711	-1954
1022.781	-2110
1022.849	-1659
1022.918	-2951
1022.987	-1413
1023.056	-2236
1023.125	-2011
1023.194	-1965
1023.263	-1070
1023.331	-1903
1023.400	-2024
1023.469	-1729
1023.538	-2255
1023.606	-2059
1023.675	-1028
1023.744	-1393
1023.812	-2127
1023.881	-1928
1023.949	-1477
1024.018	-2765
1024.086	-1429
1024.155	-2594
1024.223	-1769
1024.292	-2064
1024.360	-1612
1024.429	-1803
1024.497	-1922
1024.565	-1491
1024.634	-2987
1024.702	-2450
1024.770	-1859
1024.838	-2708
1024.907	-934
1024.975	-2103
1025.043	-1649
1025.111	-1815
1025.179	-1572
1025.247	-1782
1025.315	-1611
1025.383	-2084
1025.451	-2011
1025.519	-2060
1025.587	-2402
1025.655	-1261
1025.723	-1753
1025.791	-1657
1025.859	-1167
1025.927	-1292
1025.995	-2011
1026.062	-2413
1026.130	-1207
1026.198	-2640
1026.266	-2203
1026.333	-1953
1026.401	-1049
1026.469	-2098
1026.536	-1280
1026.604	-2557
1026.671	-1926
1026.739	-1837
1026.806	-1405
1026.874	-1772
1026.941	-1914
1027.009	-2543
1027.076	-2623
1027.144	-1398
1027.211	-1792
1027.278	-2337
1027.345	-2229
1027.413	-2443
1027.480	-1753
1027.547	-2312
1027.614	-1936
1027.682	-1101
1027.749	-1599
1027.816	-2300
1027.883	-1710
1027.950	-1337
1028.017	-2054
1028.084	-2412
1028.151	-2113
1028.218	-1477
1028.285	-2235
1028.352	-1676
1028.419	-2108
1028.486	-1856
1028.553	-1354
1028.619	-2240
1028.686	-1956
1028.753	-1520
1028.820	-1826
1028.886	-2007
1028.953	-1773
1029.020	-2363
1029.086	-1894
1029.153	-2264
1029.220	-1662
1029.286	-1710
1029.353	-1562
1029.419	-2034
1029.486	-1951
1029.552	-2430
1029.619	-2221
1029.685	-2193
1029.751	-1670
1029.818	-1267
1029.884	-2210
1029.951	-1749
1030.017	-1767
1030.083	-2070
1030.149	-1631
1030.216	-2102
1030.282	-1571
1030.348	-2637
1030.414	-2128
1030.480	-1815
1030.546	-1674
1030.612	-1589
1030.678	-2112
1030.744	-1906
1030.810	-1573
1030.876	-1720
1030.942	-2550
1031.008	-2004
1031.074	-1930
1031.140	-2000
1031.206	-713
1031.272	-1794
1031.337	-1010
1031.403	-1309
1031.469	-2345
1031.534	-2238
1031.600	-1635
1031.666	-2245
1031.731	-2016
1031.797	-1532
1031.863	-1925
1031.928	-2156
1031.994	-2570
1032.059	-3159
1032.125	-1864
1032.190	-2646
1032.256	-2297
1032.321	-1894
1032.386	-1085
1032.452	-1071
1032.517	-2467
1032.582	-2562
1032.647	-1464
1032.713	-1894
1032.778	-579
1032.843	-3098
1032.908	-1254
1032.974	-2070
1033.039	-2151
1033.104	-1362
1033.169	-2455
1033.234	-1813
1033.299	-1521
1033.364	-2026
1033.429	-1635
1033.494	-1810
1033.559	-1181
1033.624	-2024
1033.688	-1067
1033.753	-2202
1033.818	-1592
1033.883	-1740
1033.948	-1198
1034.013	-1253
1034.077	-1154
1034.142	-231
1034.207	-300
1034.271	442
1034.336	1617
1034.400	-513
1034.465	-1584
1034.530	-2290
1034.594	-2272
1034.658	-2028
1034.723	-2300
1034.787	-2343
1034.852	-1657
1034.916	-2621
1034.981	-1434
1035.045	-1587
1035.109	-2720
1035.173	-1801
1035.238	-1463
1035.302	-971
1035.366	-709
1035.430	-2497
1035.495	-1673
1035.559	-1213
1035.623	-1842
1035.687	-2208
1035.751	-2309
1035.815	-2251
1035.879	-1803
1035.943	-2669
1036.007	-2184
1036.071	-1996
1036.135	-1047
1036.198	-2351
1036.262	-2282
1036.326	-1815
1036.390	-1116
1036.454	-2126
1036.517	-2528
1036.581	-2401
1036.645	-2093
1036.709	-2235
1036.772	-2181
1036.836	-2478
1036.900	-1757
1036.963	-2232
1037.026	-1782
1037.090	-2151
1037.154	-1719
1037.217	-2369
1037.280	-1996
1037.344	-1986
1037.407	-2212
1037.471	-2265
1037.534	-1837
1037.597	-2261
1037.661	-1591
1037.724	-2372
1037.787	-1464
1037.850	-1392
1037.913	-1718
1037.977	-935
1038.040	-1908
1038.103	-1593
1038.166	-2379
1038.229	-2581
1038.292	-1663
1038.355	-957
1038.418	-1711
1038.481	-1170
1038.544	-1660
1038.607	-2111
1038.670	-1690
1038.732	-2393
1038.795	-1464
1038.858	-1889
1038.921	-1732
1038.984	-2079
1039.046	-1899
1039.109	-1915
1039.172	-2920
1039.234	-2185
1039.297	-2377
1039.360	-2685
1039.422	-1453
1039.485	-1929
1039.547	-2169
1039.610	-2127
1039.672	-1749
1039.734	-1504
1039.797	-2767
1039.859	-1767
1039.922	-1646
1039.984	-1974
1040.046	-1891
1040.109	-1935
1040.171	-1782
1040.233	-2583
1040.295	-1600
1040.358	-2611
1040.420	-2157
1040.482	-1813
1040.544	-1852
1040.606	-1780
1040.668	-2691
1040.730	-3249
1040.792	-2767
1040.854	-2708
1040.916	-1353
1040.978	-3046
1041.040	-1517
1041.102	-1909
1041.164	-2265
1041.225	-2034
1041.287	-2969
1041.349	-2399
1041.411	-2335
1041.472	-2361
1041.534	-1739
1041.596	-2584
1041.657	-2272
1041.719	-2529
1041.781	-2651
1041.842	-1587
1041.904	-2232
1041.965	-1521
1042.027	-1831
1042.088	-2973
1042.150	-2024
1042.211	-2013
1042.272	-1907
1042.334	-2613
1042.395	-1508
1042.456	-2630
1042.518	-1366
1042.579	-1873
1042.640	-1825
1042.701	-2620
1042.763	-1976
1042.824	-1882
1042.885	-2395
1042.946	-2897
1043.007	-1876
1043.068	-2536
1043.129	-1368
1043.190	-3139
1043.251	-1442
1043.312	-2366
1043.373	-1409
1043.434	-1993
1043.495	-2058
1043.556	-2064
1043.616	-1705
1043.677	-2301
1043.738	-1912
1043.799	-3145
1043.859	-1844
1043.920	-2515
1043.981	-1880
1044.041	-2258
1044.102	-2118
1044.162	-2351
1044.223	-1818
1044.284	-2671
1044.344	-2461
1044.405	-2481
1044.465	-2080
1044.525	-2689
1044.586	-2361
1044.646	-2354
1044.707	-1885
1044.767	-1583
1044.827	-1035
1044.887	-1757
1044.948	-1341
1045.008	-1761
1045.068	-2065
1045.128	-1698
1045.188	-2414
1045.249	-1749
1045.309	-2088
1045.369	-2470
1045.429	-1820
1045.489	-2027
1045.549	-2217
1045.609	-2243
1045.669	-2599
1045.729	-1873
1045.789	-1782
1045.848	-1664
1045.908	-1187
1045.968	-1634
1046.028	-2275
1046.088	-2204
1046.147	-1602
1046.207	-1848
1046.267	-1703
1046.326	-2488
1046.386	-1873
1046.446	-2067
1046.505	-1402
1046.565	-1742
1046.624	-1479
1046.684	-984
1046.743	-1144
1046.803	-1239
1046.862	-600
1046.922	0
