'Start Wavelength	183.907
'End Wavelength	1046.922
'Gate Delay	5.000
'Gate Width (ms)	1.050
'Laser Output Level	0.000
'X Position	0.000
'Y Position	0.000
'Z Position	0.000
'Grid Point Number	1.000
'Shot Number	100.000
183.907	36.000
183.977	-716.000
184.047	177
184.116	793
184.186	27
184.256	-169
184.325	-65
184.395	-634
184.465	151
184.534	-169
184.604	-695
184.674	-573
184.743	-351
184.813	742
184.883	-198
184.952	-620
185.022	-46
185.092	308
185.161	-35
185.231	-841
185.301	-467
185.370	225
185.440	-307
185.509	244
185.579	4
185.649	142
185.718	-104
185.788	393
185.857	-71
185.927	-184
185.996	441
186.066	269
186.136	-30
186.205	669
186.275	619
186.344	-514
186.414	142
186.483	-112
186.553	347
186.622	1427
186.692	-56
186.761	256
186.831	544
186.900	-191
186.970	-63
187.039	954
187.109	630
187.178	-252
187.248	209
187.317	522
187.387	-8
187.456	-67
187.526	5
187.595	-49
187.664	1
187.734	1169
187.803	99
187.873	365
187.942	270
188.012	572
188.081	528
188.150	-502
188.220	259
188.289	694
188.358	96
188.428	-208
188.497	172
188.567	475
188.636	-504
188.705	650
188.775	372
188.844	263
188.913	457
188.983	101
189.052	490
189.121	440
189.191	163
189.260	977
189.329	839
189.399	147
189.468	328
189.537	430
189.606	200
189.676	289
189.745	-134
189.814	373
189.883	-477
189.953	150
190.022	-251
190.091	-214
190.161	-605
190.230	615
190.299	-146
190.368	142
190.437	-112
190.507	-432
190.576	108
190.645	144
190.714	-199
190.783	236
190.853	-58
190.922	589
190.991	176
191.060	1636
191.129	56
191.198	426
191.268	-295
191.337	642
191.406	137
191.475	179
191.544	505
191.613	508
191.682	306
191.752	-441
191.821	-633
191.890	-778
191.959	-176
192.028	653
192.097	241
192.166	773
192.235	-1010
192.304	119
192.373	-527
192.442	567
192.511	115
192.580	-585
192.650	420
192.719	-159
192.788	324
192.857	459
192.926	-334
192.995	-191
193.064	44
193.133	392
193.202	-36
193.271	503
193.340	158
193.409	167
193.478	520
193.547	911
193.615	264
193.684	-154
193.753	-412
193.822	481
193.891	-117
193.960	46
194.029	-449
194.098	913
194.167	-208
194.236	805
194.305	56
194.374	-270
194.443	-596
194.512	114
194.580	426
194.649	275
194.718	270
194.787	-80
194.856	-1183
194.925	374
194.994	-450
195.062	522
195.131	-278
195.200	-421
195.269	192
195.338	376
195.407	94
195.475	-91
195.544	-483
195.613	-599
195.682	75
195.751	-415
195.819	-254
195.888	713
195.957	324
196.026	-503
196.094	-367
196.163	-194
196.232	541
196.301	-53
196.369	-11
196.438	-79
196.507	839
196.576	-510
196.644	-295
196.713	278
196.782	157
196.850	613
196.919	-324
196.988	-292
197.056	-514
197.125	264
197.194	545
197.262	-819
197.331	278
197.400	-799
197.468	-774
197.537	-524
197.606	-3
197.674	69
197.743	-585
197.812	-149
197.880	-68
197.949	-177
198.017	179
198.086	-176
198.155	-39
198.223	732
198.292	-368
198.360	481
198.429	-355
198.497	78
198.566	-314
198.635	-287
198.703	312
198.772	-238
198.840	-433
198.909	-155
198.977	-498
199.046	-161
199.114	-253
199.183	-92
199.251	-458
199.320	165
199.388	140
199.457	-437
199.525	-359
199.594	-245
199.662	25
199.731	246
199.799	-105
199.867	759
199.936	-116
200.004	831
200.073	-356
200.141	581
200.210	377
200.278	-109
200.346	1
200.415	964
200.483	69
200.552	917
200.620	501
200.688	667
200.757	-38
200.825	533
200.893	85
200.962	-540
201.030	-597
201.098	68
201.167	333
201.235	124
201.303	-621
201.372	311
201.440	-109
201.508	549
201.577	-444
201.645	266
201.713	147
201.781	-458
201.850	93
201.918	238
201.986	39
202.055	587
202.123	-412
202.191	105
202.259	390
202.327	77
202.396	-79
202.464	361
202.532	-451
202.600	1208
202.669	610
202.737	154
202.805	-230
202.873	419
202.941	-710
203.009	209
203.078	16
203.146	792
203.214	-99
203.282	-789
203.350	-354
203.418	-460
203.487	-346
203.555	81
203.623	-467
203.691	55
203.759	44
203.827	-318
203.895	39
203.963	-98
204.031	-345
204.099	-38
204.168	-396
204.236	-442
204.304	165
204.372	336
204.440	-319
204.508	-86
204.576	-254
204.644	141
204.712	-59
204.780	972
204.848	-631
204.916	-316
204.984	-224
205.052	284
205.120	-206
205.188	-148
205.256	128
205.324	196
205.392	-187
205.460	145
205.528	-62
205.596	608
205.664	-9
205.732	-752
205.799	-114
205.867	-407
205.935	-586
206.003	628
206.071	-165
206.139	-437
206.207	274
206.275	195
206.343	-399
206.411	592
206.478	267
206.546	-158
206.614	-925
206.682	-513
206.750	-177
206.818	-25
206.885	586
206.953	-546
207.021	551
207.089	114
207.157	-651
207.225	397
207.292	-247
207.360	-593
207.428	-381
207.496	-75
207.563	-781
207.631	600
207.699	-335
207.767	-5
207.834	-393
207.902	245
207.970	45
208.038	52
208.105	-460
208.173	201
208.241	-530
208.309	429
208.376	-548
208.444	202
208.512	-377
208.579	-757
208.647	834
208.715	863
208.782	-576
208.850	391
208.918	43
208.985	609
209.053	-155
209.120	672
209.188	-1069
209.256	201
209.323	-926
209.391	-595
209.459	831
209.526	-732
209.594	74
209.661	491
209.729	-29
209.796	-268
209.864	636
209.932	-385
209.999	613
210.067	-94
210.134	-203
210.202	351
210.269	230
210.337	530
210.404	-119
210.472	172
210.539	235
210.607	-426
210.674	-13
210.742	-325
210.809	-419
210.877	67
210.944	-55
211.012	-205
211.079	1060
211.146	465
211.214	206
211.281	1371
211.349	1122
211.416	433
211.484	376
211.551	-807
211.618	29
211.686	457
211.753	-969
211.821	134
211.888	-425
211.955	-211
212.023	-82
212.090	198
212.157	-304
212.225	-275
212.292	-336
212.359	-341
212.427	-503
212.494	359
212.561	-42
212.629	-179
212.696	-168
212.763	-62
212.831	-1330
212.898	1022
212.965	-804
213.032	-492
213.100	-249
213.167	-544
213.234	99
213.301	-330
213.369	-917
213.436	-223
213.503	-825
213.570	-174
213.638	-270
213.705	-248
213.772	-1301
213.839	-676
213.906	269
213.973	162
214.041	-908
214.108	219
214.175	-436
214.242	-961
214.309	-732
214.376	65
214.444	-621
214.511	397
214.578	-730
214.645	377
214.712	-250
214.779	-158
214.846	-596
214.913	839
214.980	684
215.048	1254
215.115	1288
215.182	902
215.249	550
215.316	1217
215.383	1024
215.450	-192
215.517	-387
215.584	99
215.651	-33
215.718	180
215.785	458
215.852	-900
215.919	241
215.986	-96
216.053	-322
216.120	-725
216.187	-240
216.254	-97
216.321	-938
216.388	-980
216.455	-403
216.522	-249
216.589	204
216.656	443
216.722	195
216.789	-136
216.856	-677
216.923	-489
216.990	499
217.057	-450
217.124	-66
217.191	-200
217.258	56
217.324	-250
217.391	-326
217.458	229
217.525	-419
217.592	-127
217.659	-1337
217.725	170
217.792	1040
217.859	839
217.926	-797
217.993	672
218.059	561
218.126	167
218.193	-363
218.260	77
218.327	191
218.393	53
218.460	-372
218.527	-994
218.594	-364
218.660	-408
218.727	289
218.794	-63
218.860	-373
218.927	-1316
218.994	-746
219.061	126
219.127	-147
219.194	670
219.261	-100
219.327	-315
219.394	370
219.461	-361
219.527	-831
219.594	419
219.661	-810
219.727	-433
219.794	447
219.860	-383
219.927	490
219.994	2308
220.060	2640
220.127	4091
220.193	3582
220.260	1686
220.326	708
220.393	-648
220.460	-604
220.526	38
220.593	-1188
220.659	835
220.726	93
220.792	141
220.859	-177
220.925	102
220.992	-437
221.058	-216
221.125	-788
221.191	-287
221.258	-1357
221.324	16
221.391	-174
221.457	-136
221.524	20
221.590	270
221.657	-169
221.723	-475
221.789	-596
221.856	-121
221.922	-1063
221.989	197
222.055	137
222.121	-566
222.188	1746
222.254	186
222.321	3
222.387	26
222.453	1087
222.520	-86
222.586	-237
222.652	-63
222.719	-1366
222.785	363
222.851	-1700
222.918	-524
222.984	-1
223.050	-577
223.116	-2104
223.183	654
223.249	-1187
223.315	373
223.382	-381
223.448	-56
223.514	-639
223.580	-170
223.647	-892
223.713	-414
223.779	-602
223.845	-565
223.911	-542
223.978	-1242
224.044	-152
224.110	-549
224.176	3
224.242	-133
224.309	-654
224.375	177
224.441	-661
224.507	-390
224.573	-1721
224.639	-50
224.705	-937
224.772	298
224.838	-580
224.904	626
224.970	-301
225.036	-668
225.102	-1153
225.168	38
225.234	273
225.300	74
225.366	-479
225.432	-327
225.499	-144
225.565	-564
225.631	-70
225.697	20
225.763	-76
225.829	283
225.895	-319
225.961	-35
226.027	-183
226.093	-382
226.159	-210
226.225	578
226.291	-243
226.357	126
226.423	-386
226.489	939
226.554	-32
226.620	524
226.686	516
226.752	-522
226.818	-174
226.884	265
226.950	741
227.016	-410
227.082	56
227.148	391
227.214	99
227.279	26
227.345	1378
227.411	2714
227.477	5461
227.543	5796
227.609	7210
227.674	7250
227.740	3572
227.806	3003
227.872	1111
227.938	1415
228.003	1165
228.069	-259
228.135	-578
228.201	-137
228.267	-353
228.332	304
228.398	-698
228.464	281
228.530	-1176
228.595	257
228.661	-728
228.727	-575
228.792	354
228.858	-326
228.924	-1678
228.990	1187
229.055	-1079
229.121	770
229.187	-1159
229.252	-696
229.318	-722
229.384	490
229.449	-329
229.515	-1347
229.581	-490
229.646	1393
229.712	33
229.777	11
229.843	-162
229.909	-25
229.974	141
230.040	14
230.105	-1016
230.171	-848
230.236	286
230.302	-19
230.368	-102
230.433	-816
230.499	-1382
230.564	135
230.630	-1241
230.695	136
230.761	369
230.826	-1156
230.892	526
230.957	-580
231.023	-347
231.088	-247
231.154	-1445
231.219	420
231.284	-756
231.350	983
231.415	-1297
231.481	191
231.546	-876
231.612	210
231.677	-621
231.742	-1354
231.808	817
231.873	-713
231.939	-1914
232.004	1370
232.069	926
232.135	-725
232.200	-873
232.265	562
232.331	-1485
232.396	-542
232.461	-850
232.527	138
232.592	-1468
232.657	-1152
232.723	-68
232.788	363
232.853	534
232.918	-278
232.984	-768
233.049	-858
233.114	-1143
233.179	-211
233.245	1150
233.310	245
233.375	-2585
233.440	714
233.506	-878
233.571	-734
233.636	-634
233.701	-699
233.766	-539
233.832	276
233.897	-479
233.962	-1118
234.027	233
234.092	185
234.157	-423
234.222	-76
234.288	-251
234.353	493
234.418	472
234.483	735
234.548	282
234.613	-180
234.678	-491
234.743	-1525
234.808	401
234.873	-713
234.938	444
235.004	-916
235.069	-427
235.134	-708
235.199	-910
235.264	-263
235.329	-1481
235.394	384
235.459	732
235.524	-591
235.589	114
235.654	-1184
235.719	-1629
235.784	605
235.849	-949
235.913	-415
235.978	-442
236.043	39
236.108	-425
236.173	-1586
236.238	-206
236.303	-1129
236.368	-1494
236.433	-348
236.498	-441
236.563	45
236.627	-825
236.692	161
236.757	-1048
236.822	-337
236.887	-892
236.952	-13
237.017	-1969
237.081	67
237.146	-999
237.211	312
237.276	-250
237.341	407
237.405	-474
237.470	-961
237.535	-427
237.600	-637
237.664	-22
237.729	-919
237.794	-1509
237.859	-13
237.923	-307
237.988	-164
238.053	604
238.118	281
238.182	216
238.247	2297
238.312	-1426
238.376	438
238.441	-1717
238.506	882
238.570	-987
238.635	1290
238.700	316
238.764	-565
238.829	627
238.893	-714
238.958	551
239.023	386
239.087	-52
239.152	945
239.216	-183
239.281	1144
239.346	607
239.410	6
239.475	-366
239.539	1575
239.604	1137
239.668	2124
239.733	3422
239.797	9123
239.862	12593
239.926	14187
239.991	7846
240.055	4492
240.120	2641
240.184	1735
240.249	-46
240.313	447
240.378	359
240.442	1194
240.507	1839
240.571	561
240.635	-470
240.700	281
240.764	-289
240.829	392
240.893	-951
240.957	655
241.022	1030
241.086	917
241.151	-260
241.215	-1125
241.279	924
241.344	210
241.408	-280
241.472	-994
241.537	-57
241.601	1258
241.665	-1669
241.730	-247
241.794	1027
241.858	-477
241.922	69
241.987	-955
242.051	-707
242.115	-947
242.179	-1023
242.244	-9
242.308	-219
242.372	273
242.436	-1041
242.501	-929
242.565	-1764
242.629	-1266
242.693	-180
242.757	-1047
242.822	-340
242.886	459
242.950	372
243.014	-695
243.078	-220
243.142	441
243.206	-1002
243.271	-251
243.335	-823
243.399	151
243.463	-593
243.527	703
243.591	-1291
243.655	-1145
243.719	-1079
243.783	133
243.847	-271
243.911	361
243.975	-928
244.040	-588
244.104	1146
244.168	-76
244.232	-623
244.296	-260
244.360	-566
244.424	-1178
244.488	18
244.552	-230
244.615	-1778
244.679	572
244.743	-1363
244.807	-506
244.871	17
244.935	-513
244.999	-1821
245.063	-535
245.127	217
245.191	-653
245.255	-397
245.319	433
245.383	-856
245.446	1368
245.510	-284
245.574	-157
245.638	488
245.702	-1559
245.766	1263
245.829	1314
245.893	-1799
245.957	-949
246.021	755
246.085	357
246.149	12
246.212	1743
246.276	1806
246.340	317
246.404	700
246.467	495
246.531	-825
246.595	1325
246.659	557
246.722	-967
246.786	100
246.850	468
246.913	134
246.977	-1294
247.041	65
247.104	-142
247.168	811
247.232	629
247.295	3349
247.359	2187
247.423	-440
247.486	-249
247.550	1416
247.614	-427
247.677	738
247.741	530
247.804	34
247.868	1844
247.932	811
247.995	4602
248.059	913
248.122	-251
248.186	1046
248.249	1454
248.313	6866
248.376	7999
248.440	3582
248.503	-263
248.567	848
248.630	413
248.694	988
248.757	2593
248.821	7720
248.884	5359
248.948	1266
249.011	5048
249.075	7610
249.138	7299
249.202	1624
249.265	379
249.328	998
249.392	-1095
249.455	530
249.519	353
249.582	553
249.645	1296
249.709	976
249.772	12
249.835	31
249.899	536
249.962	116
250.025	-46
250.089	1606
250.152	3222
250.215	48
250.279	-566
250.342	606
250.405	291
250.468	82
250.532	-580
250.595	767
250.658	-648
250.721	-82
250.785	-336
250.848	1128
250.911	-154
250.974	621
251.038	35
251.101	3872
251.164	502
251.227	1102
251.290	-83
251.354	197
251.417	-98
251.480	-331
251.543	383
251.606	523
251.669	1647
251.732	221
251.795	2614
251.859	2709
251.922	595
251.985	563
252.048	11
252.111	-269
252.174	-310
252.237	1573
252.300	7925
252.363	2512
252.426	5074
252.489	1039
252.552	716
252.615	-312
252.678	1248
252.741	4526
252.804	2569
252.867	2021
252.930	4567
252.993	1794
253.056	2129
253.119	-555
253.182	-530
253.245	393
253.308	1273
253.371	-96
253.434	777
253.497	1495
253.559	3220
253.622	1629
253.685	831
253.748	1961
253.811	346
253.874	409
253.937	155
254.000	1237
254.062	1500
254.125	3119
254.188	2740
254.251	932
254.314	694
254.376	898
254.439	2635
254.502	837
254.565	1515
254.628	4249
254.690	1783
254.753	-77
254.816	349
254.878	605
254.941	2387
255.004	2863
255.067	1287
255.129	-658
255.192	822
255.255	-641
255.317	1227
255.380	92
255.443	-398
255.505	1117
255.568	-480
255.631	25
255.693	726
255.756	-45
255.819	2420
255.881	1212
255.944	502
256.006	35
256.069	875
256.132	-753
256.194	-113
256.257	439
256.319	959
256.382	1227
256.444	4015
256.507	1486
256.569	574
256.632	9
256.694	-206
256.757	327
256.819	974
256.882	-537
256.944	1289
257.007	710
257.069	326
257.132	696
257.194	1262
257.257	-51
257.319	-302
257.381	-1698
257.444	1010
257.506	464
257.569	3337
257.631	7053
257.693	2505
257.756	375
257.818	-299
257.880	-280
257.943	648
258.005	-11
258.067	-31
258.130	910
258.192	578
258.254	696
258.317	-5
258.379	1841
258.441	2830
258.503	2036
258.566	1187
258.628	2918
258.690	-137
258.753	999
258.815	708
258.877	-337
258.939	432
259.001	-144
259.064	276
259.126	45
259.188	-115
259.250	1418
259.312	1850
259.375	4901
259.437	3444
259.499	1087
259.561	1354
259.623	578
259.685	172
259.747	514
259.809	1501
259.872	2200
259.934	4405
259.996	3473
260.058	1836
260.120	-213
260.182	639
260.244	959
260.306	580
260.368	1449
260.430	240
260.492	1218
260.554	4476
260.616	3651
260.678	2906
260.740	2933
260.802	1025
260.864	1106
260.926	-242
260.988	2165
261.050	686
261.112	327
261.174	3486
261.236	2431
261.298	568
261.359	1175
261.421	1491
261.483	-489
261.545	2213
261.607	-322
261.669	1506
261.731	613
261.793	1696
261.854	473
261.916	1646
261.978	222
262.040	609
262.102	698
262.164	83
262.225	665
262.287	1160
262.349	1057
262.411	1459
262.472	1400
262.534	816
262.596	1652
262.658	1482
262.719	6
262.781	1371
262.843	594
262.904	1907
262.966	762
263.028	828
263.090	2429
263.151	2749
263.213	1430
263.275	622
263.336	677
263.398	1185
263.459	79
263.521	1174
263.583	1009
263.644	941
263.706	369
263.767	255
263.829	847
263.891	-152
263.952	282
264.014	-469
264.075	475
264.137	816
264.198	1055
264.260	554
264.321	-36
264.383	639
264.444	1661
264.506	-34
264.567	-229
264.629	854
264.690	-843
264.752	1290
264.813	112
264.875	-128
264.936	1119
264.998	927
265.059	1452
265.120	2039
265.182	427
265.243	-126
265.305	242
265.366	1235
265.427	1150
265.489	1003
265.550	-681
265.611	1008
265.673	425
265.734	409
265.795	1302
265.857	263
265.918	-585
265.979	236
266.040	-472
266.102	140
266.163	747
266.224	724
266.286	-122
266.347	-92
266.408	157
266.469	1337
266.530	527
266.592	997
266.653	1394
266.714	1987
266.775	1093
266.836	770
266.898	-683
266.959	543
267.020	-133
267.081	1845
267.142	649
267.203	757
267.264	-573
267.326	1941
267.387	838
267.448	-286
267.509	800
267.570	783
267.631	237
267.692	588
267.753	770
267.814	534
267.875	576
267.936	1909
267.997	722
268.058	1171
268.119	337
268.180	405
268.241	-111
268.302	1409
268.363	192
268.424	-41
268.485	-391
268.546	245
268.607	855
268.668	439
268.729	440
268.790	878
268.851	566
268.912	1172
268.972	1320
269.033	1577
269.094	532
269.155	-62
269.216	215
269.277	892
269.338	669
269.398	238
269.459	223
269.520	52
269.581	691
269.642	863
269.702	180
269.763	635
269.824	277
269.885	16
269.945	987
270.006	817
270.067	668
270.128	762
270.188	294
270.249	751
270.310	689
270.370	1236
270.431	21
270.492	789
270.553	477
270.613	1249
270.674	1654
270.734	1068
270.795	290
270.856	1626
270.916	344
270.977	755
271.038	945
271.098	1453
271.159	961
271.219	777
271.280	1223
271.340	1167
271.401	-83
271.462	1264
271.522	1066
271.583	868
271.643	2180
271.704	1315
271.764	909
271.825	2047
271.885	6276
271.946	9839
272.006	2664
272.066	4306
272.127	9910
272.187	11179
272.248	6279
272.308	2370
272.369	5318
272.429	4216
272.489	1741
272.550	2237
272.610	2223
272.671	1171
272.731	1765
272.791	1256
272.852	572
272.912	2444
272.972	1735
273.033	938
273.093	842
273.153	1516
273.214	1090
273.274	973
273.334	3122
273.394	7463
273.455	1706
273.515	2960
273.575	4600
273.635	2741
273.696	3234
273.756	6950
273.816	2958
273.876	2096
273.936	2610
273.997	2971
274.057	1143
274.117	1544
274.177	1616
274.237	6368
274.297	6660
274.358	3255
274.418	5079
274.478	4184
274.538	1597
274.598	1700
274.658	2975
274.718	3254
274.778	1752
274.838	2039
274.898	994
274.958	4374
275.018	7263
275.078	4523
275.138	2552
275.198	1107
275.258	1243
275.318	1726
275.378	2434
275.438	2631
275.498	2006
275.558	2670
275.618	4547
275.678	4964
275.738	2886
275.798	3551
275.858	973
275.918	1426
275.978	1440
276.038	2664
276.098	1889
276.157	1975
276.217	4545
276.277	2955
276.337	2263
276.397	1506
276.457	1897
276.517	1967
276.576	1313
276.636	977
276.696	2234
276.756	3117
276.815	2347
276.875	2813
276.935	2389
276.995	2337
277.055	2641
277.114	3705
277.174	2786
277.234	3365
277.293	1244
277.353	1096
277.413	2220
277.472	1196
277.532	1132
277.592	2173
277.651	4883
277.711	10796
277.771	3927
277.830	11585
277.890	10118
277.950	6683
278.009	20960
278.069	9795
278.128	7779
278.188	11336
278.248	5585
278.307	12533
278.367	9601
278.426	3883
278.486	2822
278.545	1611
278.605	1868
278.664	1883
278.724	1826
278.783	3213
278.843	7783
278.902	2594
278.962	2314
279.021	2027
279.081	2597
279.140	2897
279.199	2617
279.259	2155
279.318	3520
279.378	4306
279.437	7797
279.496	25793
279.556	51673
279.615	42309
279.675	11756
279.734	7419
279.793	10268
279.853	23247
279.912	10410
279.971	5960
280.031	4098
280.090	9712
280.149	18677
280.208	10209
280.268	29496
280.327	36515
280.386	9286
280.445	5494
280.505	4759
280.564	3663
280.623	2768
280.682	3608
280.742	3433
280.801	2510
280.860	2168
280.919	2535
280.978	1986
281.037	1817
281.097	1130
281.156	2066
281.215	2208
281.274	2433
281.333	4740
281.392	4791
281.451	1890
281.510	1884
281.569	883
281.628	2229
281.688	1108
281.747	2069
281.806	2349
281.865	2070
281.924	1543
281.983	1546
282.042	1297
282.101	1505
282.160	1637
282.219	1899
282.278	1519
282.337	3294
282.396	2984
282.454	1991
282.513	1848
282.572	4400
282.631	3307
282.690	1994
282.749	802
282.808	1103
282.867	1579
282.926	1764
282.985	1699
283.043	1879
283.102	1351
283.161	1763
283.220	2773
283.279	4484
283.338	2404
283.396	1475
283.455	1774
283.514	2663
283.573	1173
283.631	2080
283.690	1794
283.749	2075
283.808	2823
283.866	2771
283.925	2071
283.984	2435
284.043	2153
284.101	2501
284.160	1958
284.219	2731
284.277	2419
284.336	2581
284.395	4916
284.453	5299
284.512	3457
284.570	3974
284.629	4054
284.688	3473
284.746	3601
284.805	5216
284.863	5431
284.922	7461
284.981	9842
285.039	15317
285.098	23364
285.156	46548
285.215	69457
285.273	68831
285.332	53427
285.390	31043
285.449	19202
285.507	13685
285.566	9889
285.624	8118
285.683	6196
285.741	5961
285.799	4669
285.858	3431
285.916	3836
285.975	2985
286.033	2770
286.091	3099
286.150	2635
286.208	2601
286.267	1607
286.325	2273
286.383	2706
286.442	3317
286.500	1749
286.558	2178
286.616	1906
286.675	3055
286.733	2632
286.791	1093
286.850	2143
286.908	1709
286.966	3010
287.024	2597
287.083	1814
287.141	2008
287.199	2058
287.257	2799
287.315	1574
287.374	2286
287.432	1951
287.490	3076
287.548	1195
287.606	2215
287.664	2006
287.723	2199
287.781	2989
287.839	1687
287.897	1232
287.955	991
288.013	1343
288.071	1600
288.129	2103
288.187	3502
288.245	2802
288.303	2175
288.361	1748
288.419	1735
288.477	1604
288.535	1604
288.593	1445
288.651	1875
288.709	985
288.767	2041
288.825	1750
288.883	2111
288.941	1865
288.999	1997
289.057	1713
289.115	2184
289.173	1810
289.231	2697
289.289	1749
289.346	1243
289.404	2399
289.462	2678
289.520	2633
289.578	1875
289.636	1439
289.694	2180
289.751	2326
289.809	1699
289.867	1925
289.925	2398
289.983	1464
290.040	3035
290.098	1666
290.156	2851
290.214	1865
290.271	2106
290.329	2341
290.387	2400
290.444	2476
290.502	2359
290.560	1968
290.617	2400
290.675	1431
290.733	2132
290.790	1637
290.848	2299
290.906	1278
290.963	2478
291.021	2134
291.078	2641
291.136	1602
291.194	2749
291.251	4312
291.309	1649
291.366	2051
291.424	2366
291.481	2509
291.539	2467
291.596	2383
291.654	1530
291.711	2133
291.769	2413
291.826	2719
291.884	1845
291.941	2393
291.999	2127
292.056	1912
292.114	997
292.171	1213
292.228	2658
292.286	2992
292.343	2596
292.401	2351
292.458	2232
292.515	2160
292.573	3096
292.630	3043
292.687	2171
292.745	1555
292.802	2039
292.859	3028
292.917	5030
292.974	3503
293.031	2807
293.089	1728
293.146	3287
293.203	2609
293.260	3419
293.318	2192
293.375	3363
293.432	1695
293.489	1961
293.546	1672
293.604	2394
293.661	4072
293.718	9549
293.775	4763
293.832	3970
293.889	4172
293.947	5270
294.004	3618
294.061	3183
294.118	3358
294.175	4298
294.232	3471
294.289	2898
294.346	2581
294.403	2695
294.460	2697
294.517	2488
294.574	2558
294.631	2941
294.688	2367
294.745	3502
294.802	8340
294.859	5638
294.916	4024
294.973	5052
295.030	2814
295.087	2313
295.144	2140
295.201	3004
295.258	1819
295.315	2514
295.372	3611
295.429	7449
295.486	3287
295.542	2095
295.599	1818
295.656	1731
295.713	2310
295.770	6528
295.827	3742
295.883	2457
295.940	2076
295.997	2657
296.054	1768
296.111	2560
296.167	1921
296.224	1585
296.281	2541
296.338	2436
296.394	2159
296.451	1391
296.508	3315
296.564	5013
296.621	4144
296.678	7195
296.734	11418
296.791	4451
296.848	3060
296.904	2485
296.961	3322
297.018	6547
297.074	5032
297.131	3720
297.187	2919
297.244	3742
297.301	7592
297.357	14881
297.414	5743
297.470	3678
297.527	2030
297.583	2260
297.640	2705
297.696	1979
297.753	2298
297.809	2249
297.866	1912
297.922	2435
297.979	1704
298.035	2022
298.092	2660
298.148	4622
298.204	5752
298.261	2888
298.317	4656
298.374	9153
298.430	6401
298.486	4227
298.543	2531
298.599	2865
298.656	1956
298.712	2897
298.768	2676
298.824	2446
298.881	3068
298.937	2474
298.993	1895
299.050	2339
299.106	2278
299.162	2374
299.218	2352
299.275	2845
299.331	4510
299.387	4903
299.443	11231
299.500	24257
299.556	20419
299.612	9290
299.668	7712
299.724	19326
299.780	24923
299.837	10633
299.893	7776
299.949	16401
300.005	25502
300.061	18173
300.117	29700
300.173	15607
300.229	6372
300.285	5122
300.341	5351
300.397	4524
300.453	3526
300.510	4568
300.566	4773
300.622	9584
300.678	27681
300.734	38496
300.790	19831
300.845	16196
300.901	18010
300.957	27966
301.013	14604
301.069	6364
301.125	5175
301.181	4413
301.237	3822
301.293	3464
301.349	2692
301.405	2994
301.461	2352
301.516	3363
301.572	2005
301.628	3015
301.684	2403
301.740	3226
301.796	4472
301.851	4795
301.907	4580
301.963	5340
302.019	7516
302.074	21522
302.130	22509
302.186	10820
302.242	5171
302.297	3575
302.353	3618
302.409	5278
302.464	4317
302.520	4130
302.576	7386
302.631	8793
302.687	4677
302.743	2808
302.798	2348
302.854	2550
302.910	2781
302.965	2702
303.021	3590
303.076	3071
303.132	2543
303.187	3057
303.243	2488
303.299	1795
303.354	2068
303.410	2895
303.465	1634
303.521	2389
303.576	1817
303.632	2420
303.687	3469
303.743	7645
303.798	7117
303.853	3955
303.909	3042
303.964	2037
304.020	2846
304.075	2686
304.130	3286
304.186	3445
304.241	4657
304.297	4533
304.352	2794
304.358	2753
304.407	2417
304.449	3252
304.463	3539
304.518	2946
304.539	2949
304.573	2929
304.629	2814
304.630	2818
304.684	3156
304.720	5063
304.739	5996
304.794	9498
304.811	8303
304.850	5297
304.902	2903
304.905	2759
304.960	1789
304.992	1784
305.015	1776
305.071	2055
305.083	2110
305.126	2349
305.173	1386
305.181	1228
305.236	1764
305.264	1865
305.292	1902
305.347	2509
305.354	2505
305.402	2625
305.445	3164
305.457	3279
305.512	2848
305.535	2756
305.567	2634
305.622	2144
305.626	2159
305.678	3210
305.716	5592
305.733	6358
305.788	8481
305.807	7583
305.843	6211
305.897	8435
305.898	8451
305.953	8612
305.988	5816
306.008	4418
306.063	3081
306.078	2905
306.118	2579
306.168	1586
306.173	1516
306.228	2189
306.259	2200
306.283	2132
306.338	1912
306.349	1905
306.393	1940
306.440	2024
306.448	2040
306.503	1877
306.530	2116
306.558	2485
306.613	2548
306.620	2646
306.668	4402
306.711	6742
306.723	6793
306.778	5719
306.801	4612
306.833	3566
306.888	2004
306.892	1989
306.943	2351
306.982	2217
306.997	2210
307.052	2448
307.072	2426
307.107	2215
307.162	2182
307.163	2175
307.217	1860
307.253	1931
307.272	1966
307.327	1848
307.343	2079
307.381	2751
307.434	1956
307.436	1967
307.491	3699
307.524	4382
307.546	4394
307.600	5516
307.614	5302
307.655	3926
307.704	2744
307.710	2712
307.765	2238
307.795	1989
307.819	1805
307.874	1866
307.885	1912
307.929	2334
307.975	2770
307.984	2813
308.038	2891
308.065	2585
308.093	2455
308.148	2848
308.156	2882
308.202	3050
308.246	3510
308.257	3676
308.312	3893
308.336	4126
308.366	4088
308.421	3830
308.426	3780
308.475	2821
308.517	2048
308.530	2026
308.585	2119
308.607	2026
308.639	2047
308.694	2172
308.697	2180
308.748	2001
308.787	2006
308.803	2215
308.857	2666
308.877	2881
308.912	3052
308.967	3326
308.967	3325
309.021	4459
309.058	5056
309.076	5787
309.130	8444
309.148	9255
309.185	10350
309.238	11177
309.239	11228
309.293	13146
309.328	14242
309.348	13632
309.402	10945
309.418	10175
309.457	9193
309.508	7592
309.511	7618
309.566	8471
309.598	8877
309.620	10375
309.674	15227
309.688	16467
309.729	17166
309.778	16715
309.783	16404
309.837	11850
309.868	9447
309.892	10229
309.946	12304
309.959	12860
310.001	14707
310.049	16704
310.055	16140
310.109	10067
310.139	6736
310.163	5750
310.218	3757
310.229	3360
310.272	3634
310.319	4250
310.326	4181
310.381	3445
310.409	3099
310.435	3318
310.489	3523
310.499	3586
310.543	3134
310.589	2613
310.598	2676
310.652	3153
310.679	3290
310.706	3259
310.760	3382
310.769	3352
310.814	3451
310.859	3752
310.868	3782
310.923	3718
310.948	3684
310.977	3747
311.031	3824
311.038	3855
311.085	3653
311.128	3221
311.139	3312
311.193	3958
311.218	4132
311.247	4060
311.301	4159
311.308	4141
311.356	3750
311.398	3449
311.410	3496
311.464	3642
311.488	3709
311.518	3800
311.572	3934
311.578	3948
311.626	4687
311.668	5214
311.680	5145
311.734	4821
311.758	4666
311.788	4508
311.842	4240
311.847	4199
311.896	4236
311.937	4250
311.950	4317
312.004	4592
312.027	4707
312.058	4625
312.112	4455
312.117	4429
312.165	4159
312.207	3918
312.297	4333
312.386	3837
312.476	3934
312.566	6269
312.656	4667
312.745	4506
312.835	4684
312.925	5598
313.015	5379
313.104	4902
313.194	5859
313.284	6314
313.374	5488
313.463	7446
313.553	6757
313.643	7209
313.732	7514
313.822	7239
313.912	8133
314.001	8735
314.091	8565
314.180	7690
314.270	10004
314.360	9358
314.449	9783
314.539	8956
314.628	7911
314.718	9328
314.808	9748
314.897	10149
314.987	10864
315.076	10718
315.166	10666
315.255	9543
315.345	10553
315.434	9525
315.524	9670
315.613	12305
315.703	16473
315.792	37546
315.881	116635
315.971	46435
316.060	15989
316.150	11049
316.239	10070
316.328	10209
316.418	10498
316.507	11870
316.597	13378
316.686	14007
316.775	11531
316.865	11504
316.954	10167
317.043	8626
317.133	8260
317.222	7441
317.311	8298
317.400	7675
317.490	9662
317.579	10826
317.668	11909
317.757	20920
317.847	58899
317.936	159502
318.025	65276
318.114	58290
318.203	30470
318.293	13720
318.382	16044
318.471	19082
318.560	14558
318.649	11563
318.738	9596
318.828	8588
318.917	6059
319.006	6295
319.095	7021
319.184	7642
319.273	10129
319.362	10107
319.451	7040
319.540	6532
319.629	8929
319.718	11020
319.807	7584
319.896	7937
319.985	10161
320.074	9197
320.163	8317
320.252	8108
320.341	8025
320.430	8496
320.519	10299
320.608	10375
320.697	11899
320.786	12164
320.875	15107
320.964	16243
321.053	18234
321.142	20677
321.230	23397
321.319	23270
321.408	27801
321.497	22771
321.586	20875
321.675	17246
321.764	18163
321.852	17196
321.941	21020
322.030	20345
322.119	20629
322.207	28431
322.296	24635
322.385	26247
322.474	29544
322.562	37864
322.651	25830
322.740	23735
322.829	26353
322.917	15362
323.006	15285
323.095	16010
323.183	12249
323.272	12334
323.361	12757
323.449	11820
323.538	10650
323.626	13027
323.715	12511
323.804	8691
323.892	9815
323.981	9624
324.069	7998
324.158	7591
324.246	8193
324.335	9736
324.424	11092
324.512	7701
324.601	7556
324.689	7105
324.778	8842
324.866	10680
324.954	6353
325.043	6415
325.131	6934
325.220	7957
325.308	8652
325.397	7321
325.485	7009
325.574	7472
325.662	6708
325.750	7065
325.839	6901
325.927	6089
326.015	7448
326.104	6564
326.192	5454
326.280	5436
326.369	5046
326.457	6972
326.545	8599
326.634	5891
326.722	5512
326.810	6746
326.898	7885
326.987	7533
327.075	7779
327.163	8580
327.251	6658
327.340	7829
327.428	10037
327.516	11382
327.604	8864
327.692	7924
327.781	6428
327.869	5275
327.957	5848
328.045	4963
328.133	5130
328.221	4242
328.309	4631
328.397	6054
328.485	6854
328.574	10429
328.662	19259
328.750	12103
328.838	7613
328.926	6335
329.014	5896
329.102	5339
329.190	6828
329.278	5178
329.366	4840
329.454	4820
329.542	4958
329.630	3821
329.718	5641
329.806	4725
329.893	5341
329.981	3567
330.069	5616
330.157	4978
330.245	4675
330.333	5202
330.421	5293
330.509	6108
330.597	11858
330.684	8349
330.772	5477
330.860	4094
330.948	4980
331.036	5108
331.123	4306
331.211	4888
331.299	4048
331.387	4944
331.475	5463
331.562	4861
331.650	4490
331.738	5045
331.825	5125
331.913	4890
332.001	4966
332.089	5033
332.176	5401
332.264	5234
332.352	5594
332.439	4997
332.527	5067
332.614	5204
332.702	5746
332.790	5748
332.877	6256
332.965	8485
333.052	8021
333.140	8036
333.228	11827
333.315	8462
333.403	7402
333.490	7355
333.578	9669
333.665	17494
333.753	14467
333.840	10502
333.928	12224
334.015	13906
334.103	16520
334.190	21336
334.278	27160
334.365	33798
334.452	34178
334.540	27420
334.627	28070
334.715	34975
334.802	44995
334.889	60973
334.977	71010
335.064	51064
335.151	30403
335.239	23217
335.326	20737
335.413	20766
335.501	21806
335.588	22808
335.675	26201
335.762	31499
335.850	41389
335.937	55301
336.024	77445
336.111	99538
336.199	88111
336.286	50288
336.373	31857
336.460	23838
336.547	17995
336.635	14961
336.722	13702
336.809	11955
336.896	11474
336.983	11477
337.070	11029
337.157	10057
337.245	9890
337.332	10223
337.419	10052
337.506	9131
337.593	8826
337.680	9029
337.767	8568
337.854	7978
337.941	7963
338.028	8285
338.115	8155
338.202	9233
338.289	7618
338.376	8109
338.463	6350
338.550	6578
338.637	6637
338.724	6500
338.811	6462
338.898	6911
338.984	6003
339.071	5655
339.158	6680
339.245	7890
339.332	6622
339.419	5721
339.506	6800
339.593	5579
339.679	6294
339.766	6596
339.853	6089
339.940	7897
340.027	5898
340.113	6036
340.200	7112
340.287	6514
340.374	5686
340.460	7122
340.547	4385
340.634	7388
340.720	12975
340.807	9062
340.894	6186
340.980	5291
341.067	5984
341.154	7101
341.240	6846
341.327	8865
341.414	6399
341.500	5841
341.587	6628
341.674	6226
341.760	7683
341.847	8033
341.933	6515
342.020	5381
342.106	5266
342.193	6102
342.279	7091
342.366	5540
342.452	7234
342.539	6180
342.625	7364
342.712	12531
342.798	8553
342.885	5618
342.971	5021
343.058	5483
343.144	5008
343.230	6085
343.317	5631
343.403	4981
343.490	5230
343.576	5041
343.662	5747
343.749	5081
343.835	6498
343.921	7410
344.008	26880
344.094	57487
344.180	15329
344.267	8066
344.353	15321
344.439	14519
344.525	8539
344.612	5831
344.698	5802
344.784	4520
344.870	5363
344.957	4716
345.043	6499
345.129	5472
345.215	6875
345.301	5105
345.387	4728
345.474	4612
345.560	5247
345.646	4889
345.732	5378
345.818	4321
345.904	5814
345.990	5641
346.076	5864
346.162	4728
346.249	5799
346.335	5482
346.421	6720
346.507	10410
346.593	23124
346.679	7931
346.765	8063
346.851	12178
346.937	10216
347.023	7573
347.108	6984
347.194	6174
347.280	7365
347.366	10113
347.452	23819
347.538	47787
347.624	27417
347.710	18156
347.796	8036
347.882	6065
347.967	6186
348.053	6068
348.139	5333
348.225	5192
348.311	6547
348.397	5537
348.482	6427
348.568	8183
348.654	11074
348.740	29814
348.825	37206
348.911	19124
348.997	18977
349.083	27802
349.168	7989
349.254	6327
349.340	6014
349.425	5508
349.511	6407
349.597	6497
349.682	7648
349.768	16774
349.854	10381
349.939	5392
350.025	5733
350.110	5826
350.196	5514
350.282	5084
350.367	6532
350.453	5474
350.538	5734
350.624	5549
350.709	6202
350.795	4276
350.880	4604
350.966	6146
351.051	5814
351.137	5234
351.222	6111
351.308	7405
351.393	13639
351.479	6251
351.564	4463
351.649	5627
351.735	5285
351.820	5154
351.906	4890
351.991	5353
352.076	9559
352.162	13409
352.247	6235
352.332	5412
352.418	6331
352.503	5795
352.588	18231
352.673	13040
352.759	6604
352.844	5994
352.929	6383
353.014	5488
353.100	8446
353.185	14367
353.270	10826
353.355	7992
353.441	6041
353.526	4612
353.611	7197
353.696	7201
353.781	7006
353.866	5240
353.952	6314
354.037	6913
354.122	10677
354.207	10117
354.292	6467
354.377	5086
354.462	5386
354.547	4887
354.632	7104
354.717	10435
354.802	16398
354.887	7366
354.972	5921
355.057	5560
355.142	4217
355.227	5848
355.312	6463
355.397	8384
355.482	14652
355.567	9314
355.652	8551
355.737	8999
355.822	17180
355.907	14415
355.991	7096
356.076	5443
356.161	6173
356.246	6209
356.331	6118
356.416	7700
356.501	29479
356.585	29041
356.670	7364
356.755	8400
356.840	9255
356.924	31192
357.009	69322
357.094	26579
357.179	8372
357.263	6879
357.348	7209
357.433	7465
357.517	6562
357.602	6283
357.687	7765
357.771	10360
357.856	9416
357.941	8063
358.025	17127
358.110	63757
358.195	31242
358.279	8559
358.364	8335
358.448	13659
358.533	28463
358.617	22627
358.702	23321
358.787	10880
358.871	8529
358.956	8352
359.040	7179
359.125	6815
359.209	6851
359.294	7751
359.378	12308
359.462	13164
359.547	8587
359.631	5998
359.716	5156
359.800	6464
359.885	6514
359.969	4995
360.053	7332
360.138	6960
360.222	7283
360.306	8699
360.391	7711
360.475	8694
360.559	11343
360.644	13877
360.728	12803
360.812	20937
360.896	44192
360.981	18336
361.065	11372
361.149	10148
361.233	8028
361.318	8345
361.402	9679
361.486	10490
361.570	9651
361.654	10911
361.739	13901
361.823	32911
361.907	49201
361.991	21164
362.075	22253
362.159	32339
362.243	52238
362.327	97035
362.411	120005
362.495	57228
362.580	34684
362.664	34654
362.748	40436
362.832	61685
362.916	110140
363.000	215908
363.084	249977
363.168	141863
363.252	56606
363.336	34036
363.420	27023
363.503	22272
363.587	20050
363.671	20516
363.755	22375
363.839	27203
363.923	28249
364.007	38372
364.091	51131
364.175	75410
364.258	136901
364.342	249016
364.426	327486
364.510	198441
364.594	87665
364.677	51033
364.761	59369
364.845	43132
364.929	22987
365.013	18855
365.096	16593
365.180	14409
365.264	11333
365.347	11234
365.431	9775
365.515	9743
365.598	9724
365.682	11603
365.766	8802
365.849	9145
365.933	9047
366.017	10347
366.100	9006
366.184	8001
366.267	10565
366.351	9778
366.435	8718
366.518	8733
366.602	9315
366.685	8967
366.769	9137
366.852	8650
366.936	10180
367.019	10094
367.103	7307
367.186	8981
367.270	8973
367.353	8224
367.436	10733
367.520	10486
367.603	11220
367.687	10703
367.770	12109
367.853	11241
367.937	16978
368.020	21926
368.104	9421
368.187	10540
368.270	10678
368.353	9188
368.437	9180
368.520	8151
368.603	8871
368.687	14181
368.770	23544
368.853	9341
368.936	9678
369.020	8147
369.103	7602
369.186	5999
369.269	6449
369.352	8899
369.436	8157
369.519	7644
369.602	5598
369.685	8327
369.768	6022
369.851	6809
369.934	6571
370.018	6394
370.101	7851
370.184	9123
370.267	7539
370.350	7917
370.433	10576
370.516	34177
370.599	85826
370.682	39738
370.765	19020
370.848	17721
370.931	27508
371.014	14451
371.097	6595
371.180	7277
371.263	7467
371.346	5783
371.429	6710
371.511	5970
371.594	6529
371.677	8727
371.760	8509
371.843	8786
371.926	26633
372.009	56682
372.091	21902
372.174	13732
372.257	29490
372.340	14534
372.423	9044
372.505	10354
372.588	7602
372.671	12027
372.754	25847
372.836	15571
372.919	9319
373.002	9081
373.085	8263
373.167	9932
373.250	15162
373.332	28073
373.415	38053
373.498	73169
373.580	41258
373.663	105697
373.746	113675
373.828	26097
373.911	14547
373.993	11105
374.076	10201
374.159	9000
374.241	12071
374.324	24896
374.406	19559
374.489	24585
374.571	62970
374.654	28105
374.736	16737
374.819	40020
374.901	54835
374.983	54843
375.066	17142
375.148	11216
375.231	11320
375.313	12779
375.395	12570
375.478	10700
375.560	11767
375.643	11595
375.725	17527
375.807	46438
375.890	33371
375.972	10833
376.054	11809
376.136	9277
376.219	9134
376.301	17272
376.383	39701
376.465	19020
376.548	12497
376.630	13618
376.712	33081
376.794	18322
376.877	8069
376.959	6109
377.041	7180
377.123	6219
377.205	6621
377.287	5890
377.369	6923
377.452	6987
377.534	8346
377.616	7053
377.698	7525
377.780	7182
377.862	6880
377.944	7654
378.026	6134
378.108	7541
378.190	6017
378.272	7284
378.354	6716
378.436	6567
378.518	6140
378.600	8781
378.682	8684
378.764	16900
378.846	13905
378.928	7948
379.010	9045
379.091	7794
379.173	6415
379.255	5904
379.337	7281
379.419	10862
379.501	22571
379.583	12046
379.664	7716
379.746	8855
379.828	17067
379.910	20481
379.991	20112
380.073	8024
380.155	7160
380.237	6694
380.318	7385
380.400	6825
380.482	9078
380.564	10362
380.645	14499
380.727	12722
380.809	8958
380.890	7661
380.972	8124
381.053	6861
381.135	8302
381.217	9007
381.298	18106
381.380	10713
381.461	10009
381.543	31496
381.624	39254
381.706	11059
381.787	8732
381.869	8669
381.951	17618
382.032	54350
382.113	38412
382.195	10625
382.276	12449
382.358	20229
382.439	35349
382.521	36666
382.602	54779
382.684	28368
382.765	44617
382.846	57821
382.928	90100
383.009	57199
383.090	50860
383.172	133997
383.253	174911
383.334	68482
383.416	58966
383.497	37896
383.578	27883
383.659	46617
383.741	127858
383.822	251964
383.903	136136
383.984	51319
384.066	59344
384.147	40513
384.228	19331
384.309	19151
384.390	19715
384.471	17745
384.553	16374
384.634	15372
384.715	14899
384.796	12884
384.877	12578
384.958	21365
385.039	23369
385.120	14958
385.201	12598
385.282	12641
385.363	13706
385.444	14923
385.525	18101
385.606	32137
385.687	29608
385.768	16489
385.849	16667
385.930	35449
386.011	55627
386.092	23325
386.173	16995
386.254	15136
386.335	15040
386.416	14667
386.496	18609
386.577	24042
386.658	16233
386.739	14708
386.820	15696
386.901	14744
386.981	18464
387.062	19024
387.143	21431
387.224	29287
387.304	31039
387.385	24969
387.466	21138
387.547	24222
387.627	24551
387.708	27797
387.789	42573
387.869	47416
387.950	27329
388.031	18759
388.111	17278
388.192	18958
388.273	20230
388.353	18816
388.434	14729
388.514	17355
388.595	35149
388.676	40597
388.756	22955
388.837	21554
388.917	17374
388.998	11065
389.078	13098
389.159	11968
389.239	10448
389.320	13893
389.400	10777
389.480	14909
389.561	22398
389.641	17187
389.722	12951
389.802	12826
389.883	16129
389.963	27607
390.043	18888
390.124	11522
390.204	13508
390.284	22421
390.365	16750
390.445	13136
390.525	11947
390.605	14799
390.686	14490
390.766	14030
390.846	14039
390.927	12776
391.007	12774
391.087	14439
391.167	13600
391.247	12879
391.328	15678
391.408	15522
391.488	15807
391.568	14382
391.648	17389
391.728	19810
391.808	21423
391.888	20617
391.969	26600
392.049	30895
392.129	27419
392.209	28998
392.289	42593
392.369	35877
392.449	33369
392.529	37357
392.609	44011
392.689	53168
392.769	69661
392.849	80540
392.929	96715
393.009	130067
393.089	175184
393.169	260010
393.248	393094
393.328	531516
393.408	521223
393.488	388358
393.568	251688
393.648	162606
393.728	112027
393.807	80902
393.887	63975
393.967	50696
394.047	43531
394.127	36228
394.206	33060
394.286	29748
394.366	28563
394.446	27079
394.525	23919
394.605	21405
394.685	22312
394.764	24792
394.844	39311
394.924	52377
395.003	30519
395.083	21936
395.163	19409
395.242	18326
395.322	18775
395.402	17264
395.481	20909
395.561	24710
395.640	57072
395.720	111945
395.799	65550
395.879	30945
395.958	26279
396.038	27899
396.117	33178
396.197	37389
396.276	39520
396.356	45828
396.435	58688
396.515	80689
396.594	118245
396.673	206893
396.753	358476
396.832	495758
396.912	432262
396.991	253329
397.070	141238
397.150	89885
397.229	72400
397.308	99613
397.388	165497
397.467	96724
397.546	42739
397.625	28231
397.705	27693
397.784	22451
397.863	19342
397.942	18096
398.022	16986
398.101	14588
398.180	14708
398.259	13877
398.338	13914
398.417	12223
398.497	12314
398.576	12530
398.655	10661
398.734	11329
398.813	10342
398.892	9882
398.971	10074
399.050	8825
399.129	8801
399.208	9186
399.287	9641
399.366	8032
399.445	8634
399.524	8644
399.603	6836
399.682	9013
399.761	9154
399.840	9528
399.919	8281
399.998	6537
400.077	7111
400.156	5731
400.235	8664
400.313	6602
400.392	6217
400.471	11307
400.550	14997
400.629	7951
400.708	7180
400.786	5415
400.865	6376
400.944	5642
401.023	8057
401.102	5345
401.180	5427
401.259	4815
401.338	5687
401.416	5883
401.495	5211
401.574	6446
401.652	5597
401.731	7077
401.810	7726
401.888	6276
401.967	5330
402.046	5367
402.124	4919
402.203	4883
402.281	6308
402.360	4838
402.438	5350
402.517	4312
402.596	5778
402.674	5356
402.753	5535
402.831	6409
402.910	8312
402.988	17150
403.066	48193
403.145	28982
403.223	19317
403.302	45367
403.380	36155
403.459	38650
403.537	18415
403.615	10741
403.694	7404
403.772	8365
403.850	7014
403.929	6555
404.007	6196
404.085	13611
404.164	15786
404.242	8102
404.320	7451
404.398	6994
404.477	10784
404.555	39711
404.633	34445
404.711	9797
404.789	7255
404.868	8062
404.946	6060
405.024	5508
405.102	4444
405.180	4629
405.258	4645
405.336	4816
405.415	4617
405.493	7714
405.571	9818
405.649	5987
405.727	4984
405.805	8013
405.883	8724
405.961	7622
406.039	4689
406.117	4932
406.195	6533
406.273	9916
406.351	32086
406.429	20095
406.507	5397
406.585	3739
406.663	5670
406.740	5903
406.818	5267
406.896	4495
406.974	6416
407.052	6254
407.130	18593
407.208	26647
407.285	8669
407.363	5108
407.441	6765
407.519	6131
407.596	8424
407.674	23016
407.752	82031
407.830	59708
407.907	15182
407.985	7919
408.063	5379
408.141	5532
408.218	6286
408.296	7867
408.373	9676
408.451	8120
408.529	6321
408.606	6399
408.684	7940
408.762	7683
408.839	8761
408.917	9489
408.994	9330
409.072	10697
409.149	13503
409.227	21070
409.304	28685
409.382	33047
409.459	37513
409.537	45994
409.614	45561
409.692	38932
409.769	38700
409.846	47542
409.924	56130
410.001	45498
410.079	37503
410.156	29350
410.233	23797
410.311	18695
410.388	16927
410.465	15488
410.543	13601
410.620	13587
410.697	12818
410.775	12058
410.852	10447
410.929	12934
411.006	12385
411.083	10090
411.161	9200
411.238	10471
411.315	8581
411.392	9207
411.469	8851
411.547	7825
411.624	5587
411.701	6612
411.778	7544
411.855	8394
411.932	6732
412.009	5844
412.086	6252
412.163	6175
412.240	5645
412.317	6436
412.394	5627
412.471	5923
412.548	4787
412.625	4844
412.702	5458
412.779	5631
412.856	5485
412.933	4908
413.010	4308
413.087	4381
413.164	8657
413.241	10828
413.318	5833
413.395	5717
413.471	5322
413.548	4955
413.625	5287
413.702	3646
413.779	4443
413.855	4545
413.932	3288
414.009	2814
414.086	4127
414.162	4358
414.239	4474
414.316	8437
414.393	16686
414.469	6946
414.546	4036
414.623	3362
414.699	3980
414.776	4710
414.853	3476
414.929	4152
415.006	3099
415.082	3688
415.159	3369
415.236	3930
415.312	4603
415.389	4934
415.465	4251
415.542	3654
415.618	4013
415.695	5355
415.771	3747
415.848	3242
415.924	3791
416.000	3556
416.077	4163
416.153	2760
416.230	3094
416.306	3372
416.383	2681
416.459	4072
416.535	2643
416.612	3558
416.688	2544
416.764	3012
416.841	2930
416.917	3279
416.993	4286
417.069	3847
417.146	3192
417.222	4435
417.298	3934
417.374	3496
417.451	3902
417.527	4471
417.603	3123
417.679	4561
417.755	3670
417.831	3481
417.908	3625
417.984	4033
418.060	2838
418.136	5190
418.212	5392
418.288	4239
418.364	3599
418.440	3293
418.516	4857
418.592	3937
418.668	4629
418.744	6657
418.820	6752
418.896	5033
418.972	3694
419.048	4722
419.124	6340
419.200	4809
419.276	5204
419.352	4365
419.428	5108
419.504	4522
419.579	5977
419.655	5223
419.731	6002
419.807	7449
419.883	9716
419.959	8965
420.034	8278
420.110	7823
420.186	13055
420.262	12356
420.337	8447
420.413	9848
420.489	9402
420.565	10852
420.640	10288
420.716	11460
420.792	10726
420.867	13289
420.943	12889
421.019	14725
421.094	15114
421.170	16354
421.245	16801
421.321	19589
421.397	22205
421.472	37288
421.548	72338
421.623	51907
421.699	34094
421.774	36379
421.850	40443
421.925	49362
422.001	56161
422.076	68521
422.152	85033
422.227	107361
422.302	141681
422.378	185596
422.453	239953
422.529	265881
422.604	203582
422.679	138407
422.755	201652
422.830	261213
422.905	237993
422.981	193189
423.056	149708
423.131	116955
423.207	91766
423.282	75714
423.357	64083
423.432	53127
423.508	47449
423.583	43140
423.658	35949
423.733	31104
423.808	29310
423.883	29162
423.959	28879
424.034	31379
424.109	30189
424.184	22076
424.259	18941
424.334	17746
424.409	15254
424.484	14209
424.559	12783
424.634	11745
424.709	11102
424.784	11492
424.859	10326
424.934	10380
425.009	12757
425.084	17083
425.159	11024
425.234	8335
425.309	7795
425.384	8249
425.459	7047
425.534	7521
425.609	6140
425.683	6347
425.758	7524
425.833	6661
425.908	7263
425.983	7787
426.058	14243
426.132	8966
426.207	6564
426.282	6459
426.357	4732
426.431	5145
426.506	6328
426.581	5378
426.655	5628
426.730	5721
426.805	4971
426.879	4814
426.954	4321
427.029	5829
427.103	11993
427.178	25704
427.253	13270
427.327	5642
427.402	4290
427.476	4517
427.551	4437
427.625	4441
427.700	5211
427.774	3745
427.849	4970
427.923	5504
427.998	6273
428.072	8819
428.147	18280
428.221	62404
428.296	151904
428.370	89351
428.444	21646
428.519	9598
428.593	7803
428.667	8782
428.742	11108
428.816	27077
428.890	99182
428.965	136679
429.039	42939
429.113	12555
429.188	7572
429.262	6117
429.336	7047
429.410	9078
429.485	7368
429.559	7559
429.633	7637
429.707	10363
429.781	25403
429.855	94919
429.930	125484
430.004	44969
430.078	32191
430.152	79014
430.226	197917
430.300	186020
430.374	64327
430.448	25904
430.522	16239
430.596	16945
430.670	39419
430.744	125655
430.818	127648
430.892	32360
430.966	10503
431.040	6742
431.114	5140
431.188	4580
431.262	4186
431.336	4197
431.410	4825
431.484	5554
431.557	6874
431.631	7590
431.705	14861
431.779	51642
431.853	145781
431.927	100203
432.000	22058
432.074	8609
432.148	4930
432.222	3548
432.295	3802
432.369	2526
432.443	3088
432.516	10033
432.590	22903
432.664	9440
432.737	2385
432.811	1691
432.885	1237
432.958	2679
433.032	1654
433.106	1710
433.179	2632
433.253	1751
433.326	2262
433.400	2086
433.473	3094
433.547	1834
433.620	2601
433.694	2682
433.767	3536
433.841	1704
433.914	2976
433.988	2640
434.061	2679
434.134	2209
434.208	2894
434.281	1848
434.355	2219
434.428	1942
434.501	2108
434.575	1572
434.648	2316
434.721	1899
434.795	2690
434.868	2549
434.941	3743
435.014	3312
435.088	4042
435.161	4728
435.234	5604
435.307	6444
435.381	7917
435.454	11401
435.527	18743
435.600	22748
435.673	19782
435.746	16511
435.819	13093
435.892	10907
435.966	8585
436.039	6782
436.112	7021
436.185	5479
436.258	4757
436.331	3695
436.404	4291
436.477	2947
436.550	2945
436.623	3664
436.696	3336
436.769	2513
436.842	2911
436.915	2538
436.987	1918
437.060	3127
437.133	1792
437.206	2157
437.279	1942
437.352	2002
437.425	2246
437.498	1597
437.570	2201
437.643	2197
437.716	1689
437.789	2278
437.861	2116
437.934	1410
438.007	1849
438.080	1670
438.152	1707
438.225	2293
438.298	11920
438.370	33430
438.443	12220
438.516	2396
438.588	2000
438.661	1450
438.734	1597
438.806	1979
438.879	2250
438.951	1358
439.024	1368
439.096	1847
439.169	1480
439.241	1849
439.314	939
439.386	987
439.459	1730
439.531	937
439.604	1398
439.676	1622
439.749	1410
439.821	1866
439.893	2627
439.966	2163
440.038	1550
440.110	1674
440.183	1421
440.255	2022
440.327	2768
440.400	5427
440.472	19337
440.544	11315
440.617	2456
440.689	3367
440.761	2785
440.833	2367
440.905	2303
440.978	1633
441.050	1768
441.122	2332
441.194	2146
441.266	2660
441.338	982
441.411	2716
441.483	7560
441.555	9131
441.627	3671
441.699	3229
441.771	3813
441.843	2800
441.915	4261
441.987	4582
442.059	4718
442.131	5827
442.203	8360
442.275	11282
442.347	19171
442.419	42847
442.491	134421
442.563	217466
442.635	105786
442.706	33699
442.778	17200
442.850	12654
442.922	10611
442.994	10906
443.066	13381
443.137	15353
443.209	21032
443.281	33323
443.353	66253
443.425	158941
443.496	288559
443.568	290769
443.640	156137
443.711	57990
443.783	28453
443.855	17262
443.926	12851
443.998	9469
444.070	8536
444.141	7863
444.213	7402
444.285	6874
444.356	6465
444.428	5410
444.499	6079
444.571	5966
444.642	6880
444.714	7162
444.785	8799
444.857	9186
444.928	11153
445.000	12247
445.071	17169
445.143	23762
445.214	34967
445.285	56943
445.357	115683
445.428	239927
445.500	309342
445.571	292790
445.642	219157
445.714	102162
445.785	42690
445.856	23824
445.928	16451
445.999	12166
446.070	9488
446.141	8577
446.213	8633
446.284	6165
446.355	5464
446.426	4024
446.497	4776
446.569	3284
446.640	3568
446.711	4417
446.782	3343
446.853	3182
446.924	3432
446.995	2552
447.066	2564
447.138	1853
447.209	2091
447.280	1830
447.351	1931
447.422	1413
447.493	1618
447.564	1894
447.635	1931
447.706	1078
447.777	1178
447.847	1363
447.918	540
447.989	837
448.060	1390
448.131	844
448.202	1345
448.273	1823
448.344	1720
448.414	1224
448.485	780
448.556	557
448.627	653
448.698	2353
448.768	988
448.839	-120
448.910	713
448.981	924
449.051	1317
449.122	341
449.193	905
449.263	878
449.334	1171
449.405	1672
449.475	2085
449.546	2303
449.616	1434
449.687	1760
449.758	2037
449.828	975
449.899	1045
449.969	711
450.040	1510
450.110	945
450.181	1406
450.251	1121
450.322	974
450.392	2007
450.463	633
450.533	1154
450.604	1140
450.674	1326
450.744	1878
450.815	2343
450.885	2651
450.955	2821
451.026	2998
451.096	2076
451.166	2495
451.237	3183
451.307	3977
451.377	3559
451.447	2172
451.518	2026
451.588	1806
451.658	1210
451.728	856
451.799	1507
451.869	2298
451.939	913
452.009	1261
452.079	1692
452.149	1946
452.219	2299
452.289	2773
452.360	1491
452.430	3996
452.500	4687
452.570	8564
452.640	19243
452.710	39537
452.780	45927
452.850	29996
452.920	17838
452.990	10418
453.060	6911
453.129	4640
453.199	3350
453.269	3557
453.339	2709
453.409	1881
453.479	2301
453.549	2063
453.619	1514
453.688	1442
453.758	1718
453.828	1286
453.898	1069
453.968	170
454.037	1426
454.087	936
454.107	718
454.168	1426
454.177	1508
454.247	1418
454.249	1405
454.316	671
454.330	799
454.386	1240
454.411	911
454.456	239
454.492	156
454.525	73
454.574	729
454.595	1000
454.655	1154
454.665	1149
454.734	1515
454.736	1549
454.804	2208
454.817	2275
454.873	2449
454.898	2152
454.943	1608
454.979	1233
455.013	834
455.060	675
455.082	564
455.141	1445
455.152	1582
455.221	2158
455.222	2161
455.291	877
455.303	1242
455.360	2728
455.384	3580
455.430	4848
455.465	3677
455.499	2566
455.546	1695
455.569	1329
455.627	1963
455.638	2019
455.707	1208
455.708	1227
455.777	1518
455.789	1588
455.846	1895
455.869	1924
455.916	1798
455.950	1623
455.985	1499
456.031	1198
456.054	987
456.112	1505
456.124	1599
456.193	2170
456.193	2150
456.262	2130
456.274	2278
456.332	3125
456.355	3068
456.401	2663
456.436	2500
456.470	2357
456.516	2093
456.540	1956
456.597	2840
456.609	2984
456.678	3551
456.678	3531
456.747	3078
456.759	3008
456.817	2902
456.840	2941
456.886	2722
456.920	3093
456.955	3448
457.001	4037
457.024	4305
457.082	3952
457.093	3862
457.162	3988
457.163	4010
457.232	4190
457.243	4284
457.301	4447
457.324	4377
457.370	4464
457.405	5307
457.439	5990
457.485	6203
457.508	6542
457.566	7904
457.577	8355
457.646	12681
457.647	12773
457.715	26913
457.727	30260
457.784	52991
457.808	69912
457.853	92640
457.889	109650
457.922	109450
457.969	78246
457.991	77159
458.050	85547
458.060	88194
458.129	143299
458.130	145014
458.198	155661
458.211	145328
458.267	89246
458.292	65063
458.336	45181
458.372	39714
458.405	46371
458.453	63499
458.474	78815
458.533	137099
458.543	141932
458.611	217031
458.614	218350
458.680	154920
458.694	131154
458.749	69466
458.775	50110
458.818	31622
458.855	23801
458.887	19515
458.936	15401
458.955	14005
459.016	11305
459.024	10993
459.093	9988
459.097	9882
459.162	8257
459.177	8292
459.230	7878
459.257	7375
459.299	7057
459.338	7415
459.368	7482
459.418	6534
459.437	6258
459.499	6173
459.505	6149
459.574	6335
459.579	6350
459.643	6221
459.659	6084
459.711	6078
459.740	6277
459.780	6251
459.820	6319
459.849	6277
459.900	6216
459.917	6218
459.981	5640
459.986	5611
460.054	5985
460.061	6038
460.123	6115
460.141	6124
460.191	6366
460.222	6363
460.260	6007
460.302	6076
460.328	6511
460.382	7055
460.397	7282
460.462	8336
460.465	8556
460.534	14121
460.543	14940
460.602	38683
460.623	47646
460.671	72406
460.703	96423
460.739	90893
460.783	73010
460.808	60558
460.864	17051
460.876	13570
460.944	7894
460.945	7833
461.013	6526
461.024	6342
461.081	5977
461.104	6115
461.150	6567
461.184	6601
461.218	6788
461.264	7072
461.286	6715
461.345	5756
461.355	5787
461.423	6431
461.425	6440
461.491	5757
461.505	5583
461.559	5636
461.585	5836
461.628	6071
461.665	6370
461.696	6534
461.745	6555
461.764	6415
461.825	5617
461.832	5616
461.901	6003
461.905	6048
461.969	5713
461.985	5483
462.037	6188
462.065	6824
462.105	6155
462.145	5586
462.173	6109
462.225	6508
462.241	6369
462.305	6060
462.310	6096
462.378	6638
462.385	6760
462.446	6913
462.465	6836
462.514	7219
462.545	7332
462.582	6828
462.625	6350
462.650	6279
462.705	6178
462.718	6200
462.785	6303
462.786	6305
462.854	6107
462.865	6036
462.922	5437
462.945	5518
462.990	6345
463.025	6408
463.058	6175
463.104	6369
463.126	6516
463.184	6582
463.194	6584
463.262	6353
463.264	6365
463.330	6837
463.344	6868
463.398	7343
463.424	7359
463.466	6609
463.504	6253
463.533	6446
463.583	6449
463.601	6404
463.663	6533
463.669	6513
463.737	5988
463.743	5949
463.805	6791
463.823	6983
463.873	6774
463.903	6724
463.940	6600
463.982	6356
464.008	6590
464.062	7095
464.076	7032
464.142	6783
464.144	6783
464.211	6296
464.221	6248
464.279	6811
464.301	6928
464.347	6491
464.381	6170
464.414	6284
464.461	6664
464.482	6900
464.540	7237
464.550	7140
464.617	6415
464.620	6381
464.685	6604
464.699	6672
464.753	6835
464.779	6849
464.820	6918
464.859	6969
464.888	6742
464.938	6422
464.956	6704
465.018	7464
465.023	7475
465.091	7558
465.098	7565
465.158	6885
465.177	6629
465.226	6957
465.257	7188
465.293	7236
465.336	7295
465.361	7419
465.416	7462
465.428	7313
465.495	6610
465.496	6621
465.563	6534
465.575	6487
465.631	6961
465.654	7243
465.698	7014
465.734	6729
465.765	6739
465.813	6635
465.833	6740
465.893	7213
465.900	7237
465.968	7144
465.972	7128
466.035	7144
466.052	7152
466.102	6961
466.131	6812
466.170	6850
466.210	6829
466.237	7028
466.290	7500
466.304	7397
466.369	6677
466.372	6698
466.439	7071
466.449	7094
466.506	7592
466.528	7784
466.573	8104
466.607	8291
466.641	8279
466.687	8279
466.708	8426
466.766	8699
466.775	8733
466.842	8885
466.845	8877
466.909	8285
466.925	8107
466.977	8268
467.004	8345
467.044	8566
467.083	8773
467.111	8914
467.163	9089
467.178	9087
467.242	9021
467.245	9026
467.312	8795
467.321	8750
467.379	8954
467.400	9001
467.446	9755
467.480	10271
467.559	10243
467.638	10136
467.717	9464
467.796	10978
467.875	11892
467.955	11681
468.034	13081
468.113	14483
468.192	18968
468.271	23512
468.350	31893
468.429	41073
468.508	43919
468.588	28856
468.667	20245
468.746	15486
468.825	13090
468.904	12902
468.983	11342
469.062	10833
469.141	10586
469.220	10251
469.299	9815
469.378	8294
469.456	10043
469.535	9822
469.614	8766
469.693	9244
469.772	9401
469.851	9694
469.930	10071
470.009	9714
470.088	9130
470.166	10848
470.245	12315
470.324	12390
470.403	10752
470.482	11120
470.560	9814
470.639	9582
470.718	9298
470.797	9698
470.875	9072
470.954	9882
471.033	9412
471.111	8247
471.190	9656
471.269	8976
471.347	9186
471.426	10144
471.505	8871
471.583	9885
471.662	8993
471.740	8828
471.819	8312
471.898	9116
471.976	9063
472.055	9399
472.133	10892
472.212	13522
472.290	9796
472.369	8143
472.447	9080
472.526	8709
472.604	8854
472.683	9667
472.761	10254
472.839	9468
472.918	9770
472.996	9009
473.075	9481
473.153	10091
473.231	9517
473.310	9162
473.388	9565
473.466	9834
473.545	9679
473.623	10586
473.701	9963
473.780	10812
473.858	9382
473.936	13034
474.014	9271
474.093	12458
474.171	13558
474.249	12140
474.327	9619
474.405	9142
474.484	9875
474.562	9885
474.640	9579
474.718	8878
474.796	8881
474.874	10274
474.952	9812
475.030	9254
475.108	9868
475.187	9736
475.265	12171
475.343	16898
475.421	19857
475.499	10760
475.577	9798
475.655	10674
475.733	9905
475.811	9035
475.889	9234
475.966	10266
476.044	10801
476.122	12845
476.200	16249
476.278	13843
476.356	9293
476.434	10184
476.512	11728
476.590	15766
476.667	14354
476.745	9504
476.823	9358
476.901	8557
476.979	7843
477.056	9069
477.134	8091
477.212	8646
477.290	8006
477.367	8896
477.445	8521
477.523	7862
477.601	7572
477.678	9312
477.756	8476
477.834	9188
477.911	8879
477.989	8799
478.066	9928
478.144	10062
478.222	12649
478.299	22702
478.377	23144
478.454	12559
478.532	9010
478.609	8696
478.687	9143
478.764	8448
478.842	9140
478.919	9412
478.997	8893
479.074	8828
479.152	9115
479.229	8227
479.307	8208
479.384	9258
479.461	8910
479.539	8379
479.616	9017
479.694	9068
479.771	8768
479.848	8728
479.926	7410
480.003	10191
480.080	9542
480.157	9881
480.235	9048
480.312	9575
480.389	9840
480.467	10317
480.544	9638
480.621	10644
480.698	11503
480.775	11499
480.853	10333
480.930	10645
481.007	11388
481.084	17116
481.161	23883
481.238	16476
481.315	10197
481.392	10745
481.470	11269
481.547	10786
481.624	10882
481.701	10628
481.778	11832
481.855	11304
481.932	12535
482.009	13604
482.086	14539
482.163	16772
482.240	23189
482.317	33779
482.393	28936
482.470	16386
482.547	15601
482.624	13583
482.701	12709
482.778	14228
482.855	13290
482.932	14081
483.009	15839
483.085	18477
483.162	24535
483.239	23890
483.316	18537
483.393	18888
483.469	16610
483.546	15011
483.623	14019
483.699	12159
483.776	12255
483.853	12046
483.930	11721
484.006	10593
484.083	12580
484.160	12088
484.236	12498
484.313	13286
484.389	14249
484.466	17464
484.543	19101
484.619	24331
484.696	25679
484.772	17926
484.849	13328
484.925	12518
485.002	12360
485.078	11156
485.155	10330
485.231	10193
485.308	10167
485.384	10536
485.461	11608
485.537	10118
485.614	10450
485.690	9437
485.766	9154
485.843	9182
485.919	9407
485.995	11453
486.072	9281
486.148	9459
486.224	9509
486.301	9517
486.377	9945
486.453	8990
486.530	10879
486.606	11046
486.682	10122
486.758	10781
486.835	12828
486.911	12914
486.987	13941
487.063	16655
487.139	22255
487.215	29048
487.292	29074
487.368	27092
487.444	34012
487.520	49075
487.596	77802
487.672	157614
487.748	432693
487.824	641358
487.900	335379
487.976	115275
488.052	56496
488.128	37076
488.204	26686
488.280	21978
488.356	17974
488.432	16535
488.508	14194
488.584	13949
488.660	12864
488.736	12194
488.812	11357
488.888	12044
488.964	10537
489.039	13408
489.115	17454
489.191	16886
489.267	11708
489.343	10091
489.418	9980
489.494	9260
489.570	8296
489.646	11315
489.722	9639
489.797	9871
489.873	10887
489.949	10455
490.024	9908
490.100	9950
490.176	9990
490.251	10314
490.327	11135
490.403	9935
490.478	10304
490.554	9711
490.629	10063
490.705	9600
490.781	9932
490.856	9084
490.932	9566
491.007	9602
491.083	8520
491.158	8905
491.234	9063
491.309	9134
491.385	8537
491.460	7704
491.536	9716
491.611	7859
491.686	7921
491.762	9098
491.837	10015
491.913	12549
491.988	14397
492.063	15938
492.139	8908
492.214	7613
492.289	7816
492.365	7141
492.440	8155
492.515	6866
492.590	8378
492.666	7399
492.741	7526
492.816	8104
492.891	7275
492.967	8083
493.042	7618
493.117	7020
493.192	8644
493.267	8959
493.342	12577
493.418	15403
493.493	7888
493.568	7483
493.643	7933
493.718	7394
493.793	7555
493.868	7839
493.943	8328
494.018	8288
494.093	7378
494.168	7661
494.243	5931
494.318	7289
494.393	7890
494.468	6863
494.543	7404
494.618	7656
494.693	6880
494.768	6836
494.842	7869
494.917	8330
494.992	8089
495.067	7660
495.142	6527
495.217	7071
495.292	7494
495.366	7411
495.441	6214
495.516	9273
495.591	7928
495.665	13454
495.740	23355
495.815	14962
495.890	7745
495.964	5778
496.039	10371
496.114	12045
496.188	22953
496.263	18101
496.338	8307
496.412	7243
496.487	7013
496.561	7793
496.636	8403
496.710	7888
496.785	9721
496.860	8957
496.934	6850
497.009	7727
497.083	7445
497.158	6600
497.232	7619
497.307	7577
497.381	7640
497.455	7033
497.530	7331
497.604	7284
497.679	6387
497.753	7575
497.827	6213
497.902	6283
497.976	7910
498.050	7297
498.125	7726
498.199	7951
498.273	7752
498.348	8236
498.422	8020
498.496	8315
498.570	8580
498.645	6901
498.719	5556
498.793	7979
498.867	7466
498.941	6633
499.016	6600
499.090	6461
499.164	7780
499.238	8065
499.312	8188
499.386	7937
499.460	8421
499.534	8207
499.609	8681
499.683	8533
499.757	8231
499.831	7436
499.905	6661
499.979	7779
500.053	7355
500.127	8304
500.201	8030
500.275	8662
500.349	7821
500.422	7648
500.496	9149
500.570	10080
500.644	11231
500.718	9210
500.792	7797
500.866	7504
500.940	7669
501.013	7998
501.087	8076
501.161	9048
501.235	7878
501.309	9785
501.382	7014
501.456	10132
501.530	8194
501.603	7243
501.677	6583
501.751	6114
501.825	8743
501.898	7386
501.972	8013
502.046	7601
502.119	8233
502.193	7530
502.266	6727
502.340	7066
502.413	8765
502.487	8314
502.561	8151
502.634	8880
502.708	8614
502.781	8486
502.855	9242
502.928	7716
503.002	7984
503.075	7893
503.149	8451
503.222	8450
503.295	8891
503.369	10175
503.442	10110
503.516	11834
503.589	14127
503.662	16999
503.736	21491
503.809	26618
503.882	34568
503.956	54700
504.029	106271
504.102	270562
504.175	413435
504.249	216022
504.322	90862
504.395	48546
504.468	30900
504.542	22283
504.615	16242
504.688	15276
504.761	11725
504.834	13111
504.907	10500
504.980	10633
505.053	8714
505.127	6920
505.200	10560
505.273	7998
505.346	6635
505.419	6768
505.492	8373
505.565	7268
505.638	7769
505.711	6273
505.784	6339
505.857	5704
505.930	7622
506.003	5534
506.076	8234
506.149	6228
506.221	4226
506.294	7577
506.367	4812
506.440	5318
506.513	6100
506.586	5731
506.659	4453
506.731	5791
506.804	5143
506.877	4951
506.950	7013
507.022	6045
507.095	4639
507.168	6208
507.241	6095
507.313	4979
507.386	4351
507.459	7042
507.531	5203
507.604	4866
507.677	6452
507.749	4239
507.822	5564
507.894	4756
507.967	5904
508.040	4835
508.112	6287
508.185	5962
508.257	3941
508.330	6930
508.402	5386
508.475	4879
508.547	4258
508.620	5401
508.692	5328
508.765	5360
508.837	4318
508.909	5845
508.982	4407
509.054	5894
509.127	4914
509.199	5870
509.271	4100
509.344	4975
509.416	5250
509.488	5019
509.560	5887
509.633	4614
509.705	5571
509.777	4729
509.849	5934
509.922	4280
509.994	5414
510.066	5435
510.138	3420
510.210	6546
510.283	4123
510.355	4827
510.427	5545
510.499	5186
510.571	5253
510.643	4857
510.715	6493
510.787	4608
510.859	6206
510.931	5026
511.003	5208
511.076	6246
511.148	4356
511.219	4213
511.291	5122
511.363	4621
511.435	4132
511.507	4000
511.579	6013
511.651	5334
511.723	4710
511.795	5333
511.867	4742
511.939	5156
512.010	4331
512.082	5738
512.154	3654
512.226	4923
512.298	5695
512.369	6238
512.441	5459
512.513	5584
512.585	4348
512.656	6381
512.728	5076
512.800	4534
512.871	5556
512.943	5698
513.015	3689
513.086	6251
513.158	5616
513.230	4577
513.301	6218
513.373	7199
513.444	4336
513.516	5661
513.588	5024
513.659	6061
513.731	5732
513.802	4789
513.874	7389
513.945	8177
514.016	5774
514.088	5874
514.159	4764
514.231	5759
514.302	5528
514.374	6205
514.445	3423
514.516	6401
514.588	5691
514.659	3980
514.730	5090
514.802	6391
514.873	3515
514.944	7148
515.016	5659
515.087	5912
515.158	4845
515.229	6958
515.301	4679
515.372	6954
515.443	4462
515.514	6372
515.585	4587
515.656	7470
515.728	7949
515.799	5592
515.870	6656
515.941	6558
516.012	4960
516.083	7656
516.154	5256
516.225	7256
516.296	8217
516.367	7415
516.438	8007
516.509	8585
516.580	12148
516.651	28576
516.722	89815
516.793	52908
516.864	12549
516.935	12030
517.006	13026
517.077	15440
517.148	28785
517.219	112545
517.289	205429
517.360	41294
517.431	13834
517.502	9756
517.573	10024
517.643	8605
517.714	8720
517.785	11737
517.856	11493
517.926	15226
517.997	17025
518.068	18337
518.138	24779
518.209	32310
518.280	87970
518.350	299320
518.421	176291
518.492	53062
518.562	53722
518.633	71134
518.703	110487
518.774	228596
518.845	474898
518.915	476293
518.986	192959
519.056	86098
519.127	51598
519.197	37086
519.268	27090
519.338	20938
519.408	16272
519.479	14211
519.549	12826
519.620	13627
519.690	11327
519.760	8956
519.831	9009
519.901	8041
519.971	8741
520.042	7817
520.112	7299
520.182	8366
520.253	8331
520.323	6575
520.393	6103
520.463	8706
520.534	4643
520.604	8452
520.674	7438
520.744	6296
520.814	5724
520.885	7987
520.955	6414
521.025	6390
521.095	6104
521.165	7986
521.235	5516
521.305	6385
521.375	6910
521.445	6533
521.515	5693
521.585	7937
521.655	5660
521.725	8076
521.795	7084
521.865	4315
521.935	8143
522.005	5686
522.075	6164
522.145	7744
522.215	6718
522.285	8012
522.355	5512
522.424	7632
522.494	7006
522.564	8439
522.634	8471
522.704	15899
522.774	9410
522.843	8180
522.913	7844
522.983	8282
523.053	7188
523.122	8104
523.192	6955
523.262	9958
523.331	10231
523.401	8400
523.471	7171
523.540	8405
523.610	7177
523.680	8114
523.749	8128
523.819	10099
523.888	9722
523.958	9147
524.027	8232
524.097	7852
524.166	8521
524.236	7230
524.305	9155
524.375	7560
524.444	7677
524.514	10113
524.583	7684
524.653	7531
524.722	9259
524.791	8393
524.861	10203
524.930	9162
524.999	8239
525.069	10357
525.138	10377
525.207	10524
525.277	11939
525.346	11773
525.415	14228
525.484	16566
525.554	18247
525.623	23101
525.692	31020
525.761	35419
525.830	42421
525.900	55086
525.969	86889
526.038	171711
526.107	310958
526.176	708811
526.245	626377
526.314	265766
526.383	412934
526.452	552122
526.522	629507
526.591	631034
526.660	201255
526.729	98468
526.797	96180
526.867	130539
526.935	320894
527.004	790145
527.073	633559
527.142	200671
527.211	70096
527.280	44597
527.349	31698
527.418	22601
527.487	20256
527.555	15517
527.624	14630
527.693	12055
527.762	13967
527.831	11439
527.899	11625
527.968	10527
528.037	8394
528.106	11320
528.174	9885
528.243	10701
528.312	10489
528.380	9709
528.449	8726
528.518	10015
528.586	7977
528.655	10193
528.723	9030
528.792	8916
528.861	8196
528.929	7830
528.998	9699
529.066	7546
529.135	8583
529.203	7378
529.272	7936
529.340	10126
529.409	10390
529.477	8027
529.545	7721
529.614	10626
529.682	7796
529.751	8136
529.819	11413
529.887	9935
529.956	8899
530.024	9597
530.092	7094
530.161	10122
530.229	9165
530.297	8550
530.365	8751
530.434	10295
530.502	8131
530.570	9853
530.638	8409
530.707	9022
530.775	10742
530.843	9096
530.911	8848
530.979	9374
531.047	9075
531.115	10143
531.183	9575
531.252	10024
531.320	8841
531.388	8002
531.456	10317
531.524	8819
531.592	10173
531.660	12244
531.728	9838
531.796	9643
531.864	9929
531.932	8833
532.000	9229
532.067	9795
532.135	10994
532.203	12260
532.271	11667
532.339	13406
532.407	14870
532.475	15153
532.542	12863
532.610	12332
532.678	11447
532.746	19948
532.814	31684
532.881	18146
532.949	12879
533.017	12709
533.084	11467
533.152	11500
533.220	11729
533.287	10165
533.355	11487
533.423	12542
533.490	11450
533.558	12761
533.625	13155
533.693	12934
533.761	12218
533.828	13563
533.896	11724
533.963	15353
534.031	15877
534.098	22005
534.166	20956
534.233	19588
534.300	23736
534.368	23104
534.435	22267
534.503	24822
534.570	27221
534.637	31668
534.705	36280
534.772	45609
534.840	83341
534.907	338376
534.974	453970
535.041	93779
535.109	35211
535.176	25561
535.243	23895
535.310	21747
535.378	19914
535.445	19724
535.512	20422
535.579	20254
535.646	17207
535.714	20602
535.781	21559
535.848	21313
535.915	21221
535.982	19577
536.049	19851
536.116	21228
536.183	19546
536.250	19255
536.317	19239
536.384	20093
536.451	21608
536.518	22345
536.585	19597
536.652	22865
536.719	23260
536.786	19971
536.853	20361
536.920	22696
536.987	22019
537.053	20321
537.120	29109
537.187	30579
537.254	23767
537.321	22171
537.388	23593
537.454	21707
537.521	21960
537.588	22538
537.654	24121
537.721	24119
537.788	26297
537.855	22444
537.921	23569
537.988	21289
538.055	21650
538.121	19010
538.188	19669
538.254	19287
538.321	19896
538.388	21919
538.454	24596
538.521	25731
538.587	24579
538.654	23729
538.720	23880
538.787	23275
538.853	23592
538.920	23785
538.986	19783
539.053	20012
539.119	22066
539.185	21970
539.252	23231
539.318	23398
539.385	26482
539.451	23927
539.517	24396
539.583	24904
539.650	23944
539.716	26968
539.782	22768
539.849	20913
539.915	21841
539.981	22058
540.047	21312
540.114	22212
540.180	23531
540.246	24863
540.312	26319
540.378	25072
540.444	26064
540.510	25383
540.576	30545
540.643	24764
540.709	22303
540.775	23003
540.841	21826
540.907	22769
540.973	22866
541.039	21271
541.105	23811
541.171	25071
541.237	24914
541.303	25344
541.369	25705
541.435	25435
541.500	24895
541.566	22298
541.632	22165
541.698	22118
541.764	24491
541.830	23786
541.896	22595
541.961	24347
542.027	23325
542.093	25551
542.159	26260
542.224	22123
542.290	24062
542.356	22851
542.421	23909
542.487	22522
542.553	21374
542.618	21534
542.684	21925
542.750	22380
542.815	23042
542.881	23456
542.947	30325
543.012	29592
543.078	23180
543.143	22286
543.209	23429
543.274	22118
543.340	22287
543.405	23749
543.471	26863
543.536	24521
543.602	23907
543.667	22267
543.732	24545
543.798	24148
543.863	23790
543.928	23737
543.994	23213
544.059	25698
544.124	25571
544.190	25763
544.255	26452
544.320	25918
544.386	24785
544.451	27763
544.516	26412
544.581	26770
544.646	29323
544.712	32611
544.777	27915
544.842	27739
544.907	26009
544.972	27739
545.037	29466
545.102	31009
545.168	29530
545.233	30306
545.298	30665
545.363	30359
545.428	32333
545.493	31959
545.558	34234
545.623	33691
545.688	31270
545.753	34962
545.818	34492
545.883	37836
545.947	36144
546.012	38412
546.077	39076
546.142	43044
546.207	42957
546.272	47193
546.337	46536
546.401	48617
546.466	50287
546.531	51415
546.596	57375
546.661	59529
546.725	61852
546.790	65076
546.855	71537
546.919	77427
546.984	87239
547.049	93681
547.113	106473
547.178	117577
547.243	132237
547.307	152585
547.372	167654
547.436	169267
547.501	176988
547.565	191735
547.630	174985
547.695	169956
547.759	167888
547.823	171671
547.888	174708
547.952	180724
548.017	187124
548.081	197297
548.146	192145
548.210	192240
548.274	207688
548.339	205376
548.403	187435
548.468	175573
548.532	174202
548.596	180053
548.660	180398
548.725	194527
548.789	209711
548.853	204499
548.917	197301
548.982	191788
549.046	172558
549.110	157303
549.174	160733
549.238	186923
549.303	204988
549.367	210615
549.431	199399
549.495	187190
549.559	186209
549.623	214615
549.687	234849
549.751	228838
549.815	267797
549.879	275406
549.943	265426
550.007	275159
550.071	273805
550.135	248094
550.199	236180
550.263	235428
550.327	222396
550.391	228294
550.455	251987
550.519	261465
550.582	277633
550.646	312794
550.710	314873
550.774	312047
550.838	318308
550.901	327685
550.965	346228
551.029	362819
551.093	388151
551.156	422068
551.220	458262
551.284	482126
551.347	406324
551.411	350683
551.475	327319
551.538	336835
551.602	315997
551.666	299028
551.729	283626
551.793	275279
551.856	270169
551.920	263740
551.983	265253
552.047	260388
552.110	262712
552.174	265471
552.237	271992
552.301	252677
552.364	242455
552.428	237662
552.491	241032
552.554	247199
552.618	244269
552.681	248834
552.745	240066
552.808	247020
552.871	259091
552.934	254254
552.998	246598
553.061	241084
553.124	233107
553.187	230969
553.251	234913
553.314	238135
553.377	238818
553.440	254322
553.503	264200
553.567	265347
553.630	255402
553.693	254706
553.756	254956
553.819	250021
553.882	241609
553.945	243599
554.008	243793
554.071	247385
554.134	249073
554.197	236724
554.260	229171
554.323	232119
554.386	234768
554.449	244916
554.512	245407
554.575	234744
554.638	234453
554.701	231819
554.764	229995
554.827	221238
554.889	214299
554.952	203500
555.015	196398
555.078	202087
555.141	204731
555.203	203280
555.266	201529
555.329	198356
555.391	191538
555.454	189179
555.517	182788
555.580	178880
555.642	171708
555.705	166783
555.768	165918
555.830	162356
555.893	155932
555.955	149705
556.018	147405
556.080	147917
556.143	152135
556.206	151182
556.268	146436
556.330	141400
556.393	139390
556.455	136333
556.518	133291
556.580	128879
556.643	122452
556.705	122754
556.767	121002
556.830	118389
556.892	116712
556.955	115007
557.017	111031
557.079	111020
557.142	107684
557.204	106705
557.266	109851
557.328	101698
557.391	95381
557.453	92520
557.515	91546
557.577	93694
557.639	95167
557.701	93932
557.764	92654
557.826	94786
557.888	97251
557.950	101432
558.012	109665
558.074	133250
558.136	250423
558.198	534000
558.260	279992
558.322	117848
558.384	107944
558.446	109249
558.508	115607
558.570	127479
558.632	144701
558.694	182941
558.756	279098
558.818	580692
558.880	954474
558.942	610649
559.003	575275
559.065	374744
559.127	156044
559.189	137164
559.251	145095
559.312	190993
559.374	372323
559.436	777359
559.498	560062
559.559	204930
559.621	142530
559.683	147998
559.744	213380
559.806	498769
559.868	690554
559.929	283954
559.991	157470
560.052	213985
560.114	498640
560.176	401244
560.237	322737
560.299	494059
560.360	171751
560.422	68238
560.483	54434
560.545	50460
560.606	47220
560.667	44492
560.729	42191
560.790	38454
560.852	39508
560.913	37396
560.974	36096
561.036	36114
561.097	36714
561.158	35667
561.220	35297
561.281	34905
561.342	33652
561.403	33205
561.465	32283
561.526	34291
561.587	35016
561.648	31269
561.709	30087
561.771	30028
561.832	29343
561.893	29364
561.954	28768
562.015	27789
562.076	27845
562.137	26803
562.198	27980
562.259	28690
562.320	27130
562.381	28017
562.442	27960
562.503	26740
562.564	26341
562.625	26030
562.686	25149
562.747	25755
562.808	25064
562.869	24814
562.930	24497
562.991	24455
563.051	23304
563.112	24225
563.173	24294
563.234	23228
563.294	23236
563.355	22835
563.416	23313
563.477	23020
563.537	22235
563.598	24074
563.659	22347
563.720	21382
563.780	22246
563.841	22471
563.901	22714
563.962	22083
564.023	22809
564.083	21949
564.144	21880
564.204	20464
564.265	22096
564.325	20922
564.386	22186
564.446	20195
564.507	20693
564.567	19645
564.628	20367
564.688	19018
564.749	19015
564.809	19727
564.869	20114
564.930	19904
564.990	21075
565.050	19924
565.111	19898
565.171	20093
565.231	19352
565.292	20928
565.352	18998
565.412	19696
565.472	19957
565.532	20604
565.593	19337
565.653	19969
565.713	19416
565.773	19238
565.833	20699
565.893	21916
565.953	19820
566.013	19414
566.074	18322
566.134	18305
566.194	16872
566.254	18318
566.314	18170
566.374	17425
566.434	18150
566.494	18233
566.554	18232
566.614	18863
566.673	19259
566.733	20215
566.793	19465
566.853	19427
566.913	19081
566.973	19087
567.033	19570
567.092	19346
567.152	18338
567.212	19183
567.272	19232
567.331	20248
567.391	19762
567.451	21454
567.511	21010
567.570	19707
567.630	19787
567.690	19560
567.749	18946
567.809	19968
567.868	19963
567.928	18866
567.988	18950
568.047	20342
568.107	18918
568.166	20315
568.226	19196
568.285	20703
568.345	20211
568.404	20338
568.464	19285
568.523	18394
568.582	19494
568.642	19611
568.701	18269
568.761	18027
568.820	18448
568.879	18598
568.939	19213
568.998	18895
569.057	19461
569.116	19180
569.176	19289
569.235	18515
569.294	19732
569.353	18414
569.413	18434
569.472	17850
569.531	17834
569.590	17896
569.649	18318
569.708	17713
569.767	18536
569.827	18544
569.886	17584
569.945	17317
570.004	18635
570.063	18378
570.122	18989
570.181	19512
570.240	18560
570.299	20464
570.358	19139
570.417	19272
570.475	19862
570.534	19947
570.593	19718
570.652	21024
570.711	19225
570.770	19959
570.829	19840
570.887	19473
570.946	20234
571.005	19592
571.064	20190
571.122	20299
571.181	19751
571.240	20162
571.299	19391
571.357	19809
571.416	18202
571.475	18600
571.533	20016
571.592	20818
571.650	21285
571.709	21611
571.768	23920
571.826	25863
571.885	23924
571.943	21717
572.002	19736
572.060	19884
572.119	19238
572.177	19185
572.236	19301
572.294	20333
572.352	20441
572.411	19888
572.469	20243
572.528	18991
572.586	19336
572.644	19039
572.703	19092
572.761	18372
572.819	16857
572.877	17851
572.936	16839
572.994	16968
573.052	17446
573.110	18821
573.169	19219
573.227	19608
573.285	19037
573.343	18053
573.401	19167
573.459	18362
573.517	19253
573.576	20692
573.634	20174
573.692	19084
573.750	19710
573.808	19349
573.866	18348
573.924	18301
573.982	17567
574.040	16739
574.098	17468
574.155	17864
574.213	16975
574.271	18272
574.329	19377
574.387	18545
574.445	18113
574.503	17421
574.560	16214
574.618	16935
574.676	16343
574.734	16664
574.792	16660
574.849	16686
574.907	14786
574.965	14292
575.022	13876
575.080	14060
575.138	13494
575.195	13628
575.253	13660
575.311	13768
575.368	13749
575.426	13138
575.483	15006
575.541	13585
575.598	14769
575.656	14183
575.713	14239
575.771	15467
575.828	15589
575.886	13809
575.943	14336
576.001	12129
576.058	12901
576.115	12956
576.173	13912
576.230	13825
576.287	14134
576.345	14269
576.402	14174
576.459	14781
576.517	13400
576.574	13565
576.631	12127
576.688	12425
576.746	12748
576.803	12413
576.860	12171
576.917	12606
576.974	12942
577.031	13249
577.089	12684
577.146	11959
577.203	11215
577.260	11983
577.317	11216
577.374	11485
577.431	11463
577.488	11511
577.545	12086
577.602	12708
577.659	11643
577.716	12398
577.773	12341
577.830	11882
577.886	12744
577.943	12010
578.000	11261
578.057	10905
578.114	12336
578.171	12455
578.227	10917
578.284	11445
578.341	11360
578.398	11964
578.454	12304
578.511	11724
578.568	11687
578.625	11635
578.681	10962
578.738	11764
578.794	11579
578.851	12292
578.908	11660
578.964	12387
579.021	13051
579.077	11772
579.134	12334
579.190	12910
579.247	12241
579.303	11966
579.360	12122
579.416	12425
579.473	12208
579.529	12666
579.586	12697
579.642	12908
579.698	12611
579.755	12845
579.811	11435
579.867	12470
579.924	12450
579.980	12638
580.036	12438
580.093	12999
580.149	12668
580.205	12269
580.261	12565
580.317	13733
580.374	14005
580.430	13030
580.486	13291
580.542	13471
580.598	13138
580.619	13250
580.654	13455
580.692	13400
580.710	13394
580.765	13915
580.767	13943
580.823	14478
580.838	14474
580.879	14506
580.911	14035
580.935	13716
580.984	13946
580.991	13989
581.047	14220
581.057	14206
581.103	14209
581.130	13672
581.159	13101
581.203	13124
581.215	13155
581.270	12928
581.276	12877
581.326	12373
581.349	12724
581.382	13298
581.422	13136
581.438	13079
581.494	13123
581.494	13117
581.550	13397
581.567	13075
581.606	12410
581.640	12753
581.661	12959
581.713	13323
581.717	13356
581.773	13921
581.786	13542
581.829	12335
581.859	13221
581.885	14024
581.932	13383
581.940	13257
581.996	14668
582.004	14490
582.052	13458
582.077	13261
582.107	13107
582.150	12779
582.163	12679
582.219	12952
582.223	12907
582.274	12486
582.296	12631
582.330	12786
582.368	12519
582.386	12435
582.441	13069
582.441	13071
582.497	13253
582.514	13348
582.552	13599
582.587	12702
582.608	12163
582.659	12712
582.663	12761
582.719	13210
582.732	13179
582.774	12979
582.805	13077
582.830	13216
582.877	14003
582.885	14119
582.941	12265
582.950	12373
582.996	12865
583.023	12977
583.052	13305
583.095	13575
583.107	13566
583.162	13667
583.168	13737
583.218	14444
583.240	13912
583.273	13120
583.313	12954
583.328	12924
583.384	12702
583.385	12707
583.439	12823
583.458	12872
583.494	12912
583.531	13267
583.549	13531
583.603	13405
583.605	13390
583.660	13579
583.676	13435
583.715	13295
583.748	13633
583.770	13749
583.820	13424
583.825	13430
583.881	14551
583.893	14387
583.936	13576
583.965	13830
583.991	14007
584.038	13778
584.046	13757
584.101	14345
584.110	14220
584.156	13731
584.183	14188
584.211	14525
584.255	14138
584.266	14146
584.321	15033
584.328	15060
584.376	14961
584.400	15188
584.431	15366
584.472	15214
584.486	15249
584.541	16362
584.545	16378
584.596	16568
584.617	16592
584.651	16949
584.689	17449
584.706	17500
584.761	18569
584.762	18570
584.816	19190
584.834	19613
584.871	20414
584.906	20335
584.926	20334
584.978	22648
584.980	22754
585.035	23943
585.051	24766
585.090	27265
585.123	29124
585.145	30469
585.195	34479
585.200	34916
585.254	39775
585.267	41479
585.309	47996
585.340	52260
585.364	56005
585.412	66304
585.419	68130
585.473	84162
585.484	88730
585.528	116052
585.556	141533
585.583	186948
585.628	289596
585.637	322109
585.692	579439
585.700	618584
585.747	745823
585.772	697198
585.801	536067
585.845	285581
585.856	242560
585.910	120257
585.917	109188
585.965	77034
585.989	65007
586.019	56200
586.061	47609
586.074	45777
586.128	39475
586.133	39098
586.183	36541
586.205	35484
586.237	34208
586.277	32473
586.292	32049
586.346	31588
586.349	31540
586.401	31393
586.421	31319
586.455	31033
586.493	30357
586.509	30284
586.564	30368
586.565	30378
586.618	32496
586.637	33290
586.672	37072
586.709	42099
586.727	44179
586.781	50258
586.781	50288
586.835	43070
586.853	40929
586.889	36327
586.925	32095
586.944	31213
586.996	31088
586.998	31103
587.052	29963
587.068	29905
587.106	30166
587.140	30080
587.161	30232
587.212	30461
587.215	30479
587.269	30562
587.284	30516
587.323	30706
587.356	31315
587.377	31712
587.427	32152
587.431	32245
587.485	32955
587.499	33167
587.539	33591
587.571	34147
587.593	34834
587.643	36230
587.648	36353
587.702	37229
587.715	37294
587.755	37263
587.786	37216
587.810	37328
587.858	37446
587.864	37458
587.917	37539
587.930	37500
587.971	38193
588.001	38550
588.025	38339
588.073	37813
588.079	37809
588.133	37251
588.145	37128
588.187	37352
588.217	37576
588.241	38069
588.288	38818
588.295	38841
588.348	38611
588.360	38497
588.402	38691
588.431	39125
588.456	39134
588.503	38349
588.510	38572
588.564	40581
588.575	41069
588.617	42331
588.646	42746
588.671	42914
588.718	43495
588.725	43815
588.778	46426
588.789	46884
588.832	54367
588.861	61269
588.886	79799
588.932	119195
588.939	123689
588.993	160627
589.004	160853
589.047	94554
589.075	56958
589.100	49981
589.147	42267
589.154	42054
589.207	40779
589.218	40460
589.261	41538
589.290	42311
589.314	42600
589.361	43021
589.368	43507
589.421	47717
589.433	48753
589.475	62700
589.504	73361
589.528	90648
589.576	128966
589.582	126001
589.635	79462
589.647	69970
589.689	52884
589.718	43480
589.742	42913
589.790	41903
589.795	42029
589.849	42446
589.861	42557
589.902	42711
589.932	42523
589.955	42811
590.004	43545
590.009	43545
590.062	42606
590.075	42337
590.115	42556
590.146	42617
590.168	42666
590.218	42523
590.222	42609
590.275	43182
590.289	43228
590.328	44029
590.360	44522
590.381	44990
590.431	46073
590.435	46222
590.488	47297
590.503	47629
590.541	48246
590.574	48463
590.594	48939
590.645	50065
590.647	50184
590.700	51204
590.716	51432
590.753	52909
590.787	54341
590.806	54904
590.859	55640
590.859	55741
590.912	56598
590.930	56749
590.965	57318
591.001	57786
591.018	57840
591.071	57469
591.072	57370
591.124	56623
591.143	56172
591.177	56890
591.214	57625
591.230	58010
591.283	58983
591.285	58913
591.336	58948
591.356	58851
591.389	59355
591.427	59741
591.442	59342
591.495	57305
591.498	57079
591.547	58543
591.569	58968
591.600	59778
591.640	60679
591.653	60895
591.706	61244
591.711	61190
591.759	63430
591.782	64436
591.811	65477
591.853	66539
591.864	66827
591.917	67697
591.924	67689
591.969	67300
591.995	66932
592.022	67602
592.066	68364
592.075	68644
592.127	69587
592.137	69642
592.180	71454
592.208	72401
592.233	72930
592.279	73591
592.285	74003
592.338	76298
592.350	76695
592.390	76105
592.421	75372
592.443	76559
592.491	78760
592.495	78904
592.548	78853
592.562	78690
592.600	79816
592.633	80518
592.653	80297
592.704	78880
592.705	79363
592.775	80926
592.846	84398
592.916	85584
592.987	86112
593.058	86205
593.128	88092
593.199	88178
593.270	88058
593.341	89970
593.411	93486
593.482	95720
593.553	98599
593.623	100337
593.694	102839
593.764	105979
593.835	103897
593.906	105906
593.976	108777
594.047	111584
594.117	115642
594.188	119910
594.258	116833
594.329	118817
594.399	123510
594.470	125330
594.540	131227
594.611	131762
594.681	132607
594.751	130739
594.822	137132
594.892	142527
594.963	145797
595.033	150621
595.103	153810
595.174	155324
595.244	158910
595.314	164659
595.384	168701
595.455	173188
595.525	179063
595.595	183678
595.665	182925
595.736	179918
595.806	183388
595.876	185132
595.946	187505
596.016	197068
596.087	202241
596.157	202847
596.227	203498
596.297	213127
596.367	226227
596.437	238741
596.507	238469
596.577	238258
596.647	244992
596.717	256562
596.787	260542
596.857	261496
596.927	261716
596.997	263351
597.067	266117
597.137	271712
597.207	270876
597.277	273494
597.347	265541
597.417	255066
597.487	255498
597.557	260085
597.626	266992
597.696	270593
597.766	265663
597.836	251313
597.906	240913
597.975	236878
598.045	240253
598.115	250626
598.185	270184
598.254	297796
598.324	322055
598.394	328709
598.464	315991
598.533	311964
598.603	291544
598.672	280771
598.742	289640
598.812	290024
598.881	298016
598.951	295297
599.020	301451
599.090	311655
599.159	315415
599.229	301732
599.299	297155
599.368	304926
599.437	298169
599.507	276978
599.576	268433
599.646	263094
599.715	261441
599.785	260040
599.854	251298
599.924	246708
599.993	245644
600.062	252900
600.132	258110
600.201	272757
600.270	314769
600.340	331237
600.409	325828
600.478	320406
600.547	327472
600.617	294730
600.686	239847
600.755	216084
600.824	202087
600.894	198252
600.963	199732
601.032	197296
601.101	190494
601.170	180416
601.239	174830
601.308	175098
601.378	175733
601.447	174322
601.516	175087
601.585	178767
601.654	182013
601.723	180394
601.792	185388
601.861	191550
601.930	198394
601.999	200158
602.068	198240
602.137	203777
602.206	208236
602.275	206937
602.343	208834
602.412	212454
602.481	212797
602.550	215870
602.619	220415
602.688	223693
602.756	225055
602.825	225129
602.894	232102
602.963	234991
603.032	241062
603.100	242227
603.169	242350
603.238	244798
603.307	245798
603.375	248362
603.444	252751
603.513	259887
603.581	260677
603.650	266558
603.719	261019
603.787	268788
603.856	276590
603.924	284189
603.993	293955
604.061	303959
604.130	319106
604.198	323821
604.267	329516
604.335	336165
604.404	339178
604.472	341527
604.541	346746
604.609	350468
604.678	348986
604.746	349587
604.815	361692
604.883	366109
604.951	363852
605.020	371970
605.088	380024
605.156	389348
605.225	393831
605.293	393608
605.361	394657
605.429	397887
605.498	408276
605.566	418066
605.634	435820
605.702	449191
605.771	461352
605.839	463034
605.907	456952
605.975	437088
606.043	430572
606.111	434119
606.180	430974
606.248	430118
606.316	423203
606.384	422548
606.452	428842
606.520	438673
606.588	451096
606.656	456865
606.724	446806
606.792	421459
606.860	387032
606.928	355409
606.996	341529
607.064	335686
607.132	344724
607.200	364430
607.267	373957
607.335	383183
607.403	390440
607.471	377903
607.539	365275
607.607	368346
607.674	327973
607.742	331551
607.810	325405
607.878	326043
607.946	331685
608.013	347861
608.081	354947
608.149	356916
608.216	370034
608.284	379152
608.352	378816
608.419	373866
608.487	368221
608.555	360897
608.622	373588
608.690	397548
608.757	432656
608.825	440502
608.893	427255
608.960	405163
609.028	389189
609.095	390863
609.163	388911
609.230	349881
609.298	322846
609.365	341481
609.432	365585
609.500	393555
609.567	443809
609.635	500188
609.702	520920
609.769	493338
609.837	394959
609.904	351107
609.971	361848
610.039	390124
610.106	467375
610.173	712358
610.241	1172225
610.308	881021
610.375	471280
610.442	392942
610.509	370348
610.577	366343
610.644	369977
610.711	378657
610.778	387474
610.845	404539
610.912	425937
610.980	439018
611.047	438615
611.114	430388
611.181	418688
611.248	419322
611.315	441108
611.382	451922
611.449	466749
611.516	470554
611.583	465239
611.650	472249
611.717	475103
611.784	482421
611.851	500275
611.918	522287
611.984	583328
612.051	716556
612.118	1022352
612.185	1505092
612.252	1274287
612.319	777037
612.386	629281
612.452	568227
612.519	532673
612.586	516854
612.653	524633
612.719	539086
612.786	518199
612.853	488269
612.919	478714
612.986	483079
613.053	457884
613.120	434197
613.186	422014
613.253	422765
613.319	424127
613.386	425225
613.453	433076
613.519	434976
613.586	426086
613.652	433311
613.719	426119
613.785	433380
613.852	435490
613.918	433454
613.985	435751
614.051	452620
614.118	448745
614.184	432018
614.250	432476
614.317	439057
614.383	436441
614.449	442923
614.516	442420
614.582	444546
614.648	433384
614.715	429948
614.781	421901
614.847	421794
614.914	420528
614.980	409576
615.046	412756
615.112	425100
615.179	425808
615.245	430025
615.311	423592
615.377	430900
615.443	434192
615.509	442711
615.575	456154
615.642	452336
615.708	462943
615.774	480761
615.840	503270
615.906	529824
615.972	599722
616.038	778746
616.104	1147315
616.170	1595961
616.236	1481555
616.302	967841
616.368	805275
616.434	624172
616.500	565593
616.565	601875
616.631	725747
616.697	639050
616.763	626917
616.829	829073
616.895	1205122
616.961	1170598
617.026	734223
617.092	530467
617.158	476531
617.224	453568
617.289	417675
617.355	398746
617.421	392434
617.487	388487
617.552	371801
617.618	366114
617.684	367191
617.749	368112
617.815	351631
617.880	345455
617.946	346367
618.012	350589
618.077	360386
618.143	343736
618.208	347201
618.274	369685
618.339	369331
618.405	310738
618.470	309423
618.536	311598
618.601	305090
618.667	284790
618.732	270853
618.798	267120
618.863	268157
618.928	262903
618.994	267022
619.059	264545
619.124	270547
619.190	265124
619.255	261524
619.320	263709
619.386	264844
619.451	263897
619.516	252716
619.581	257930
619.647	264321
619.712	265826
619.777	253154
619.842	255392
619.907	260885
619.972	264570
620.038	263087
620.103	255204
620.168	256248
620.233	260355
620.298	261060
620.363	263583
620.428	271431
620.493	277087
620.558	280685
620.623	284307
620.688	282772
620.753	282151
620.818	287817
620.883	287862
620.948	288330
621.013	281937
621.078	278443
621.143	282821
621.207	286549
621.272	280852
621.337	272418
621.402	270523
621.467	267258
621.532	266790
621.596	268685
621.661	262645
621.726	259379
621.791	261918
621.855	261647
621.920	259358
621.985	263351
622.049	269319
622.114	267772
622.179	271373
622.243	277449
622.308	286103
622.373	297110
622.437	291151
622.502	276478
622.566	272660
622.631	273301
622.695	278694
622.760	276044
622.824	275255
622.889	278463
622.953	279547
623.018	296483
623.082	298266
623.147	292716
623.211	284056
623.276	286007
623.340	275352
623.404	268524
623.469	267315
623.533	273527
623.597	266363
623.662	266205
623.726	248056
623.790	233174
623.854	227077
623.919	231752
623.983	234665
624.047	237991
624.111	240247
624.176	245217
624.240	245503
624.304	252236
624.368	243638
624.432	245835
624.496	250098
624.560	263436
624.625	266740
624.689	262892
624.753	275795
624.817	262611
624.881	256911
624.945	235740
625.009	228212
625.073	230257
625.137	237728
625.201	250954
625.265	250405
625.329	239441
625.393	241252
625.456	244753
625.520	252002
625.584	256067
625.648	262035
625.712	265750
625.776	261994
625.839	247163
625.903	215331
625.967	201797
626.031	214392
626.095	249997
626.158	234168
626.222	189180
626.286	176178
626.349	169454
626.413	159058
626.477	159443
626.540	162459
626.604	158387
626.668	156545
626.731	154640
626.795	155643
626.858	155145
626.922	152338
626.986	151932
627.049	152673
627.113	158321
627.176	155374
627.240	147871
627.303	148712
627.366	150126
627.430	150526
627.493	148085
627.557	147030
627.620	148325
627.684	155060
627.747	155921
627.810	144135
627.874	130406
627.937	125030
628.000	129928
628.064	124759
628.127	112966
628.190	111893
628.253	108373
628.317	105593
628.380	99574
628.443	97783
628.506	95304
628.569	92209
628.632	88683
628.696	89140
628.759	88139
628.822	84086
628.885	82540
628.948	81297
629.011	78994
629.074	78468
629.137	75420
629.200	73339
629.263	73837
629.326	70952
629.389	72672
629.452	73090
629.515	71195
629.578	69712
629.641	71777
629.704	71356
629.767	70366
629.830	68275
629.892	66260
629.955	65876
630.018	68133
630.081	67435
630.144	69067
630.207	65654
630.269	67061
630.332	63613
630.395	64107
630.458	61439
630.520	59256
630.583	62086
630.646	62360
630.708	64321
630.771	62746
630.834	68130
630.896	66536
630.959	65245
631.021	62412
631.084	64744
631.146	64565
631.209	65365
631.272	65185
631.334	65891
631.397	67695
631.459	67662
631.522	72322
631.584	74796
631.646	78137
631.709	80541
631.771	81154
631.834	77515
631.896	74014
631.958	70070
632.021	67424
632.083	64400
632.145	64255
632.208	61697
632.270	63446
632.332	61378
632.395	59985
632.457	61811
632.519	60263
632.581	60992
632.643	60114
632.706	60393
632.768	58545
632.830	59908
632.892	61574
632.954	61388
633.016	62698
633.078	62212
633.141	61927
633.203	61947
633.265	61226
633.327	60255
633.389	60528
633.451	62505
633.513	61394
633.575	64414
633.637	62821
633.698	65094
633.760	68399
633.822	70456
633.884	72774
633.946	74102
634.008	77786
634.070	79961
634.132	83562
634.193	91003
634.255	98198
634.317	100124
634.379	96757
634.441	88201
634.502	81404
634.564	74016
634.626	69471
634.687	65863
634.749	62412
634.811	63200
634.873	59012
634.934	60663
634.996	62217
635.057	60761
635.119	61858
635.181	64014
635.242	64525
635.304	61924
635.365	66611
635.427	63584
635.488	63443
635.550	63420
635.611	65160
635.673	63885
635.734	70371
635.796	73878
635.857	80245
635.918	86458
635.980	95249
636.041	99612
636.102	104859
636.164	106262
636.225	102480
636.286	88488
636.348	81698
636.409	72738
636.470	67928
636.531	66214
636.593	62227
636.654	59123
636.715	57904
636.776	56610
636.838	55508
636.899	54098
636.960	52623
637.021	52701
637.082	50710
637.143	50919
637.204	48697
637.265	48654
637.326	50266
637.387	50430
637.448	49664
637.509	49960
637.570	48787
637.631	49244
637.692	45769
637.753	45595
637.814	45729
637.875	45249
637.936	46242
637.997	46350
638.058	44937
638.119	46498
638.179	44836
638.240	44837
638.301	45632
638.362	44812
638.423	43535
638.483	43021
638.544	39601
638.605	43401
638.666	42078
638.726	41390
638.787	42515
638.848	42539
638.908	41354
638.969	40257
639.030	38696
639.090	38073
639.151	39868
639.211	41507
639.272	40872
639.332	43410
639.393	43763
639.453	44667
639.514	47841
639.574	41771
639.635	38077
639.695	39263
639.756	37157
639.816	37192
639.877	36914
639.937	38915
639.997	40830
640.058	37966
640.118	36655
640.178	38280
640.239	37161
640.299	37927
640.359	38212
640.420	42608
640.480	46264
640.540	53686
640.600	53496
640.661	50049
640.721	48107
640.781	53116
640.841	50694
640.901	41061
640.961	39473
641.021	41585
641.082	43949
641.142	40528
641.202	37942
641.262	35189
641.322	36141
641.382	35523
641.442	36077
641.502	35245
641.562	35378
641.622	37561
641.682	41117
641.742	45852
641.802	44330
641.861	38003
641.921	35283
641.981	35140
642.041	33556
642.101	33281
642.161	31510
642.221	32197
642.280	32372
642.340	32644
642.400	31913
642.460	34478
642.519	34540
642.579	33897
642.639	35084
642.698	33162
642.758	37515
642.818	35931
642.877	34714
642.937	35077
642.997	35549
643.056	37137
643.116	34068
643.175	36239
643.235	37382
643.294	38211
643.354	40004
643.414	43597
643.473	49975
643.532	57426
643.592	75028
643.651	106095
643.711	168207
643.770	297739
643.830	607733
643.889	912661
643.948	401997
644.008	130687
644.067	77065
644.126	57652
644.186	48021
644.245	43801
644.304	38785
644.363	40778
644.423	35554
644.482	36987
644.541	39578
644.600	40988
644.659	49882
644.719	59974
644.778	83417
644.837	133815
644.896	256448
644.955	506221
645.014	203234
645.073	64958
645.132	48151
645.191	43693
645.250	41837
645.309	44497
645.368	48875
645.427	63852
645.486	107771
645.545	181471
645.604	61228
645.663	37822
645.722	37770
645.781	40159
645.840	44265
645.898	51915
645.957	67368
646.016	97447
646.075	157820
646.134	281656
646.192	611985
646.251	747253
646.310	236650
646.369	92985
646.427	72579
646.486	54306
646.545	41936
646.603	38003
646.662	36279
646.721	33392
646.779	33429
646.838	35305
646.896	42957
646.955	54764
647.014	83532
647.072	154252
647.131	371310
647.189	193328
647.248	44278
647.306	33135
647.365	30060
647.423	24979
647.481	26833
647.540	24210
647.598	25709
647.657	25499
647.715	25969
647.773	24059
647.832	24756
647.890	22369
647.948	22214
648.007	21817
648.065	20383
648.123	20631
648.181	22342
648.240	21232
648.298	19838
648.356	19896
648.414	21497
648.472	19497
648.531	19567
648.589	19328
648.647	18969
648.705	20170
648.763	19553
648.821	21103
648.879	22347
648.937	23921
648.995	28056
649.053	35381
649.111	50018
649.169	75911
649.227	128090
649.285	255168
649.343	575235
649.401	318620
649.459	73942
649.516	42272
649.574	32906
649.632	32715
649.690	34612
649.748	43306
649.806	61196
649.863	110866
649.921	286037
649.979	194774
650.037	37092
650.094	21979
650.152	20224
650.210	18621
650.268	19378
650.325	19383
650.383	22746
650.440	16284
650.498	14588
650.556	14203
650.613	14301
650.671	15023
650.728	15011
650.786	17414
650.843	24245
650.901	18430
650.958	14813
651.016	12901
651.073	12652
651.131	12909
651.188	11896
651.246	12283
651.303	11111
651.360	12369
651.418	11535
651.475	11812
651.532	10822
651.590	12266
651.647	11518
651.704	11653
651.762	11700
651.819	11636
651.876	10450
651.933	10070
651.990	11835
652.048	9690
652.105	10477
652.162	11070
652.219	9438
652.276	11081
652.333	11191
652.390	9611
652.448	9580
652.505	10534
652.562	9505
652.619	10014
652.676	10287
652.733	11542
652.790	9116
652.847	9018
652.904	9567
652.961	8302
653.017	9093
653.074	9867
653.131	9762
653.188	8641
653.245	9318
653.302	9661
653.359	9614
653.415	9916
653.472	8739
653.529	10113
653.586	8462
653.642	9188
653.699	10134
653.756	8124
653.813	8431
653.869	10919
653.926	9398
653.983	9172
654.039	9663
654.096	8864
654.152	9500
654.209	6883
654.266	8830
654.322	7783
654.379	8889
654.435	9851
654.492	8362
654.548	9388
654.605	9580
654.661	10453
654.717	9321
654.774	8244
654.830	8772
654.887	9348
654.943	9352
655.000	12055
655.056	9664
655.112	9172
655.168	8487
655.225	9242
655.281	9123
655.337	8851
655.394	8587
655.450	7977
655.506	7563
655.562	7350
655.618	9153
655.675	6434
655.731	8070
655.787	8128
655.843	8904
655.899	7400
655.955	9102
656.011	9147
656.067	7597
656.123	8112
656.179	7943
656.235	8581
656.291	7595
656.347	9465
656.403	7647
656.459	8179
656.515	8726
656.571	8735
656.627	8272
656.683	8035
656.739	8597
656.795	7510
656.850	8353
656.906	9110
656.962	9585
657.018	9034
657.074	12037
657.129	15865
657.185	25765
657.241	57148
657.297	32766
657.352	10013
657.408	8153
657.464	8589
657.519	7552
657.575	6957
657.630	7279
657.686	6883
657.742	7336
657.797	7145
657.853	6130
657.908	7826
657.964	5927
658.019	7359
658.075	7469
658.130	7680
658.186	6210
658.241	7124
658.297	5956
658.352	5945
658.407	7034
658.463	5998
658.518	6502
658.573	7259
658.629	5948
658.684	6844
658.739	6804
658.795	6139
658.850	6697
658.905	6298
658.960	6290
659.016	5675
659.071	6218
659.126	5909
659.181	5961
659.236	7714
659.291	7010
659.346	5906
659.401	6410
659.457	6898
659.512	6857
659.567	7572
659.622	5483
659.677	6009
659.732	5560
659.787	6384
659.842	5575
659.897	5711
659.952	6834
660.007	6512
660.061	7460
660.116	4859
660.171	5690
660.226	6101
660.281	7287
660.336	5528
660.391	6847
660.445	6181
660.500	6150
660.555	5652
660.610	5721
660.664	6079
660.719	5220
660.774	5677
660.828	6108
660.883	5285
660.938	6841
660.992	5740
661.047	5621
661.101	5124
661.156	5059
661.211	4542
661.265	4870
661.320	5270
661.374	6099
661.429	5084
661.483	6553
661.538	4985
661.592	5939
661.647	7085
661.701	8853
661.755	6586
661.810	6071
661.864	5386
661.919	5405
661.973	5967
662.027	6298
662.081	4306
662.136	5709
662.190	6005
662.244	4871
662.299	5272
662.353	5956
662.407	4608
662.461	5799
662.515	5772
662.569	4476
662.624	5289
662.678	4838
662.732	4219
662.786	5436
662.840	5517
662.894	5247
662.948	4976
663.002	4621
663.056	5518
663.110	4352
663.164	5589
663.218	5649
663.272	4748
663.326	6141
663.380	5796
663.434	5584
663.488	4392
663.542	5478
663.595	5316
663.649	5218
663.703	5867
663.757	5253
663.811	4957
663.864	4855
663.918	5224
663.972	5140
664.026	5148
664.079	4711
664.133	4971
664.187	5643
664.240	5336
664.294	5697
664.348	6295
664.401	5138
664.455	5673
664.508	4813
664.562	5420
664.615	5363
664.669	4518
664.722	5565
664.776	5079
664.829	5375
664.883	5376
664.936	5010
664.990	5034
665.043	6047
665.097	4962
665.150	5494
665.203	5058
665.257	4868
665.310	6052
665.363	5306
665.417	5652
665.470	5291
665.523	6161
665.576	5889
665.630	6061
665.683	5487
665.736	6245
665.789	5259
665.842	5348
665.895	5106
665.949	5949
666.002	5652
666.055	5794
666.108	6642
666.161	5476
666.214	6890
666.267	6727
666.320	6727
666.373	5832
666.426	7021
666.479	6107
666.532	6309
666.585	7651
666.638	6572
666.691	5188
666.744	7172
666.796	6055
666.849	5195
666.902	6179
666.955	5733
667.008	5756
667.060	6000
667.113	6621
667.166	6837
667.219	6683
667.271	7024
667.324	6529
667.377	6119
667.430	6498
667.482	6286
667.535	6023
667.587	6117
667.640	5881
667.693	5930
667.745	7471
667.798	7204
667.850	5884
667.903	6568
667.955	5992
668.008	6656
668.060	6484
668.113	5473
668.165	6108
668.218	6430
668.270	6323
668.322	6266
668.375	5814
668.427	6528
668.479	4979
668.532	6183
668.584	5837
668.636	6458
668.689	5351
668.741	5238
668.793	6352
668.845	5546
668.898	6467
668.950	5848
669.002	5441
669.054	5598
669.106	5793
669.158	5533
669.211	6177
669.263	5338
669.315	6425
669.367	5789
669.419	5451
669.471	5765
669.523	5355
669.575	5576
669.627	5058
669.679	5016
669.731	6030
669.783	5082
669.835	5067
669.886	4940
669.938	5089
669.990	5200
670.042	4968
670.094	5361
670.146	5906
670.197	5496
670.249	4860
670.301	5277
670.353	5376
670.404	5150
670.456	4871
670.508	5339
670.560	5870
670.611	6101
670.663	6287
670.715	7830
670.766	7238
670.818	6204
670.869	5205
670.921	6427
670.972	6914
671.024	5635
671.075	6342
671.127	6106
671.178	6731
671.230	8063
671.281	8997
671.333	10109
671.384	12602
671.436	16484
671.487	23151
671.538	33247
671.590	50269
671.641	81958
671.692	137821
671.744	243191
671.795	193933
671.846	86947
671.897	44034
671.949	27808
672.000	19528
672.051	14574
672.102	12305
672.153	9577
672.204	7820
672.256	7709
672.307	6893
672.358	6964
672.409	5926
672.460	6167
672.511	5270
672.562	4390
672.613	5453
672.664	4442
672.715	5852
672.766	4568
672.817	3927
672.868	4109
672.919	4018
672.970	3733
673.021	3636
673.071	3528
673.122	3430
673.173	3865
673.224	3540
673.275	4058
673.326	3807
673.376	3757
673.427	2681
673.478	3463
673.528	4398
673.579	3879
673.630	3813
673.680	3779
673.731	3679
673.782	3735
673.832	3849
673.883	3618
673.934	4022
673.984	3350
674.035	3711
674.085	3859
674.136	4448
674.186	4595
674.237	3796
674.287	3832
674.338	4751
674.388	4569
674.438	4655
674.489	4692
674.539	4662
674.589	4721
674.640	4980
674.690	4313
674.740	3513
674.791	4400
674.841	4131
674.891	4151
674.942	3513
674.992	2654
675.042	3022
675.092	2436
675.142	2896
675.193	2822
675.243	2525
675.293	2941
675.343	2336
675.393	3063
675.443	2609
675.493	3532
675.543	3460
675.593	3142
675.643	2690
675.693	3939
675.743	3307
675.793	2792
675.843	2351
675.893	2895
675.943	1841
675.993	2481
676.043	2312
676.093	2764
676.142	2904
676.192	1974
676.242	2647
676.292	2277
676.341	2204
676.391	3502
676.441	2253
676.491	3051
676.540	2217
676.590	2621
676.640	2188
676.689	2494
676.739	1369
676.789	1350
676.838	2528
676.888	2329
676.937	2009
676.987	2665
677.037	1636
677.086	1999
677.136	1366
677.185	1948
677.235	2524
677.284	1817
677.333	1660
677.383	1954
677.432	2005
677.482	1656
677.531	1911
677.580	2492
677.630	1410
677.679	2227
677.728	1472
677.778	1898
677.827	1199
677.876	1811
677.925	1709
677.975	1883
678.024	2610
678.073	2846
678.122	1494
678.171	3283
678.220	3094
678.269	4293
678.319	4334
678.368	4648
678.417	3463
678.466	2759
678.515	2279
678.564	1459
678.613	1204
678.662	1764
678.711	1943
678.760	1637
678.809	2113
678.857	2307
678.906	2345
678.955	1852
679.004	2596
679.053	2237
679.102	2712
679.151	1852
679.199	2050
679.248	1346
679.297	1723
679.346	1330
679.394	1140
679.443	1573
679.492	1695
679.540	2500
679.589	1372
679.638	2107
679.686	2210
679.735	2092
679.784	2943
679.832	3224
679.881	2804
679.929	2089
679.978	2033
680.026	1692
680.075	1946
680.123	1773
680.172	847
680.220	2201
680.268	1850
680.317	941
680.365	636
680.414	1213
680.462	1183
680.510	1517
680.559	822
680.607	1597
680.655	1576
680.703	1009
680.752	1771
680.800	1883
680.848	899
680.896	937
680.945	67
680.993	675
681.041	714
681.089	761
681.137	1426
681.185	949
681.233	870
681.258	1209
681.281	1497
681.329	1293
681.377	1143
681.380	1180
681.425	1237
681.473	1933
681.502	1850
681.521	1735
681.569	1963
681.617	1805
681.624	1814
681.665	1594
681.713	2344
681.745	2131
681.761	1981
681.809	1600
681.857	2096
681.867	2037
681.904	1664
681.952	2528
681.989	2670
682.000	2679
682.048	2655
682.096	2123
682.111	2110
682.143	1968
682.191	2110
682.233	3031
682.239	3136
682.286	2280
682.334	2113
682.354	2461
682.382	2849
682.430	3359
682.476	3001
682.477	2961
682.525	2590
682.572	3157
682.598	2814
682.620	2505
682.667	3191
682.715	3724
682.720	3667
682.763	2850
682.810	3490
682.841	3379
682.857	3257
682.905	3516
682.952	3621
682.963	3777
683.000	4230
683.047	3598
683.085	4967
683.095	5324
683.142	3912
683.190	4595
683.206	4177
683.237	3273
683.284	4617
683.328	3369
683.332	3239
683.379	3369
683.426	3695
683.449	3861
683.473	4066
683.521	3900
683.568	4794
683.571	4824
683.615	4667
683.662	4934
683.693	5001
683.709	4987
683.757	3812
683.804	4689
683.814	4555
683.851	4100
683.898	4630
683.936	4759
683.945	4786
683.992	4820
684.039	5014
684.057	5045
684.086	4904
684.133	4662
684.179	4778
684.180	4764
684.227	5407
684.274	4868
684.300	4762
684.321	4672
684.368	5096
684.415	5041
684.422	4986
684.462	4582
684.509	5172
684.543	5574
684.556	5676
684.603	6736
684.649	5759
684.665	5517
684.696	4972
684.743	6063
684.786	6315
684.790	6309
684.837	5375
684.883	5407
684.908	5333
684.930	5356
684.977	6412
685.023	5692
685.029	5786
685.070	6286
685.117	6438
685.150	6593
685.164	6624
685.210	6423
685.257	6863
685.272	6947
685.303	7115
685.350	6506
685.393	6516
685.396	6487
685.443	6218
685.490	6358
685.514	6519
685.536	6725
685.583	6468
685.629	6592
685.636	6576
685.675	6527
685.722	7190
685.757	7042
685.768	6913
685.815	6520
685.861	7099
685.878	6901
685.908	6762
685.954	6847
686.000	7356
686.000	7353
686.047	7382
686.093	7126
686.121	7467
686.139	7682
686.185	7706
686.232	7402
686.242	7504
686.278	7752
686.324	7444
686.363	7386
686.370	7399
686.416	7924
686.463	7807
686.484	7896
686.509	7906
686.555	7676
686.601	7486
686.606	7533
686.647	7861
686.693	7729
686.727	7743
686.739	7786
686.785	7395
686.831	7965
686.848	7882
686.877	7809
686.923	8474
686.969	7955
686.969	7950
687.015	8666
687.061	8462
687.090	8922
687.107	9209
687.153	9385
687.199	8965
687.211	9077
687.245	9143
687.291	8553
687.332	8614
687.336	8673
687.382	8872
687.428	9155
687.453	9910
687.474	10354
687.520	10207
687.565	9651
687.574	9747
687.611	10639
687.657	11706
687.695	12194
687.702	12374
687.748	13752
687.794	16837
687.816	16769
687.839	15485
687.885	13538
687.931	12252
687.937	11980
687.976	10948
688.022	10195
688.058	9792
688.067	9811
688.113	9931
688.158	9404
688.179	9543
688.204	9848
688.249	10021
688.295	10382
688.300	10335
688.340	9880
688.386	10105
688.421	9882
688.431	9841
688.477	9592
688.522	10207
688.542	10466
688.567	11093
688.613	10800
688.658	11925
688.663	11969
688.703	11678
688.749	11251
688.784	11258
688.794	11375
688.839	10750
688.884	11470
688.905	11705
688.930	11776
688.975	11351
689.020	10795
689.026	10781
689.065	11295
689.110	11625
689.146	12258
689.155	12364
689.201	12443
689.246	12239
689.267	12322
689.291	12289
689.336	12086
689.381	12029
689.388	11904
689.426	11542
689.471	11556
689.509	11686
689.516	11723
689.561	11825
689.606	11712
689.630	11700
689.651	11679
689.696	11240
689.741	11632
689.750	11648
689.785	12049
689.830	12305
689.871	12172
689.875	12112
689.920	11766
689.965	11385
689.992	11082
690.010	11184
690.054	11218
690.099	11491
690.112	11680
690.144	11878
690.189	11324
690.233	11154
690.233	11172
690.278	11714
690.323	12307
690.354	12481
690.367	12493
690.412	12348
690.457	12191
690.474	12318
690.501	12366
690.546	12229
690.590	12059
690.595	11974
690.635	11419
690.680	11335
690.716	10598
690.724	10535
690.769	10922
690.813	11910
690.836	11735
690.857	11667
690.902	11814
690.946	12210
690.957	12316
690.991	12428
691.035	12465
691.077	12035
691.080	12050
691.124	12557
691.168	12866
691.198	12773
691.213	12693
691.257	13055
691.301	12864
691.318	12898
691.346	12887
691.390	12749
691.434	12283
691.439	12224
691.478	12439
691.522	13458
691.559	13327
691.567	13282
691.611	13904
691.655	13408
691.680	13546
691.699	13612
691.743	13420
691.787	13312
691.800	13292
691.831	13396
691.875	13309
691.919	13163
691.921	13133
691.964	13139
692.008	13500
692.041	13276
692.052	13227
692.096	13454
692.139	13539
692.162	13539
692.183	13557
692.227	13755
692.271	13498
692.282	13498
692.315	13338
692.359	13071
692.402	12614
692.403	12641
692.447	13032
692.490	13223
692.523	13368
692.534	13350
692.578	13357
692.622	13425
692.643	13255
692.666	13219
692.709	13135
692.753	13456
692.763	13505
692.797	13825
692.840	13693
692.884	13872
692.884	13901
692.928	13446
692.971	13452
693.004	13318
693.015	13336
693.059	13459
693.102	13336
693.124	13139
693.146	13218
693.189	13740
693.233	13791
693.245	13966
693.276	14323
693.320	14594
693.363	14101
693.365	14066
693.407	14099
693.450	14247
693.485	14521
693.493	14570
693.537	14367
693.580	13815
693.605	13930
693.624	14089
693.667	13807
693.710	13739
693.725	13609
693.753	13544
693.797	13656
693.840	13600
693.845	13575
693.883	13630
693.926	13626
693.966	13731
693.970	13801
694.013	13873
694.056	13841
694.086	14159
694.099	14219
694.142	13894
694.185	13827
694.206	13647
694.229	13855
694.272	14424
694.315	15015
694.326	15056
694.358	15097
694.401	15230
694.444	15380
694.446	15353
694.487	15196
694.530	15060
694.566	14723
694.573	14800
694.616	15067
694.659	15322
694.686	15751
694.702	15871
694.745	15672
694.787	15417
694.806	15345
694.830	15280
694.873	15090
694.916	14906
694.926	14811
694.959	15576
695.002	16670
695.044	17510
695.046	17520
695.087	17899
695.130	17749
695.166	17807
695.172	17867
695.215	17749
695.258	18028
695.286	17988
695.301	18115
695.343	18394
695.386	18794
695.406	18886
695.428	19627
695.471	20948
695.514	22326
695.526	22688
695.556	24565
695.599	27126
695.641	29657
695.646	29848
695.684	27944
695.726	25877
695.766	23904
695.769	23940
695.811	23672
695.854	23323
695.886	22949
695.896	22974
695.938	22878
695.981	22922
696.005	22849
696.023	23807
696.065	26084
696.108	28251
696.125	29067
696.150	29262
696.192	29509
696.235	29775
696.245	29767
696.277	30122
696.319	30576
696.361	30903
696.365	30857
696.404	30020
696.446	29060
696.485	28186
696.488	28268
696.530	28267
696.572	28366
696.604	28277
696.614	28292
696.656	28175
696.698	28099
696.724	27949
696.740	28309
696.783	29080
696.825	29891
696.844	30132
696.867	30202
696.909	30340
696.951	30239
696.964	30215
696.992	30368
697.034	30372
697.076	30358
697.083	30276
697.118	31309
697.160	32626
697.202	33686
697.203	33634
697.244	33256
697.286	32804
697.323	32152
697.327	32222
697.369	32299
697.411	32273
697.442	32266
697.453	32519
697.494	33084
697.536	33729
697.562	34011
697.578	33863
697.620	33302
697.661	32696
697.682	32314
697.703	33162
697.744	34642
697.786	36270
697.801	36725
697.828	36761
697.869	36695
697.911	36568
697.921	36470
697.952	36056
697.994	35332
698.035	34632
698.040	34454
698.077	35050
698.118	35662
698.160	36228
698.160	36137
698.201	37120
698.243	37988
698.279	38663
698.284	38856
698.325	39727
698.367	40570
698.399	41136
698.408	41381
698.449	42036
698.491	42688
698.518	42998
698.532	42957
698.573	42493
698.614	42041
698.638	41664
698.656	41688
698.697	41516
698.738	41333
698.757	41139
698.779	41410
698.820	41723
698.862	42041
698.877	42052
698.903	42070
698.944	41922
698.985	41766
698.996	41617
699.026	41855
699.067	42036
699.116	42144
699.235	42630
699.354	41389
699.474	37962
699.593	37825
699.713	37677
699.832	38727
699.951	41324
700.070	39421
700.190	37266
700.309	35620
700.428	36170
700.547	34918
700.667	34297
700.786	34642
700.905	33243
701.024	34411
701.143	32975
701.262	35955
701.381	35663
701.500	37182
701.619	35784
701.738	35846
701.857	35505
701.976	32068
702.095	34203
702.214	35766
702.333	32527
702.452	35442
702.571	35422
702.690	34211
702.809	35930
702.928	32269
703.047	31386
703.165	31931
703.284	31504
703.403	30929
703.522	31672
703.640	29893
703.759	30734
703.878	29635
703.997	30465
704.115	30170
704.234	29498
704.353	30180
704.471	27270
704.590	27975
704.708	27144
704.827	26800
704.946	26898
705.064	27582
705.183	27797
705.301	27333
705.420	25713
705.538	25724
705.656	23538
705.775	23870
705.893	26998
706.012	25778
706.130	24442
706.249	25722
706.367	23050
706.485	24002
706.604	23321
706.722	24367
706.840	28956
706.958	39290
707.077	28531
707.195	23888
707.313	22445
707.431	20537
707.549	21378
707.668	19955
707.786	24028
707.904	21464
708.022	23032
708.140	21380
708.258	19930
708.376	22476
708.494	19431
708.612	22423
708.730	22231
708.848	20943
708.966	21887
709.084	22039
709.202	22058
709.320	19344
709.438	19693
709.556	19976
709.674	17947
709.791	17777
709.909	18642
710.027	18381
710.145	17899
710.263	18841
710.380	18654
710.498	17877
710.616	18202
710.733	16615
710.851	17281
710.969	17425
711.086	16520
711.204	17584
711.322	16874
711.439	17003
711.557	16325
711.674	16011
711.792	16390
711.909	15150
712.027	16461
712.144	14837
712.262	16232
712.379	16891
712.497	16249
712.614	15435
712.732	15837
712.849	14580
712.966	16436
713.084	16959
713.201	14386
713.318	15746
713.436	17777
713.553	15002
713.670	17256
713.787	16866
713.905	15496
714.022	18104
714.139	18006
714.256	22202
714.373	31216
714.490	59140
714.608	153957
714.725	515998
714.842	416533
714.959	62179
715.076	27549
715.193	22380
715.310	19843
715.427	15878
715.544	16342
715.661	15571
715.778	14467
715.895	14627
716.011	14945
716.128	14459
716.245	15125
716.362	14138
716.479	11633
716.596	13013
716.713	14729
716.829	12289
716.946	12183
717.063	11463
717.180	11728
717.296	12189
717.413	12160
717.530	11459
717.646	10554
717.763	11186
717.880	11483
717.996	10630
718.113	11873
718.229	11227
718.346	10504
718.462	10646
718.579	11867
718.695	11369
718.812	10855
718.928	10522
719.045	10245
719.161	10561
719.277	11070
719.394	12227
719.510	11295
719.626	12781
719.743	16584
719.859	25929
719.975	57466
720.092	216866
720.208	361814
720.324	51233
720.440	16943
720.557	13923
720.673	13248
720.789	11011
720.905	10627
721.021	10318
721.137	9587
721.253	8484
721.369	10170
721.486	9532
721.602	8889
721.718	8633
721.834	9905
721.950	9521
722.066	9173
722.181	8758
722.297	8862
722.413	8459
722.529	9568
722.645	9761
722.761	8298
722.877	8366
722.993	10756
723.108	13524
723.224	11158
723.340	8983
723.456	8661
723.571	7413
723.687	7545
723.803	8218
723.918	8329
724.034	7400
724.150	7938
724.265	8328
724.381	7948
724.497	7357
724.612	7301
724.728	8138
724.843	6426
724.959	7923
725.074	7899
725.190	7614
725.305	8198
725.421	7505
725.536	9222
725.651	8617
725.767	8205
725.882	7932
725.997	8322
726.113	8086
726.228	7569
726.343	7176
726.459	7913
726.574	7388
726.689	8031
726.804	6916
726.920	7359
727.035	6408
727.150	8248
727.265	6157
727.380	7668
727.495	6297
727.610	7680
727.725	7167
727.841	7442
727.956	7183
728.071	8159
728.186	6724
728.301	6931
728.416	7267
728.531	7206
728.645	7200
728.760	7806
728.875	6721
728.990	7882
729.105	7182
729.220	7456
729.335	6746
729.449	7898
729.564	6470
729.679	6737
729.794	7939
729.908	6927
730.023	6512
730.138	7702
730.253	6944
730.367	7774
730.482	6798
730.596	8201
730.711	10135
730.826	15579
730.940	15023
731.055	10711
731.169	11036
731.284	11450
731.398	11218
731.513	12181
731.627	13545
731.742	18970
731.856	23079
731.970	22941
732.085	29797
732.199	43128
732.313	76730
732.428	188634
732.542	432050
732.656	223768
732.771	59212
732.885	35889
732.999	31689
733.113	32544
733.227	30370
733.342	29778
733.456	27923
733.570	26901
733.684	25582
733.798	24652
733.912	24874
734.026	25754
734.140	24696
734.254	23391
734.368	23321
734.482	24087
734.596	23918
734.710	23288
734.824	21890
734.938	21856
735.052	22945
735.166	22187
735.280	21451
735.393	21122
735.507	22142
735.621	20333
735.735	19814
735.849	22332
735.962	18932
736.076	21394
736.190	19465
736.303	20232
736.417	20378
736.531	19403
736.644	19825
736.758	19418
736.872	19016
736.985	19352
737.099	18292
737.212	18508
737.326	17408
737.439	19929
737.553	17110
737.666	18658
737.780	17056
737.893	18072
738.007	17504
738.120	18653
738.233	15885
738.347	18367
738.460	16110
738.573	18831
738.687	15940
738.800	18309
738.913	18801
739.026	17171
739.140	15186
739.253	17189
739.366	15588
739.479	15180
739.592	16595
739.705	15195
739.818	16461
739.932	14504
740.045	16295
740.158	15411
740.271	16288
740.384	15533
740.497	13099
740.610	16196
740.723	13852
740.836	14322
740.949	14870
741.062	16801
741.174	14070
741.287	14766
741.400	14357
741.513	12628
741.626	15758
741.739	13639
741.851	13576
741.964	14857
742.077	13337
742.189	11786
742.302	13824
742.415	13648
742.527	12629
742.640	13797
742.753	11031
742.865	13787
742.978	12835
743.090	12411
743.203	12506
743.316	12016
743.428	12723
743.541	13536
743.653	11013
743.766	13093
743.878	12205
743.990	10179
744.103	12535
744.215	11091
744.327	10851
744.440	14472
744.552	11215
744.664	10139
744.777	13008
744.889	11374
745.001	10340
745.113	12040
745.226	10976
745.338	9813
745.450	12833
745.562	10925
745.674	10092
745.786	12652
745.898	11225
746.010	9999
746.122	11616
746.234	11103
746.347	10176
746.459	11225
746.570	7479
746.682	11873
746.794	12751
746.906	9456
747.018	9457
747.130	10609
747.242	8573
747.354	10544
747.466	10972
747.577	9437
747.689	9921
747.801	10544
747.913	8976
748.024	8794
748.136	9282
748.248	9010
748.359	9253
748.471	10056
748.583	7453
748.694	8407
748.806	9840
748.918	8532
749.029	8723
749.141	9662
749.252	9051
749.364	8508
749.475	8441
749.587	8241
749.698	8480
749.809	9390
749.921	8822
750.032	8281
750.144	7488
750.255	7983
750.366	7354
750.478	7476
750.589	8525
750.700	7231
750.811	8724
750.923	6973
751.034	8450
751.145	9741
751.256	7403
751.367	7188
751.479	7683
751.590	7547
751.701	7188
751.812	6242
751.923	6212
752.034	9219
752.145	7595
752.256	7668
752.367	7886
752.478	7636
752.589	8079
752.700	8180
752.811	6060
752.922	8173
753.032	8137
753.143	8190
753.254	6995
753.365	9023
753.476	8124
753.586	7518
753.697	6825
753.808	7305
753.919	7465
754.029	6693
754.140	6069
754.251	6530
754.361	6706
754.472	7922
754.582	6696
754.693	6457
754.804	7826
754.914	6832
755.025	5552
755.135	6949
755.246	6987
755.356	7321
755.466	5354
755.577	5711
755.687	6673
755.798	6373
755.908	6267
756.018	5894
756.129	6321
756.239	7306
756.349	7654
756.460	7041
756.570	7399
756.680	5788
756.790	6434
756.900	6920
757.011	5145
757.121	5358
757.231	5873
757.341	6879
757.451	4680
757.561	5122
757.671	6912
757.781	6236
757.891	4834
758.001	4975
758.111	5999
758.221	7402
758.331	7891
758.441	6488
758.551	6339
758.661	7398
758.771	7193
758.880	6249
758.990	6488
759.100	6417
759.210	6542
759.320	7340
759.429	6066
759.539	7951
759.649	7574
759.758	9483
759.868	9825
759.978	8812
760.087	11036
760.197	10563
760.307	8903
760.416	8554
760.526	7818
760.635	8985
760.745	8999
760.854	10528
760.964	11934
761.073	11636
761.182	10674
761.292	8449
761.401	8007
761.511	6617
761.620	6356
761.729	6461
761.839	5486
761.948	5304
762.057	6427
762.166	6702
762.276	4997
762.385	6249
762.494	6056
762.603	4545
762.712	5138
762.822	6345
762.931	5216
763.040	3813
763.149	4952
763.258	5337
763.367	5004
763.476	4326
763.585	4869
763.694	4452
763.803	4226
763.912	4774
764.021	4084
764.130	4271
764.238	4900
764.347	5137
764.456	5405
764.565	4137
764.674	3984
764.783	4301
764.891	4883
765.000	4919
765.109	4062
765.217	2818
765.326	4260
765.435	4568
765.543	4948
765.652	4096
765.761	3566
765.869	3807
765.978	3601
766.086	5171
766.195	4305
766.303	6126
766.412	13097
766.520	10354
766.629	4535
766.737	4260
766.846	3339
766.954	3600
767.062	5036
767.171	4193
767.279	4649
767.387	4228
767.496	3214
767.604	2760
767.712	3566
767.820	4093
767.928	3743
768.037	2699
768.145	3933
768.253	4348
768.361	3220
768.469	3434
768.577	2815
768.685	3972
768.793	3525
768.901	4344
769.009	3812
769.117	3656
769.225	3188
769.333	4344
769.441	4817
769.549	4197
769.657	4220
769.765	6503
769.873	11110
769.981	5586
770.088	4673
770.196	5132
770.304	5920
770.412	5790
770.519	5509
770.627	6696
770.735	5412
770.842	5314
770.950	6702
771.058	6597
771.165	8580
771.273	9268
771.380	10755
771.488	15504
771.595	17137
771.703	13765
771.810	13500
771.918	14936
772.025	18431
772.133	21211
772.240	18796
772.348	22807
772.455	20217
772.562	19351
772.670	18091
772.777	19382
772.884	18988
772.991	17159
773.099	18563
773.206	16798
773.313	17075
773.420	17670
773.528	17583
773.635	16735
773.742	18225
773.849	15919
773.956	18010
774.063	16443
774.170	16965
774.277	17092
774.384	15503
774.491	15814
774.598	16615
774.705	15393
774.812	16561
774.919	16510
775.026	15549
775.133	15860
775.239	16100
775.346	15093
775.453	15110
775.560	14971
775.667	15295
775.773	13702
775.880	14146
775.987	14265
776.093	14732
776.200	17353
776.307	10862
776.413	12829
776.520	16933
776.627	13937
776.733	12749
776.840	11702
776.946	17738
777.053	13857
777.159	12648
777.266	12352
777.372	13549
777.478	14930
777.585	13687
777.691	11511
777.798	14255
777.904	12040
778.010	11947
778.117	12599
778.223	11572
778.329	13029
778.435	9881
778.542	13558
778.648	11032
778.754	10554
778.860	12507
778.966	12762
779.072	10431
779.178	12054
779.284	9688
779.391	11777
779.497	11291
779.603	12861
779.708	9807
779.815	9525
779.920	12212
780.026	9853
780.132	10564
780.238	10338
780.344	9517
780.450	13231
780.556	8177
780.661	9223
780.767	12457
780.873	7455
780.979	10466
781.085	12028
781.190	9298
781.296	8581
781.402	10398
781.507	10148
781.613	7885
781.719	10079
781.824	10880
781.930	9422
782.035	9045
782.141	10843
782.246	6638
782.352	8821
782.457	9488
782.563	9223
782.668	9535
782.773	7696
782.879	6992
782.984	9393
783.090	8563
783.195	9807
783.300	10404
783.405	8056
783.511	6316
783.616	8912
783.721	8141
783.826	7105
783.932	7321
784.037	8950
784.142	8217
784.247	7556
784.352	9051
784.457	6476
784.562	8197
784.667	9353
784.772	6758
784.877	5062
784.982	9363
785.087	9325
785.192	6084
785.297	8243
785.402	8798
785.507	7526
785.611	7260
785.716	6798
785.821	6808
785.926	7459
786.031	6720
786.135	7292
786.240	7438
786.345	5348
786.450	5229
786.554	7232
786.659	6242
786.763	6782
786.868	6570
786.973	8273
787.077	6057
787.182	5274
787.286	7031
787.391	8164
787.495	5165
787.600	5449
787.704	5900
787.809	6861
787.913	5638
788.017	6515
788.122	7117
788.226	5384
788.330	3349
788.435	7259
788.539	7298
788.643	6017
788.747	4456
788.852	5493
788.956	5835
789.060	7364
789.164	5905
789.268	4846
789.372	6592
789.476	5501
789.580	4321
789.684	4184
789.788	6664
789.892	5453
789.996	4863
790.100	3745
790.204	5514
790.308	7272
790.412	3339
790.516	4329
790.620	4795
790.724	6645
790.828	4703
790.931	3357
791.035	5276
791.139	4896
791.242	4739
791.346	5169
791.450	5557
791.554	4388
791.657	2587
791.761	4711
791.864	5376
791.968	6551
792.072	5598
792.175	3781
792.279	4576
792.382	4346
792.486	4036
792.589	4386
792.693	5721
792.796	3320
792.899	4842
793.003	4999
793.106	3027
793.209	4263
793.313	4312
793.416	1424
793.519	3805
793.623	6742
793.726	5106
793.829	3598
793.932	2273
794.035	3295
794.138	5327
794.242	6709
794.345	2482
794.448	3008
794.551	2764
794.654	5141
794.757	5148
794.860	3153
794.963	4664
795.066	3387
795.169	4225
795.272	3849
795.375	5110
795.477	2622
795.580	2828
795.683	2884
795.786	5325
795.889	2735
795.991	4655
796.094	4624
796.197	3112
796.300	5044
796.402	4238
796.505	3149
796.608	1952
796.710	3266
796.813	5092
796.915	4500
797.018	3615
797.120	3944
797.223	3154
797.326	4678
797.428	2611
797.530	2974
797.633	2294
797.735	4730
797.838	3580
797.940	5195
798.042	3480
798.145	3134
798.247	3802
798.349	2182
798.452	3544
798.554	3954
798.656	3575
798.758	5350
798.860	2923
798.962	3283
799.065	3006
799.167	1943
799.269	3904
799.371	4523
799.473	5655
799.575	4030
799.677	2840
799.779	4941
799.881	2181
799.983	5010
800.085	2843
800.187	3854
800.289	2205
800.390	2941
800.492	4164
800.594	4259
800.696	2091
800.798	3513
800.899	2950
801.001	4171
801.103	3032
801.205	2709
801.306	3113
801.408	3169
801.509	2566
801.611	3138
801.713	3697
801.814	2391
801.916	2484
802.017	2325
802.119	1184
802.220	3209
802.322	1863
802.423	4220
802.525	1028
802.626	2485
802.727	3475
802.829	3699
802.930	-695
803.031	3290
803.133	1682
803.234	2883
803.335	3302
803.436	1764
803.538	2817
803.639	1648
803.740	2092
803.841	3310
803.942	3363
804.043	2468
804.144	1071
804.245	2059
804.346	2288
804.447	1860
804.548	1951
804.649	3479
804.750	2034
804.851	2615
804.952	1862
805.053	2266
805.154	1297
805.255	3504
805.355	2398
805.456	2743
805.557	2011
805.658	1677
805.758	2323
805.859	2959
805.960	2431
806.061	1846
806.161	1798
806.262	2135
806.362	924
806.463	1277
806.564	2877
806.664	2062
806.765	1427
806.865	2546
806.966	1057
807.066	1741
807.166	2154
807.267	2353
807.367	1525
807.468	3267
807.568	1103
807.668	2887
807.769	3132
807.869	1720
807.969	2109
808.069	1999
808.170	1473
808.270	2442
808.370	2404
808.470	2385
808.570	1273
808.670	2102
808.770	1433
808.870	1697
808.970	1491
809.070	2012
809.170	1698
809.271	2611
809.370	1703
809.470	2637
809.570	1219
809.670	2216
809.770	1021
809.870	2655
809.970	1536
810.070	2170
810.169	2113
810.269	1472
810.369	3048
810.469	2376
810.568	1950
810.668	1187
810.768	756
810.867	935
810.967	869
811.066	1243
811.166	1470
811.265	3114
811.365	1842
811.464	2223
811.564	1490
811.663	2596
811.763	571
811.862	3016
811.962	1937
812.061	1823
812.160	1553
812.260	1588
812.359	2161
812.458	1779
812.557	2913
812.657	2010
812.756	1813
812.855	1696
812.954	1135
813.053	2694
813.153	2453
813.252	1168
813.351	2144
813.450	2998
813.549	1742
813.648	2110
813.747	1901
813.846	2819
813.945	1915
814.044	3097
814.143	1914
814.242	3465
814.341	1680
814.439	3032
814.538	2383
814.637	3219
814.736	3064
814.835	3764
814.933	2893
815.032	4684
815.131	6904
815.229	12430
815.328	17462
815.427	12752
815.525	11183
815.624	10116
815.722	10679
815.821	11063
815.919	11742
816.018	11400
816.116	11438
816.215	11113
816.313	12624
816.412	15471
816.510	14426
816.609	16481
816.707	16439
816.805	14388
816.904	14055
817.002	15758
817.100	15315
817.198	15349
817.296	14119
817.395	14444
817.493	14047
817.591	13571
817.689	13126
817.787	13727
817.885	12796
817.983	12427
818.081	12603
818.179	12350
818.277	14892
818.375	12578
818.473	11833
818.571	12010
818.669	12188
818.767	14714
818.865	11579
818.963	9905
819.061	12325
819.158	11640
819.256	13852
819.354	11299
819.452	12076
819.549	10528
819.647	13647
819.745	9901
819.842	10707
819.940	12119
820.038	10800
820.135	9816
820.233	12499
820.330	10999
820.428	10272
820.525	12104
820.623	10390
820.720	9175
820.818	11477
820.915	11692
821.012	9060
821.110	9472
821.207	10990
821.304	10036
821.402	11290
821.499	11005
821.596	8261
821.693	9633
821.791	10929
821.888	9950
821.985	11092
822.082	8561
822.179	10318
822.276	9996
822.373	8221
822.470	9214
822.567	9795
822.664	7936
822.761	10164
822.858	10170
822.955	8306
823.052	6937
823.149	9124
823.246	10144
823.343	6667
823.440	8645
823.536	10017
823.633	9724
823.730	8592
823.827	8836
823.923	9159
824.020	7340
824.117	9608
824.213	9615
824.310	7857
824.407	6113
824.503	9717
824.600	7965
824.696	7462
824.793	10298
824.889	9201
824.986	8336
825.082	5067
825.179	7156
825.275	9357
825.371	10979
825.468	5419
825.564	4540
825.660	9272
825.757	10154
825.853	6496
825.949	5974
826.045	6410
826.142	8043
826.238	8319
826.334	8815
826.430	7416
826.526	4868
826.622	4745
826.718	9187
826.814	9180
826.910	8542
827.006	3821
827.102	4279
827.198	7206
827.294	8478
827.390	8072
827.486	6443
827.582	3308
827.678	6182
827.774	9126
827.869	4760
827.965	5893
828.061	4257
828.157	7631
828.252	8148
828.348	5428
828.444	5580
828.539	4948
828.635	6970
828.731	5847
828.826	5296
828.922	5999
829.017	7028
829.113	7497
829.208	4664
829.304	5419
829.399	9034
829.495	5412
829.590	5474
829.685	5939
829.781	7135
829.876	7228
829.971	3109
830.066	2562
830.162	5916
830.257	8444
830.352	5780
830.447	3884
830.543	4848
830.638	5789
830.733	7543
830.828	5160
830.923	6099
831.018	5422
831.113	7684
831.208	4126
831.303	2920
831.398	3222
831.493	5898
831.588	8841
831.683	5480
831.778	4130
831.873	4114
831.967	6155
832.062	5849
832.157	4804
832.252	5303
832.346	4570
832.441	6181
832.536	4989
832.631	6145
832.725	4248
832.820	5256
832.914	5127
833.009	3865
833.104	2920
833.198	4131
833.293	4494
833.387	6619
833.482	5029
833.576	4109
833.670	4074
833.765	3967
833.859	4941
833.954	6012
834.048	4472
834.142	4044
834.237	2795
834.331	4783
834.425	4590
834.519	3692
834.613	3093
834.708	3190
834.802	3096
834.896	4408
834.990	4375
835.084	3132
835.178	3017
835.272	4127
835.366	5040
835.460	6002
835.554	4391
835.648	3356
835.742	1700
835.836	3415
835.930	3193
836.024	4849
836.117	4008
836.211	3450
836.305	3348
836.399	3160
836.493	1847
836.586	5732
836.680	3783
836.774	3263
836.867	3287
836.961	1472
837.055	1472
837.148	2891
837.242	3004
837.335	3987
837.429	2959
837.522	3130
837.616	2795
837.709	3489
837.803	2533
837.896	4837
837.989	3470
838.083	2474
838.176	1898
838.269	1476
838.363	3020
838.456	2743
838.549	4424
838.642	2765
838.735	2688
838.829	3997
838.922	2616
839.015	3226
839.108	1482
839.201	2967
839.294	3101
839.387	3396
839.480	1707
839.573	2669
839.666	1441
839.759	3143
839.852	1922
839.945	3585
840.038	2192
840.131	1654
840.223	1760
840.316	2355
840.409	3157
840.502	3750
840.594	3959
840.687	1476
840.780	1596
840.873	828
840.965	1502
841.058	3347
841.150	3862
841.243	1708
841.336	1402
841.428	2205
841.521	1663
841.613	2625
841.706	1946
841.798	2005
841.890	3026
841.983	895
842.075	1490
842.167	2601
842.260	2780
842.352	3222
842.444	2576
842.537	1403
842.629	827
842.721	1302
842.813	2091
842.905	740
842.997	2001
843.090	2432
843.182	1851
843.274	537
843.366	1204
843.458	2360
843.550	3378
843.642	2006
843.734	2452
843.826	1153
843.918	1124
844.009	2172
844.101	792
844.193	2548
844.285	2578
844.377	2263
844.469	1966
844.560	330
844.652	1484
844.744	1341
844.835	1753
844.927	2646
845.019	2232
845.110	2232
845.202	3044
845.293	1605
845.385	223
845.476	1754
845.568	3132
845.659	1629
845.751	1273
845.842	1836
845.934	2103
846.025	2061
846.116	2268
846.208	1499
846.299	1079
846.390	1118
846.482	1323
846.573	1639
846.664	1060
846.755	1578
846.846	2074
846.937	583
847.029	590
847.120	2120
847.211	1151
847.302	3218
847.393	1472
847.484	2609
847.575	1298
847.666	1221
847.757	1944
847.847	2627
847.938	3323
848.029	2017
848.120	1457
848.211	2043
848.302	281
848.392	1429
848.483	1451
848.574	961
848.664	1189
848.755	2322
848.846	1744
848.936	2112
849.027	1229
849.118	2153
849.208	1695
849.299	3205
849.389	5821
849.480	10415
849.570	16767
849.661	33086
849.751	44954
849.841	16460
849.932	3675
850.022	2758
850.112	2245
850.203	3125
850.293	395
850.383	1143
850.474	935
850.564	833
850.654	1087
850.744	1144
850.834	1162
850.924	2274
851.014	3144
851.104	1392
851.194	628
851.284	1423
851.374	983
851.464	1087
851.554	1021
851.644	1736
851.734	1858
851.824	2054
851.914	1518
852.004	1763
852.094	1348
852.183	297
852.273	1916
852.363	835
852.452	1639
852.542	2187
852.632	773
852.721	1302
852.811	1164
852.901	2222
852.990	2093
853.080	2555
853.169	2159
853.259	2958
853.348	2336
853.438	3326
853.527	5161
853.617	6836
853.706	11186
853.795	20382
853.885	36675
853.974	60212
854.063	100455
854.152	117378
854.242	55806
854.331	19732
854.420	9171
854.509	6756
854.598	4819
854.687	4958
854.777	3298
854.866	2152
854.955	2366
855.044	1910
855.133	1762
855.222	2054
855.311	1550
855.400	2022
855.488	852
855.577	1185
855.666	1381
855.755	2314
855.844	1556
855.933	2225
856.021	1350
856.110	1684
856.199	-235
856.288	886
856.376	260
856.465	1051
856.554	496
856.642	2066
856.731	2209
856.819	2382
856.908	903
856.996	1993
857.085	771
857.173	1071
857.262	59
857.350	473
857.438	983
857.527	1122
857.615	446
857.703	1367
857.792	1100
857.880	427
857.968	419
858.056	1097
858.145	1407
858.233	1313
858.321	1097
858.409	2205
858.497	841
858.585	603
858.673	1103
858.761	593
858.849	782
858.937	-165
859.025	1358
859.113	1259
859.201	1035
859.289	2679
859.377	837
859.465	1836
859.552	384
859.640	1221
859.728	589
859.816	1618
859.903	853
859.991	440
860.079	599
860.166	1639
860.254	795
860.342	1683
860.429	559
860.517	1873
860.604	723
860.692	771
860.779	980
860.867	1099
860.954	1324
861.042	1880
861.129	2161
861.216	1824
861.304	1601
861.391	1960
861.478	590
861.565	1319
861.653	984
861.740	933
861.827	811
861.914	1568
862.001	1074
862.089	1989
862.176	1330
862.263	1353
862.350	833
862.437	1293
862.524	797
862.611	1811
862.698	1024
862.785	2405
862.871	2368
862.958	2359
863.045	1917
863.132	2289
863.219	1884
863.306	12
863.392	1421
863.479	1603
863.566	217
863.652	2490
863.739	1509
863.826	1989
863.912	1752
863.999	2005
864.086	1555
864.172	1580
864.259	3385
864.345	2730
864.432	2105
864.518	3465
864.604	2622
864.691	2805
864.777	3720
864.863	5104
864.950	7217
865.036	9854
865.122	18312
865.209	18106
865.295	15545
865.381	15674
865.467	14594
865.553	15594
865.639	15997
865.726	20811
865.812	29247
865.898	43073
865.984	60179
866.070	90307
866.156	83503
866.242	37644
866.328	20992
866.414	16373
866.499	15017
866.585	14179
866.671	13326
866.757	13307
866.843	12445
866.928	12435
867.014	11443
867.100	13088
867.186	11146
867.271	12397
867.357	12517
867.442	11210
867.528	11802
867.614	11896
867.699	11222
867.785	11837
867.870	10853
867.956	11029
868.041	10645
868.127	11154
868.212	10452
868.297	10505
868.383	11522
868.468	10732
868.553	12066
868.639	11151
868.724	11089
868.809	11544
868.894	9627
868.979	10926
869.065	10932
869.150	8427
869.235	10078
869.320	10363
869.405	8090
869.490	11826
869.575	10021
869.660	7510
869.745	11034
869.830	11792
869.915	8203
870.000	8714
870.085	8452
870.169	11673
870.254	11387
870.339	7881
870.424	8246
870.509	9986
870.593	11780
870.678	10061
870.763	8597
870.847	8750
870.932	10023
871.016	10051
871.101	6711
871.186	9856
871.270	11866
871.355	8411
871.439	8461
871.523	11057
871.608	6949
871.692	7606
871.777	9798
871.861	9929
871.945	8373
872.030	8287
872.114	8218
872.198	7268
872.282	7412
872.367	7716
872.451	7154
872.535	7094
872.619	8332
872.703	7647
872.787	8965
872.871	8513
872.955	5880
873.039	5300
873.123	8214
873.207	8303
873.291	5210
873.375	7536
873.459	8785
873.543	6830
873.627	5848
873.711	6027
873.794	8316
873.878	7566
873.962	5048
874.045	6516
874.129	7250
874.137	7197
874.213	6667
874.245	6689
874.296	6720
874.352	6154
874.380	5883
874.460	6249
874.464	6265
874.547	5572
874.568	6007
874.631	7285
874.676	6970
874.714	6713
874.784	7144
874.798	7231
874.881	6893
874.892	6619
874.965	4757
874.999	6051
875.048	7797
875.107	7147
875.131	6880
875.215	5191
875.215	5189
875.298	3479
875.323	4379
875.381	6613
875.430	8130
875.465	9117
875.538	7836
875.548	7659
875.631	4893
875.646	4753
875.714	4174
875.753	4811
875.798	5588
875.861	7183
875.881	7638
875.964	5236
875.968	5183
876.047	4392
876.076	4736
876.130	5364
876.183	5873
876.213	6150
876.291	6414
876.296	6423
876.379	5300
876.398	5142
876.462	4682
876.506	4423
876.545	4211
876.613	4262
876.628	4322
876.711	5841
876.721	6004
876.794	7031
876.828	6906
876.877	6549
876.935	4229
876.960	3352
877.043	5216
877.043	5216
877.125	5400
877.150	5928
877.208	6777
877.258	5415
877.291	4584
877.365	4238
877.374	4207
877.456	4439
877.472	4354
877.539	4028
877.579	4913
877.622	5785
877.687	5815
877.704	5841
877.787	5017
877.794	5072
877.869	5692
877.901	5434
877.952	4710
878.008	4063
878.034	3924
878.115	3409
878.117	3402
878.199	4889
878.222	5160
878.282	5862
878.329	6426
878.364	6670
878.437	5183
878.447	4934
878.529	3786
878.544	3699
878.611	3864
878.651	4447
878.694	5145
878.758	5429
878.776	5448
878.858	5562
878.865	5498
878.941	4275
878.972	4130
879.023	4336
879.078	4116
879.105	4037
879.185	5798
879.187	5831
879.269	5708
879.292	5677
879.351	5208
879.399	4204
879.433	3678
879.506	4144
879.516	4190
879.598	4214
879.613	4215
879.680	4412
879.720	4678
879.762	4853
879.827	4483
879.844	4390
879.926	4003
879.933	4067
880.007	4519
880.040	4160
880.089	3926
880.147	4484
880.171	4770
880.253	5999
880.254	5996
880.335	4624
880.360	4856
880.417	6008
880.467	6238
880.499	6133
880.574	5915
880.580	5926
880.662	6148
880.680	5766
880.744	3776
880.787	3658
880.825	3966
880.893	4158
880.907	4136
880.989	3711
881.000	3781
881.070	4885
881.106	4910
881.152	4208
881.213	3453
881.233	3430
881.315	4515
881.319	4525
881.396	4591
881.426	4402
881.478	4351
881.532	5090
881.559	5256
881.639	4853
881.641	4829
881.722	3622
881.745	3482
881.803	4655
881.852	5024
881.885	4413
881.958	3454
881.966	3443
882.047	4397
882.064	4308
882.129	3441
882.171	2809
882.210	2562
882.277	2722
882.291	2899
882.372	4758
882.383	4921
882.454	5810
882.489	5678
882.535	5013
882.596	5331
882.616	5436
882.697	4603
882.702	4557
882.778	3466
882.808	3125
882.859	2892
882.914	3085
882.940	3312
883.020	3456
883.021	3463
883.102	4605
883.127	4925
883.183	5684
883.233	5710
883.264	4702
883.339	2525
883.345	2500
883.426	2294
883.445	2428
883.507	2925
883.551	3381
883.587	4122
883.657	4896
883.668	4967
883.749	5780
883.763	5692
883.830	3489
883.869	2776
883.910	2840
883.975	2942
883.991	3137
884.072	4255
884.081	4326
884.152	5429
884.187	6105
884.233	6063
884.292	5309
884.314	4712
884.394	2252
884.398	2177
884.475	2041
884.504	1965
884.555	2541
884.610	2896
884.636	3056
884.716	4340
884.716	4354
884.797	5547
884.821	5802
884.877	5273
884.927	4582
884.958	4141
885.033	3587
885.038	3533
885.118	2221
885.139	1997
885.199	2483
885.244	2694
885.279	3211
885.350	5017
885.359	5188
885.439	5583
885.456	5595
885.520	4335
885.561	3851
885.600	3282
885.667	2393
885.680	2685
885.760	4056
885.773	4303
885.840	3775
885.878	3456
885.920	3156
885.984	2866
886.000	3163
886.080	4397
886.089	4549
886.160	4707
886.195	4501
886.240	4199
886.300	4066
886.320	4155
886.400	4510
886.406	4518
886.480	3364
886.511	2912
886.560	3133
886.616	3363
886.640	3565
886.720	4349
886.722	4361
886.800	3995
886.827	3792
886.879	4050
886.932	4367
886.959	4566
887.038	4949
887.039	4949
887.119	4306
887.143	4058
887.198	3950
887.248	3984
887.278	4029
887.354	3788
887.358	3796
887.437	4049
887.459	4116
887.517	4156
887.564	4106
887.596	3703
887.669	2679
887.676	2661
887.755	2461
887.774	2426
887.835	2528
887.880	2736
887.914	3232
887.985	3999
887.994	4081
888.073	4972
888.090	5066
888.153	5887
888.195	6559
888.232	5502
888.300	3371
888.311	3323
888.391	3094
888.405	3045
888.470	2871
888.510	2735
888.549	2903
888.615	3340
888.628	3569
888.708	4806
888.720	4978
888.787	4644
888.825	4465
888.866	3872
888.930	2940
888.945	3094
889.024	3998
889.035	4095
889.103	4424
889.140	4593
889.182	3949
889.245	3024
889.261	3337
889.340	4822
889.349	4980
889.419	4631
889.454	4442
889.498	3705
889.559	2712
889.577	2993
889.656	4201
889.664	4317
889.735	4378
889.768	4400
889.814	4479
889.873	4557
889.978	3787
890.083	4229
890.187	4179
890.292	4236
890.397	3853
890.501	4230
890.606	2259
890.710	3961
890.815	5392
890.919	4478
891.024	4050
891.128	2844
891.233	2948
891.337	4253
891.442	4981
891.546	4070
891.650	3114
891.755	3166
891.859	4441
891.963	5321
892.068	4128
892.172	3015
892.276	1629
892.380	3419
892.484	4920
892.589	4891
892.693	3326
892.797	2343
892.901	2915
893.005	2582
893.109	5502
893.213	4747
893.317	3849
893.421	1824
893.525	1720
893.629	2961
893.733	4397
893.837	3332
893.941	3101
894.045	2837
894.148	2113
894.252	2389
894.356	4400
894.460	5348
894.564	2502
894.667	3185
894.771	1571
894.875	1790
894.978	2475
895.082	4061
895.186	4608
895.289	3240
895.393	2787
895.496	4430
895.600	2629
895.703	1850
895.807	2917
895.910	2784
896.014	4009
896.117	3948
896.221	4068
896.324	3998
896.427	1955
896.531	2036
896.634	2625
896.737	1891
896.840	3329
896.944	3969
897.047	4113
897.150	3518
897.253	1594
897.356	1742
897.460	2158
897.563	2911
897.666	3928
897.769	4114
897.872	2235
897.975	1767
898.078	2713
898.181	3005
898.284	2397
898.387	4233
898.490	3946
898.593	2859
898.695	2045
898.798	2638
898.901	2103
899.004	2630
899.107	2439
899.209	3074
899.312	4664
899.415	3053
899.518	2061
899.620	1783
899.723	2182
899.826	3255
899.928	2462
900.031	2860
900.133	3540
900.236	3271
900.338	1143
900.441	2602
900.543	2886
900.646	2986
900.748	2533
900.851	4040
900.953	1946
901.055	1758
901.158	2746
901.260	2111
901.362	1585
901.465	1495
901.567	2268
901.669	3742
901.771	2227
901.873	3373
901.976	2673
902.078	3172
902.180	2495
902.282	2800
902.384	2473
902.486	3713
902.588	3071
902.690	1950
902.792	2003
902.894	2009
902.996	3261
903.098	2512
903.200	1478
903.302	1753
903.404	2012
903.505	1733
903.607	2177
903.709	4447
903.811	3259
903.913	2545
904.014	2088
904.116	1799
904.218	1437
904.319	2159
904.421	4606
904.523	3101
904.624	2417
904.726	2788
904.827	2073
904.929	1255
905.030	2102
905.132	3974
905.233	3143
905.335	1761
905.436	1453
905.537	2000
905.639	1998
905.740	2823
905.841	4458
905.943	3143
906.044	1778
906.145	1610
906.247	1837
906.348	2588
906.449	2566
906.550	3539
906.651	2073
906.752	2172
906.854	1496
906.955	2678
907.056	2104
907.157	3426
907.258	3418
907.359	1439
907.460	962
907.561	1901
907.662	1461
907.762	2419
907.863	2863
907.964	3774
908.065	1984
908.166	2257
908.267	2033
908.367	1462
908.468	2230
908.569	2790
908.670	3218
908.770	2524
908.871	2495
908.971	2892
909.072	2237
909.173	2059
909.273	2586
909.374	3184
909.474	2318
909.575	1929
909.675	1194
909.776	3967
909.876	2568
909.977	2453
910.077	1930
910.177	3853
910.278	2247
910.378	2290
910.478	2275
910.579	2620
910.679	3391
910.779	2643
910.879	2162
910.980	3240
911.080	2881
911.180	2504
911.280	1905
911.380	1938
911.480	964
911.580	2763
911.680	2645
911.780	2375
911.880	2684
911.980	2677
912.080	1369
912.180	2711
912.280	2259
912.380	2751
912.480	1236
912.580	2216
912.679	1994
912.779	3125
912.879	2587
912.979	2508
913.078	1434
913.178	2141
913.278	1428
913.377	1746
913.477	2095
913.577	2165
913.676	3568
913.776	2844
913.875	2857
913.975	2967
914.074	2381
914.174	3228
914.273	624
914.373	3229
914.472	2278
914.572	1026
914.671	1489
914.770	2635
914.870	1379
914.969	2299
915.068	2265
915.167	3622
915.267	1899
915.366	2502
915.465	2814
915.564	2196
915.663	1828
915.763	2843
915.862	3518
915.961	3507
916.060	2150
916.159	1423
916.258	2203
916.357	2043
916.456	3075
916.555	3248
916.654	2798
916.752	4184
916.851	3434
916.950	1519
917.049	1939
917.148	1790
917.247	2510
917.345	2437
917.444	1892
917.543	3319
917.642	2278
917.740	3319
917.839	4062
917.937	3903
918.036	3764
918.135	2253
918.233	1629
918.332	3477
918.430	1800
918.529	2587
918.627	2066
918.726	2873
918.824	2343
918.923	2245
919.021	2370
919.119	2215
919.218	1423
919.316	2768
919.414	2523
919.512	3640
919.611	3238
919.709	3165
919.807	4021
919.905	3921
920.003	3405
920.102	4105
920.200	4215
920.298	4547
920.396	3884
920.494	3947
920.592	3421
920.690	4030
920.788	3585
920.886	4605
920.984	4436
921.082	4629
921.180	5347
921.277	5042
921.375	6170
921.473	8018
921.571	7686
921.669	6817
921.766	6478
921.864	6980
921.962	6843
922.060	6823
922.157	5476
922.255	8954
922.352	7700
922.450	8254
922.548	8759
922.645	9254
922.743	11614
922.840	19412
922.938	21340
923.035	18798
923.133	17726
923.230	21384
923.327	26202
923.425	24088
923.522	22705
923.619	21111
923.717	19744
923.814	19077
923.911	17904
924.008	18936
924.106	17944
924.203	19039
924.300	17956
924.397	19425
924.494	17711
924.591	18578
924.688	17383
924.786	18022
924.883	18510
924.979	17963
925.077	17726
925.173	17712
925.270	17516
925.367	17300
925.464	18908
925.561	18920
925.658	19167
925.755	16145
925.852	19178
925.948	17406
926.045	16587
926.142	17990
926.239	18179
926.335	14193
926.432	17130
926.529	19033
926.625	19570
926.722	15686
926.818	14416
926.915	17967
927.011	16086
927.108	16492
927.204	17254
927.301	14672
927.397	17023
927.494	19102
927.590	11876
927.687	14338
927.783	18103
927.879	17595
927.976	15130
928.072	14943
928.168	16322
928.264	17286
928.361	14019
928.457	17616
928.553	14314
928.649	13800
928.745	16175
928.841	13854
928.937	14879
929.033	14543
929.129	14244
929.225	16740
929.321	14243
929.417	13360
929.513	15917
929.609	12776
929.705	13194
929.801	15921
929.897	12103
929.993	12945
930.089	14478
930.184	11908
930.280	14675
930.376	18254
930.471	12728
930.567	11518
930.663	13236
930.758	12485
930.854	13475
930.950	13506
931.045	11791
931.141	12574
931.236	16102
931.332	13809
931.427	10858
931.523	16254
931.618	14229
931.714	8711
931.809	11984
931.905	15110
932.000	9347
932.095	9023
932.191	14735
932.286	16737
932.381	13172
932.476	10430
932.572	11330
932.667	11049
932.762	10612
932.857	13339
932.952	14455
933.047	12202
933.142	9806
933.237	12411
933.332	13220
933.427	13026
933.522	11222
933.617	9732
933.712	10830
933.807	14239
933.902	15260
933.997	13991
934.092	9958
934.187	11915
934.282	12113
934.376	13558
934.471	11611
934.566	10085
934.661	9745
934.755	13231
934.850	13378
934.945	10205
935.039	8696
935.134	8824
935.228	10531
935.323	16274
935.417	9002
935.512	6706
935.606	8753
935.701	10934
935.795	12686
935.890	11035
935.984	9238
936.079	7161
936.173	11077
936.267	9871
936.362	8138
936.456	10410
936.550	14436
936.644	11352
936.738	8067
936.833	8452
936.927	6817
937.021	9050
937.115	8975
937.209	10756
937.303	9658
937.397	8238
937.491	9830
937.585	11815
937.679	10553
937.773	7726
937.867	6926
937.961	8018
938.055	12558
938.149	10917
938.243	7140
938.337	7121
938.430	7869
938.524	11943
938.618	8269
938.712	7110
938.805	7965
938.899	11234
938.993	12705
939.086	8183
939.180	5007
939.274	7609
939.367	10118
939.461	10473
939.554	7696
939.648	7243
939.741	7247
939.835	8864
939.928	12111
940.022	10409
940.115	7928
940.208	9753
940.302	10694
940.395	12329
940.488	7924
940.582	8285
940.675	6016
940.768	6775
940.861	10122
940.954	10565
941.048	5833
941.141	5434
941.234	7075
941.327	8282
941.420	8591
941.513	9814
941.606	6887
941.699	6995
941.792	9330
941.885	8972
941.978	8278
942.071	8750
942.164	6118
942.257	6018
942.349	7067
942.442	8377
942.535	5525
942.628	7429
942.721	7677
942.813	7399
942.906	8235
942.999	6985
943.091	5606
943.184	8034
943.277	6918
943.369	5979
943.462	3841
943.554	6979
943.647	7887
943.739	8474
943.832	10310
943.924	5085
944.017	4503
944.109	4882
944.201	5714
944.294	7074
944.386	6595
944.478	7223
944.571	5683
944.663	5978
944.755	7262
944.847	7846
944.940	6772
945.032	4626
945.124	4583
945.216	7303
945.308	6971
945.400	6929
945.492	5771
945.584	8403
945.676	9274
945.768	6977
945.860	8261
945.952	8708
946.044	7235
946.136	6040
946.228	5585
946.320	6441
946.412	7245
946.503	8115
946.595	7413
946.687	5607
946.779	3907
946.870	5629
946.962	5126
947.054	5506
947.145	7411
947.237	5727
947.329	6115
947.420	7454
947.512	5594
947.603	4436
947.695	4833
947.786	4986
947.878	4840
947.969	7016
948.061	6296
948.152	5737
948.243	4653
948.335	3958
948.426	3851
948.517	6332
948.609	6600
948.700	6322
948.791	5044
948.882	5156
948.973	4531
949.065	6397
949.156	4972
949.247	3613
949.338	5159
949.429	4295
949.520	4321
949.611	5685
949.702	6807
949.793	5114
949.884	5650
949.975	4931
950.066	3464
950.157	4753
950.247	4685
950.338	4468
950.429	4152
950.520	5209
950.611	3588
950.701	4653
950.792	7228
950.883	6208
950.973	4411
951.064	5991
951.155	6176
951.245	6384
951.336	6382
951.427	6641
951.517	7962
951.608	6582
951.698	4192
951.788	4429
951.879	3487
951.969	4566
952.060	4020
952.150	5631
952.240	7198
952.331	5696
952.421	5979
952.511	3716
952.602	3650
952.692	3513
952.782	3499
952.872	4120
952.962	5142
953.052	5083
953.143	3662
953.233	4481
953.323	4853
953.413	5365
953.503	5548
953.593	4648
953.683	5219
953.773	3421
953.863	2747
953.953	4078
954.042	4453
954.132	4750
954.222	5372
954.312	4290
954.402	3680
954.492	4386
954.581	4890
954.671	5852
954.761	4341
954.850	5524
954.940	3143
955.030	3332
955.119	2882
955.209	3995
955.298	4566
955.388	5607
955.477	5969
955.567	2611
955.656	3870
955.746	3339
955.835	3651
955.925	2797
956.014	4296
956.103	6167
956.193	6740
956.282	5587
956.371	3672
956.461	5430
956.550	3550
956.639	5228
956.728	3967
956.817	4290
956.906	4001
956.995	5365
957.085	4000
957.174	5228
957.263	2952
957.352	4673
957.441	4312
957.530	5137
957.619	2703
957.708	4232
957.796	3530
957.885	3525
957.974	3241
958.063	3940
958.152	2667
958.241	3425
958.329	2337
958.418	3936
958.507	3345
958.596	5498
958.684	2419
958.773	4200
958.861	2507
958.950	2320
959.039	2890
959.127	3137
959.216	4359
959.304	2915
959.393	3602
959.481	5173
959.570	2490
959.658	2790
959.746	1845
959.835	3410
959.923	2159
960.011	2762
960.100	3900
960.188	5110
960.276	3789
960.365	3341
960.453	2338
960.541	2421
960.629	3173
960.717	2447
960.805	2067
960.893	2677
960.981	4084
961.069	5096
961.158	7067
961.245	6211
961.333	4939
961.421	3654
961.509	3337
961.597	3802
961.685	3022
961.773	3782
961.861	3747
961.949	4535
962.036	2488
962.124	3033
962.212	2267
962.299	3437
962.387	2752
962.475	4286
962.562	2766
962.650	4251
962.738	2526
962.825	2726
962.913	2589
963.000	2975
963.088	3300
963.175	3773
963.263	2129
963.350	3789
963.438	3276
963.525	2625
963.612	2670
963.700	2311
963.787	4307
963.874	3491
963.962	2892
964.049	2476
964.136	2086
964.223	2451
964.310	2279
964.398	2595
964.485	2779
964.572	4075
964.659	3372
964.746	2984
964.833	2606
964.920	2155
965.007	2338
965.094	2924
965.181	3240
965.268	4269
965.355	3365
965.441	2488
965.528	2935
965.615	4185
965.702	2484
965.789	3181
965.875	3607
965.962	3843
966.049	2673
966.136	5591
966.222	4327
966.309	5349
966.395	3088
966.482	4414
966.569	3187
966.655	3513
966.742	3393
966.828	3193
966.915	2986
967.001	3122
967.087	1465
967.174	3275
967.260	2155
967.347	3460
967.433	3432
967.519	3578
967.605	3242
967.692	3452
967.778	2890
967.864	2383
967.950	3584
968.036	2870
968.123	3702
968.209	3010
968.295	1823
968.381	3687
968.467	2894
968.553	1351
968.639	3489
968.725	3054
968.811	4227
968.897	3799
968.983	3138
969.069	2971
969.154	2779
969.240	3075
969.326	2235
969.412	3085
969.497	2530
969.583	1946
969.669	3570
969.755	3585
969.840	3156
969.926	5600
970.012	6809
970.097	8326
970.183	6233
970.268	4609
970.354	3748
970.439	1864
970.525	4062
970.610	2142
970.696	3648
970.781	2810
970.866	2116
970.952	2864
971.037	2504
971.122	2271
971.208	2832
971.293	3238
971.378	1447
971.463	3485
971.549	3313
971.634	2815
971.719	2652
971.804	3200
971.889	3278
971.974	2942
972.059	3085
972.144	3152
972.229	2856
972.314	2721
972.399	2213
972.484	2114
972.569	2552
972.654	2304
972.739	2042
972.824	3130
972.908	2210
972.993	2281
973.078	2608
973.163	4122
973.247	3392
973.332	2447
973.417	2969
973.501	3090
973.586	2383
973.671	3105
973.755	2161
973.840	2546
973.924	3219
974.009	5094
974.093	4780
974.178	5326
974.262	4023
974.346	3246
974.431	3641
974.515	3027
974.600	3384
974.684	3612
974.768	1894
974.852	4157
974.937	2642
975.021	4098
975.105	2729
975.189	2727
975.273	2781
975.358	1954
975.442	1790
975.526	3068
975.610	2429
975.694	2355
975.778	3218
975.862	2035
975.946	580
976.030	4295
976.114	2335
976.198	2636
976.281	2471
976.365	3638
976.449	2432
976.533	3045
976.617	2417
976.700	2487
976.784	2070
976.868	1970
976.951	2400
977.035	2195
977.119	2159
977.202	3267
977.286	2897
977.369	4003
977.453	7531
977.536	6051
977.620	4196
977.703	4438
977.787	2667
977.870	4795
977.953	4288
978.037	2398
978.120	2932
978.203	2397
978.287	2910
978.370	2952
978.453	2811
978.536	3639
978.620	3153
978.703	3961
978.786	2727
978.869	2323
978.952	2155
979.035	5001
979.118	3924
979.201	2338
979.284	2972
979.367	3096
979.450	3073
979.533	3283
979.616	2764
979.699	3611
979.782	3066
979.865	3525
979.948	2433
980.030	2709
980.113	2306
980.196	2962
980.279	3668
980.361	3227
980.444	2677
980.526	4500
980.609	5272
980.692	7278
980.774	5932
980.857	4646
980.939	4617
981.022	4497
981.104	3215
981.187	3486
981.269	4085
981.352	3413
981.434	2438
981.516	2926
981.599	5079
981.681	2925
981.763	2700
981.846	3935
981.928	3011
982.010	4629
982.092	2811
982.174	4195
982.256	2683
982.339	3856
982.421	2871
982.503	3729
982.585	2420
982.667	4084
982.749	2565
982.831	3391
982.913	2757
982.995	4809
983.077	2888
983.158	4776
983.240	2918
983.322	5197
983.404	7864
983.486	6525
983.568	5700
983.649	5486
983.731	5126
983.813	4395
983.894	4418
983.976	4504
984.058	3446
984.139	5379
984.221	3908
984.302	4946
984.384	4156
984.465	4533
984.547	4856
984.628	3877
984.710	5297
984.791	4138
984.872	4253
984.954	4329
985.035	5419
985.116	4475
985.198	3686
985.279	5611
985.360	4437
985.441	5284
985.522	5885
985.604	4975
985.685	3104
985.766	5332
985.847	6347
985.928	3965
986.009	4394
986.090	4576
986.171	4163
986.252	4375
986.333	4322
986.414	4391
986.495	4126
986.576	5952
986.656	5900
986.737	6154
986.818	5781
986.899	4974
986.980	4405
987.060	5558
987.141	6100
987.222	6756
987.302	6068
987.383	7204
987.464	6458
987.544	7525
987.625	6506
987.705	7625
987.786	7066
987.866	6445
987.947	6550
988.027	6395
988.108	5786
988.188	7050
988.268	5921
988.349	6002
988.429	6437
988.509	5156
988.589	5665
988.670	4704
988.750	6215
988.830	5723
988.910	6116
988.990	5969
989.070	5436
989.151	5788
989.231	4948
989.311	6451
989.391	4684
989.471	5753
989.551	5871
989.631	5577
989.711	5449
989.791	4413
989.870	4737
989.950	6492
990.030	4984
990.110	4876
990.190	3613
990.269	4265
990.349	5243
990.429	5429
990.509	4065
990.588	3946
990.668	4426
990.747	5156
990.827	4031
990.907	4980
990.986	4921
991.066	5593
991.145	3176
991.225	5225
991.304	4974
991.383	4873
991.463	5584
991.542	5522
991.622	4192
991.701	3891
991.780	3177
991.859	5447
991.939	4297
992.018	5269
992.097	4663
992.176	4072
992.256	3990
992.335	4173
992.414	4689
992.493	3835
992.572	3247
992.651	5018
992.730	3841
992.809	4194
992.888	2926
992.967	4898
993.046	3759
993.125	2787
993.203	4237
993.282	4600
993.361	4185
993.440	4075
993.519	3159
993.597	3893
993.676	2612
993.755	3602
993.834	4010
993.912	2073
993.991	3511
994.069	3120
994.148	3113
994.226	2531
994.305	3874
994.384	3077
994.462	4452
994.540	3179
994.619	2622
994.697	3987
994.776	3089
994.854	3653
994.932	2613
995.011	3333
995.089	3146
995.167	3012
995.245	3697
995.324	3476
995.402	3685
995.480	3341
995.558	2915
995.636	2979
995.714	1949
995.792	4562
995.870	2292
995.948	2110
996.026	2890
996.104	1186
996.182	3047
996.260	3275
996.338	2215
996.416	1841
996.494	2828
996.572	3671
996.649	2472
996.727	1910
996.805	2239
996.883	2685
996.960	1884
997.038	3162
997.116	2841
997.193	2712
997.271	2197
997.348	1144
997.426	1496
997.504	3225
997.581	4267
997.658	2567
997.736	484
997.813	1052
997.891	2533
997.968	2305
998.046	2099
998.123	2572
998.200	3209
998.277	2184
998.355	2311
998.432	1170
998.509	1142
998.586	2789
998.663	1412
998.741	2401
998.818	886
998.895	1778
998.972	2597
999.049	3401
999.126	1864
999.203	2174
999.280	1911
999.357	1567
999.434	2233
999.511	2449
999.587	1576
999.664	771
999.741	2143
999.818	2375
999.895	1812
999.971	1945
1000.048	441
1000.125	1745
1000.202	1428
1000.278	1286
1000.355	1566
1000.431	1149
1000.508	389
1000.584	1670
1000.661	1178
1000.738	463
1000.814	1386
1000.890	1969
1000.967	1418
1001.043	853
1001.120	485
1001.196	1520
1001.272	767
1001.349	1520
1001.425	2520
1001.501	1733
1001.577	1117
1001.654	2398
1001.730	1548
1001.806	1743
1001.882	481
1001.958	2313
1002.034	1649
1002.110	1493
1002.186	279
1002.262	1098
1002.338	877
1002.414	1472
1002.490	1920
1002.566	1803
1002.642	639
1002.718	1313
1002.794	1242
1002.870	1872
1002.945	672
1003.021	1547
1003.097	918
1003.173	1392
1003.248	1015
1003.324	1486
1003.400	383
1003.475	774
1003.551	1291
1003.626	935
1003.702	286
1003.777	886
1003.853	-252
1003.928	85
1004.004	644
1004.079	1673
1004.155	1102
1004.230	330
1004.305	1425
1004.381	833
1004.456	687
1004.531	153
1004.607	417
1004.682	885
1004.757	542
1004.832	702
1004.907	-236
1004.982	942
1005.057	1007
1005.133	447
1005.208	1087
1005.283	396
1005.358	1142
1005.433	-187
1005.508	445
1005.583	27
1005.657	636
1005.732	1271
1005.807	-419
1005.882	-46
1005.957	702
1006.032	539
1006.106	-187
1006.181	686
1006.256	834
1006.331	648
1006.405	-619
1006.480	713
1006.554	491
1006.629	886
1006.704	-29
1006.778	183
1006.853	271
1006.927	565
1007.002	-617
1007.076	810
1007.150	193
1007.225	75
1007.299	-101
1007.373	-426
1007.448	680
1007.522	1054
1007.596	29
1007.671	-54
1007.745	855
1007.819	-144
1007.893	15
1007.967	1091
1008.041	-801
1008.115	1051
1008.190	159
1008.264	1335
1008.338	-36
1008.412	234
1008.486	-193
1008.560	104
1008.633	146
1008.707	1045
1008.781	536
1008.855	1026
1008.929	-825
1009.003	-589
1009.076	-177
1009.150	-275
1009.224	259
1009.298	-280
1009.371	117
1009.445	-35
1009.519	253
1009.592	-928
1009.666	-489
1009.739	714
1009.813	-826
1009.886	552
1009.960	-623
1010.033	-59
1010.107	-276
1010.180	-558
1010.253	-402
1010.327	-676
1010.400	-252
1010.473	-48
1010.547	654
1010.620	217
1010.693	-495
1010.766	246
1010.840	-146
1010.913	387
1010.986	-818
1011.059	216
1011.132	-491
1011.205	-33
1011.278	-1284
1011.351	-857
1011.424	430
1011.497	-261
1011.570	-75
1011.643	-965
1011.716	-426
1011.789	-535
1011.862	-673
1011.934	-174
1012.007	-1668
1012.080	-190
1012.153	-540
1012.225	201
1012.298	-863
1012.371	-176
1012.443	-779
1012.516	-480
1012.588	322
1012.661	-68
1012.733	-962
1012.806	757
1012.879	-1594
1012.951	-136
1013.023	241
1013.096	399
1013.168	-882
1013.241	277
1013.313	21
1013.385	-840
1013.458	-1098
1013.530	420
1013.602	-459
1013.674	155
1013.746	-994
1013.819	-1037
1013.891	-527
1013.963	-824
1014.035	-392
1014.107	-377
1014.179	-962
1014.251	-1437
1014.323	-712
1014.395	-209
1014.467	104
1014.539	-314
1014.611	-1290
1014.683	-993
1014.754	-852
1014.826	-680
1014.898	-354
1014.970	-1036
1015.042	-547
1015.113	365
1015.185	-729
1015.257	-907
1015.328	208
1015.400	-696
1015.471	-284
1015.543	-1308
1015.615	-869
1015.686	-730
1015.757	-382
1015.829	-247
1015.901	-1187
1015.972	-361
1016.043	-987
1016.115	-624
1016.186	-1055
1016.257	-1865
1016.328	62
1016.400	-226
1016.471	-1175
1016.542	10
1016.613	-857
1016.685	-227
1016.756	-215
1016.827	-360
1016.898	-1353
1016.969	-289
1017.040	-1027
1017.111	-734
1017.182	-1763
1017.253	-1156
1017.324	-1110
1017.395	-764
1017.466	-263
1017.537	-885
1017.608	-846
1017.678	-157
1017.749	-860
1017.820	-378
1017.891	-368
1017.961	-647
1018.032	-1408
1018.103	74
1018.173	-769
1018.244	-678
1018.315	-877
1018.385	-445
1018.456	-1108
1018.526	-680
1018.597	-791
1018.667	115
1018.738	-1268
1018.808	-369
1018.878	-1590
1018.949	-1071
1019.019	-1067
1019.089	-439
1019.160	-48
1019.230	-518
1019.300	-271
1019.371	-1466
1019.441	-1391
1019.511	-751
1019.581	-1214
1019.651	-492
1019.721	-1126
1019.791	-1456
1019.861	-1831
1019.931	-336
1020.001	-1296
1020.071	-147
1020.141	-1168
1020.211	-1077
1020.281	-912
1020.351	-1188
1020.421	-1087
1020.491	-787
1020.560	-1480
1020.630	-801
1020.700	-1311
1020.770	-515
1020.839	-992
1020.909	-600
1020.979	-465
1021.048	-934
1021.118	-1082
1021.187	-647
1021.257	-1119
1021.326	-44
1021.396	-1333
1021.465	-656
1021.535	-834
1021.604	-1206
1021.674	-542
1021.743	-843
1021.812	-1645
1021.882	-822
1021.951	-992
1022.020	-323
1022.089	-842
1022.159	-700
1022.228	-1328
1022.297	-331
1022.366	-1203
1022.435	-657
1022.504	-1342
1022.573	-644
1022.642	-266
1022.711	-952
1022.781	-1253
1022.849	-224
1022.918	-1508
1022.987	-211
1023.056	-1104
1023.125	-995
1023.194	-1278
1023.263	-233
1023.331	-83
1023.400	-1298
1023.469	-1937
1023.538	-252
1023.606	-1962
1023.675	-890
1023.744	-1363
1023.812	-985
1023.881	-1379
1023.949	-793
1024.018	-1477
1024.086	-1279
1024.155	-1321
1024.223	-1108
1024.292	-721
1024.360	-606
1024.429	-698
1024.497	-992
1024.565	-822
1024.634	-1235
1024.702	-823
1024.770	-749
1024.838	-1200
1024.907	-494
1024.975	-1414
1025.043	-631
1025.111	-1882
1025.179	-623
1025.247	-1223
1025.315	-571
1025.383	-925
1025.451	-1674
1025.519	-1916
1025.587	-930
1025.655	-140
1025.723	-1291
1025.791	-992
1025.859	-659
1025.927	-608
1025.995	-627
1026.062	-868
1026.130	-395
1026.198	-1485
1026.266	-1041
1026.333	-1097
1026.401	-1163
1026.469	-603
1026.536	-355
1026.604	-24
1026.671	-649
1026.739	-1354
1026.806	-29
1026.874	-1514
1026.941	-1045
1027.009	-1437
1027.076	-1897
1027.144	-950
1027.211	-851
1027.278	-1668
1027.345	-855
1027.413	-1213
1027.480	-1199
1027.547	-833
1027.614	-1847
1027.682	-1422
1027.749	-631
1027.816	-1312
1027.883	-1140
1027.950	-506
1028.017	-1190
1028.084	-1005
1028.151	-678
1028.218	-801
1028.285	-39
1028.352	-2039
1028.419	-757
1028.486	-1068
1028.553	-1061
1028.619	-1359
1028.686	-734
1028.753	-1143
1028.820	-951
1028.886	-896
1028.953	-859
1029.020	-1184
1029.086	-450
1029.153	-1399
1029.220	-676
1029.286	127
1029.353	-490
1029.419	-1323
1029.486	-1548
1029.552	-887
1029.619	-666
1029.685	-2235
1029.751	-606
1029.818	-581
1029.884	-1410
1029.951	-485
1030.017	-428
1030.083	-902
1030.149	-1282
1030.216	-1288
1030.282	-882
1030.348	-906
1030.414	-1072
1030.480	-1261
1030.546	-1034
1030.612	-860
1030.678	-1386
1030.744	-1047
1030.810	-1335
1030.876	-1543
1030.942	-1767
1031.008	-1127
1031.074	-577
1031.140	-2001
1031.206	-265
1031.272	-1701
1031.337	-1311
1031.403	-1523
1031.469	-1589
1031.534	-120
1031.600	-951
1031.666	-1276
1031.731	-1356
1031.797	-1222
1031.863	-1268
1031.928	-1273
1031.994	-1660
1032.059	-1334
1032.125	-1093
1032.190	-1671
1032.256	-1057
1032.321	-1367
1032.386	-1004
1032.452	-1318
1032.517	-1114
1032.582	-1410
1032.647	-818
1032.713	-2214
1032.778	-1136
1032.843	-980
1032.908	-1332
1032.974	-1573
1033.039	-940
1033.104	-517
1033.169	-772
1033.234	-1483
1033.299	-1016
1033.364	-1779
1033.429	-892
1033.494	-862
1033.559	-1504
1033.624	-1223
1033.688	-1139
1033.753	-1332
1033.818	-149
1033.883	-433
1033.948	-469
1034.013	-704
1034.077	578
1034.142	1152
1034.207	1830
1034.271	2780
1034.336	4648
1034.400	2561
1034.465	1182
1034.530	-767
1034.594	-1065
1034.658	-1861
1034.723	-1085
1034.787	-1533
1034.852	-1269
1034.916	-1440
1034.981	-1669
1035.045	-1341
1035.109	-1371
1035.173	-1970
1035.238	-990
1035.302	-1352
1035.366	-581
1035.430	-1373
1035.495	-1463
1035.559	-1231
1035.623	-1030
1035.687	-2048
1035.751	-1646
1035.815	-1627
1035.879	-1812
1035.943	-1567
1036.007	-1580
1036.071	-1475
1036.135	-468
1036.198	-2024
1036.262	-1014
1036.326	-2071
1036.390	-1848
1036.454	-1158
1036.517	-1119
1036.581	-1155
1036.645	-855
1036.709	-1229
1036.772	-1581
1036.836	-1345
1036.900	-1295
1036.963	-1218
1037.026	-1595
1037.090	-1907
1037.154	-1351
1037.217	-1337
1037.280	-1650
1037.344	-1733
1037.407	-1029
1037.471	-1717
1037.534	-567
1037.597	-1468
1037.661	-845
1037.724	-1531
1037.787	-838
1037.850	-1548
1037.913	-702
1037.977	-1115
1038.040	-683
1038.103	-1776
1038.166	-1648
1038.229	-888
1038.292	-1332
1038.355	-1795
1038.418	-1084
1038.481	-908
1038.544	-1423
1038.607	-2390
1038.670	-955
1038.732	-1234
1038.795	-1144
1038.858	-757
1038.921	-1200
1038.984	-1457
1039.046	-1678
1039.109	-1884
1039.172	-1066
1039.234	-1261
1039.297	-1545
1039.360	-1749
1039.422	-1893
1039.485	-1556
1039.547	-1899
1039.610	-975
1039.672	-1180
1039.734	-2109
1039.797	-1144
1039.859	-1990
1039.922	-1466
1039.984	-1646
1040.046	-1515
1040.109	-1453
1040.171	-1280
1040.233	-2112
1040.295	-2064
1040.358	-2269
1040.420	-1783
1040.482	-2042
1040.544	-1055
1040.606	-1345
1040.668	-2215
1040.730	-2053
1040.792	-1244
1040.854	-2015
1040.916	-2114
1040.978	-2684
1041.040	-1686
1041.102	-1580
1041.164	-2019
1041.225	-1750
1041.287	-2159
1041.349	-1878
1041.411	-1219
1041.472	-1157
1041.534	-1504
1041.596	-2065
1041.657	-2215
1041.719	-1785
1041.781	-1417
1041.842	-2550
1041.904	-1888
1041.965	-2236
1042.027	-1621
1042.088	-1746
1042.150	-2105
1042.211	-2088
1042.272	-1547
1042.334	-2028
1042.395	-1559
1042.456	-1848
1042.518	-1359
1042.579	-896
1042.640	-1417
1042.701	-1447
1042.763	-1503
1042.824	-1490
1042.885	-2258
1042.946	-1968
1043.007	-1570
1043.068	-1493
1043.129	-1732
1043.190	-2159
1043.251	-1767
1043.312	-2139
1043.373	-1499
1043.434	-2458
1043.495	-1415
1043.556	-1681
1043.616	-1971
1043.677	-1381
1043.738	-1455
1043.799	-1877
1043.859	-1475
1043.920	-2593
1043.981	-1557
1044.041	-1682
1044.102	-1981
1044.162	-2081
1044.223	-2073
1044.284	-1845
1044.344	-1280
1044.405	-1993
1044.465	-1728
1044.525	-2243
1044.586	-1754
1044.646	-1963
1044.707	-1304
1044.767	-1951
1044.827	-2000
1044.887	-2326
1044.948	-1231
1045.008	-1816
1045.068	-1180
1045.128	-950
1045.188	-1824
1045.249	-980
1045.309	-1664
1045.369	-1097
1045.429	-1570
1045.489	-2324
1045.549	-871
1045.609	-2128
1045.669	-1717
1045.729	-1466
1045.789	-1621
1045.848	-1947
1045.908	-1373
1045.968	-1641
1046.028	-1359
1046.088	-1611
1046.147	-1481
1046.207	-1032
1046.267	-1198
1046.326	-818
1046.386	-1828
1046.446	-1173
1046.505	-1070
1046.565	-1188
1046.624	-574
1046.684	-805
1046.743	-346
1046.803	-220
1046.862	18
1046.922	0
