'Start Wavelength	183.907
'End Wavelength	1046.922
'Gate Delay	5.000
'Gate Width (ms)	1.050
'Laser Output Level	0.000
'X Position	0.000
'Y Position	0.000
'Z Position	0.000
'Grid Point Number	1.000
'Shot Number	100.000
183.907	415.000
183.977	-143.000
184.047	697
184.116	972
184.186	849
184.256	445
184.325	-800
184.395	60
184.465	1192
184.534	462
184.604	-21
184.674	989
184.743	-471
184.813	703
184.883	382
184.952	340
185.022	341
185.092	645
185.161	182
185.231	749
185.301	252
185.370	592
185.440	-349
185.509	350
185.579	-150
185.649	449
185.718	368
185.788	940
185.857	-170
185.927	393
185.996	-443
186.066	862
186.136	463
186.205	303
186.275	709
186.344	690
186.414	209
186.483	935
186.553	792
186.622	1513
186.692	30
186.761	726
186.831	-241
186.900	714
186.970	1052
187.039	168
187.109	120
187.178	856
187.248	-106
187.317	62
187.387	141
187.456	805
187.526	213
187.595	916
187.664	302
187.734	1094
187.803	671
187.873	199
187.942	72
188.012	808
188.081	58
188.150	740
188.220	637
188.289	1532
188.358	696
188.428	594
188.497	552
188.567	1235
188.636	4
188.705	1232
188.775	-92
188.844	128
188.913	419
188.983	787
189.052	383
189.121	1179
189.191	511
189.260	1317
189.329	471
189.399	603
189.468	854
189.537	1141
189.606	-135
189.676	752
189.745	401
189.814	410
189.883	-114
189.953	-39
190.022	-92
190.091	-273
190.161	-270
190.230	1388
190.299	45
190.368	846
190.437	93
190.507	1105
190.576	919
190.645	1262
190.714	438
190.783	378
190.853	1328
190.922	1054
190.991	49
191.060	614
191.129	130
191.198	384
191.268	-88
191.337	1101
191.406	144
191.475	614
191.544	748
191.613	981
191.682	427
191.752	748
191.821	150
191.890	818
191.959	-281
192.028	746
192.097	799
192.166	1137
192.235	49
192.304	553
192.373	-452
192.442	68
192.511	811
192.580	242
192.650	92
192.719	871
192.788	-210
192.857	825
192.926	-496
192.995	750
193.064	9
193.133	693
193.202	491
193.271	488
193.340	345
193.409	541
193.478	221
193.547	1014
193.615	-205
193.684	468
193.753	161
193.822	420
193.891	-133
193.960	1111
194.029	-174
194.098	692
194.167	-136
194.236	1198
194.305	-534
194.374	541
194.443	157
194.512	1280
194.580	-174
194.649	959
194.718	229
194.787	817
194.856	46
194.925	750
194.994	-307
195.062	767
195.131	448
195.200	609
195.269	499
195.338	497
195.407	369
195.475	286
195.544	454
195.613	879
195.682	493
195.751	894
195.819	-98
195.888	1155
195.957	957
196.026	960
196.094	209
196.163	186
196.232	411
196.301	-5
196.369	-281
196.438	741
196.507	-206
196.576	279
196.644	68
196.713	946
196.782	478
196.850	701
196.919	1010
196.988	483
197.056	465
197.125	464
197.194	961
197.262	494
197.331	-325
197.400	858
197.468	475
197.537	-482
197.606	614
197.674	1013
197.743	339
197.812	694
197.880	-247
197.949	306
198.017	-277
198.086	430
198.155	149
198.223	392
198.292	-23
198.360	555
198.429	26
198.497	1391
198.566	340
198.635	308
198.703	796
198.772	831
198.840	-553
198.909	721
198.977	-27
199.046	475
199.114	276
199.183	452
199.251	-491
199.320	34
199.388	-616
199.457	379
199.525	777
199.594	975
199.662	271
199.731	1673
199.799	165
199.867	1572
199.936	358
200.004	1210
200.073	489
200.141	694
200.210	1371
200.278	611
200.346	503
200.415	1543
200.483	578
200.552	1044
200.620	1017
200.688	189
200.757	178
200.825	1150
200.893	-92
200.962	818
201.030	-149
201.098	703
201.167	498
201.235	798
201.303	-232
201.372	679
201.440	403
201.508	369
201.577	613
201.645	984
201.713	-13
201.781	372
201.850	151
201.918	438
201.986	557
202.055	1505
202.123	-600
202.191	549
202.259	450
202.327	513
202.396	649
202.464	532
202.532	15
202.600	1643
202.669	130
202.737	915
202.805	17
202.873	371
202.941	-257
203.009	657
203.078	508
203.146	835
203.214	-88
203.282	419
203.350	435
203.418	549
203.487	859
203.555	724
203.623	-100
203.691	660
203.759	-457
203.827	687
203.895	772
203.963	798
204.031	232
204.099	1282
204.168	680
204.236	562
204.304	1308
204.372	669
204.440	484
204.508	792
204.576	-655
204.644	1230
204.712	-67
204.780	441
204.848	580
204.916	257
204.984	-94
205.052	1075
205.120	-339
205.188	525
205.256	-435
205.324	641
205.392	390
205.460	791
205.528	-751
205.596	1382
205.664	442
205.732	316
205.799	148
205.867	409
205.935	0
206.003	812
206.071	-106
206.139	700
206.207	77
206.275	-12
206.343	0
206.411	452
206.478	337
206.546	1317
206.614	954
206.682	1049
206.750	440
206.818	1800
206.885	247
206.953	266
207.021	1110
207.089	384
207.157	-543
207.225	987
207.292	104
207.360	1103
207.428	-178
207.496	248
207.563	1199
207.631	518
207.699	627
207.767	554
207.834	-60
207.902	731
207.970	-5
208.038	81
208.105	450
208.173	810
208.241	203
208.309	1130
208.376	314
208.444	1518
208.512	-254
208.579	-443
208.647	913
208.715	1955
208.782	-28
208.850	816
208.918	-353
208.985	528
209.053	-118
209.120	674
209.188	-583
209.256	813
209.323	-126
209.391	426
209.459	1229
209.526	1071
209.594	-77
209.661	643
209.729	-162
209.796	700
209.864	314
209.932	-231
209.999	1540
210.067	985
210.134	1275
210.202	829
210.269	1285
210.337	2247
210.404	746
210.472	960
210.539	626
210.607	-1
210.674	781
210.742	1237
210.809	-34
210.877	759
210.944	414
211.012	-227
211.079	1323
211.146	824
211.214	1337
211.281	2187
211.349	2181
211.416	1041
211.484	608
211.551	279
211.618	506
211.686	1111
211.753	-404
211.821	982
211.888	1035
211.955	829
212.023	633
212.090	629
212.157	-313
212.225	703
212.292	479
212.359	440
212.427	-221
212.494	601
212.561	50
212.629	442
212.696	-270
212.763	56
212.831	-55
212.898	858
212.965	173
213.032	1260
213.100	-363
213.167	289
213.234	357
213.301	516
213.369	768
213.436	721
213.503	525
213.570	638
213.638	-256
213.705	340
213.772	-720
213.839	345
213.906	908
213.973	610
214.041	152
214.108	467
214.175	257
214.242	400
214.309	-257
214.376	984
214.444	-319
214.511	927
214.578	231
214.645	1372
214.712	1141
214.779	1507
214.846	-65
214.913	1722
214.980	2039
215.048	2760
215.115	2199
215.182	1553
215.249	1404
215.316	1285
215.383	1328
215.450	1420
215.517	597
215.584	1643
215.651	193
215.718	1148
215.785	648
215.852	-339
215.919	659
215.986	930
216.053	735
216.120	-125
216.187	500
216.254	472
216.321	-411
216.388	445
216.455	544
216.522	681
216.589	675
216.656	1446
216.722	794
216.789	568
216.856	193
216.923	-470
216.990	150
217.057	483
217.124	257
217.191	3
217.258	1559
217.324	564
217.391	-515
217.458	820
217.525	974
217.592	154
217.659	-504
217.725	933
217.792	14
217.859	1071
217.926	-654
217.993	824
218.059	896
218.126	758
218.193	-389
218.260	133
218.327	361
218.393	782
218.460	-1038
218.527	566
218.594	415
218.660	945
218.727	1016
218.794	445
218.860	480
218.927	695
218.994	-174
219.061	263
219.127	404
219.194	1165
219.261	120
219.327	191
219.394	1307
219.461	216
219.527	227
219.594	1190
219.661	545
219.727	577
219.794	1225
219.860	699
219.927	2901
219.994	4559
220.060	5659
220.127	5611
220.193	4994
220.260	2746
220.326	1555
220.393	1655
220.460	725
220.526	421
220.593	-185
220.659	1821
220.726	-431
220.792	743
220.859	-158
220.925	1136
220.992	308
221.058	127
221.125	37
221.191	1320
221.258	-765
221.324	1034
221.391	-398
221.457	-300
221.524	224
221.590	1208
221.657	-81
221.723	1095
221.789	-264
221.856	651
221.922	-181
221.989	1080
222.055	108
222.121	538
222.188	2324
222.254	1198
222.321	521
222.387	1767
222.453	1043
222.520	889
222.586	317
222.652	1276
222.719	-414
222.785	985
222.851	178
222.918	605
222.984	424
223.050	970
223.116	-1025
223.183	747
223.249	-1050
223.315	262
223.382	-162
223.448	888
223.514	-261
223.580	395
223.647	-550
223.713	350
223.779	-39
223.845	387
223.911	655
223.978	224
224.044	-530
224.110	395
224.176	-515
224.242	308
224.309	-586
224.375	1223
224.441	-445
224.507	676
224.573	-1170
224.639	771
224.705	-116
224.772	61
224.838	-115
224.904	1364
224.970	401
225.036	45
225.102	-576
225.168	1353
225.234	826
225.300	185
225.366	633
225.432	1097
225.499	353
225.565	1080
225.631	187
225.697	658
225.763	-163
225.829	184
225.895	5
225.961	768
226.027	-241
226.093	1090
226.159	1386
226.225	1619
226.291	188
226.357	996
226.423	-420
226.489	1432
226.554	954
226.620	1122
226.686	367
226.752	1103
226.818	-744
226.884	1393
226.950	1108
227.016	1321
227.082	1136
227.148	1875
227.214	689
227.279	2319
227.345	1671
227.411	4509
227.477	8029
227.543	9505
227.609	10674
227.674	11026
227.740	6508
227.806	4842
227.872	2337
227.938	2166
228.003	1264
228.069	1086
228.135	729
228.201	1001
228.267	1164
228.332	1008
228.398	89
228.464	1149
228.530	175
228.595	1297
228.661	-198
228.727	-447
228.792	990
228.858	68
228.924	-1650
228.990	2536
229.055	-745
229.121	1041
229.187	331
229.252	-106
229.318	331
229.384	632
229.449	-68
229.515	-743
229.581	-973
229.646	2235
229.712	422
229.777	303
229.843	-28
229.909	1669
229.974	469
230.040	1046
230.105	637
230.171	-114
230.236	273
230.302	-54
230.368	-605
230.433	-430
230.499	103
230.564	1411
230.630	-579
230.695	369
230.761	-54
230.826	-783
230.892	1036
230.957	34
231.023	-287
231.088	269
231.154	-295
231.219	980
231.284	-749
231.350	2037
231.415	202
231.481	792
231.546	-498
231.612	133
231.677	-113
231.742	-487
231.808	801
231.873	-177
231.939	-861
232.004	1904
232.069	649
232.135	394
232.200	185
232.265	1056
232.331	-493
232.396	648
232.461	-442
232.527	-415
232.592	-703
232.657	761
232.723	230
232.788	672
232.853	686
232.918	1095
232.984	-203
233.049	387
233.114	-247
233.179	835
233.245	1372
233.310	1500
233.375	-1302
233.440	1277
233.506	-1248
233.571	-69
233.636	539
233.701	635
233.766	-625
233.832	855
233.897	-1250
233.962	-514
234.027	261
234.092	615
234.157	733
234.222	1395
234.288	-347
234.353	673
234.418	883
234.483	677
234.548	-86
234.613	410
234.678	811
234.743	3
234.808	657
234.873	-171
234.938	808
235.004	77
235.069	142
235.134	-5
235.199	-164
235.264	1226
235.329	-977
235.394	641
235.459	958
235.524	79
235.589	-49
235.654	264
235.719	-642
235.784	740
235.849	44
235.913	558
235.978	-429
236.043	401
236.108	4
236.173	187
236.238	805
236.303	302
236.368	-395
236.433	1502
236.498	-79
236.563	537
236.627	-731
236.692	346
236.757	912
236.822	547
236.887	-776
236.952	260
237.017	-756
237.081	826
237.146	-137
237.211	751
237.276	-14
237.341	968
237.405	7
237.470	-429
237.535	428
237.600	764
237.664	716
237.729	-646
237.794	-984
237.859	1887
237.923	601
237.988	1140
238.053	399
238.118	303
238.182	735
238.247	2652
238.312	-1358
238.376	1674
238.441	-1885
238.506	1786
238.570	-1317
238.635	1875
238.700	910
238.764	629
238.829	700
238.893	789
238.958	1138
239.023	555
239.087	841
239.152	2176
239.216	564
239.281	2163
239.346	1191
239.410	1618
239.475	1122
239.539	3232
239.604	2007
239.668	5153
239.733	6905
239.797	13849
239.862	18325
239.926	20220
239.991	12743
240.055	7126
240.120	4016
240.184	3122
240.249	1887
240.313	2525
240.378	1323
240.442	1859
240.507	1768
240.571	1320
240.635	-473
240.700	1228
240.764	1121
240.829	686
240.893	-237
240.957	1791
241.022	1387
241.086	2257
241.151	-491
241.215	206
241.279	962
241.344	311
241.408	46
241.472	879
241.537	248
241.601	1199
241.665	-529
241.730	-165
241.794	579
241.858	380
241.922	759
241.987	1065
242.051	-60
242.115	-422
242.179	-299
242.244	-167
242.308	537
242.372	988
242.436	-489
242.501	1004
242.565	-22
242.629	-249
242.693	373
242.757	330
242.822	-654
242.886	1007
242.950	1097
243.014	-695
243.078	1054
243.142	425
243.206	-354
243.271	1517
243.335	-336
243.399	1672
243.463	-516
243.527	981
243.591	-918
243.655	1007
243.719	-13
243.783	1315
243.847	548
243.911	719
243.975	516
244.040	-136
244.104	1481
244.168	550
244.232	-67
244.296	1126
244.360	715
244.424	179
244.488	723
244.552	1278
244.615	-761
244.679	1243
244.743	83
244.807	458
244.871	-95
244.935	933
244.999	-1890
245.063	175
245.127	902
245.191	1773
245.255	-237
245.319	314
245.383	-1083
245.446	1516
245.510	-882
245.574	1474
245.638	653
245.702	-513
245.766	507
245.829	2476
245.893	-581
245.957	93
246.021	572
246.085	840
246.149	773
246.212	2807
246.276	2612
246.340	488
246.404	330
246.467	1696
246.531	-939
246.595	1739
246.659	486
246.722	-402
246.786	422
246.850	1245
246.913	648
246.977	7
247.041	1235
247.104	1043
247.168	795
247.232	2025
247.295	4332
247.359	2214
247.423	-210
247.486	1323
247.550	1164
247.614	237
247.677	382
247.741	1639
247.804	1079
247.868	2360
247.932	1063
247.995	5493
248.059	1220
248.122	535
248.186	1369
248.249	1949
248.313	7008
248.376	8537
248.440	4166
248.503	1663
248.567	2892
248.630	806
248.694	1413
248.757	2577
248.821	7485
248.884	5161
248.948	2294
249.011	6399
249.075	8461
249.138	8135
249.202	2202
249.265	98
249.328	2200
249.392	1550
249.455	1420
249.519	1552
249.582	1272
249.645	2141
249.709	1765
249.772	1264
249.835	403
249.899	1399
249.962	1787
250.025	784
250.089	2556
250.152	3891
250.215	981
250.279	1206
250.342	1751
250.405	1138
250.468	-250
250.532	1233
250.595	841
250.658	-69
250.721	727
250.785	996
250.848	1834
250.911	678
250.974	1544
251.038	1385
251.101	4089
251.164	1500
251.227	1100
251.290	1360
251.354	1257
251.417	895
251.480	345
251.543	1662
251.606	383
251.669	1134
251.732	950
251.795	2863
251.859	3338
251.922	816
251.985	663
252.048	373
252.111	1166
252.174	227
252.237	2211
252.300	8825
252.363	3042
252.426	4107
252.489	1029
252.552	1204
252.615	-179
252.678	2335
252.741	5495
252.804	2913
252.867	1439
252.930	5435
252.993	2404
253.056	3069
253.119	330
253.182	468
253.245	498
253.308	2164
253.371	742
253.434	2023
253.497	1058
253.559	4476
253.622	2082
253.685	1529
253.748	1895
253.811	1354
253.874	2162
253.937	1662
254.000	1686
254.062	2308
254.125	4315
254.188	3694
254.251	1654
254.314	2102
254.376	1769
254.439	1942
254.502	2017
254.565	2792
254.628	5511
254.690	1708
254.753	728
254.816	1033
254.878	1280
254.941	3188
255.004	3771
255.067	1827
255.129	-241
255.192	1938
255.255	157
255.317	1575
255.380	1594
255.443	1298
255.505	2499
255.568	896
255.631	588
255.693	2581
255.756	1159
255.819	3738
255.881	2949
255.944	2027
256.006	513
256.069	1689
256.132	836
256.194	1874
256.257	2002
256.319	1322
256.382	3108
256.444	6749
256.507	4237
256.569	3285
256.632	746
256.694	1456
256.757	1784
256.819	2145
256.882	1238
256.944	1166
257.007	2438
257.069	1798
257.132	1573
257.194	2402
257.257	708
257.319	1282
257.381	1101
257.444	1864
257.506	1073
257.569	3635
257.631	6455
257.693	3092
257.756	1530
257.818	1837
257.880	1029
257.943	2979
258.005	69
258.067	1283
258.130	1527
258.192	1589
258.254	706
258.317	1362
258.379	2005
258.441	4108
258.503	3535
258.566	2038
258.628	2654
258.690	1187
258.753	1523
258.815	2516
258.877	1265
258.939	1896
259.001	1547
259.064	1809
259.126	241
259.188	1826
259.250	1515
259.312	3379
259.375	4474
259.437	2574
259.499	2136
259.561	2554
259.623	1999
259.685	1691
259.747	2456
259.809	2604
259.872	3619
259.934	4633
259.996	5140
260.058	2872
260.120	423
260.182	1994
260.244	1694
260.306	2551
260.368	1897
260.430	1258
260.492	1571
260.554	4507
260.616	4028
260.678	2528
260.740	3666
260.802	2137
260.864	2665
260.926	1732
260.988	3055
261.050	1397
261.112	2034
261.174	4287
261.236	3038
261.298	2495
261.359	2378
261.421	4185
261.483	1064
261.545	3174
261.607	844
261.669	2378
261.731	1577
261.793	3274
261.854	1076
261.916	2982
261.978	1740
262.040	2611
262.102	1915
262.164	1391
262.225	2747
262.287	2590
262.349	1892
262.411	2720
262.472	2222
262.534	2140
262.596	2015
262.658	2959
262.719	1973
262.781	3575
262.843	2017
262.904	3102
262.966	1413
263.028	2420
263.090	2973
263.151	3952
263.213	2570
263.275	1869
263.336	2120
263.398	3267
263.459	1017
263.521	1593
263.583	2434
263.644	2861
263.706	1825
263.767	1845
263.829	2080
263.891	2716
263.952	1655
264.014	2135
264.075	1011
264.137	2638
264.198	2066
264.260	1657
264.321	1794
264.383	1731
264.444	2319
264.506	2037
264.567	1922
264.629	2724
264.690	-334
264.752	2543
264.813	2350
264.875	795
264.936	1837
264.998	2194
265.059	3300
265.120	3139
265.182	1969
265.243	1599
265.305	2944
265.366	2393
265.427	2169
265.489	3667
265.550	1589
265.611	2430
265.673	1988
265.734	2415
265.795	2358
265.857	1551
265.918	1399
265.979	2691
266.040	1523
266.102	2163
266.163	2042
266.224	2035
266.286	1612
266.347	1706
266.408	2103
266.469	3216
266.530	2317
266.592	1987
266.653	2165
266.714	3218
266.775	1558
266.836	3173
266.898	2094
266.959	2787
267.020	1847
267.081	3096
267.142	1186
267.203	2037
267.264	1502
267.326	3619
267.387	1868
267.448	2620
267.509	2135
267.570	2372
267.631	1459
267.692	1786
267.753	2856
267.814	2296
267.875	1819
267.936	3544
267.997	2169
268.058	2367
268.119	1883
268.180	2320
268.241	1268
268.302	2583
268.363	1288
268.424	2124
268.485	2493
268.546	1524
268.607	1776
268.668	2707
268.729	1721
268.790	1676
268.851	2350
268.912	3226
268.972	2731
269.033	1809
269.094	1990
269.155	2541
269.216	2519
269.277	2842
269.338	2421
269.398	2232
269.459	1801
269.520	2729
269.581	2349
269.642	3048
269.702	2542
269.763	2546
269.824	2634
269.885	1956
269.945	2864
270.006	3122
270.067	2287
270.128	2476
270.188	1713
270.249	2123
270.310	1701
270.370	3959
270.431	2384
270.492	2462
270.553	2914
270.613	2776
270.674	2858
270.734	2901
270.795	2325
270.856	2942
270.916	2967
270.977	3177
271.038	2475
271.098	3433
271.159	2042
271.219	3342
271.280	2940
271.340	2562
271.401	2369
271.462	2452
271.522	3229
271.583	3364
271.643	2755
271.704	2616
271.764	2767
271.825	4109
271.885	7651
271.946	13724
272.006	5598
272.066	7537
272.127	13483
272.187	18830
272.248	10984
272.308	6148
272.369	8709
272.429	7088
272.489	3653
272.550	4287
272.610	4219
272.671	3530
272.731	3625
272.791	4314
272.852	2969
272.912	3713
272.972	3311
273.033	3119
273.093	3489
273.153	4022
273.214	3031
273.274	3719
273.334	3421
273.394	8476
273.455	4493
273.515	4728
273.575	6269
273.635	5331
273.696	4287
273.756	9994
273.816	5355
273.876	4610
273.936	3471
273.997	5207
274.057	3786
274.117	3963
274.177	3909
274.237	10138
274.297	9515
274.358	5344
274.418	6346
274.478	6297
274.538	3470
274.598	3652
274.658	4805
274.718	5095
274.778	3908
274.838	4699
274.898	3893
274.958	6984
275.018	9117
275.078	7871
275.138	4046
275.198	3579
275.258	3267
275.318	3878
275.378	3620
275.438	4916
275.498	4400
275.558	4946
275.618	6528
275.678	7021
275.738	5366
275.798	5722
275.858	2928
275.918	4246
275.978	4046
276.038	4211
276.098	4250
276.157	5302
276.217	6852
276.277	5696
276.337	4100
276.397	4408
276.457	3746
276.517	5468
276.576	4066
276.636	4222
276.696	3715
276.756	4611
276.815	4424
276.875	5652
276.935	3462
276.995	5065
277.055	5726
277.114	6638
277.174	4367
277.234	4868
277.293	3786
277.353	3403
277.413	3524
277.472	3680
277.532	3803
277.592	4780
277.651	6718
277.711	11090
277.771	6136
277.830	12382
277.890	10002
277.950	8506
278.009	23341
278.069	12437
278.128	8910
278.188	13053
278.248	7341
278.307	13091
278.367	10250
278.426	5880
278.486	5032
278.545	4528
278.605	4628
278.664	4682
278.724	3878
278.783	5598
278.843	10886
278.902	6230
278.962	4470
279.021	4869
279.081	4992
279.140	5488
279.199	4566
279.259	4984
279.318	4895
279.378	6647
279.437	9136
279.496	28184
279.556	50676
279.615	44339
279.675	13159
279.734	9631
279.793	11711
279.853	28230
279.912	14528
279.971	8492
280.031	7744
280.090	12292
280.149	23254
280.208	12298
280.268	27764
280.327	36685
280.386	10406
280.445	8270
280.505	6501
280.564	6732
280.623	5211
280.682	6199
280.742	6204
280.801	5325
280.860	5071
280.919	5437
280.978	4431
281.037	4721
281.097	4236
281.156	5721
281.215	4411
281.274	5315
281.333	7478
281.392	7232
281.451	4818
281.510	5338
281.569	3194
281.628	4707
281.688	4178
281.747	4608
281.806	5160
281.865	4278
281.924	4117
281.983	4928
282.042	3922
282.101	3990
282.160	3716
282.219	4899
282.278	4250
282.337	5988
282.396	4761
282.454	5610
282.513	4962
282.572	5901
282.631	5679
282.690	5059
282.749	4169
282.808	4996
282.867	4742
282.926	5137
282.985	4634
283.043	4942
283.102	4663
283.161	5052
283.220	5485
283.279	8154
283.338	4908
283.396	5471
283.455	4396
283.514	4481
283.573	4964
283.631	5408
283.690	4994
283.749	4882
283.808	5056
283.866	6098
283.925	4585
283.984	5739
284.043	4164
284.101	6105
284.160	5253
284.219	6136
284.277	5646
284.336	6120
284.395	7254
284.453	8176
284.512	5747
284.570	6193
284.629	6438
284.688	6396
284.746	6396
284.805	7221
284.863	6707
284.922	7512
284.981	8219
285.039	12760
285.098	19542
285.156	40610
285.215	90585
285.273	100847
285.332	54384
285.390	27884
285.449	16868
285.507	13844
285.566	10191
285.624	10295
285.683	7952
285.741	8038
285.799	6379
285.858	7019
285.916	5880
285.975	5983
286.033	5473
286.091	6177
286.150	4405
286.208	5646
286.267	5418
286.325	6011
286.383	5458
286.442	6407
286.500	5179
286.558	5777
286.616	5432
286.675	5989
286.733	5371
286.791	5498
286.850	5111
286.908	5845
286.966	5824
287.024	6497
287.083	5182
287.141	5877
287.199	5704
287.257	6788
287.315	6090
287.374	5817
287.432	5954
287.490	6053
287.548	5265
287.606	5380
287.664	5964
287.723	5687
287.781	6292
287.839	6041
287.897	5105
287.955	5722
288.013	5172
288.071	5632
288.129	5164
288.187	6774
288.245	5648
288.303	5608
288.361	5081
288.419	4457
288.477	4607
288.535	5380
288.593	5371
288.651	5253
288.709	4146
288.767	5313
288.825	4646
288.883	4820
288.941	5583
288.999	5788
289.057	4934
289.115	5839
289.173	5000
289.231	6686
289.289	5701
289.346	6095
289.404	6460
289.462	6548
289.520	5804
289.578	6498
289.636	5291
289.694	6419
289.751	5939
289.809	5979
289.867	5844
289.925	7098
289.983	4952
290.040	6446
290.098	6205
290.156	5654
290.214	5164
290.271	6400
290.329	6480
290.387	7062
290.444	6154
290.502	5828
290.560	5132
290.617	5883
290.675	6354
290.733	6155
290.790	5927
290.848	6376
290.906	4903
290.963	5625
291.021	6551
291.078	6312
291.136	4723
291.194	6511
291.251	7463
291.309	6764
291.366	5691
291.424	6734
291.481	6322
291.539	6053
291.596	5984
291.654	6148
291.711	5856
291.769	7274
291.826	5626
291.884	6383
291.941	5878
291.999	5931
292.056	5864
292.114	6742
292.171	5946
292.228	7404
292.286	6715
292.343	7661
292.401	6076
292.458	7370
292.515	6543
292.573	7361
292.630	8142
292.687	6999
292.745	6158
292.802	6412
292.859	7212
292.917	8818
292.974	7353
293.031	6270
293.089	5772
293.146	6315
293.203	5692
293.260	6765
293.318	6461
293.375	7758
293.432	6113
293.489	6718
293.546	6245
293.604	7403
293.661	8512
293.718	14525
293.775	10020
293.832	8295
293.889	8188
293.947	9510
294.004	8151
294.061	7558
294.118	6479
294.175	9494
294.232	7243
294.289	7466
294.346	6076
294.403	7218
294.460	6020
294.517	7077
294.574	7176
294.631	7852
294.688	6126
294.745	8171
294.802	12907
294.859	11396
294.916	8026
294.973	8866
295.030	6523
295.087	7225
295.144	5855
295.201	7296
295.258	6422
295.315	7196
295.372	7731
295.429	13207
295.486	8265
295.542	5933
295.599	6014
295.656	6983
295.713	7442
295.770	11405
295.827	7460
295.883	6786
295.940	6737
295.997	6733
296.054	6233
296.111	6614
296.167	6861
296.224	6453
296.281	4927
296.338	6765
296.394	5261
296.451	6179
296.508	7071
296.564	10135
296.621	8295
296.678	13185
296.734	18973
296.791	11320
296.848	8229
296.904	7832
296.961	8315
297.018	11817
297.074	11237
297.131	8072
297.187	7018
297.244	7217
297.301	12315
297.357	23431
297.414	12244
297.470	8074
297.527	6999
297.583	7248
297.640	6548
297.696	7984
297.753	6552
297.809	6552
297.866	6066
297.922	6798
297.979	6882
298.035	6651
298.092	6090
298.148	9257
298.204	9423
298.261	7158
298.317	10063
298.374	16715
298.430	12683
298.486	8382
298.543	6867
298.599	7357
298.656	7029
298.712	7585
298.768	7730
298.824	7080
298.881	5240
298.937	7823
298.993	6356
299.050	6684
299.106	6746
299.162	7326
299.218	6682
299.275	7963
299.331	9434
299.387	11359
299.443	20436
299.500	45248
299.556	42344
299.612	20038
299.668	17299
299.724	36085
299.780	49286
299.837	25088
299.893	18147
299.949	30286
300.005	47917
300.061	37741
300.117	53575
300.173	33147
300.229	16052
300.285	12480
300.341	11515
300.397	11146
300.453	9906
300.510	10981
300.566	13304
300.622	20907
300.678	51553
300.734	75642
300.790	41571
300.845	29946
300.901	33625
300.957	52625
301.013	29716
301.069	16351
301.125	12290
301.181	10684
301.237	9007
301.293	8326
301.349	8441
301.405	8008
301.461	7203
301.516	9067
301.572	7940
301.628	7790
301.684	7066
301.740	7832
301.796	9288
301.851	9139
301.907	9320
301.963	11378
302.019	13650
302.074	33349
302.130	36579
302.186	20300
302.242	10858
302.297	9380
302.353	8785
302.409	10890
302.464	9584
302.520	9062
302.576	12839
302.631	15643
302.687	10175
302.743	7832
302.798	7016
302.854	6919
302.910	7379
302.965	7172
303.021	7142
303.076	7797
303.132	7312
303.187	8314
303.243	7697
303.299	7607
303.354	6145
303.410	7762
303.465	6373
303.521	6621
303.576	6369
303.632	8246
303.687	7454
303.743	13763
303.798	14467
303.853	9957
303.909	6671
303.964	7365
304.020	6565
304.075	7196
304.130	7501
304.186	8304
304.241	8755
304.297	8648
304.352	7680
304.358	7705
304.407	7909
304.449	7579
304.463	7476
304.518	8570
304.539	8047
304.573	7194
304.629	7603
304.630	7591
304.684	7292
304.720	10339
304.739	11875
304.794	16808
304.811	15569
304.850	12535
304.902	8344
304.905	8078
304.960	7236
304.992	6957
305.015	6736
305.071	6672
305.083	6546
305.126	6111
305.173	6801
305.181	6921
305.236	5766
305.264	6185
305.292	6608
305.347	6295
305.354	6360
305.402	6779
305.445	6574
305.457	6498
305.512	7062
305.535	6800
305.567	6515
305.622	6006
305.626	6041
305.678	6837
305.716	9319
305.733	10238
305.788	11817
305.807	11168
305.843	10281
305.897	12927
305.898	12952
305.953	14661
305.988	11414
306.008	9642
306.063	7749
306.078	7143
306.118	5513
306.168	5634
306.173	5670
306.228	5806
306.259	5680
306.283	5452
306.338	5132
306.349	5234
306.393	5703
306.440	5279
306.448	5234
306.503	6066
306.530	5706
306.558	5281
306.613	5812
306.620	5820
306.668	6290
306.711	8467
306.723	8822
306.778	8083
306.801	7737
306.833	7552
306.888	6427
306.892	6385
306.943	5927
306.982	5204
306.997	4891
307.052	4890
307.072	5058
307.107	5462
307.162	5527
307.163	5524
307.217	4885
307.253	4972
307.272	5051
307.327	4871
307.343	4956
307.381	5002
307.434	4231
307.436	4230
307.491	5668
307.524	6150
307.546	6156
307.600	7539
307.614	7173
307.655	5799
307.704	4949
307.710	4907
307.765	4297
307.795	4516
307.819	4698
307.874	4625
307.885	4662
307.929	4719
307.975	5338
307.984	5466
308.038	5618
308.065	5173
308.093	4632
308.148	4514
308.156	4524
308.202	4662
308.246	5039
308.257	5122
308.312	5198
308.336	5344
308.366	5418
308.421	4804
308.426	4741
308.475	4392
308.517	4397
308.530	4297
308.585	4393
308.607	4024
308.639	3684
308.694	3818
308.697	3838
308.748	4293
308.787	4391
308.803	4285
308.857	3740
308.877	3636
308.912	3923
308.967	4583
308.967	4596
309.021	5158
309.058	5141
309.076	5263
309.130	6497
309.148	6770
309.185	7276
309.238	8160
309.239	8176
309.293	8412
309.328	9007
309.348	8832
309.402	7050
309.418	6694
309.457	6533
309.508	6041
309.511	6041
309.566	6417
309.598	6762
309.620	7376
309.674	9444
309.688	9980
309.729	10124
309.778	9486
309.783	9406
309.837	8345
309.868	7827
309.892	7817
309.946	7771
309.959	7990
310.001	9322
310.049	10584
310.055	10417
310.109	8233
310.139	6855
310.163	6255
310.218	5611
310.229	5437
310.272	5339
310.319	5625
310.326	5601
310.381	5029
310.409	4946
310.435	4935
310.489	4694
310.499	4699
310.543	5003
310.589	5154
310.598	5176
310.652	5484
310.679	5562
310.706	5542
310.760	5662
310.769	5654
310.814	5760
310.859	6067
310.868	6062
310.923	5730
310.948	5715
310.977	6050
311.031	6541
311.038	6621
311.085	6032
311.128	5318
311.139	5300
311.193	5470
311.218	5471
311.247	5580
311.301	5929
311.308	5961
311.356	5756
311.398	5665
311.410	5678
311.464	5690
311.488	5705
311.518	5718
311.572	5746
311.578	5761
311.626	5671
311.668	5522
311.680	5514
311.734	5569
311.758	5567
311.788	5704
311.842	6017
311.847	6052
311.896	6000
311.937	5997
311.950	5884
312.004	5377
312.027	5182
312.058	5466
312.112	5980
312.117	6030
312.165	5512
312.207	5075
312.297	4659
312.386	5211
312.476	5207
312.566	6008
312.656	5763
312.745	5987
312.835	5891
312.925	7572
313.015	6122
313.104	7542
313.194	7753
313.284	7499
313.374	7773
313.463	8870
313.553	9902
313.643	9863
313.732	9631
313.822	9584
313.912	10928
314.001	11359
314.091	11414
314.180	11506
314.270	12198
314.360	11212
314.449	11214
314.539	11271
314.628	12236
314.718	12038
314.808	12385
314.897	13279
314.987	13901
315.076	14721
315.166	14867
315.255	13671
315.345	13365
315.434	13823
315.524	13423
315.613	15668
315.703	20785
315.792	50512
315.881	160689
315.971	61072
316.060	20232
316.150	15178
316.239	12923
316.328	13210
316.418	14278
316.507	15091
316.597	16692
316.686	17652
316.775	15624
316.865	14853
316.954	13083
317.043	12620
317.133	11384
317.222	10762
317.311	10428
317.400	10830
317.490	12138
317.579	13203
317.668	16648
317.757	27275
317.847	79567
317.936	224577
318.025	84196
318.114	77541
318.203	37379
318.293	17048
318.382	21168
318.471	23468
318.560	19422
318.649	15640
318.738	11725
318.828	10849
318.917	8327
319.006	8326
319.095	8841
319.184	9995
319.273	9292
319.362	10332
319.451	7932
319.540	8713
319.629	9130
319.718	10351
319.807	9558
319.896	9315
319.985	10421
320.074	11384
320.163	9418
320.252	10492
320.341	10479
320.430	10781
320.519	12192
320.608	13542
320.697	15215
320.786	16883
320.875	19009
320.964	20483
321.053	21158
321.142	23032
321.230	26026
321.319	26509
321.408	29607
321.497	30325
321.586	26188
321.675	22539
321.764	21107
321.852	22353
321.941	22974
322.030	24016
322.119	25439
322.207	30271
322.296	30877
322.385	33885
322.474	37458
322.562	39197
322.651	30510
322.740	26743
322.829	26223
322.917	19584
323.006	17655
323.095	18003
323.183	16983
323.272	15245
323.361	14541
323.449	14047
323.538	12623
323.626	13996
323.715	13964
323.804	11731
323.892	11443
323.981	12293
324.069	11840
324.158	10961
324.246	9949
324.335	11196
324.424	11599
324.512	10236
324.601	9773
324.689	10347
324.778	10096
324.866	11396
324.954	9112
325.043	8368
325.131	8477
325.220	9956
325.308	9732
325.397	8566
325.485	9056
325.574	9247
325.662	9801
325.750	8038
325.839	9559
325.927	8727
326.015	8505
326.104	7586
326.192	8568
326.280	8464
326.369	8130
326.457	8319
326.545	9313
326.634	8292
326.722	8898
326.810	9397
326.898	10675
326.987	11258
327.075	10223
327.163	10054
327.251	9712
327.340	10469
327.428	13742
327.516	17011
327.604	13317
327.692	11286
327.781	9008
327.869	9070
327.957	7527
328.045	8135
328.133	8347
328.221	7405
328.309	7434
328.397	8451
328.485	10177
328.574	15112
328.662	20767
328.750	15470
328.838	10931
328.926	8908
329.014	8762
329.102	8535
329.190	8582
329.278	7620
329.366	7750
329.454	7303
329.542	8058
329.630	7216
329.718	7533
329.806	7719
329.893	7807
329.981	7373
330.069	8297
330.157	7726
330.245	7973
330.333	8264
330.421	7540
330.509	7756
330.597	9516
330.684	9083
330.772	8125
330.860	6065
330.948	7280
331.036	7696
331.123	7520
331.211	7962
331.299	8299
331.387	7197
331.475	8006
331.562	8420
331.650	7680
331.738	8579
331.825	8427
331.913	8394
332.001	8356
332.089	7817
332.176	8640
332.264	8073
332.352	7516
332.439	7515
332.527	8284
332.614	7995
332.702	9019
332.790	9269
332.877	8939
332.965	9619
333.052	10813
333.140	10154
333.228	10939
333.315	10807
333.403	9638
333.490	10945
333.578	11125
333.665	14851
333.753	13651
333.840	14104
333.928	15601
334.015	18504
334.103	22626
334.190	27545
334.278	36155
334.365	46005
334.452	45985
334.540	36125
334.627	36660
334.715	45025
334.802	59212
334.889	80150
334.977	94562
335.064	67651
335.151	41750
335.239	31230
335.326	27072
335.413	27352
335.501	27670
335.588	30797
335.675	35062
335.762	41209
335.850	54984
335.937	73141
336.024	102104
336.111	134146
336.199	116455
336.286	66613
336.373	42282
336.460	30902
336.547	24575
336.635	21418
336.722	18509
336.809	16950
336.896	15037
336.983	14693
337.070	14140
337.157	14284
337.245	13329
337.332	15004
337.419	13708
337.506	13861
337.593	12380
337.680	12881
337.767	13425
337.854	11897
337.941	11371
338.028	11470
338.115	11442
338.202	12211
338.289	11664
338.376	11409
338.463	11100
338.550	9484
338.637	9753
338.724	9427
338.811	9963
338.898	9902
338.984	9598
339.071	9257
339.158	9068
339.245	9512
339.332	9770
339.419	9056
339.506	8934
339.593	8795
339.679	8982
339.766	9119
339.853	9392
339.940	10309
340.027	9231
340.113	9018
340.200	8736
340.287	8955
340.374	8493
340.460	8806
340.547	7514
340.634	8389
340.720	11279
340.807	9041
340.894	8797
340.980	10232
341.067	9168
341.154	9644
341.240	9267
341.327	10066
341.414	9522
341.500	9327
341.587	9374
341.674	9291
341.760	9203
341.847	9217
341.933	9062
342.020	7652
342.106	8365
342.193	8958
342.279	8917
342.366	8162
342.452	8833
342.539	9186
342.625	9089
342.712	10537
342.798	9200
342.885	8725
342.971	8545
343.058	8759
343.144	8427
343.230	8226
343.317	8256
343.403	8518
343.490	8856
343.576	7795
343.662	8672
343.749	8281
343.835	8427
343.921	9839
344.008	23472
344.094	40032
344.180	14587
344.267	9707
344.353	12617
344.439	11605
344.525	8743
344.612	8454
344.698	8052
344.784	7316
344.870	8812
344.957	8405
345.043	9134
345.129	8591
345.215	8753
345.301	8323
345.387	7944
345.474	7579
345.560	7818
345.646	7253
345.732	8688
345.818	8853
345.904	8183
345.990	8143
346.076	8136
346.162	7551
346.249	9293
346.335	8730
346.421	9948
346.507	11255
346.593	16971
346.679	9195
346.765	11696
346.851	17415
346.937	13888
347.023	11783
347.108	10180
347.194	9053
347.280	10139
347.366	13598
347.452	31913
347.538	45847
347.624	25387
347.710	15875
347.796	10216
347.882	9803
347.967	9351
348.053	9000
348.139	9582
348.225	9786
348.311	8711
348.397	9320
348.482	10855
348.568	11127
348.654	16577
348.740	42226
348.825	50517
348.911	25057
348.997	18173
349.083	21739
349.168	11112
349.254	10258
349.340	9588
349.425	10596
349.511	10759
349.597	9896
349.682	10909
349.768	13986
349.854	11490
349.939	9780
350.025	10089
350.110	8665
350.196	8545
350.282	8444
350.367	9525
350.453	9600
350.538	9017
350.624	9071
350.709	10114
350.795	8780
350.880	7925
350.966	9654
351.051	8647
351.137	8547
351.222	8321
351.308	11012
351.393	11655
351.479	8496
351.564	8589
351.649	9061
351.735	8758
351.820	8881
351.906	8707
351.991	8791
352.076	10037
352.162	11211
352.247	8922
352.332	8971
352.418	8855
352.503	8162
352.588	12640
352.673	10829
352.759	9270
352.844	7958
352.929	8257
353.014	8390
353.100	10299
353.185	13921
353.270	10754
353.355	9625
353.441	8561
353.526	7018
353.611	8344
353.696	8028
353.781	9624
353.866	7741
353.952	9062
354.037	9128
354.122	10407
354.207	10088
354.292	9002
354.377	8414
354.462	8373
354.547	8778
354.632	9992
354.717	10686
354.802	14050
354.887	10898
354.972	9825
355.057	8974
355.142	8008
355.227	9496
355.312	8896
355.397	9772
355.482	11075
355.567	9393
355.652	10306
355.737	9677
355.822	13518
355.907	11996
355.991	9850
356.076	8378
356.161	8906
356.246	9761
356.331	10017
356.416	11444
356.501	23550
356.585	22703
356.670	10172
356.755	12870
356.840	13127
356.924	25718
357.009	47136
357.094	20589
357.179	10308
357.263	10550
357.348	11851
357.433	10209
357.517	10942
357.602	10162
357.687	10175
357.771	12618
357.856	11299
357.941	11812
358.025	18454
358.110	52331
358.195	25673
358.279	11756
358.364	11611
358.448	13994
358.533	19810
358.617	16642
358.702	16782
358.787	12372
358.871	10702
358.956	11322
359.040	10398
359.125	11074
359.209	11126
359.294	12249
359.378	18952
359.462	17877
359.547	11694
359.631	9694
359.716	9565
359.800	10097
359.885	10828
359.969	9868
360.053	11661
360.138	10302
360.222	10598
360.306	10585
360.391	10970
360.475	11741
360.559	11778
360.644	14042
360.728	12754
360.812	20074
360.896	31014
360.981	16990
361.065	13526
361.149	12637
361.233	12748
361.318	12377
361.402	12513
361.486	14064
361.570	14324
361.654	15243
361.739	17366
361.823	29499
361.907	39822
361.991	24720
362.075	27774
362.159	39082
362.243	66026
362.327	128727
362.411	155757
362.495	73434
362.580	45275
362.664	44204
362.748	52390
362.832	80514
362.916	144204
363.000	283899
363.084	316108
363.168	159457
363.252	67274
363.336	42712
363.420	34539
363.503	30010
363.587	26894
363.671	28499
363.755	28215
363.839	34346
363.923	36611
364.007	46942
364.091	64952
364.175	96965
364.258	176917
364.342	326576
364.426	422058
364.510	254165
364.594	111702
364.677	62795
364.761	54828
364.845	41475
364.929	25664
365.013	22129
365.096	20463
365.180	18370
365.264	16484
365.347	16706
365.431	14346
365.515	14322
365.598	14249
365.682	15978
365.766	14668
365.849	14355
365.933	14128
366.017	16248
366.100	14661
366.184	14906
366.267	16195
366.351	14126
366.435	13020
366.518	14509
366.602	14173
366.685	13669
366.769	14227
366.852	13645
366.936	14444
367.019	14482
367.103	13049
367.186	15075
367.270	13756
367.353	13866
367.436	16745
367.520	15996
367.603	16526
367.687	14820
367.770	15308
367.853	15110
367.937	18070
368.020	19558
368.104	13543
368.187	14713
368.270	13866
368.353	12620
368.437	12411
368.520	12079
368.603	12070
368.687	13288
368.770	17091
368.853	11191
368.936	12850
369.020	12045
369.103	11062
369.186	11449
369.269	10806
369.352	12248
369.436	12294
369.519	11229
369.602	9766
369.685	13490
369.768	10384
369.851	12546
369.934	10449
370.018	11185
370.101	11114
370.184	13507
370.267	12122
370.350	13135
370.433	14024
370.516	38599
370.599	104274
370.682	52379
370.765	19202
370.848	17956
370.931	20107
371.014	14471
371.097	9771
371.180	11036
371.263	11317
371.346	10011
371.429	11166
371.511	10304
371.594	11041
371.677	11896
371.760	12091
371.843	12537
371.926	25150
372.009	45734
372.091	21501
372.174	14591
372.257	22283
372.340	14821
372.423	11997
372.505	12645
372.588	11587
372.671	15090
372.754	18548
372.836	15667
372.919	12359
373.002	12307
373.085	11494
373.167	13640
373.250	16228
373.332	23151
373.415	34784
373.498	60866
373.580	45267
373.663	137390
373.746	136608
373.828	33083
373.911	18410
373.993	16249
374.076	15419
374.159	14596
374.241	15844
374.324	21990
374.406	20018
374.489	26007
374.571	46813
374.654	24338
374.736	20217
374.819	34431
374.901	45983
374.983	45247
375.066	20903
375.148	16941
375.231	17026
375.313	19362
375.395	18294
375.478	17724
375.560	18368
375.643	18566
375.725	21514
375.807	38923
375.890	29032
375.972	15142
376.054	15681
376.136	15649
376.219	14870
376.301	19847
376.383	30697
376.465	19436
376.548	14106
376.630	16002
376.712	25393
376.794	17002
376.877	11828
376.959	11640
377.041	11765
377.123	10729
377.205	11395
377.287	11446
377.369	12160
377.452	12660
377.534	13170
377.616	12923
377.698	13160
377.780	12160
377.862	11946
377.944	12981
378.026	11766
378.108	13260
378.190	11786
378.272	13030
378.354	11803
378.436	10655
378.518	11419
378.600	11754
378.682	12438
378.764	15051
378.846	14515
378.928	11823
379.010	10775
379.091	12733
379.173	11837
379.255	10941
379.337	10664
379.419	13301
379.501	17594
379.583	13264
379.664	11869
379.746	11177
379.828	15430
379.910	15868
379.991	16177
380.073	11458
380.155	11649
380.237	10555
380.318	10711
380.400	11713
380.482	12001
380.564	12054
380.645	14557
380.727	13949
380.809	12064
380.890	10828
380.972	10594
381.053	10538
381.135	12101
381.217	12222
381.298	15903
381.380	11820
381.461	12418
381.543	24847
381.624	27844
381.706	12885
381.787	12120
381.869	13126
381.951	19271
382.032	45348
382.113	30791
382.195	11992
382.276	15102
382.358	18673
382.439	25104
382.521	28700
382.602	41104
382.684	22773
382.765	27993
382.846	30630
382.928	41701
383.009	28362
383.090	28193
383.172	63309
383.253	79642
383.334	36664
383.416	36548
383.497	24939
383.578	20285
383.659	27572
383.741	65750
383.822	127904
383.903	64217
383.984	30241
384.066	37634
384.147	27436
384.228	22038
384.309	22728
384.390	23421
384.471	22761
384.553	20353
384.634	19364
384.715	18742
384.796	17189
384.877	17817
384.958	21862
385.039	20800
385.120	17337
385.201	16583
385.282	17447
385.363	19765
385.444	19518
385.525	22331
385.606	30945
385.687	28573
385.768	22555
385.849	23036
385.930	36251
386.011	48943
386.092	27004
386.173	23715
386.254	21835
386.335	21989
386.416	21031
386.496	22671
386.577	24600
386.658	20845
386.739	20740
386.820	22945
386.901	22360
386.981	25587
387.062	27719
387.143	29870
387.224	33669
387.304	36294
387.385	35056
387.466	32385
387.547	35756
387.627	36337
387.708	37398
387.789	43506
387.869	43180
387.950	33508
388.031	29462
388.111	25567
388.192	28868
388.273	29650
388.353	26159
388.434	22426
388.514	22637
388.595	33399
388.676	33979
388.756	24275
388.837	22776
388.917	21104
388.998	16946
389.078	20131
389.159	18232
389.239	17330
389.320	19754
389.400	17229
389.480	19753
389.561	22690
389.641	21199
389.722	18334
389.802	17526
389.883	21363
389.963	25360
390.043	21088
390.124	18084
390.204	18944
390.284	23345
390.365	19094
390.445	19217
390.525	18314
390.605	20583
390.686	18611
390.766	20797
390.846	20883
390.927	19214
391.007	19654
391.087	22423
391.167	20333
391.247	19569
391.328	22706
391.408	23172
391.488	23729
391.568	22898
391.648	24078
391.728	26924
391.808	28418
391.888	28659
391.969	32136
392.049	34591
392.129	35390
392.209	37397
392.289	46175
392.369	44701
392.449	46866
392.529	49735
392.609	58626
392.689	66155
392.769	81235
392.849	96468
392.929	121345
393.009	163501
393.089	232687
393.169	367651
393.248	583273
393.328	698182
393.408	685384
393.488	563613
393.568	348382
393.648	213161
393.728	142034
393.807	102993
393.887	81457
393.967	67255
394.047	56386
394.127	47775
394.206	43965
394.286	40510
394.366	37335
394.446	36701
394.525	32510
394.605	31682
394.685	30700
394.764	34480
394.844	54931
394.924	72588
395.003	40365
395.083	29557
395.163	27949
395.242	26439
395.322	26826
395.402	25569
395.481	29671
395.561	34741
395.640	79320
395.720	149285
395.799	82987
395.879	40822
395.958	35274
396.038	36752
396.117	40214
396.197	45670
396.276	51950
396.356	60711
396.435	78377
396.515	105858
396.594	158929
396.673	283304
396.753	513717
396.832	659772
396.912	593975
396.991	349332
397.070	186547
397.150	116722
397.229	95426
397.308	138443
397.388	221173
397.467	124586
397.546	56314
397.625	39674
397.705	37049
397.784	32029
397.863	29744
397.942	27332
398.022	25580
398.101	23291
398.180	22593
398.259	21424
398.338	21796
398.417	19253
398.497	19403
398.576	19087
398.655	17269
398.734	18405
398.813	16733
398.892	16437
398.971	15684
399.050	15362
399.129	16311
399.208	15600
399.287	15961
399.366	13553
399.445	14277
399.524	14833
399.603	12504
399.682	14607
399.761	14591
399.840	13383
399.919	14405
399.998	13754
400.077	12037
400.156	12874
400.235	15583
400.313	11791
400.392	12070
400.471	14776
400.550	14122
400.629	12216
400.708	12527
400.786	11119
400.865	11104
400.944	10342
401.023	13707
401.102	10946
401.180	10879
401.259	10658
401.338	10479
401.416	11358
401.495	10068
401.574	11665
401.652	10320
401.731	11939
401.810	11172
401.888	10695
401.967	10163
402.046	10258
402.124	10134
402.203	9749
402.281	9779
402.360	9942
402.438	10333
402.517	8961
402.596	10406
402.674	10297
402.753	9840
402.831	10962
402.910	12641
402.988	21773
403.066	52589
403.145	33267
403.223	23776
403.302	47846
403.380	38726
403.459	39391
403.537	21331
403.615	15537
403.694	12382
403.772	13354
403.850	12305
403.929	12234
404.007	11619
404.085	16094
404.164	16034
404.242	13184
404.320	12406
404.398	12632
404.477	14945
404.555	30558
404.633	25812
404.711	13207
404.789	11511
404.868	11362
404.946	10977
405.024	11093
405.102	9567
405.180	9409
405.258	8139
405.336	10065
405.415	8831
405.493	11537
405.571	12352
405.649	9882
405.727	9697
405.805	12375
405.883	12694
405.961	11643
406.039	10376
406.117	9090
406.195	10203
406.273	12242
406.351	22842
406.429	17154
406.507	8777
406.585	9388
406.663	10544
406.740	9590
406.818	8271
406.896	8668
406.974	10364
407.052	9842
407.130	16860
407.208	19450
407.285	11249
407.363	9733
407.441	10874
407.519	10471
407.596	13042
407.674	32664
407.752	104349
407.830	71672
407.907	18864
407.985	12338
408.063	10910
408.141	9857
408.218	10999
408.296	10426
408.373	13372
408.451	14019
408.529	12125
408.606	13130
408.684	14020
408.762	14511
408.839	14976
408.917	16146
408.994	17483
409.072	18441
409.149	22534
409.227	33500
409.304	44345
409.382	50058
409.459	57230
409.537	69122
409.614	65474
409.692	57191
409.769	56092
409.846	71249
409.924	80973
410.001	67606
410.079	53217
410.156	42110
410.233	34521
410.311	28234
410.388	26259
410.465	24458
410.543	21938
410.620	21738
410.697	19192
410.775	20143
410.852	18924
410.929	20837
411.006	19974
411.083	19330
411.161	17696
411.238	17341
411.315	16096
411.392	15793
411.469	16596
411.547	14595
411.624	12692
411.701	13420
411.778	12856
411.855	13737
411.932	12469
412.009	11481
412.086	12049
412.163	11345
412.240	11450
412.317	11447
412.394	10960
412.471	12213
412.548	9906
412.625	10675
412.702	9853
412.779	10936
412.856	10211
412.933	9353
413.010	10688
413.087	10173
413.164	10597
413.241	12163
413.318	9055
413.395	9830
413.471	9385
413.548	9689
413.625	10037
413.702	8531
413.779	8768
413.855	8934
413.932	8701
414.009	8594
414.086	9069
414.162	10045
414.239	8931
414.316	11231
414.393	13424
414.469	9890
414.546	8246
414.623	8820
414.699	8568
414.776	8126
414.853	8614
414.929	8567
415.006	7878
415.082	8029
415.159	8396
415.236	7948
415.312	9805
415.389	8934
415.465	7563
415.542	7591
415.618	7110
415.695	8488
415.771	8099
415.848	7660
415.924	8785
416.000	8394
416.077	8327
416.153	7761
416.230	7881
416.306	8304
416.383	8066
416.459	9388
416.535	7732
416.612	7841
416.688	8282
416.764	7433
416.841	7427
416.917	7954
416.993	8050
417.069	7766
417.146	7825
417.222	7958
417.298	8242
417.374	8209
417.451	8214
417.527	7686
417.603	8237
417.679	8353
417.755	7751
417.831	7706
417.908	8573
417.984	9223
418.060	7473
418.136	9395
418.212	8850
418.288	8813
418.364	9316
418.440	7629
418.516	9654
418.592	9204
418.668	9865
418.744	9269
418.820	10503
418.896	9932
418.972	9016
419.048	10752
419.124	10918
419.200	9694
419.276	10790
419.352	10071
419.428	11805
419.504	10523
419.579	11152
419.655	11726
419.731	12041
419.807	12962
419.883	13287
419.959	13960
420.034	14277
420.110	14741
420.186	16595
420.262	17674
420.337	15858
420.413	17797
420.489	18095
420.565	20305
420.640	19435
420.716	21753
420.792	21406
420.867	24090
420.943	23126
421.019	25369
421.094	26351
421.170	29195
421.245	30955
421.321	34025
421.397	38474
421.472	58272
421.548	101073
421.623	75973
421.699	57227
421.774	62422
421.850	69559
421.925	82265
422.001	94697
422.076	114604
422.152	138609
422.227	174151
422.302	221062
422.378	281640
422.453	350665
422.529	362787
422.604	258285
422.679	161855
422.755	264455
422.830	376917
422.905	352954
422.981	288970
423.056	230999
423.131	186301
423.207	146874
423.282	121677
423.357	102399
423.432	85959
423.508	77408
423.583	67044
423.658	60091
423.733	53725
423.808	49658
423.883	48126
423.959	49520
424.034	52235
424.109	49270
424.184	38739
424.259	33475
424.334	30552
424.409	27142
424.484	25816
424.559	24575
424.634	22245
424.709	21496
424.784	19991
424.859	19346
424.934	19080
425.009	19154
425.084	20141
425.159	16507
425.234	16893
425.309	15736
425.384	15221
425.459	14250
425.534	15053
425.609	13303
425.683	13993
425.758	13498
425.833	13937
425.908	13870
425.983	13364
426.058	15891
426.132	13681
426.207	11969
426.282	12699
426.357	12144
426.431	12128
426.506	11981
426.581	11756
426.655	10941
426.730	11361
426.805	9765
426.879	12537
426.954	10713
427.029	10506
427.103	14067
427.178	19355
427.253	13916
427.327	11207
427.402	9431
427.476	9772
427.551	9539
427.625	10460
427.700	9884
427.774	9691
427.849	10517
427.923	11434
427.998	13199
428.072	15361
428.147	29796
428.221	91376
428.296	210481
428.370	124118
428.444	32085
428.519	17240
428.593	14384
428.667	16027
428.742	19774
428.816	43736
428.890	141554
428.965	190880
429.039	60792
429.113	18608
429.188	13878
429.262	12039
429.336	12536
429.410	12178
429.485	13473
429.559	12328
429.633	13706
429.707	18462
429.781	39370
429.855	136765
429.930	173364
430.004	64468
430.078	50251
430.152	118159
430.226	277820
430.300	259704
430.374	91682
430.448	37214
430.522	24581
430.596	27550
430.670	58924
430.744	173150
430.818	171658
430.892	45995
430.966	16652
431.040	12322
431.114	10136
431.188	9440
431.262	8704
431.336	8805
431.410	9184
431.484	10247
431.557	12232
431.631	14150
431.705	24598
431.779	77459
431.853	204890
431.927	140357
432.000	34091
432.074	14240
432.148	9593
432.222	7354
432.295	7580
432.369	6845
432.443	6780
432.516	10969
432.590	16240
432.664	8534
432.737	6581
432.811	6074
432.885	4876
432.958	6425
433.032	5472
433.106	5401
433.179	5771
433.253	6130
433.326	5883
433.400	6139
433.473	7084
433.547	5509
433.620	5366
433.694	6162
433.767	7258
433.841	6885
433.914	6870
433.988	7630
434.061	7470
434.134	6945
434.208	6545
434.281	5738
434.355	5876
434.428	6318
434.501	6094
434.575	5872
434.648	5484
434.721	6439
434.795	5554
434.868	5948
434.941	7522
435.014	7110
435.088	8504
435.161	9156
435.234	10643
435.307	12556
435.381	15223
435.454	22027
435.527	32296
435.600	36676
435.673	33805
435.746	27623
435.819	22529
435.892	19350
435.966	15667
436.039	13299
436.112	11558
436.185	10404
436.258	9130
436.331	9199
436.404	8810
436.477	7904
436.550	8211
436.623	8702
436.696	7204
436.769	6696
436.842	6341
436.915	6578
436.987	6545
437.060	6434
437.133	6594
437.206	6555
437.279	6472
437.352	5683
437.425	5297
437.498	6483
437.570	5996
437.643	5634
437.716	5480
437.789	5129
437.861	5109
437.934	4975
438.007	5294
438.080	5796
438.152	6084
438.225	6474
438.298	11858
438.370	25625
438.443	13713
438.516	5982
438.588	6237
438.661	5955
438.734	5876
438.806	6322
438.879	5788
438.951	5713
439.024	6222
439.096	5277
439.169	5267
439.241	5613
439.314	6033
439.386	4857
439.459	5549
439.531	5217
439.604	4819
439.676	6063
439.749	5013
439.821	5406
439.893	5882
439.966	5409
440.038	4983
440.110	5552
440.183	4822
440.255	4446
440.327	7576
440.400	9057
440.472	14445
440.544	11069
440.617	6616
440.689	6957
440.761	5796
440.833	5979
440.905	6572
440.978	5934
441.050	6002
441.122	7058
441.194	6336
441.266	6654
441.338	6898
441.411	7399
441.483	9509
441.555	9376
441.627	7885
441.699	7506
441.771	7751
441.843	8827
441.915	8920
441.987	10371
442.059	11235
442.131	12395
442.203	14917
442.275	19690
442.347	31897
442.419	68547
442.491	200897
442.563	328232
442.635	170985
442.706	55948
442.778	28970
442.850	22770
442.922	18334
442.994	19247
443.066	23061
443.137	25734
443.209	35380
443.281	53815
443.353	104623
443.425	239876
443.496	437756
443.568	456684
443.640	254984
443.711	95535
443.783	46186
443.855	29709
443.926	23258
443.998	17336
444.070	16515
444.141	14613
444.213	13966
444.285	13253
444.356	12684
444.428	12141
444.499	12798
444.571	13169
444.642	14609
444.714	13782
444.785	14801
444.857	17204
444.928	18559
445.000	22802
445.071	28005
445.143	36621
445.214	55446
445.285	90399
445.357	183104
445.428	369691
445.500	484805
445.571	471604
445.642	357522
445.714	171407
445.785	70570
445.856	40898
445.928	28227
445.999	21491
446.070	17427
446.141	15163
446.213	14152
446.284	12124
446.355	10308
446.426	9781
446.497	8987
446.569	8599
446.640	7463
446.711	7510
446.782	7212
446.853	6604
446.924	7255
446.995	6719
447.066	5748
447.138	4940
447.209	5627
447.280	5126
447.351	4292
447.422	4616
447.493	5082
447.564	4383
447.635	4297
447.706	4626
447.777	4907
447.847	4021
447.918	3437
447.989	4747
448.060	3983
448.131	3529
448.202	3050
448.273	4363
448.344	4535
448.414	4605
448.485	4367
448.556	5285
448.627	3806
448.698	3695
448.768	4186
448.839	4220
448.910	3798
448.981	4251
449.051	4388
449.122	3965
449.193	3693
449.263	3572
449.334	3762
449.405	4530
449.475	4263
449.546	4940
449.616	6024
449.687	5582
449.758	5749
449.828	4498
449.899	4046
449.969	4529
450.040	3604
450.110	4674
450.181	3943
450.251	4224
450.322	4389
450.392	4464
450.463	3547
450.533	3991
450.604	4258
450.674	4897
450.744	6860
450.815	6770
450.885	6609
450.955	8047
451.026	7083
451.096	6518
451.166	6158
451.237	7141
451.307	9041
451.377	8642
451.447	6796
451.518	6808
451.588	5392
451.658	5006
451.728	4734
451.799	4786
451.869	4701
451.939	5525
452.009	4577
452.079	4628
452.149	5420
452.219	6652
452.289	6227
452.360	7286
452.430	7928
452.500	11293
452.570	16823
452.640	34517
452.710	73035
452.780	85404
452.850	57189
452.920	31722
452.990	20849
453.060	13767
453.129	9540
453.199	7942
453.269	7696
453.339	6988
453.409	6297
453.479	5591
453.549	5197
453.619	5199
453.688	3937
453.758	4693
453.828	4881
453.898	4218
453.968	4004
454.037	4148
454.087	3654
454.107	3408
454.168	3961
454.177	3987
454.247	4755
454.249	4772
454.316	4020
454.330	4066
454.386	4065
454.411	4338
454.456	4674
454.492	4921
454.525	5061
454.574	5003
454.595	4939
454.655	4355
454.665	4193
454.734	5021
454.736	5106
454.804	5890
454.817	5899
454.873	5732
454.898	5520
454.943	5041
454.979	5174
455.013	5233
455.060	5793
455.082	5948
455.141	5467
455.152	5331
455.221	5135
455.222	5186
455.291	5282
455.303	5383
455.360	5542
455.384	5966
455.430	6388
455.465	6414
455.499	6371
455.546	5836
455.569	5521
455.627	6004
455.638	6045
455.707	5839
455.708	5891
455.777	6084
455.789	6143
455.846	6190
455.869	6410
455.916	6731
455.950	6626
455.985	6378
456.031	6529
456.054	6545
456.112	7175
456.124	7286
456.193	7149
456.193	7089
456.262	7690
456.274	7791
456.332	8343
456.355	8420
456.401	8449
456.436	8593
456.470	8485
456.516	8396
456.540	8333
456.597	8666
456.609	8650
456.678	9317
456.678	9258
456.747	9764
456.759	9789
456.817	10059
456.840	10320
456.886	10109
456.920	10420
456.955	10993
457.001	11300
457.024	11176
457.082	11806
457.093	12004
457.162	12989
457.163	13065
457.232	13417
457.243	13530
457.301	14316
457.324	14987
457.370	16204
457.405	16995
457.439	17930
457.485	20080
457.508	21612
457.566	25963
457.577	27739
457.646	40914
457.647	41261
457.715	90909
457.727	101813
457.784	183414
457.808	231059
457.853	284450
457.889	328642
457.922	309117
457.969	230934
457.991	240594
458.050	278386
458.060	290528
458.129	446762
458.130	452115
458.198	433370
458.211	410158
458.267	260216
458.292	188730
458.336	141823
458.372	126332
458.405	156646
458.453	216061
458.474	270465
458.533	455878
458.543	468752
458.611	640254
458.614	645495
458.680	436835
458.694	373072
458.749	211091
458.775	147827
458.818	97933
458.855	73495
458.887	60865
458.936	47352
458.955	43699
459.016	35803
459.024	35009
459.093	30627
459.097	30432
459.162	26472
459.177	26054
459.230	25321
459.257	24809
459.299	23390
459.338	21982
459.368	21510
459.418	21456
459.437	21256
459.499	20516
459.505	20369
459.574	19510
459.579	19452
459.643	18186
459.659	18107
459.711	18789
459.740	19063
459.780	18985
459.820	18786
459.849	18757
459.900	18736
459.917	18471
459.981	18212
459.986	18187
460.054	17542
460.061	17544
460.123	17626
460.141	17756
460.191	18445
460.222	18656
460.260	18575
460.302	18725
460.328	19198
460.382	20563
460.397	21288
460.462	24264
460.465	24999
460.534	42994
460.543	45425
460.602	114071
460.623	139643
460.671	213958
460.703	275227
460.739	239860
460.783	181929
460.808	147963
460.864	41542
460.876	35308
460.944	22179
460.945	22047
461.013	18810
461.024	18369
461.081	17918
461.104	18090
461.150	17908
461.184	17621
461.218	18263
461.264	19033
461.286	18586
461.345	17934
461.355	17913
461.423	17347
461.425	17332
461.491	16837
461.505	16975
461.559	17201
461.585	16910
461.628	16954
461.665	17355
461.696	17277
461.745	16737
461.764	16637
461.825	16428
461.832	16496
461.901	17581
461.905	17664
461.969	17103
461.985	16838
462.037	17623
462.065	18090
462.105	17326
462.145	16746
462.173	17110
462.225	17572
462.241	17657
462.305	17856
462.310	17938
462.378	19386
462.385	19533
462.446	20104
462.465	20355
462.514	19542
462.545	18881
462.582	18636
462.625	18394
462.650	18124
462.705	17543
462.718	17629
462.785	17830
462.786	17827
462.854	17337
462.865	17156
462.922	17048
462.945	17299
462.990	17417
463.025	17358
463.058	17958
463.104	18710
463.126	18299
463.184	17175
463.194	17212
463.262	17099
463.264	17103
463.330	17532
463.344	17528
463.398	18338
463.424	18696
463.466	17589
463.504	16837
463.533	17444
463.583	18011
463.601	18056
463.663	18386
463.669	18348
463.737	17737
463.743	17650
463.805	18086
463.823	18177
463.873	17966
463.903	18030
463.940	17976
463.982	17508
464.008	17574
464.062	18046
464.076	18231
464.142	18774
464.144	18778
464.211	18208
464.221	18087
464.279	17859
464.301	17765
464.347	18323
464.381	18840
464.414	18520
464.461	17861
464.482	17997
464.540	18292
464.550	18372
464.617	18863
464.620	18853
464.685	18653
464.699	18599
464.753	18531
464.779	18405
464.820	18326
464.859	18383
464.888	18327
464.938	17872
464.956	18344
465.018	20133
465.023	20126
465.091	19669
465.098	19577
465.158	19184
465.177	19101
465.226	18805
465.257	18596
465.293	19282
465.336	19844
465.361	19820
465.416	19709
465.428	19589
465.495	18884
465.496	18909
465.563	18092
465.575	17966
465.631	19195
465.654	19680
465.698	19521
465.734	19252
465.765	19690
465.813	20252
465.833	20088
465.893	19499
465.900	19510
465.968	19361
465.972	19315
466.035	19179
466.052	19112
466.102	19907
466.131	20315
466.170	20388
466.210	20347
466.237	20164
466.290	19788
466.304	19943
466.369	20271
466.372	20300
466.439	20223
466.449	20165
466.506	20320
466.528	20331
466.573	20765
466.607	21033
466.641	21742
466.687	22672
466.708	22851
466.766	23136
466.775	23118
466.842	22675
466.845	22611
466.909	23463
466.925	23609
466.977	23776
467.004	23826
467.044	23765
467.083	23571
467.111	23890
467.163	24389
467.178	24581
467.242	25122
467.245	25196
467.312	25738
467.321	25761
467.379	26646
467.400	26887
467.446	28180
467.480	29015
467.559	28889
467.638	28605
467.717	31789
467.796	35019
467.875	36929
467.955	40826
468.034	46461
468.113	52297
468.192	65055
468.271	84492
468.350	112262
468.429	143993
468.508	144613
468.588	99857
468.667	66277
468.746	49520
468.825	44285
468.904	38239
468.983	35511
469.062	32471
469.141	30493
469.220	28858
469.299	29051
469.378	27901
469.456	27757
469.535	28358
469.614	26709
469.693	25397
469.772	26069
469.851	26156
469.930	26638
470.009	26371
470.088	27378
470.166	28068
470.245	31934
470.324	30175
470.403	29621
470.482	27915
470.560	27137
470.639	26786
470.718	27498
470.797	26106
470.875	25805
470.954	26183
471.033	24493
471.111	24400
471.190	23714
471.269	23905
471.347	22889
471.426	24262
471.505	24454
471.583	24319
471.662	24406
471.740	23596
471.819	24073
471.898	23988
471.976	24752
472.055	24687
472.133	30090
472.212	38173
472.290	26383
472.369	23169
472.447	24200
472.526	24135
472.604	25118
472.683	25295
472.761	25982
472.839	24551
472.918	25216
472.996	25394
473.075	24902
473.153	25212
473.231	26096
473.310	27330
473.388	26731
473.466	27318
473.545	27249
473.623	28090
473.701	28919
473.780	28780
473.858	27871
473.936	31201
474.014	28391
474.093	33593
474.171	39846
474.249	31716
474.327	26896
474.405	27723
474.484	27740
474.562	27899
474.640	26372
474.718	24954
474.796	25560
474.874	27086
474.952	26359
475.030	24804
475.108	25690
475.187	25272
475.265	28700
475.343	36919
475.421	41596
475.499	26561
475.577	25226
475.655	24892
475.733	23602
475.811	24388
475.889	24376
475.966	25135
476.044	25476
476.122	30427
476.200	36629
476.278	28969
476.356	24570
476.434	24940
476.512	28930
476.590	35570
476.667	30020
476.745	22988
476.823	23201
476.901	23631
476.979	23129
477.056	23459
477.134	23703
477.212	22699
477.290	22534
477.367	22658
477.445	23414
477.523	22414
477.601	22449
477.678	23077
477.756	21527
477.834	22343
477.911	22591
477.989	24523
478.066	24364
478.144	26101
478.222	30398
478.299	47202
478.377	50027
478.454	33132
478.532	24168
478.609	23165
478.687	24294
478.764	23640
478.842	24147
478.919	22004
478.997	24824
479.074	22217
479.152	23328
479.229	23378
479.307	22750
479.384	22983
479.461	23080
479.539	22938
479.616	24073
479.694	24148
479.771	24280
479.848	24640
479.926	22790
480.003	25502
480.080	25991
480.157	25238
480.235	25629
480.312	26058
480.389	26053
480.467	28168
480.544	29767
480.621	32368
480.698	34265
480.775	32998
480.853	30477
480.930	30348
481.007	31434
481.084	46153
481.161	75485
481.238	46608
481.315	29841
481.392	30648
481.470	32257
481.547	31145
481.624	31667
481.701	32702
481.778	33568
481.855	36232
481.932	39050
482.009	41981
482.086	45882
482.163	52425
482.240	63862
482.317	82787
482.393	67674
482.470	48291
482.547	47220
482.624	43929
482.701	43863
482.778	42522
482.855	43128
482.932	43744
483.009	48039
483.085	59117
483.162	79244
483.239	76936
483.316	61512
483.393	59683
483.469	52970
483.546	48041
483.623	43823
483.699	40183
483.776	36845
483.853	36009
483.930	36306
484.006	35605
484.083	37658
484.160	38029
484.236	38942
484.313	40169
484.389	45563
484.466	53328
484.543	62764
484.619	77707
484.696	77258
484.772	54563
484.849	42999
484.925	38865
485.002	36556
485.078	33765
485.155	30871
485.231	30697
485.308	29245
485.384	30251
485.461	31409
485.537	29752
485.614	28074
485.690	26660
485.766	27162
485.843	27503
485.919	28226
485.995	28811
486.072	27261
486.148	26786
486.224	26294
486.301	28002
486.377	27659
486.453	27021
486.530	29135
486.606	30997
486.682	30436
486.758	33122
486.835	36893
486.911	39745
486.987	40977
487.063	49326
487.139	66045
487.215	88495
487.292	88846
487.368	94613
487.444	124385
487.520	179473
487.596	286975
487.672	563867
487.748	1446877
487.824	1982884
487.900	1134736
487.976	400209
488.052	200512
488.128	128107
488.204	90218
488.280	70520
488.356	58836
488.432	52267
488.508	47237
488.584	42401
488.660	40220
488.736	38277
488.812	33459
488.888	33234
488.964	31297
489.039	35936
489.115	42559
489.191	41799
489.267	32933
489.343	27866
489.418	27441
489.494	26365
489.570	26476
489.646	28232
489.722	27851
489.797	28811
489.873	30016
489.949	29642
490.024	29048
490.100	28743
490.176	28842
490.251	28529
490.327	29104
490.403	28036
490.478	26993
490.554	28066
490.629	27701
490.705	27581
490.781	27408
490.856	25580
490.932	26278
491.007	26181
491.083	23673
491.158	24672
491.234	24205
491.309	23307
491.385	22267
491.460	22267
491.536	23609
491.611	22889
491.686	22820
491.762	22875
491.837	25749
491.913	27163
491.988	30396
492.063	33522
492.139	23255
492.214	19990
492.289	21106
492.365	20124
492.440	21849
492.515	19883
492.590	20720
492.666	19519
492.741	21168
492.816	19856
492.891	19891
492.967	21968
493.042	21876
493.117	20250
493.192	21007
493.267	21326
493.342	22920
493.418	24760
493.493	19707
493.568	18827
493.643	19652
493.718	18707
493.793	18717
493.868	20396
493.943	20429
494.018	19069
494.093	19042
494.168	19345
494.243	18689
494.318	19006
494.393	19486
494.468	18974
494.543	19521
494.618	19032
494.693	18251
494.768	18299
494.842	18106
494.917	19224
494.992	18683
495.067	18731
495.142	19942
495.217	18113
495.292	18917
495.366	18518
495.441	18049
495.516	19460
495.591	20229
495.665	30932
495.740	46465
495.815	28870
495.890	19395
495.964	17870
496.039	24396
496.114	33845
496.188	62404
496.263	43642
496.338	21704
496.412	18536
496.487	19937
496.561	19615
496.636	20253
496.710	21971
496.785	25755
496.860	19946
496.934	18403
497.009	18532
497.083	18317
497.158	17977
497.232	17716
497.307	19303
497.381	17858
497.455	18065
497.530	18018
497.604	18425
497.679	17311
497.753	18394
497.827	16955
497.902	17882
497.976	18692
498.050	18636
498.125	18174
498.199	18983
498.273	18886
498.348	20146
498.422	19073
498.496	18737
498.570	19685
498.645	18453
498.719	17356
498.793	18624
498.867	18321
498.941	17486
499.016	19770
499.090	19517
499.164	20008
499.238	20391
499.312	20591
499.386	20376
499.460	20739
499.534	20831
499.609	21005
499.683	19663
499.757	20419
499.831	21081
499.905	19005
499.979	19196
500.053	20549
500.127	20645
500.201	21336
500.275	21364
500.349	20180
500.422	20207
500.496	21091
500.570	23970
500.644	25095
500.718	22496
500.792	22933
500.866	22557
500.940	23129
501.013	22708
501.087	23615
501.161	25858
501.235	23014
501.309	25448
501.382	24283
501.456	24702
501.530	23089
501.603	21077
501.677	21693
501.751	20848
501.825	23315
501.898	22739
501.972	22106
502.046	22423
502.119	20874
502.193	21142
502.266	19903
502.340	20849
502.413	21092
502.487	22390
502.561	21298
502.634	24323
502.708	24539
502.781	24395
502.855	24773
502.928	23667
503.002	24986
503.075	24388
503.149	25576
503.222	26368
503.295	27166
503.369	29375
503.442	33115
503.516	38974
503.589	46107
503.662	56240
503.736	70728
503.809	90768
503.882	124303
503.956	189097
504.029	368097
504.102	885613
504.175	1265101
504.249	651915
504.322	284326
504.395	156269
504.468	101337
504.542	72266
504.615	55378
504.688	47153
504.761	38110
504.834	36956
504.907	31423
504.980	31019
505.053	27248
505.127	23714
505.200	27191
505.273	21635
505.346	21157
505.419	20807
505.492	23324
505.565	20565
505.638	20780
505.711	18216
505.784	17434
505.857	17204
505.930	19426
506.003	15515
506.076	19163
506.149	16036
506.221	14718
506.294	17994
506.367	15477
506.440	16302
506.513	16953
506.586	15503
506.659	15401
506.731	16167
506.804	14655
506.877	14571
506.950	15806
507.022	16220
507.095	14338
507.168	15750
507.241	15662
507.313	14944
507.386	13842
507.459	16352
507.531	15175
507.604	12423
507.677	14662
507.749	13622
507.822	15416
507.894	14445
507.967	15412
508.040	13348
508.112	14676
508.185	14566
508.257	13526
508.330	15704
508.402	14187
508.475	13708
508.547	14458
508.620	13683
508.692	13972
508.765	14522
508.837	12851
508.909	14524
508.982	13551
509.054	14064
509.127	14168
509.199	12569
509.271	12793
509.344	13315
509.416	12834
509.488	13719
509.560	14353
509.633	13012
509.705	13202
509.777	13902
509.849	14695
509.922	13076
509.994	12854
510.066	14554
510.138	11625
510.210	15200
510.283	14103
510.355	13582
510.427	14717
510.499	13244
510.571	12314
510.643	12319
510.715	15501
510.787	11810
510.859	14760
510.931	13063
511.003	14666
511.076	15014
511.148	12791
511.219	12570
511.291	14382
511.363	14847
511.435	13388
511.507	12624
511.579	13939
511.651	14775
511.723	13290
511.795	13710
511.867	13118
511.939	13311
512.010	13246
512.082	14569
512.154	12485
512.226	14580
512.298	15268
512.369	15396
512.441	14406
512.513	14510
512.585	13341
512.656	14438
512.728	13141
512.800	13866
512.871	13973
512.943	15298
513.015	13831
513.086	15096
513.158	14263
513.230	13431
513.301	14455
513.373	16119
513.444	14044
513.516	14273
513.588	13721
513.659	14445
513.731	14887
513.802	13690
513.874	17486
513.945	17991
514.016	14887
514.088	14744
514.159	13740
514.231	15576
514.302	14464
514.374	15327
514.445	11966
514.516	16417
514.588	13478
514.659	13517
514.730	14484
514.802	15536
514.873	12612
514.944	16640
515.016	14674
515.087	15124
515.158	15035
515.229	15119
515.301	13387
515.372	15351
515.443	13910
515.514	14880
515.585	16242
515.656	18894
515.728	17220
515.799	14231
515.870	16207
515.941	15359
516.012	14209
516.083	16617
516.154	15890
516.225	17947
516.296	19542
516.367	17822
516.438	19228
516.509	20248
516.580	24499
516.651	43616
516.722	113052
516.793	56817
516.864	24314
516.935	24594
517.006	25938
517.077	29069
517.148	47318
517.219	155448
517.289	235149
517.360	45791
517.431	26514
517.502	22867
517.573	24589
517.643	24060
517.714	25394
517.785	26966
517.856	28756
517.926	34980
517.997	38938
518.068	45260
518.138	55892
518.209	71204
518.280	152769
518.350	442652
518.421	228565
518.492	133458
518.562	166964
518.633	233653
518.703	373339
518.774	742150
518.845	1453044
518.915	1350080
518.986	544971
519.056	252018
519.127	153479
519.197	108706
519.268	78768
519.338	60983
519.408	48471
519.479	43388
519.549	38147
519.620	34700
519.690	30533
519.760	29044
519.831	26756
519.901	25040
519.971	23414
520.042	22637
520.112	20977
520.182	21704
520.253	20720
520.323	19024
520.393	18581
520.463	20830
520.534	16224
520.604	21061
520.674	19787
520.744	17571
520.814	16881
520.885	18036
520.955	17510
521.025	16612
521.095	16273
521.165	18811
521.235	16628
521.305	16483
521.375	18717
521.445	18061
521.515	17777
521.585	19609
521.655	17564
521.725	19230
521.795	19566
521.865	15537
521.935	19364
522.005	16108
522.075	17899
522.145	19096
522.215	19622
522.285	19683
522.355	18141
522.424	19095
522.494	21164
522.564	21205
522.634	21530
522.704	30021
522.774	21331
522.843	20054
522.913	22319
522.983	21559
523.053	18763
523.122	19340
523.192	19184
523.262	23339
523.331	22186
523.401	20249
523.471	20547
523.540	20336
523.610	19955
523.680	21084
523.749	22387
523.819	27746
523.888	28036
523.958	22733
524.027	22598
524.097	23030
524.166	22832
524.236	21577
524.305	23769
524.375	21548
524.444	21405
524.514	23694
524.583	22020
524.653	22889
524.722	23964
524.791	23738
524.861	27043
524.930	25329
524.999	26453
525.069	28294
525.138	28383
525.207	30133
525.277	34154
525.346	36233
525.415	39855
525.484	45058
525.554	54359
525.623	68424
525.692	92178
525.761	103839
525.830	127634
525.900	172044
525.969	276141
526.038	530665
526.107	966199
526.176	1995032
526.245	1682418
526.314	710110
526.383	1269907
526.452	1574118
526.522	1797375
526.591	1659946
526.660	497165
526.729	286738
526.797	289043
526.867	409556
526.935	979383
527.004	2108397
527.073	1640336
527.142	461911
527.211	198685
527.280	125280
527.349	90449
527.418	68620
527.487	57383
527.555	47545
527.624	42796
527.693	37729
527.762	37835
527.831	34401
527.899	34008
527.968	30698
528.037	27867
528.106	28278
528.174	29013
528.243	27730
528.312	27025
528.380	26987
528.449	23890
528.518	26065
528.586	22908
528.655	24792
528.723	25026
528.792	22537
528.861	22871
528.929	20565
528.998	23076
529.066	21428
529.135	21979
529.203	21028
529.272	19797
529.340	21367
529.409	22138
529.477	19165
529.545	19653
529.614	21842
529.682	19196
529.751	19709
529.819	23818
529.887	21638
529.956	20121
530.024	20808
530.092	19912
530.161	21350
530.229	22428
530.297	20379
530.365	22428
530.434	21129
530.502	19258
530.570	20727
530.638	19505
530.707	22000
530.775	23430
530.843	20666
530.911	21787
530.979	22592
531.047	21795
531.115	22418
531.183	22522
531.252	22448
531.320	22445
531.388	22282
531.456	22255
531.524	21962
531.592	23335
531.660	23855
531.728	21521
531.796	22337
531.864	22477
531.932	21897
532.000	22152
532.067	22215
532.135	24633
532.203	26688
532.271	26146
532.339	29293
532.407	32188
532.475	31224
532.542	28748
532.610	28137
532.678	27247
532.746	37709
532.814	53982
532.881	32446
532.949	28916
533.017	29571
533.084	26958
533.152	25600
533.220	26580
533.287	25790
533.355	26319
533.423	26382
533.490	27532
533.558	29466
533.625	30063
533.693	27804
533.761	30062
533.828	30686
533.896	28151
533.963	33170
534.031	35334
534.098	46145
534.166	51022
534.233	47999
534.300	55168
534.368	56897
534.435	57378
534.503	63071
534.570	70173
534.637	82862
534.705	96324
534.772	127482
534.840	259130
534.907	1002016
534.974	1168571
535.041	204925
535.109	88236
535.176	63890
535.243	57729
535.310	54583
535.378	49528
535.445	49646
535.512	51697
535.579	49156
535.646	47071
535.714	50279
535.781	53168
535.848	53117
535.915	50818
535.982	49051
536.049	48287
536.116	50350
536.183	46794
536.250	45135
536.317	47571
536.384	51018
536.451	51878
536.518	53635
536.585	50299
536.652	53163
536.719	53369
536.786	50721
536.853	49787
536.920	54211
536.987	52903
537.053	50740
537.120	62054
537.187	62204
537.254	57535
537.321	57596
537.388	57290
537.454	55083
537.521	56153
537.588	54522
537.654	55798
537.721	61840
537.788	60304
537.855	56808
537.921	56836
537.988	54270
538.055	52342
538.121	50157
538.188	49215
538.254	47458
538.321	49021
538.388	54972
538.454	61497
538.521	62289
538.587	60986
538.654	59977
538.720	57678
538.787	57944
538.853	57577
538.920	55514
538.986	49606
539.053	50030
539.119	53496
539.185	53695
539.252	56947
539.318	58734
539.385	64413
539.451	60804
539.517	58463
539.583	56817
539.650	58208
539.716	61496
539.782	54671
539.849	53765
539.915	56252
539.981	55272
540.047	53859
540.114	53254
540.180	56416
540.246	59686
540.312	64553
540.378	62322
540.444	60573
540.510	62039
540.576	68277
540.643	58311
540.709	56156
540.775	57368
540.841	54709
540.907	55763
540.973	54986
541.039	54902
541.105	57109
541.171	61591
541.237	63123
541.303	60577
541.369	61749
541.435	61425
541.500	58781
541.566	54138
541.632	54529
541.698	56501
541.764	60342
541.830	58988
541.896	57246
541.961	57686
542.027	57556
542.093	62622
542.159	63318
542.224	57825
542.290	59229
542.356	57627
542.421	57605
542.487	54003
542.553	53479
542.618	54685
542.684	56108
542.750	58172
542.815	58847
542.881	58200
542.947	66675
543.012	65019
543.078	56511
543.143	55142
543.209	56013
543.274	55467
543.340	55902
543.405	59660
543.471	62493
543.536	59840
543.602	59675
543.667	57823
543.732	60008
543.798	59423
543.863	61267
543.928	60634
543.994	59009
544.059	61888
544.124	62100
544.190	62629
544.255	64187
544.320	65038
544.386	63032
544.451	67672
544.516	64642
544.581	65017
544.646	70421
544.712	73406
544.777	67629
544.842	66859
544.907	66323
544.972	67978
545.037	71770
545.102	74824
545.168	73147
545.233	74734
545.298	74365
545.363	72918
545.428	78197
545.493	80957
545.558	81471
545.623	79268
545.688	79134
545.753	81936
545.818	85772
545.883	91065
545.947	90951
546.012	96377
546.077	96268
546.142	103492
546.207	106433
546.272	113194
546.337	113746
546.401	116659
546.466	124030
546.531	128051
546.596	137136
546.661	143896
546.725	150782
546.790	158671
546.855	172972
546.919	189258
546.984	211284
547.049	225999
547.113	255758
547.178	285049
547.243	316591
547.307	365599
547.372	401550
547.436	404025
547.501	423538
547.565	454203
547.630	418331
547.695	402788
547.759	406319
547.823	411064
547.888	418059
547.952	430063
548.017	446574
548.081	471626
548.146	453128
548.210	456687
548.274	492243
548.339	482652
548.403	442760
548.468	420809
548.532	414035
548.596	426095
548.660	427175
548.725	460791
548.789	497302
548.853	480002
548.917	464924
548.982	448951
549.046	408069
549.110	372902
549.174	382277
549.238	442265
549.303	484400
549.367	494644
549.431	473739
549.495	443375
549.559	446606
549.623	509083
549.687	554308
549.751	538150
549.815	630426
549.879	640416
549.943	619370
550.007	641727
550.071	641113
550.135	581572
550.199	552114
550.263	546415
550.327	518162
550.391	533031
550.455	593968
550.519	616004
550.582	648309
550.646	724966
550.710	738329
550.774	732613
550.838	745967
550.901	770033
550.965	816603
551.029	854118
551.093	924730
551.156	1016778
551.220	1112684
551.284	1138730
551.347	940753
551.411	808529
551.475	760214
551.538	776554
551.602	727262
551.666	686102
551.729	648889
551.793	630053
551.856	621376
551.920	608048
551.983	607871
552.047	597350
552.110	604208
552.174	612706
552.237	619198
552.301	579330
552.364	555279
552.428	539647
552.491	557028
552.554	561867
552.618	560073
552.681	569524
552.745	545446
552.808	563173
552.871	587477
552.934	578417
552.998	563344
553.061	549320
553.124	528676
553.187	524419
553.251	544427
553.314	543907
553.377	547639
553.440	577526
553.503	590515
553.567	582481
553.630	575781
553.693	572804
553.756	574048
553.819	559995
553.882	541841
553.945	543856
554.008	548087
554.071	550794
554.134	552002
554.197	521140
554.260	511724
554.323	516623
554.386	526638
554.449	549333
554.512	546330
554.575	526429
554.638	520140
554.701	517825
554.764	514577
554.827	493401
554.889	480743
554.952	453152
555.015	446284
555.078	452379
555.141	461378
555.203	450984
555.266	448854
555.329	447710
555.391	425639
555.454	421439
555.517	411929
555.580	399901
555.642	388915
555.705	378683
555.768	376033
555.830	364961
555.893	348766
555.955	337147
556.018	334500
556.080	337875
556.143	344949
556.206	343181
556.268	331269
556.330	325695
556.393	315404
556.455	311232
556.518	302179
556.580	294086
556.643	280946
556.705	280078
556.767	275716
556.830	271887
556.892	266604
556.955	264288
557.017	255465
557.079	253096
557.142	249575
557.204	248114
557.266	251766
557.328	233970
557.391	220508
557.453	214351
557.515	212677
557.577	216209
557.639	219641
557.701	220596
557.764	221850
557.826	225935
557.888	232637
557.950	243138
558.012	268209
558.074	342049
558.136	676467
558.198	1333543
558.260	585423
558.322	272226
558.384	258235
558.446	265316
558.508	285198
558.570	315767
558.632	366293
558.694	469385
558.756	750783
558.818	1542523
558.880	2199897
558.942	1501715
559.003	1469829
559.065	819243
559.127	376864
559.189	340292
559.251	366522
559.312	499264
559.374	993301
559.436	1886822
559.498	1278587
559.559	462968
559.621	349565
559.683	378093
559.744	567605
559.806	1320045
559.868	1633282
559.929	614882
559.991	393076
560.052	570213
560.114	1298867
560.176	918582
560.237	841200
560.299	1192793
560.360	352149
560.422	159039
560.483	129622
560.545	116881
560.606	111182
560.667	105294
560.729	100318
560.790	95554
560.852	93385
560.913	90017
560.974	85988
561.036	86433
561.097	86982
561.158	83116
561.220	82705
561.281	79353
561.342	78314
561.403	77248
561.465	77236
561.526	77628
561.587	77640
561.648	70983
561.709	70256
561.771	70065
561.832	68485
561.893	67384
561.954	66460
562.015	66210
562.076	64480
562.137	63946
562.198	63232
562.259	64289
562.320	64127
562.381	64926
562.442	64164
562.503	62510
562.564	60705
562.625	58759
562.686	60423
562.747	59183
562.808	58458
562.869	56740
562.930	56077
562.991	56329
563.051	55373
563.112	53883
563.173	54869
563.234	55010
563.294	54354
563.355	52551
563.416	53497
563.477	53238
563.537	53823
563.598	53155
563.659	51820
563.720	52576
563.780	50028
563.841	51933
563.901	53406
563.962	51735
564.023	50464
564.083	49492
564.144	50210
564.204	48339
564.265	48141
564.325	48587
564.386	48790
564.446	48208
564.507	47681
564.567	47097
564.628	47208
564.688	46880
564.749	45354
564.809	46642
564.869	47491
564.930	45766
564.990	47329
565.050	45765
565.111	45824
565.171	45111
565.231	45845
565.292	46671
565.352	44002
565.412	44762
565.472	45202
565.532	46163
565.593	44072
565.653	44255
565.713	44984
565.773	44959
565.833	47093
565.893	47419
565.953	44333
566.013	43135
566.074	42698
566.134	42174
566.194	41060
566.254	42116
566.314	42294
566.374	41546
566.434	41077
566.494	41294
566.554	40977
566.614	43467
566.673	44306
566.733	45645
566.793	44592
566.853	43319
566.913	44077
566.973	43331
567.033	44870
567.092	44117
567.152	44715
567.212	44469
567.272	45217
567.331	45878
567.391	45488
567.451	48105
567.511	48386
567.570	46812
567.630	47399
567.690	44088
567.749	44112
567.809	45038
567.868	44428
567.928	43530
567.988	44155
568.047	45090
568.107	45628
568.166	44361
568.226	43817
568.285	45423
568.345	45698
568.404	46362
568.464	44363
568.523	44529
568.582	44583
568.642	45435
568.701	42942
568.761	41220
568.820	41353
568.879	41998
568.939	43883
568.998	43886
569.057	44477
569.116	42923
569.176	44201
569.235	43560
569.294	44322
569.353	43064
569.413	42441
569.472	41410
569.531	41970
569.590	41245
569.649	40884
569.708	41203
569.767	42939
569.827	42159
569.886	41288
569.945	41004
570.004	41990
570.063	41851
570.122	44189
570.181	44030
570.240	45728
570.299	46119
570.358	44524
570.417	44986
570.475	46736
570.534	46241
570.593	45884
570.652	45771
570.711	45818
570.770	44912
570.829	44877
570.887	44896
570.946	46181
571.005	47057
571.064	44757
571.122	45669
571.181	45638
571.240	45039
571.299	43284
571.357	42053
571.416	42204
571.475	43774
571.533	45298
571.592	49124
571.650	48607
571.709	51598
571.768	56002
571.826	59541
571.885	55585
571.943	50493
572.002	47006
572.060	45014
572.119	44583
572.177	43524
572.236	44218
572.294	44770
572.352	47936
572.411	48356
572.469	47002
572.528	44108
572.586	44246
572.644	42279
572.703	42924
572.761	41184
572.819	40896
572.877	39752
572.936	38996
572.994	38702
573.052	39367
573.110	42420
573.169	44476
573.227	43651
573.285	43244
573.343	42603
573.401	41705
573.459	43810
573.517	44253
573.576	46671
573.634	47041
573.692	45038
573.750	46971
573.808	44112
573.866	42159
573.924	42015
573.982	40657
574.040	41716
574.098	42210
574.155	41854
574.213	40757
574.271	42400
574.329	47164
574.387	45494
574.445	40385
574.503	39826
574.560	37971
574.618	38801
574.676	40287
574.734	39162
574.792	38279
574.849	35712
574.907	34060
574.965	31855
575.022	31759
575.080	30759
575.138	31340
575.195	31894
575.253	29918
575.311	30389
575.368	31066
575.426	30173
575.483	31380
575.541	32956
575.598	33211
575.656	32569
575.713	34822
575.771	36740
575.828	35228
575.886	32724
575.943	31356
576.001	29669
576.058	29317
576.115	28931
576.173	31173
576.230	31976
576.287	32904
576.345	31927
576.402	33488
576.459	34305
576.517	31098
576.574	31589
576.631	29345
576.688	29397
576.746	28874
576.803	27826
576.860	28067
576.917	29195
576.974	29881
577.031	30135
577.089	29322
577.146	27506
577.203	26273
577.260	26029
577.317	27680
577.374	26713
577.431	25905
577.488	26863
577.545	26822
577.602	27852
577.659	25869
577.716	27943
577.773	27714
577.830	26543
577.886	27193
577.943	25763
578.000	26594
578.057	26483
578.114	27213
578.171	27063
578.227	25284
578.284	26286
578.341	27118
578.398	27113
578.454	28037
578.511	26735
578.568	28219
578.625	27166
578.681	27333
578.738	27127
578.794	26676
578.851	27325
578.908	27777
578.964	26975
579.021	27687
579.077	26534
579.134	26719
579.190	27487
579.247	28522
579.303	27224
579.360	26989
579.416	28545
579.473	26986
579.529	27097
579.586	27036
579.642	27239
579.698	27936
579.755	27999
579.811	28239
579.867	27237
579.924	27789
579.980	27700
580.036	28747
580.093	28000
580.149	28317
580.205	29777
580.261	29963
580.317	30719
580.374	31355
580.430	31594
580.486	31109
580.542	29129
580.598	30589
580.619	30681
580.654	30877
580.692	30332
580.710	30111
580.765	30434
580.767	30475
580.823	31318
580.838	31420
580.879	31782
580.911	31909
580.935	32062
580.984	30919
580.991	30798
581.047	32636
581.057	32299
581.103	30969
581.130	30486
581.159	30012
581.203	29697
581.215	29643
581.270	28957
581.276	28858
581.326	28142
581.349	28190
581.382	28310
581.422	28932
581.438	29220
581.494	28300
581.494	28278
581.550	27811
581.567	27820
581.606	27836
581.640	28504
581.661	28966
581.713	27936
581.717	27873
581.773	28357
581.786	28361
581.829	28443
581.859	28800
581.885	29149
581.932	29738
581.940	29845
581.996	28688
582.004	28732
582.052	28969
582.077	28634
582.107	28357
582.150	28712
582.163	28800
582.219	27811
582.223	27807
582.274	28085
582.296	27796
582.330	27288
582.368	28169
582.386	28640
582.441	28240
582.441	28244
582.497	29106
582.514	28566
582.552	27667
582.587	27810
582.608	27799
582.659	27277
582.663	27253
582.719	28893
582.732	28810
582.774	28544
582.805	28612
582.830	28689
582.877	28952
582.885	28977
582.941	27838
582.950	27780
582.996	27601
583.023	27909
583.052	28348
583.095	27776
583.107	27542
583.162	28183
583.168	28086
583.218	27406
583.240	27184
583.273	26859
583.313	27207
583.328	27397
583.384	27869
583.385	27860
583.439	27307
583.458	27509
583.494	27919
583.531	28093
583.549	28305
583.603	28281
583.605	28266
583.660	28550
583.676	28494
583.715	28464
583.748	28875
583.770	29155
583.820	29052
583.825	29048
583.881	28951
583.893	28926
583.936	28745
583.965	28501
583.991	28281
584.038	28888
584.046	28987
584.101	29908
584.110	29809
584.156	29250
584.183	29030
584.211	29052
584.255	30626
584.266	30951
584.321	31200
584.328	31159
584.376	31241
584.400	31714
584.431	32009
584.472	32112
584.486	32165
584.541	33659
584.545	33670
584.596	34071
584.617	34567
584.651	35435
584.689	36357
584.706	36623
584.761	37587
584.762	37605
584.816	39806
584.834	40774
584.871	42549
584.906	43620
584.926	44296
584.978	48378
584.980	48545
585.035	53068
585.051	54658
585.090	59045
585.123	63786
585.145	67365
585.195	74633
585.200	75360
585.254	89019
585.267	92360
585.309	104543
585.340	115777
585.364	125232
585.412	145973
585.419	149507
585.473	189217
585.484	200359
585.528	259723
585.556	319958
585.583	413668
585.628	638955
585.637	705282
585.692	1267376
585.700	1345749
585.747	1610259
585.772	1466352
585.801	1117119
585.845	578255
585.856	480418
585.910	243169
585.917	223385
585.965	156776
585.989	133311
586.019	113841
586.061	96603
586.074	92571
586.128	80383
586.133	79530
586.183	72537
586.205	70494
586.237	68230
586.277	65727
586.292	64989
586.346	63443
586.349	63358
586.401	62566
586.421	62269
586.455	61387
586.493	60570
586.509	60706
586.564	62271
586.565	62322
586.618	66127
586.637	68395
586.672	76128
586.709	86415
586.727	91310
586.781	104063
586.781	104066
586.835	86885
586.853	81457
586.889	71835
586.925	65604
586.944	63809
586.996	60849
586.998	60819
587.052	59504
587.068	59338
587.106	59465
587.140	59399
587.161	59317
587.212	59733
587.215	59754
587.269	59234
587.284	59372
587.323	61348
587.356	62473
587.377	62876
587.427	64342
587.431	64449
587.485	65614
587.499	65721
587.539	66476
587.571	67779
587.593	69167
587.643	71802
587.648	71989
587.702	73123
587.715	73344
587.755	73495
587.786	73897
587.810	74636
587.858	75496
587.864	75468
587.917	74219
587.930	74081
587.971	74594
588.001	74717
588.025	74372
588.073	73336
588.079	73347
588.133	73206
588.145	73241
588.187	73173
588.217	72846
588.241	73695
588.288	75902
588.295	76018
588.348	76267
588.360	76185
588.402	75511
588.431	74849
588.456	74713
588.503	75394
588.510	75826
588.564	79335
588.575	79866
588.617	80986
588.646	81786
588.671	82482
588.718	84179
588.725	84647
588.778	87972
588.789	89146
588.832	102945
588.861	114568
588.886	144931
588.932	211960
588.939	219278
588.993	280609
589.004	278773
589.047	165709
589.075	105044
589.100	93353
589.147	81418
589.154	81085
589.207	78899
589.218	78439
589.261	79625
589.290	81108
589.314	81974
589.361	82689
589.368	83300
589.421	89030
589.433	90694
589.475	114838
589.504	133598
589.528	160534
589.576	222440
589.582	218180
589.635	140551
589.647	125472
589.689	97305
589.718	82678
589.742	82183
589.790	81097
589.795	81187
589.849	81088
589.861	81146
589.902	81389
589.932	81102
589.955	81239
590.004	81520
590.009	81610
590.062	81821
590.075	81756
590.115	81437
590.146	81252
590.168	81675
590.218	82156
590.222	82335
590.275	83828
590.289	84183
590.328	85766
590.360	86807
590.381	87561
590.431	88895
590.435	89033
590.488	89938
590.503	90118
590.541	91054
590.574	91718
590.594	92948
590.645	96012
590.647	96243
590.700	99343
590.716	100225
590.753	102199
590.787	104177
590.806	105448
590.859	108147
590.859	108282
590.912	109240
590.930	109380
590.965	110725
591.001	111816
591.018	111482
591.071	109831
591.072	109687
591.124	108485
591.143	108047
591.177	108763
591.214	109240
591.230	110163
591.283	112950
591.285	112905
591.336	111037
591.356	110267
591.389	109929
591.427	108999
591.442	109105
591.495	109173
591.498	109046
591.547	109752
591.569	110090
591.600	112599
591.640	115354
591.653	115502
591.706	115396
591.711	115275
591.759	119457
591.782	121370
591.811	123516
591.853	126154
591.864	126078
591.917	124847
591.924	124505
591.969	124809
591.995	124756
592.022	126583
592.066	129248
592.075	129719
592.127	131642
592.137	131824
592.180	134472
592.208	135865
592.233	137239
592.279	139434
592.285	139980
592.338	143027
592.350	143510
592.390	143510
592.421	143178
592.443	144652
592.491	147350
592.495	147664
592.548	149228
592.562	149459
592.600	149650
592.633	149444
592.653	149580
592.704	148587
592.705	149527
592.775	154143
592.846	157233
592.916	160084
592.987	159803
593.058	163901
593.128	164315
593.199	166871
593.270	166869
593.341	170189
593.411	176037
593.482	184015
593.553	186288
593.623	187709
593.694	196678
593.764	200324
593.835	197251
593.906	199544
593.976	204405
594.047	210436
594.117	219696
594.188	223887
594.258	224457
594.329	224281
594.399	228881
594.470	236682
594.540	246238
594.611	249786
594.681	248191
594.751	248184
594.822	258726
594.892	267964
594.963	274528
595.033	281520
595.103	289417
595.174	292500
595.244	298063
595.314	308376
595.384	314716
595.455	323424
595.525	334167
595.595	347977
595.665	347254
595.736	336982
595.806	344315
595.876	349975
595.946	349120
596.016	366753
596.087	379187
596.157	379531
596.227	380299
596.297	398732
596.367	425660
596.437	449711
596.507	445266
596.577	441162
596.647	460721
596.717	482016
596.787	487381
596.857	486287
596.927	489354
596.997	490731
597.067	497387
597.137	504155
597.207	506718
597.277	510785
597.347	490340
597.417	478371
597.487	474900
597.557	486504
597.626	500612
597.696	506143
597.766	499380
597.836	472677
597.906	448919
597.975	442622
598.045	450442
598.115	469828
598.185	500146
598.254	556498
598.324	597751
598.394	608134
598.464	588148
598.533	579084
598.603	543098
598.672	525221
598.742	535763
598.812	539416
598.881	553881
598.951	551787
599.020	560861
599.090	576326
599.159	586029
599.229	564585
599.299	553362
599.368	570867
599.437	558622
599.507	516962
599.576	500231
599.646	493943
599.715	484794
599.785	480436
599.854	467259
599.924	460910
599.993	457354
600.062	468917
600.132	478340
600.201	506157
600.270	583393
600.340	611140
600.409	598110
600.478	592332
600.547	605283
600.617	546539
600.686	445230
600.755	402134
600.824	380048
600.894	371572
600.963	374027
601.032	366926
601.101	350880
601.170	336771
601.239	324714
601.308	324059
601.378	325944
601.447	325600
601.516	327064
601.585	328566
601.654	337546
601.723	334109
601.792	344012
601.861	354736
601.930	364291
601.999	368545
602.068	366383
602.137	372459
602.206	378614
602.275	385091
602.343	386385
602.412	388478
602.481	394035
602.550	398450
602.619	407538
602.688	412504
602.756	414436
602.825	417175
602.894	426715
602.963	441378
603.032	445229
603.100	447324
603.169	449442
603.238	451965
603.307	454700
603.375	459262
603.444	465146
603.513	477261
603.581	482929
603.650	490076
603.719	483595
603.787	499940
603.856	515832
603.924	527086
603.993	546176
604.061	561041
604.130	586594
604.198	593911
604.267	608544
604.335	613199
604.404	624879
604.472	628892
604.541	640008
604.609	640339
604.678	639966
604.746	641386
604.815	660156
604.883	669892
604.951	672993
605.020	682525
605.088	696001
605.156	711342
605.225	723018
605.293	722557
605.361	722992
605.429	731399
605.498	746326
605.566	765101
605.634	794600
605.702	820535
605.771	841439
605.839	846895
605.907	830780
605.975	801038
606.043	790621
606.111	796822
606.180	788074
606.248	785578
606.316	776691
606.384	776220
606.452	782335
606.520	807501
606.588	831001
606.656	834049
606.724	820369
606.792	781314
606.860	714882
606.928	661321
606.996	636487
607.064	623253
607.132	641435
607.200	679857
607.267	695400
607.335	709479
607.403	719469
607.471	697019
607.539	682492
607.607	683896
607.674	609934
607.742	608693
607.810	607581
607.878	606562
607.946	621633
608.013	647694
608.081	657445
608.149	661158
608.216	683048
608.284	704071
608.352	706419
608.419	697622
608.487	680769
608.555	672613
608.622	694512
608.690	733804
608.757	796831
608.825	808642
608.893	788936
608.960	748707
609.028	720063
609.095	727323
609.163	720729
609.230	650901
609.298	601603
609.365	636134
609.432	678872
609.500	731301
609.567	819553
609.635	910509
609.702	944916
609.769	900604
609.837	724613
609.904	650290
609.971	666566
610.039	713652
610.106	841262
610.173	1253783
610.241	1968723
610.308	1532169
610.375	850180
610.442	723426
610.509	685753
610.577	677983
610.644	685384
610.711	702228
610.778	718332
610.845	744187
610.912	781823
610.980	808224
611.047	804943
611.114	790895
611.181	775571
611.248	773437
611.315	805256
611.382	828044
611.449	851994
611.516	862605
611.583	854272
611.650	859435
611.717	867576
611.784	884072
611.851	909575
611.918	943908
611.984	1046901
612.051	1263097
612.118	1769550
612.185	2326861
612.252	2108319
612.319	1362837
612.386	1130029
612.452	1023840
612.519	968820
612.586	944688
612.653	951553
612.719	979560
612.786	948653
612.853	890933
612.919	876463
612.986	886607
613.053	839770
613.120	801955
613.186	776097
613.253	781208
613.319	783764
613.386	785776
613.453	798927
613.519	797498
613.586	782404
613.652	794706
613.719	786012
613.785	795627
613.852	805630
613.918	799599
613.985	802401
614.051	832291
614.118	822965
614.184	795762
614.250	798399
614.317	813160
614.383	801601
614.449	816854
614.516	814503
614.582	812558
614.648	800458
614.715	794832
614.781	781855
614.847	784257
614.914	776231
614.980	762410
615.046	764314
615.112	784615
615.179	785772
615.245	795997
615.311	783638
615.377	793785
615.443	801164
615.509	813619
615.575	838632
615.642	833051
615.708	848436
615.774	882521
615.840	921427
615.906	963891
615.972	1077109
616.038	1372429
616.104	1969599
616.170	2412386
616.236	2305327
616.302	1731194
616.368	1429825
616.434	1132613
616.500	1017713
616.565	1088722
616.631	1301232
616.697	1151633
616.763	1129933
616.829	1466251
616.895	2054266
616.961	2012323
617.026	1304041
617.092	958637
617.158	870729
617.224	833669
617.289	773314
617.355	740997
617.421	728048
617.487	721046
617.552	690737
617.618	685340
617.684	686246
617.749	685915
617.815	662970
617.880	650182
617.946	649416
618.012	659995
618.077	672883
618.143	646786
618.208	650877
618.274	695047
618.339	686234
618.405	592784
618.470	589846
618.536	587132
618.601	579340
618.667	542660
618.732	515601
618.798	513856
618.863	508965
618.928	504628
618.994	509774
619.059	504614
619.124	508714
619.190	504150
619.255	501932
619.320	503110
619.386	508037
619.451	505151
619.516	485381
619.581	494724
619.647	509854
619.712	510066
619.777	488140
619.842	493085
619.907	500209
619.972	508204
620.038	503438
620.103	491576
620.168	493701
620.233	500352
620.298	501777
620.363	510771
620.428	520302
620.493	531141
620.558	537232
620.623	543664
620.688	541804
620.753	538152
620.818	547823
620.883	550739
620.948	547541
621.013	541637
621.078	534149
621.143	542763
621.207	546712
621.272	538053
621.337	523563
621.402	517356
621.467	511661
621.532	513273
621.596	515359
621.661	499514
621.726	496563
621.791	504282
621.855	502086
621.920	496852
621.985	506045
622.049	512158
622.114	512801
622.179	519428
622.243	530663
622.308	549021
622.373	562655
622.437	554316
622.502	526898
622.566	524168
622.631	525099
622.695	530464
622.760	528658
622.824	527124
622.889	529114
622.953	530610
623.018	558377
623.082	564089
623.147	558832
623.211	547909
623.276	547232
623.340	530345
623.404	520727
623.469	515514
623.533	525727
623.597	513799
623.662	506735
623.726	478004
623.790	452031
623.854	440261
623.919	448479
623.983	454527
624.047	460843
624.111	465266
624.176	471908
624.240	476753
624.304	484760
624.368	473628
624.432	473629
624.496	481005
624.560	505920
624.625	510392
624.689	504239
624.753	529273
624.817	504070
624.881	493902
624.945	449604
625.009	437584
625.073	448345
625.137	459079
625.201	475592
625.265	478772
625.329	460453
625.393	468400
625.456	472644
625.520	485555
625.584	489489
625.648	501632
625.712	509484
625.776	504914
625.839	474724
625.903	417551
625.967	392836
626.031	415525
626.095	481294
626.158	451601
626.222	367576
626.286	343321
626.349	333105
626.413	312474
626.477	308337
626.540	317909
626.604	312496
626.668	304439
626.731	302354
626.795	304202
626.858	304850
626.922	301398
626.986	296739
627.049	300314
627.113	308293
627.176	301267
627.240	292990
627.303	295319
627.366	290536
627.430	297775
627.493	290215
627.557	286061
627.620	288919
627.684	304771
627.747	304940
627.810	281266
627.874	254756
627.937	246288
628.000	250772
628.064	246572
628.127	224247
628.190	219544
628.253	213775
628.317	206878
628.380	196475
628.443	193488
628.506	190209
628.569	183930
628.632	176324
628.696	175366
628.759	174553
628.822	167011
628.885	164376
628.948	162475
629.011	157990
629.074	155058
629.137	150395
629.200	146271
629.263	145365
629.326	145082
629.389	144980
629.452	141522
629.515	140359
629.578	138398
629.641	140285
629.704	141167
629.767	139503
629.830	134059
629.892	132943
629.955	131445
630.018	134856
630.081	132269
630.144	132129
630.207	129149
630.269	131634
630.332	126612
630.395	124573
630.458	121832
630.520	118042
630.583	121293
630.646	121603
630.708	124871
630.771	126293
630.834	132691
630.896	128989
630.959	127140
631.021	126379
631.084	124784
631.146	126307
631.209	128032
631.272	127528
631.334	131302
631.397	132307
631.459	133516
631.522	138136
631.584	144663
631.646	151453
631.709	155215
631.771	155810
631.834	149596
631.896	142822
631.958	133714
632.021	132401
632.083	125715
632.145	126160
632.208	122474
632.270	121188
632.332	121525
632.395	120148
632.457	119763
632.519	118803
632.581	117165
632.643	115740
632.706	116433
632.768	112999
632.830	115676
632.892	121332
632.954	120906
633.016	121041
633.078	118967
633.141	119663
633.203	118647
633.265	116687
633.327	117682
633.389	119937
633.451	120127
633.513	118828
633.575	122403
633.637	123185
633.698	127045
633.760	131158
633.822	135885
633.884	139638
633.946	143231
634.008	146889
634.070	152014
634.132	159114
634.193	173222
634.255	183513
634.317	188091
634.379	181611
634.441	168017
634.502	153161
634.564	142606
634.626	131920
634.687	125241
634.749	120408
634.811	120520
634.873	118510
634.934	119120
634.996	118232
635.057	117079
635.119	121539
635.181	121778
635.242	123927
635.304	122263
635.365	125108
635.427	121822
635.488	122643
635.550	121769
635.611	123711
635.673	124421
635.734	134053
635.796	141732
635.857	153436
635.918	162657
635.980	178423
636.041	187042
636.102	199318
636.164	198890
636.225	190559
636.286	168468
636.348	152724
636.409	137991
636.470	130895
636.531	125236
636.593	119928
636.654	116078
636.715	110108
636.776	110325
636.838	105518
636.899	103913
636.960	103685
637.021	102100
637.082	100082
637.143	98917
637.204	95315
637.265	96558
637.326	98657
637.387	100134
637.448	98969
637.509	97923
637.570	97989
637.631	96828
637.692	92860
637.753	91424
637.814	91495
637.875	90542
637.936	90957
637.997	91693
638.058	89900
638.119	90785
638.179	89922
638.240	91761
638.301	89008
638.362	86594
638.423	84613
638.483	85592
638.544	80829
638.605	85448
638.666	84176
638.726	84205
638.787	83321
638.848	84876
638.908	82501
638.969	79941
639.030	79135
639.090	78657
639.151	79959
639.211	80196
639.272	81965
639.332	82746
639.393	85416
639.453	90842
639.514	92161
639.574	82791
639.635	75853
639.695	77240
639.756	74474
639.816	75196
639.877	74119
639.937	75067
639.997	75874
640.058	73732
640.118	74869
640.178	75614
640.239	74004
640.299	75870
640.359	77447
640.420	82968
640.480	90910
640.540	102879
640.600	104436
640.661	96599
640.721	93222
640.781	99517
640.841	94121
640.901	78227
640.961	79749
641.021	82451
641.082	87585
641.142	78381
641.202	73913
641.262	70417
641.322	71432
641.382	72147
641.442	71200
641.502	70522
641.562	72802
641.622	73989
641.682	80625
641.742	91176
641.802	84234
641.861	74200
641.921	69770
641.981	68953
642.041	66227
642.101	65513
642.161	64224
642.221	65871
642.280	66770
642.340	65842
642.400	66550
642.460	68440
642.519	68410
642.579	70284
642.639	70433
642.698	68914
642.758	74263
642.818	71608
642.877	70077
642.937	72029
642.997	70623
643.056	69796
643.116	69695
643.175	72957
643.235	73536
643.294	76177
643.354	78377
643.414	84483
643.473	93863
643.532	107952
643.592	135213
643.651	189216
643.711	290079
643.770	510934
643.830	1027924
643.889	1480284
643.948	672601
644.008	231210
644.067	141613
644.126	107233
644.186	92657
644.245	82642
644.304	76163
644.363	77089
644.423	71268
644.482	73092
644.541	75952
644.600	79138
644.659	93840
644.719	111633
644.778	150248
644.837	236437
644.896	446740
644.955	851507
645.014	343127
645.073	120371
645.132	92652
645.191	84215
645.250	80971
645.309	82764
645.368	91485
645.427	118246
645.486	198535
645.545	320085
645.604	110608
645.663	75704
645.722	72206
645.781	77135
645.840	83377
645.898	95980
645.957	123268
646.016	172405
646.075	273198
646.134	482015
646.192	1027377
646.251	1227975
646.310	403568
646.369	166357
646.427	132607
646.486	100908
646.545	80078
646.603	72886
646.662	68064
646.721	66137
646.779	65365
646.838	67950
646.896	79442
646.955	100499
647.014	148401
647.072	270331
647.131	637405
647.189	326662
647.248	83411
647.306	64632
647.365	58940
647.423	52941
647.481	55586
647.540	50871
647.598	52105
647.657	51418
647.715	51088
647.773	49014
647.832	48319
647.890	44941
647.948	45328
648.007	45163
648.065	42995
648.123	42602
648.181	42767
648.240	43076
648.298	40885
648.356	41957
648.414	42428
648.472	40331
648.531	40690
648.589	39163
648.647	39494
648.705	40312
648.763	40180
648.821	43467
648.879	42742
648.937	47630
648.995	52661
649.053	65293
649.111	87529
649.169	132043
649.227	220548
649.285	436230
649.343	948010
649.401	522208
649.459	124546
649.516	72683
649.574	58475
649.632	57686
649.690	62224
649.748	76588
649.806	107487
649.863	192639
649.921	489829
649.979	326356
650.037	68087
650.094	44293
650.152	40390
650.210	37374
650.268	37412
650.325	38535
650.383	43119
650.440	31332
650.498	31193
650.556	30785
650.613	29295
650.671	30662
650.728	31888
650.786	34493
650.843	48699
650.901	37384
650.958	27571
651.016	28013
651.073	26607
651.131	26371
651.188	25515
651.246	26663
651.303	24912
651.360	25078
651.418	24742
651.475	26139
651.532	23755
651.590	26027
651.647	24129
651.704	24768
651.762	23584
651.819	24920
651.876	23029
651.933	22063
651.990	22641
652.048	21520
652.105	23211
652.162	23048
652.219	20938
652.276	22012
652.333	22887
652.390	21072
652.448	20918
652.505	21370
652.562	20915
652.619	21305
652.676	21005
652.733	21583
652.790	20699
652.847	19331
652.904	20138
652.961	19053
653.017	18835
653.074	21429
653.131	20453
653.188	19991
653.245	20737
653.302	19597
653.359	19484
653.415	21567
653.472	20104
653.529	20207
653.586	18943
653.642	20154
653.699	20258
653.756	19273
653.813	18395
653.869	20937
653.926	21051
653.983	19502
654.039	20504
654.096	18560
654.152	19309
654.209	18102
654.266	18384
654.322	17409
654.379	18812
654.435	18948
654.492	18638
654.548	18028
654.605	18797
654.661	20906
654.717	19349
654.774	18727
654.830	18926
654.887	19176
654.943	19681
655.000	23550
655.056	20053
655.112	19137
655.168	17632
655.225	20087
655.281	19793
655.337	20187
655.394	17765
655.450	17002
655.506	17680
655.562	16690
655.618	18228
655.675	17322
655.731	17389
655.787	16876
655.843	19023
655.899	17010
655.955	18401
656.011	18372
656.067	17012
656.123	17917
656.179	17102
656.235	19554
656.291	17553
656.347	20146
656.403	18744
656.459	18184
656.515	17248
656.571	17151
656.627	17536
656.683	17129
656.739	18655
656.795	16655
656.850	16992
656.906	18108
656.962	18687
657.018	19338
657.074	24387
657.129	32179
657.185	48535
657.241	108279
657.297	59238
657.352	21362
657.408	18108
657.464	17996
657.519	15322
657.575	14924
657.630	16836
657.686	16271
657.742	15554
657.797	15611
657.853	15778
657.908	18347
657.964	15268
658.019	15551
658.075	15869
658.130	16061
658.186	14598
658.241	15804
658.297	14295
658.352	14448
658.407	14919
658.463	14748
658.518	14675
658.573	15559
658.629	14733
658.684	14222
658.739	15444
658.795	14044
658.850	15222
658.905	14305
658.960	15124
659.016	13793
659.071	14019
659.126	14299
659.181	13263
659.236	15013
659.291	13366
659.346	14087
659.401	13589
659.457	15101
659.512	13508
659.567	15028
659.622	13375
659.677	14283
659.732	13325
659.787	14534
659.842	13405
659.897	13813
659.952	14607
660.007	14773
660.061	14582
660.116	13081
660.171	13470
660.226	13581
660.281	13796
660.336	13905
660.391	14158
660.445	13492
660.500	13125
660.555	13558
660.610	12990
660.664	13875
660.719	12475
660.774	12915
660.828	12664
660.883	12925
660.938	14349
660.992	12889
661.047	13288
661.101	12332
661.156	12359
661.211	12898
661.265	12697
661.320	13384
661.374	13133
661.429	13169
661.483	13733
661.538	12589
661.592	14125
661.647	14884
661.701	18664
661.755	14860
661.810	13058
661.864	12380
661.919	11105
661.973	12539
662.027	13137
662.081	12488
662.136	12588
662.190	12201
662.244	12277
662.299	12145
662.353	12694
662.407	12182
662.461	12261
662.515	12017
662.569	11129
662.624	12324
662.678	11779
662.732	11318
662.786	11998
662.840	12335
662.894	12119
662.948	12283
663.002	12254
663.056	12830
663.110	11799
663.164	12817
663.218	13305
663.272	12561
663.326	13139
663.380	12886
663.434	12483
663.488	11985
663.542	13151
663.595	13009
663.649	13226
663.703	13159
663.757	12287
663.811	12541
663.864	11922
663.918	12509
663.972	12276
664.026	12978
664.079	12209
664.133	13771
664.187	12735
664.240	12791
664.294	13954
664.348	13387
664.401	12249
664.455	12900
664.508	12034
664.562	12971
664.615	12890
664.669	11918
664.722	11477
664.776	12090
664.829	13431
664.883	12062
664.936	12362
664.990	12213
665.043	12659
665.097	11786
665.150	13109
665.203	12560
665.257	13100
665.310	13555
665.363	13313
665.417	13824
665.470	13679
665.523	13080
665.576	13636
665.630	13962
665.683	13475
665.736	14012
665.789	13154
665.842	12690
665.895	13118
665.949	13652
666.002	13045
666.055	13401
666.108	14476
666.161	14682
666.214	15011
666.267	14542
666.320	14312
666.373	14837
666.426	14684
666.479	14182
666.532	14551
666.585	15056
666.638	15046
666.691	14621
666.744	14746
666.796	14319
666.849	14061
666.902	14682
666.955	14600
667.008	14101
667.060	13786
667.113	14648
667.166	15255
667.219	16877
667.271	16648
667.324	15345
667.377	15602
667.430	14892
667.482	14254
667.535	14702
667.587	14612
667.640	14874
667.693	15000
667.745	14668
667.798	14918
667.850	14622
667.903	14900
667.955	14125
668.008	14084
668.060	15640
668.113	14357
668.165	14542
668.218	13698
668.270	13936
668.322	13916
668.375	14215
668.427	15168
668.479	13078
668.532	14373
668.584	14030
668.636	13225
668.689	13762
668.741	13728
668.793	13642
668.845	12838
668.898	13834
668.950	13340
669.002	13996
669.054	11970
669.106	13415
669.158	13106
669.211	13508
669.263	13306
669.315	13822
669.367	13346
669.419	12883
669.471	13576
669.523	13487
669.575	13962
669.627	12884
669.679	12220
669.731	12534
669.783	13175
669.835	12397
669.886	12102
669.938	12983
669.990	13226
670.042	12730
670.094	11506
670.146	13282
670.197	12810
670.249	12349
670.301	12434
670.353	12618
670.404	13227
670.456	11708
670.508	12206
670.560	13889
670.611	13676
670.663	13673
670.715	17729
670.766	19098
670.818	13815
670.869	14224
670.921	15285
670.972	16353
671.024	13198
671.075	13710
671.127	14049
671.178	15398
671.230	17047
671.281	18884
671.333	21180
671.384	24601
671.436	31376
671.487	42872
671.538	61014
671.590	91426
671.641	147976
671.692	255872
671.744	443660
671.795	359143
671.846	162790
671.897	83434
671.949	53676
672.000	38933
672.051	29063
672.102	23962
672.153	21110
672.204	19165
672.256	17918
672.307	15858
672.358	14939
672.409	14077
672.460	14216
672.511	13250
672.562	11774
672.613	11782
672.664	11437
672.715	11916
672.766	10908
672.817	9732
672.868	11130
672.919	9829
672.970	10010
673.021	10508
673.071	10287
673.122	9825
673.173	9501
673.224	10156
673.275	10375
673.326	9620
673.376	8732
673.427	9070
673.478	9944
673.528	11267
673.579	10788
673.630	10895
673.680	10441
673.731	10302
673.782	9721
673.832	10278
673.883	10748
673.934	9515
673.984	10564
674.035	10567
674.085	10050
674.136	10064
674.186	9904
674.237	10461
674.287	9925
674.338	10861
674.388	10538
674.438	11485
674.489	12670
674.539	13229
674.589	12586
674.640	11209
674.690	11742
674.740	11115
674.791	10684
674.841	10734
674.891	9768
674.942	9013
674.992	8670
675.042	8504
675.092	8000
675.142	6961
675.193	8037
675.243	8658
675.293	9769
675.343	9587
675.393	10043
675.443	9627
675.493	8829
675.543	9690
675.593	9377
675.643	9307
675.693	9879
675.743	9265
675.793	7561
675.843	7289
675.893	7947
675.943	7648
675.993	7065
676.043	7785
676.093	7574
676.142	8572
676.192	7107
676.242	8193
676.292	7259
676.341	7446
676.391	7250
676.441	7410
676.491	7569
676.540	6792
676.590	6722
676.640	6471
676.689	6502
676.739	6470
676.789	7319
676.838	6438
676.888	5578
676.937	6280
676.987	7818
677.037	6861
677.086	6326
677.136	6062
677.185	6816
677.235	6931
677.284	6798
677.333	6685
677.383	6091
677.432	6197
677.482	6995
677.531	6015
677.580	5653
677.630	7174
677.679	6268
677.728	6798
677.778	6410
677.827	5186
677.876	6666
677.925	7402
677.975	7704
678.024	7545
678.073	7898
678.122	7835
678.171	8840
678.220	9842
678.269	10689
678.319	11673
678.368	11574
678.417	10311
678.466	8326
678.515	7319
678.564	6088
678.613	5990
678.662	5888
678.711	6685
678.760	6171
678.809	6909
678.857	7602
678.906	7804
678.955	7446
679.004	7716
679.053	8136
679.102	7639
679.151	6814
679.199	6217
679.248	5147
679.297	5980
679.346	5604
679.394	5341
679.443	5784
679.492	6404
679.540	6253
679.589	6745
679.638	7185
679.686	7176
679.735	7933
679.784	8765
679.832	10173
679.881	9053
679.929	7263
679.978	6531
680.026	5965
680.075	6778
680.123	5796
680.172	5619
680.220	6290
680.268	6839
680.317	5682
680.365	5960
680.414	4587
680.462	4760
680.510	4886
680.559	5456
680.607	5552
680.655	6299
680.703	5475
680.752	5731
680.800	6374
680.848	5136
680.896	5411
680.945	5096
680.993	5052
681.041	4742
681.089	5748
681.137	5085
681.185	5097
681.233	4604
681.258	5121
681.281	5578
681.329	4697
681.377	4557
681.380	4626
681.425	5284
681.473	6119
681.502	5964
681.521	5794
681.569	7807
681.617	6288
681.624	6255
681.665	5784
681.713	6307
681.745	6267
681.761	6200
681.809	6283
681.857	6704
681.867	6851
681.904	7237
681.952	6580
681.989	6650
682.000	6623
682.048	5926
682.096	5873
682.111	6126
682.143	6574
682.191	6264
682.233	7414
682.239	7553
682.286	7041
682.334	6453
682.354	6663
682.382	6868
682.430	7717
682.476	6808
682.477	6758
682.525	6947
682.572	6697
682.598	7065
682.620	7349
682.667	6581
682.715	7726
682.720	7765
682.763	7786
682.810	8041
682.841	7892
682.857	7795
682.905	7381
682.952	8161
682.963	8087
683.000	7611
683.047	7924
683.085	8312
683.095	8412
683.142	8167
683.190	7699
683.206	7513
683.237	7031
683.284	7709
683.328	7938
683.332	7936
683.379	8500
683.426	7477
683.449	7849
683.473	8206
683.521	7684
683.568	8289
683.571	8328
683.615	8464
683.662	7677
683.693	8010
683.709	8108
683.757	7866
683.804	7550
683.814	7511
683.851	7354
683.898	7979
683.936	8019
683.945	8019
683.992	8889
684.039	8859
684.057	8869
684.086	8769
684.133	8046
684.179	7707
684.180	7676
684.227	8344
684.274	8017
684.300	8173
684.321	8286
684.368	8621
684.415	9067
684.422	9013
684.462	8655
684.509	8421
684.543	8619
684.556	8653
684.603	9045
684.649	9852
684.665	9787
684.696	9537
684.743	9127
684.786	10260
684.790	10326
684.837	9803
684.883	8937
684.908	9433
684.930	10002
684.977	10598
685.023	9689
685.029	9725
685.070	9742
685.117	9491
685.150	9905
685.164	10042
685.210	10085
685.257	10680
685.272	10928
685.303	11487
685.350	10330
685.393	10123
685.396	10064
685.443	9821
685.490	9588
685.514	9471
685.536	9550
685.583	10006
685.629	9771
685.636	9804
685.675	9737
685.722	10795
685.757	10238
685.768	10034
685.815	9634
685.861	10537
685.878	10067
685.908	9469
685.954	9829
686.000	10451
686.000	10449
686.047	11132
686.093	10967
686.121	11069
686.139	11152
686.185	11032
686.232	11053
686.242	11161
686.278	11404
686.324	12021
686.363	11271
686.370	11130
686.416	11337
686.463	10847
686.484	11089
686.509	11357
686.555	10656
686.601	11068
686.606	11094
686.647	11329
686.693	10842
686.727	10787
686.739	10791
686.785	11272
686.831	11619
686.848	11669
686.877	11589
686.923	11028
686.969	11203
686.969	11205
687.015	11932
687.061	12813
687.090	13076
687.107	13035
687.153	13230
687.199	12323
687.211	12132
687.245	11703
687.291	12350
687.332	12766
687.336	12816
687.382	12963
687.428	13091
687.453	12863
687.474	12764
687.520	13034
687.565	13768
687.574	13791
687.611	14521
687.657	15802
687.695	17100
687.702	17509
687.748	21308
687.794	25149
687.816	25176
687.839	22847
687.885	19218
687.931	16606
687.937	16212
687.976	15369
688.022	14926
688.058	13785
688.067	13648
688.113	13377
688.158	13079
688.179	12992
688.204	13146
688.249	13561
688.295	13495
688.300	13575
688.340	13988
688.386	13839
688.421	13295
688.431	13191
688.477	13145
688.522	13848
688.542	14021
688.567	14515
688.613	15379
688.658	16127
688.663	16168
688.703	15740
688.749	15506
688.784	14929
688.794	14886
688.839	15199
688.884	15814
688.905	15698
688.930	15405
688.975	15344
689.020	14390
689.026	14375
689.065	14578
689.110	15181
689.146	15008
689.155	15065
689.201	16503
689.246	16627
689.267	16673
689.291	16039
689.336	15513
689.381	13884
689.388	13819
689.426	14682
689.471	15213
689.509	15334
689.516	15267
689.561	15600
689.606	14520
689.630	14510
689.651	14653
689.696	14609
689.741	14564
689.750	14615
689.785	15025
689.830	15600
689.871	15561
689.875	15526
689.920	15142
689.965	15611
689.992	15040
690.010	14781
690.054	14875
690.099	14351
690.112	14433
690.144	14771
690.189	14298
690.233	14370
690.233	14388
690.278	14504
690.323	14874
690.354	14932
690.367	15019
690.412	15099
690.457	15245
690.474	15408
690.501	15449
690.546	14988
690.590	15168
690.595	15061
690.635	14450
690.680	14644
690.716	14325
690.724	14285
690.769	14719
690.813	15117
690.836	14894
690.857	14974
690.902	15673
690.946	16083
690.957	16156
690.991	15918
691.035	15689
691.077	15669
691.080	15717
691.124	15743
691.168	16057
691.198	16383
691.213	16475
691.257	16316
691.301	16090
691.318	16201
691.346	16300
691.390	15770
691.434	15633
691.439	15559
691.478	15528
691.522	15560
691.559	15993
691.567	16135
691.611	16599
691.655	16955
691.680	16992
691.699	16903
691.743	16982
691.787	16762
691.800	16649
691.831	16518
691.875	16603
691.919	16822
691.921	16796
691.964	16600
692.008	16473
692.041	15969
692.052	16020
692.096	16450
692.139	17187
692.162	17380
692.183	17229
692.227	16701
692.271	16461
692.282	16453
692.315	16759
692.359	16509
692.402	16532
692.403	16561
692.447	16420
692.490	16463
692.523	16597
692.534	16734
692.578	16768
692.622	16636
692.643	16831
692.666	16898
692.709	16823
692.753	16457
692.763	16414
692.797	16663
692.840	16732
692.884	16837
692.884	16867
692.928	16788
692.971	16355
693.004	16559
693.015	16724
693.059	16577
693.102	16974
693.124	16917
693.146	16850
693.189	16747
693.233	16882
693.245	16902
693.276	17042
693.320	16759
693.363	16707
693.365	16684
693.407	17199
693.450	17153
693.485	17025
693.493	16993
693.537	17468
693.580	17195
693.605	17179
693.624	17119
693.667	17099
693.710	16502
693.725	16399
693.753	16614
693.797	16516
693.840	16672
693.845	16684
693.883	16937
693.926	16938
693.966	17335
693.970	17436
694.013	17610
694.056	17999
694.086	18091
694.099	18034
694.142	17598
694.185	17548
694.206	17448
694.229	17687
694.272	17957
694.315	18288
694.326	18365
694.358	18469
694.401	18323
694.444	18749
694.446	18701
694.487	18686
694.530	18688
694.566	18823
694.573	18832
694.616	18764
694.659	18406
694.686	18328
694.702	18648
694.745	19143
694.787	19499
694.806	19829
694.830	19892
694.873	19606
694.916	19331
694.926	19221
694.959	19834
695.002	20805
695.044	21717
695.046	21709
695.087	21714
695.130	21383
695.166	21224
695.172	21270
695.215	21095
695.258	21329
695.286	21208
695.301	21390
695.343	21858
695.386	22719
695.406	22778
695.428	23906
695.471	26430
695.514	28854
695.526	29610
695.556	31504
695.599	33734
695.641	35596
695.646	35738
695.684	33970
695.726	31987
695.766	30213
695.769	30193
695.811	28844
695.854	27450
695.886	26492
695.896	26771
695.938	27462
695.981	28259
696.005	28586
696.023	29353
696.065	31311
696.108	33115
696.125	33813
696.150	34404
696.192	35325
696.235	36081
696.245	36204
696.277	36346
696.319	36532
696.361	36509
696.365	36429
696.404	35961
696.446	35427
696.485	34914
696.488	34978
696.530	34610
696.572	34423
696.604	34200
696.614	34314
696.656	34395
696.698	34489
696.724	34501
696.740	34805
696.783	35275
696.825	35940
696.844	36076
696.867	36187
696.909	36387
696.951	36478
696.964	36434
696.992	36644
697.034	36839
697.076	37034
697.083	36987
697.118	38314
697.160	39838
697.202	41278
697.203	41224
697.244	39995
697.286	38618
697.323	37200
697.327	37352
697.369	38102
697.411	38789
697.442	39216
697.453	39343
697.494	39460
697.536	39637
697.562	39681
697.578	39796
697.620	39749
697.661	39797
697.682	39683
697.703	40434
697.744	41831
697.786	43226
697.801	43610
697.828	43619
697.869	43439
697.911	43293
697.921	43190
697.952	42973
697.994	42367
698.035	41798
698.040	41638
698.077	41998
698.118	42278
698.160	42508
698.160	42409
698.201	43701
698.243	44940
698.279	45929
698.284	46159
698.325	47268
698.367	48403
698.399	49187
698.408	49472
698.449	50258
698.491	50967
698.518	51343
698.532	51420
698.573	51316
698.614	51189
698.638	51001
698.656	51042
698.697	50822
698.738	50633
698.757	50418
698.779	50392
698.820	50133
698.862	49835
698.877	49612
698.903	49756
698.944	49796
698.985	49835
698.996	49726
699.026	50077
699.067	50400
699.116	50664
699.235	49549
699.354	48186
699.474	45317
699.593	45933
699.713	45840
699.832	47065
699.951	48985
700.070	46342
700.190	44379
700.309	42843
700.428	42641
700.547	42519
700.667	41598
700.786	41523
700.905	39343
701.024	41622
701.143	39212
701.262	43646
701.381	42707
701.500	43441
701.619	42475
701.738	43621
701.857	41875
701.976	40157
702.095	40848
702.214	43424
702.333	41157
702.452	43396
702.571	43727
702.690	41822
702.809	42625
702.928	40704
703.047	38114
703.165	39078
703.284	37900
703.403	38942
703.522	37095
703.640	36442
703.759	36466
703.878	36025
703.997	37452
704.115	38149
704.234	37694
704.353	38488
704.471	34155
704.590	34968
704.708	33646
704.827	33795
704.946	32743
705.064	34212
705.183	31844
705.301	33915
705.420	32542
705.538	31927
705.656	28797
705.775	30779
705.893	31679
706.012	30194
706.130	30244
706.249	31880
706.367	29787
706.485	30740
706.604	29001
706.722	30249
706.840	37988
706.958	57594
707.077	38821
707.195	28524
707.313	28195
707.431	26516
707.549	27424
707.668	25212
707.786	28376
707.904	26590
708.022	27733
708.140	26461
708.258	26329
708.376	28897
708.494	25309
708.612	28705
708.730	29452
708.848	27647
708.966	28006
709.084	29418
709.202	26896
709.320	24162
709.438	24621
709.556	25541
709.674	23093
709.791	23352
709.909	22252
710.027	23647
710.145	22171
710.263	23453
710.380	23175
710.498	22084
710.616	22422
710.733	20923
710.851	21462
710.969	22444
711.086	20465
711.204	22660
711.322	21482
711.439	22276
711.557	19834
711.674	21024
711.792	20786
711.909	20094
712.027	20242
712.144	20113
712.262	20662
712.379	21195
712.497	21066
712.614	20718
712.732	21354
712.849	20327
712.966	21369
713.084	22621
713.201	19316
713.318	22158
713.436	23069
713.553	24004
713.670	25935
713.787	24934
713.905	22889
714.022	25673
714.139	29043
714.256	38446
714.373	59843
714.490	121840
714.608	339611
714.725	1183403
714.842	961501
714.959	136119
715.076	54100
715.193	38778
715.310	31306
715.427	24047
715.544	23608
715.661	22833
715.778	20538
715.895	21769
716.011	21127
716.128	20914
716.245	19616
716.362	19331
716.479	16194
716.596	17630
716.713	18868
716.829	18369
716.946	15837
717.063	15393
717.180	14778
717.296	15710
717.413	16414
717.530	15042
717.646	15244
717.763	15877
717.880	14438
717.996	13203
718.113	14385
718.229	14615
718.346	14302
718.462	14091
718.579	15627
718.695	15068
718.812	14918
718.928	15316
719.045	13809
719.161	14976
719.277	15794
719.394	16827
719.510	16548
719.626	20771
719.743	27100
719.859	50703
719.975	119230
720.092	482472
720.208	833861
720.324	112617
720.440	32239
720.557	21341
720.673	19639
720.789	16345
720.905	14802
721.021	14972
721.137	13043
721.253	11882
721.369	13202
721.486	13941
721.602	11390
721.718	11930
721.834	12451
721.950	13194
722.066	11485
722.181	11109
722.297	12104
722.413	12157
722.529	12808
722.645	12026
722.761	13147
722.877	13177
722.993	17136
723.108	25216
723.224	19845
723.340	14098
723.456	12154
723.571	11211
723.687	10891
723.803	11436
723.918	12781
724.034	10310
724.150	10587
724.265	11032
724.381	9263
724.497	10478
724.612	10226
724.728	11594
724.843	9583
724.959	10198
725.074	11602
725.190	11056
725.305	9939
725.421	10243
725.536	10445
725.651	12225
725.767	10113
725.882	10836
725.997	10553
726.113	11802
726.228	9310
726.343	9082
726.459	9701
726.574	10045
726.689	9798
726.804	9811
726.920	9648
727.035	10371
727.150	10095
727.265	9709
727.380	10780
727.495	10470
727.610	9377
727.725	9493
727.841	10062
727.956	10785
728.071	10232
728.186	9276
728.301	9231
728.416	10551
728.531	10485
728.645	9841
728.760	9689
728.875	9905
728.990	9870
729.105	9427
729.220	9725
729.335	10826
729.449	10210
729.564	9517
729.679	9451
729.794	11049
729.908	9878
730.023	9907
730.138	11957
730.253	10739
730.367	9605
730.482	10404
730.596	11190
730.711	14458
730.826	21471
730.940	23893
731.055	15002
731.169	16516
731.284	17255
731.398	17428
731.513	18502
731.627	22258
731.742	28921
731.856	35284
731.970	39374
732.085	53652
732.199	85136
732.313	161405
732.428	422200
732.542	990792
732.656	503839
732.771	120453
732.885	64353
732.999	50767
733.113	49390
733.227	44877
733.342	41426
733.456	38841
733.570	36667
733.684	36683
733.798	34057
733.912	34404
734.026	34537
734.140	33545
734.254	31310
734.368	31388
734.482	31933
734.596	32201
734.710	29951
734.824	29999
734.938	30123
735.052	29970
735.166	29627
735.280	29355
735.393	28230
735.507	28754
735.621	27952
735.735	27276
735.849	28146
735.962	26241
736.076	28525
736.190	26627
736.303	26411
736.417	26721
736.531	25553
736.644	26290
736.758	26807
736.872	25459
736.985	26067
737.099	24181
737.212	24602
737.326	22586
737.439	25919
737.553	23437
737.666	24485
737.780	23374
737.893	24781
738.007	24341
738.120	24250
738.233	22614
738.347	23369
738.460	21823
738.573	24772
738.687	21817
738.800	23255
738.913	24764
739.026	22269
739.140	21309
739.253	22459
739.366	21852
739.479	21516
739.592	21320
739.705	19144
739.818	24083
739.932	18739
740.045	22545
740.158	20928
740.271	22419
740.384	20221
740.497	18752
740.610	21059
740.723	19299
740.836	19495
740.949	20441
741.062	21997
741.174	18882
741.287	19815
741.400	20128
741.513	17491
741.626	20724
741.739	18368
741.851	18279
741.964	20562
742.077	18107
742.189	16621
742.302	19599
742.415	17984
742.527	18229
742.640	17844
742.753	15660
742.865	18641
742.978	16958
743.090	16457
743.203	17134
743.316	16256
743.428	17902
743.541	16471
743.653	15491
743.766	17037
743.878	17381
743.990	15216
744.103	18163
744.215	17479
744.327	15914
744.440	18955
744.552	15041
744.664	14689
744.777	18807
744.889	15452
745.001	14490
745.113	17246
745.226	14582
745.338	13635
745.450	17134
745.562	13848
745.674	14505
745.786	17627
745.898	15713
746.010	14378
746.122	16583
746.234	15662
746.347	16118
746.459	15386
746.570	12962
746.682	16161
746.794	17306
746.906	13521
747.018	15676
747.130	15378
747.242	13150
747.354	13148
747.466	14749
747.577	11996
747.689	15024
747.801	14752
747.913	12116
748.024	12261
748.136	13058
748.248	11916
748.359	12247
748.471	13920
748.583	11410
748.694	10670
748.806	12496
748.918	11240
749.029	11352
749.141	12476
749.252	13238
749.364	10062
749.475	11551
749.587	11367
749.698	12045
749.809	11485
749.921	12979
750.032	12203
750.144	10956
750.255	10658
750.366	11856
750.478	10622
750.589	11900
750.700	10129
750.811	12642
750.923	9763
751.034	9926
751.145	12250
751.256	10920
751.367	10201
751.479	11284
751.590	9885
751.701	9352
751.812	9011
751.923	9963
752.034	12920
752.145	12363
752.256	10781
752.367	10354
752.478	10771
752.589	11013
752.700	10164
752.811	9887
752.922	10475
753.032	12468
753.143	11382
753.254	10736
753.365	13444
753.476	13441
753.586	9577
753.697	10011
753.808	10490
753.919	9058
754.029	9546
754.140	9711
754.251	9282
754.361	10128
754.472	10573
754.582	10204
754.693	10085
754.804	11614
754.914	9155
755.025	7880
755.135	9811
755.246	11086
755.356	8823
755.466	7484
755.577	8946
755.687	10319
755.798	8699
755.908	9339
756.018	9074
756.129	9689
756.239	9868
756.349	11123
756.460	11432
756.570	13183
756.680	10005
756.790	10430
756.900	9345
757.011	9240
757.121	7588
757.231	9845
757.341	9150
757.451	8285
757.561	7952
757.671	9129
757.781	9178
757.891	9397
758.001	7205
758.111	9922
758.221	11704
758.331	11077
758.441	10894
758.551	11622
758.661	12796
758.771	12663
758.880	12094
758.990	10021
759.100	11049
759.210	11404
759.320	11449
759.429	12073
759.539	13551
759.649	15730
759.758	17841
759.868	18789
759.978	18712
760.087	19779
760.197	20144
760.307	18853
760.416	16491
760.526	15054
760.635	16894
760.745	18754
760.854	20829
760.964	24652
761.073	23696
761.182	22323
761.292	17363
761.401	15423
761.511	12637
761.620	11006
761.729	10745
761.839	9498
761.948	9138
762.057	9741
762.166	10151
762.276	8170
762.385	10773
762.494	8634
762.603	8818
762.712	9145
762.822	8105
762.931	7164
763.040	6746
763.149	7895
763.258	6066
763.367	8628
763.476	6467
763.585	5942
763.694	7204
763.803	6839
763.912	7669
764.021	6025
764.130	7365
764.238	7655
764.347	8067
764.456	9414
764.565	7868
764.674	6786
764.783	6581
764.891	6877
765.000	7593
765.109	6618
765.217	5700
765.326	6458
765.435	6404
765.543	7240
765.652	5843
765.761	6588
765.869	5103
765.978	5360
766.086	6893
766.195	6812
766.303	8078
766.412	16011
766.520	11203
766.629	5876
766.737	6153
766.846	6553
766.954	5120
767.062	7135
767.171	6210
767.279	7639
767.387	6566
767.496	5607
767.604	5228
767.712	5095
767.820	4923
767.928	6602
768.037	4752
768.145	5806
768.253	6030
768.361	6279
768.469	5740
768.577	5027
768.685	6491
768.793	6446
768.901	5562
769.009	6414
769.117	5751
769.225	6018
769.333	7611
769.441	7808
769.549	6228
769.657	6909
769.765	8754
769.873	14465
769.981	7398
770.088	7281
770.196	6427
770.304	7766
770.412	8268
770.519	7925
770.627	9011
770.735	8955
770.842	8795
770.950	9031
771.058	10295
771.165	12788
771.273	14382
771.380	15233
771.488	20998
771.595	24286
771.703	20898
771.810	19585
771.918	19681
772.025	25746
772.133	28389
772.240	25875
772.348	31236
772.455	28339
772.562	25529
772.670	25586
772.777	26084
772.884	25110
772.991	23946
773.099	26393
773.206	23405
773.313	24234
773.420	24833
773.528	24879
773.635	22692
773.742	24024
773.849	21665
773.956	23474
774.063	22018
774.170	23617
774.277	23516
774.384	21664
774.491	21389
774.598	22672
774.705	21141
774.812	21680
774.919	21589
775.026	21604
775.133	22276
775.239	22173
775.346	19827
775.453	20883
775.560	20054
775.667	22428
775.773	19409
775.880	21038
775.987	19255
776.093	21943
776.200	21795
776.307	15994
776.413	18273
776.520	23730
776.627	18241
776.733	17642
776.840	17203
776.946	23612
777.053	18732
777.159	21011
777.266	17068
777.372	18901
777.478	21069
777.585	19704
777.691	15780
777.798	19959
777.904	15916
778.010	16907
778.117	17259
778.223	16312
778.329	16656
778.435	15502
778.542	18782
778.648	15821
778.754	14705
778.860	16955
778.966	16300
779.072	14955
779.178	15458
779.284	12691
779.391	15769
779.497	16256
779.603	17715
779.708	13951
779.815	13257
779.920	16836
780.026	12120
780.132	15532
780.238	14113
780.344	14187
780.450	17733
780.556	11690
780.661	13708
780.767	16877
780.873	9635
780.979	13063
781.085	15920
781.190	13271
781.296	11990
781.402	14424
781.507	14838
781.613	10531
781.719	13717
781.824	16408
781.930	11899
782.035	14774
782.141	15132
782.246	10373
782.352	12452
782.457	13817
782.563	13446
782.668	13071
782.773	11330
782.879	11519
782.984	12126
783.090	11648
783.195	13056
783.300	14483
783.405	10774
783.511	10828
783.616	11336
783.721	12184
783.826	10972
783.932	10081
784.037	11218
784.142	12192
784.247	11371
784.352	11653
784.457	8041
784.562	11856
784.667	11835
784.772	9129
784.877	8454
784.982	13439
785.087	12016
785.192	9409
785.297	9540
785.402	10682
785.507	10470
785.611	10151
785.716	9061
785.821	9916
785.926	10508
786.031	9616
786.135	10143
786.240	10953
786.345	7303
786.450	9020
786.554	9697
786.659	9211
786.763	8510
786.868	9785
786.973	10609
787.077	8542
787.182	7945
787.286	11126
787.391	10922
787.495	7673
787.600	6952
787.704	8812
787.809	9920
787.913	7941
788.017	9114
788.122	9966
788.226	7616
788.330	6285
788.435	9614
788.539	10131
788.643	7666
788.747	6375
788.852	8177
788.956	8008
789.060	9305
789.164	9340
789.268	7241
789.372	9298
789.476	7877
789.580	5481
789.684	7199
789.788	9572
789.892	7645
789.996	6246
790.100	6300
790.204	8981
790.308	9333
790.412	5386
790.516	5422
790.620	7513
790.724	9619
790.828	7119
790.931	4204
791.035	7421
791.139	7199
791.242	8162
791.346	7227
791.450	8005
791.554	6888
791.657	5259
791.761	7494
791.864	8310
791.968	7514
792.072	8429
792.175	5709
792.279	5749
792.382	5801
792.486	5904
792.589	6178
792.693	7102
792.796	5720
792.899	7584
793.003	7352
793.106	5731
793.209	6510
793.313	6090
793.416	3471
793.519	6118
793.623	8829
793.726	7760
793.829	4939
793.932	4652
794.035	4338
794.138	8120
794.242	8308
794.345	5331
794.448	4498
794.551	4153
794.654	7333
794.757	6795
794.860	5720
794.963	6875
795.066	4911
795.169	7450
795.272	5223
795.375	6723
795.477	4329
795.580	4694
795.683	4261
795.786	7626
795.889	4560
795.991	5817
796.094	6360
796.197	5853
796.300	7631
796.402	6689
796.505	4827
796.608	4031
796.710	5259
796.813	7133
796.915	7863
797.018	7387
797.120	7386
797.223	5314
797.326	7113
797.428	5506
797.530	4757
797.633	6458
797.735	7452
797.838	6895
797.940	6827
798.042	5587
798.145	4963
798.247	5446
798.349	4023
798.452	6511
798.554	6775
798.656	6891
798.758	8819
798.860	6936
798.962	5863
799.065	4316
799.167	3985
799.269	6706
799.371	7724
799.473	10909
799.575	6769
799.677	6070
799.779	6408
799.881	5315
799.983	7189
800.085	5628
800.187	4672
800.289	3405
800.390	4909
800.492	6365
800.594	5751
800.696	3956
800.798	4992
800.899	5112
801.001	4857
801.103	5825
801.205	6577
801.306	5829
801.408	4608
801.509	6217
801.611	5247
801.713	5516
801.814	3528
801.916	3950
802.017	2320
802.119	3858
802.220	4294
802.322	4590
802.423	6188
802.525	3200
802.626	4680
802.727	5727
802.829	4305
802.930	2493
803.031	5420
803.133	5395
803.234	4376
803.335	5549
803.436	2490
803.538	5334
803.639	2856
803.740	4342
803.841	4471
803.942	5782
804.043	4446
804.144	3569
804.245	4395
804.346	4716
804.447	3011
804.548	4282
804.649	5467
804.750	4110
804.851	3813
804.952	4419
805.053	3630
805.154	3353
805.255	4724
805.355	4216
805.456	3476
805.557	3337
805.658	2594
805.758	3894
805.859	3378
805.960	3364
806.061	3096
806.161	3642
806.262	3943
806.362	3160
806.463	3072
806.564	4584
806.664	3761
806.765	2919
806.865	2570
806.966	2675
807.066	2324
807.166	4102
807.267	4131
807.367	2814
807.468	3370
807.568	1318
807.668	3464
807.769	4489
807.869	3101
807.969	4138
808.069	2488
808.170	4042
808.270	3233
808.370	4046
808.470	3660
808.570	2336
808.670	2977
808.770	4181
808.870	1970
808.970	2691
809.070	2701
809.170	3366
809.271	4214
809.370	3314
809.470	2987
809.570	3186
809.670	1609
809.770	3295
809.870	3675
809.970	3905
810.070	3432
810.169	3092
810.269	2468
810.369	5129
810.469	2746
810.568	3532
810.668	2771
810.768	3199
810.867	2726
810.967	2093
811.066	2103
811.166	2638
811.265	3875
811.365	2530
811.464	2818
811.564	3751
811.663	2872
811.763	2118
811.862	3698
811.962	3648
812.061	3124
812.160	3588
812.260	2460
812.359	3547
812.458	2922
812.557	3409
812.657	1735
812.756	4128
812.855	3235
812.954	2747
813.053	3265
813.153	3250
813.252	2905
813.351	4150
813.450	3249
813.549	3561
813.648	3151
813.747	3140
813.846	3873
813.945	3562
814.044	3818
814.143	3934
814.242	4463
814.341	3556
814.439	4333
814.538	4877
814.637	4731
814.736	4605
814.835	4997
814.933	5862
815.032	6451
815.131	10294
815.229	18062
815.328	23627
815.427	16507
815.525	16023
815.624	14612
815.722	14772
815.821	15554
815.919	16281
816.018	15051
816.116	15791
816.215	15471
816.313	17313
816.412	20690
816.510	21010
816.609	21472
816.707	23636
816.805	20828
816.904	22064
817.002	21623
817.100	21631
817.198	22663
817.296	21211
817.395	22191
817.493	19740
817.591	19654
817.689	19191
817.787	18880
817.885	18663
817.983	17118
818.081	17727
818.179	18012
818.277	19815
818.375	16641
818.473	17392
818.571	14828
818.669	19533
818.767	19124
818.865	17132
818.963	14225
819.061	17480
819.158	16342
819.256	19343
819.354	14972
819.452	15740
819.549	15281
819.647	18369
819.745	14242
819.842	15050
819.940	16739
820.038	14743
820.135	12928
820.233	16925
820.330	15078
820.428	14755
820.525	16135
820.623	14538
820.720	13472
820.818	15454
820.915	15557
821.012	14234
821.110	12761
821.207	14384
821.304	13213
821.402	15818
821.499	14407
821.596	12828
821.693	14275
821.791	14677
821.888	14081
821.985	15943
822.082	10481
822.179	13739
822.276	13799
822.373	10708
822.470	11140
822.567	13699
822.664	11623
822.761	13664
822.858	14080
822.955	12081
823.052	11690
823.149	13644
823.246	13636
823.343	9783
823.440	10678
823.536	14807
823.633	12260
823.730	11401
823.827	12754
823.923	11860
824.020	11008
824.117	14462
824.213	12977
824.310	10832
824.407	10217
824.503	13695
824.600	9956
824.696	10766
824.793	13838
824.889	13280
824.986	10970
825.082	7744
825.179	10085
825.275	13528
825.371	13384
825.468	9153
825.564	6977
825.660	12933
825.757	13434
825.853	9355
825.949	8908
826.045	9404
826.142	10874
826.238	11774
826.334	11164
826.430	9586
826.526	7426
826.622	7522
826.718	12183
826.814	13299
826.910	9924
827.006	6380
827.102	7331
827.198	11252
827.294	12062
827.390	10702
827.486	8693
827.582	7044
827.678	8314
827.774	13353
827.869	6908
827.965	7666
828.061	7252
828.157	11400
828.252	11176
828.348	8960
828.444	8697
828.539	9618
828.635	9577
828.731	9598
828.826	7684
828.922	9683
829.017	11721
829.113	11993
829.208	8563
829.304	9994
829.399	13957
829.495	9121
829.590	9068
829.685	10096
829.781	11231
829.876	9988
829.971	4865
830.066	6582
830.162	8932
830.257	12718
830.352	8217
830.447	7352
830.543	8138
830.638	10422
830.733	10898
830.828	8653
830.923	9905
831.018	10212
831.113	10984
831.208	6543
831.303	5199
831.398	6043
831.493	8889
831.588	13482
831.683	6919
831.778	5401
831.873	7447
831.967	9720
832.062	9874
832.157	7361
832.252	8547
832.346	8709
832.441	9508
832.536	8730
832.631	7697
832.725	6125
832.820	7547
832.914	8107
833.009	5100
833.104	5694
833.198	5498
833.293	7428
833.387	8976
833.482	7507
833.576	7133
833.670	8495
833.765	8951
833.859	10118
833.954	7914
834.048	7419
834.142	6688
834.237	5300
834.331	7112
834.425	8097
834.519	5234
834.613	5607
834.708	5493
834.802	5983
834.896	7102
834.990	7232
835.084	4520
835.178	5963
835.272	6208
835.366	8770
835.460	9421
835.554	6373
835.648	4560
835.742	4537
835.836	5295
835.930	5147
836.024	6618
836.117	7004
836.211	5589
836.305	5024
836.399	4904
836.493	5557
836.586	7437
836.680	5943
836.774	4465
836.867	4979
836.961	5162
837.055	4243
837.148	4942
837.242	6429
837.335	6827
837.429	4824
837.522	3849
837.616	4613
837.709	4795
837.803	5606
837.896	7695
837.989	6025
838.083	3668
838.176	3735
838.269	2829
838.363	5520
838.456	4913
838.549	6640
838.642	3942
838.735	4693
838.829	5761
838.922	5164
839.015	4158
839.108	3786
839.201	4988
839.294	5995
839.387	5145
839.480	3892
839.573	3551
839.666	4250
839.759	4726
839.852	4373
839.945	5487
840.038	3978
840.131	2887
840.223	3974
840.316	4543
840.409	5756
840.502	5891
840.594	6481
840.687	2367
840.780	2798
840.873	1906
840.965	4000
841.058	4744
841.150	5757
841.243	2021
841.336	4599
841.428	3738
841.521	3920
841.613	3921
841.706	4399
841.798	3053
841.890	5076
841.983	2216
842.075	3118
842.167	3667
842.260	4819
842.352	5960
842.444	4161
842.537	2416
842.629	2642
842.721	2550
842.813	4975
842.905	2952
842.997	4855
843.090	4055
843.182	3931
843.274	2326
843.366	3535
843.458	3696
843.550	6339
843.642	3167
843.734	3827
843.826	1858
843.918	2865
844.009	4628
844.101	3891
844.193	4200
844.285	4701
844.377	4467
844.469	3782
844.560	2514
844.652	3616
844.744	3208
844.835	3879
844.927	5003
845.019	4143
845.110	2863
845.202	4733
845.293	2920
845.385	2852
845.476	2844
845.568	5003
845.659	2879
845.751	2959
845.842	3006
845.934	3306
846.025	3402
846.116	4077
846.208	3648
846.299	2651
846.390	2205
846.482	3336
846.573	4410
846.664	3819
846.755	3521
846.846	4697
846.937	1360
847.029	2845
847.120	4185
847.211	3174
847.302	4794
847.393	3807
847.484	2726
847.575	2149
847.666	2290
847.757	2547
847.847	3288
847.938	4535
848.029	4102
848.120	3731
848.211	3201
848.302	2725
848.392	2787
848.483	3622
848.574	3266
848.664	4128
848.755	4212
848.846	3529
848.936	3622
849.027	4500
849.118	4789
849.208	5412
849.299	8600
849.389	15274
849.480	28751
849.570	54171
849.661	102826
849.751	146141
849.841	55002
849.932	12715
850.022	7324
850.112	6021
850.203	4415
850.293	4095
850.383	3081
850.474	3421
850.564	2222
850.654	2237
850.744	2251
850.834	2941
850.924	3907
851.014	5606
851.104	4129
851.194	3150
851.284	3517
851.374	3769
851.464	2968
851.554	3441
851.644	3113
851.734	4614
851.824	3674
851.914	4201
852.004	4192
852.094	2875
852.183	3345
852.273	3137
852.363	3313
852.452	4272
852.542	3778
852.632	2704
852.721	3915
852.811	3021
852.901	5937
852.990	6637
853.080	6125
853.169	6479
853.259	7088
853.348	8466
853.438	10361
853.527	14088
853.617	20489
853.706	34600
853.795	58196
853.885	105636
853.974	177321
854.063	290993
854.152	334645
854.242	173613
854.331	64941
854.420	33257
854.509	22088
854.598	15353
854.687	11964
854.777	10541
854.866	7696
854.955	7640
855.044	5843
855.133	5622
855.222	4744
855.311	4743
855.400	4483
855.488	4388
855.577	3662
855.666	3827
855.755	3955
855.844	3997
855.933	3980
856.021	4623
856.110	2572
856.199	3422
856.288	1925
856.376	2582
856.465	2438
856.554	3426
856.642	3938
856.731	4031
856.819	4342
856.908	3276
856.996	3153
857.085	3654
857.173	2585
857.262	2514
857.350	1898
857.438	2798
857.527	2850
857.615	3210
857.703	3742
857.792	2761
857.880	2690
857.968	2356
858.056	2068
858.145	3096
858.233	3073
858.321	3112
858.409	3525
858.497	3213
858.585	2445
858.673	2789
858.761	2195
858.849	2850
858.937	2653
859.025	2640
859.113	3604
859.201	3341
859.289	3663
859.377	3261
859.465	2723
859.552	3498
859.640	1715
859.728	2837
859.816	2499
859.903	2384
859.991	1856
860.079	2700
860.166	2826
860.254	3016
860.342	3424
860.429	2620
860.517	2472
860.604	3680
860.692	2343
860.779	2069
860.867	2249
860.954	3479
861.042	4091
861.129	3818
861.216	4048
861.304	3171
861.391	2971
861.478	3105
861.565	2039
861.653	3904
861.740	2408
861.827	2951
861.914	3706
862.001	2537
862.089	3253
862.176	3890
862.263	2839
862.350	3850
862.437	3399
862.524	3286
862.611	2630
862.698	4001
862.785	3942
862.871	4496
862.958	5053
863.045	3769
863.132	4072
863.219	3682
863.306	1976
863.392	4237
863.479	3251
863.566	3743
863.652	3848
863.739	3770
863.826	4489
863.912	4677
863.999	3599
864.086	4124
864.172	5415
864.259	6597
864.345	6020
864.432	5427
864.518	4777
864.604	6196
864.691	4739
864.777	6300
864.863	8687
864.950	11767
865.036	16823
865.122	27159
865.209	27014
865.295	25121
865.381	24578
865.467	24233
865.553	27826
865.639	33589
865.726	46013
865.812	74019
865.898	112274
865.984	160271
866.070	246453
866.156	227320
866.242	102315
866.328	46746
866.414	30791
866.499	26950
866.585	24625
866.671	22267
866.757	22232
866.843	20974
866.928	19146
867.014	18920
867.100	18216
867.186	19042
867.271	17070
867.357	17903
867.442	16672
867.528	17967
867.614	16947
867.699	17361
867.785	17168
867.870	16906
867.956	17669
868.041	16234
868.127	16747
868.212	16137
868.297	16068
868.383	16949
868.468	15382
868.553	17988
868.639	15541
868.724	16289
868.809	16258
868.894	15312
868.979	14603
869.065	15174
869.150	12967
869.235	15791
869.320	15445
869.405	12863
869.490	15685
869.575	14219
869.660	12278
869.745	16979
869.830	15259
869.915	12954
870.000	13580
870.085	13378
870.169	17751
870.254	16700
870.339	11436
870.424	12300
870.509	13949
870.593	16689
870.678	15309
870.763	12299
870.847	11285
870.932	14878
871.016	14390
871.101	9602
871.186	14212
871.270	16988
871.355	10139
871.439	12520
871.523	14688
871.608	11436
871.692	11597
871.777	15202
871.861	13510
871.945	11943
872.030	13202
872.114	12900
872.198	11025
872.282	11421
872.367	11876
872.451	12553
872.535	11240
872.619	12626
872.703	11519
872.787	12911
872.871	13248
872.955	10253
873.039	9311
873.123	12692
873.207	12882
873.291	8176
873.375	11245
873.459	12901
873.543	10854
873.627	10646
873.711	8977
873.794	12200
873.878	10261
873.962	9238
874.045	9697
874.129	10313
874.137	10397
874.213	11239
874.245	11077
874.296	10821
874.352	9937
874.380	9506
874.460	9791
874.464	9803
874.547	10052
874.568	10271
874.631	10906
874.676	10304
874.714	9794
874.784	11257
874.798	11556
874.881	8365
874.892	8337
874.965	8232
874.999	9394
875.048	10854
875.107	10329
875.131	10140
875.215	7034
875.215	7034
875.298	7491
875.323	8391
875.381	10551
875.430	12343
875.465	13450
875.538	10277
875.548	9855
875.631	7364
875.646	7281
875.714	7080
875.753	7964
875.798	9007
875.861	10930
875.881	11434
875.964	8843
875.968	8790
876.047	8184
876.076	8692
876.130	9682
876.183	9839
876.213	9912
876.291	10969
876.296	11018
876.379	9882
876.398	9373
876.462	7739
876.506	7131
876.545	6693
876.613	8241
876.628	8637
876.711	8849
876.721	9102
876.794	10763
876.828	10412
876.877	9520
876.935	7709
876.960	7203
877.043	8137
877.043	8146
877.125	10435
877.150	10645
877.208	10613
877.258	8828
877.291	7708
877.365	7757
877.374	7755
877.456	7526
877.472	7265
877.539	6764
877.579	8455
877.622	10047
877.687	9580
877.704	9458
877.787	9492
877.794	9521
877.869	9956
877.901	9742
877.952	8682
878.008	6523
878.034	5865
878.115	6434
878.117	6450
878.199	7664
878.222	8071
878.282	9338
878.329	10185
878.364	10521
878.437	10236
878.447	10081
878.529	7186
878.544	7064
878.611	7669
878.651	8095
878.694	8754
878.758	9619
878.776	9729
878.858	9949
878.865	9869
878.941	7864
878.972	6896
879.023	6184
879.078	7506
879.105	8323
879.185	9566
879.187	9582
879.269	9800
879.292	9738
879.351	9076
879.399	8216
879.433	7696
879.506	7738
879.516	7805
879.598	8022
879.613	7970
879.680	7849
879.720	8549
879.762	9375
879.827	8408
879.844	7951
879.926	8060
879.933	8026
880.007	8582
880.040	8232
880.089	7530
880.147	8133
880.171	8559
880.253	9793
880.254	9784
880.335	8197
880.360	8662
880.417	10472
880.467	10451
880.499	10134
880.574	10075
880.580	10135
880.662	11216
880.680	10921
880.744	8358
880.787	7908
880.825	8341
880.893	8546
880.907	8495
880.989	7842
881.000	7997
881.070	10131
881.106	10281
881.152	9111
881.213	7133
881.233	6884
881.315	8119
881.319	8125
881.396	8679
881.426	8706
881.478	8828
881.532	10456
881.559	11063
881.639	9834
881.641	9785
881.722	8481
881.745	8118
881.803	8849
881.852	9506
881.885	9180
881.958	7332
881.966	7295
882.047	9013
882.064	8984
882.129	7372
882.171	6653
882.210	6491
882.277	6441
882.291	6656
882.372	8533
882.383	8716
882.454	10374
882.489	10977
882.535	10648
882.596	10342
882.616	10435
882.697	10135
882.702	10084
882.778	7426
882.808	6712
882.859	6935
882.914	7136
882.940	7291
883.020	8139
883.021	8161
883.102	9400
883.127	10048
883.183	11675
883.233	11784
883.264	10396
883.339	7460
883.345	7321
883.426	5668
883.445	5471
883.507	7132
883.551	8166
883.587	9026
883.657	10850
883.668	11059
883.749	11580
883.763	11562
883.830	8432
883.869	7145
883.910	7197
883.975	7069
883.991	7317
884.072	8572
884.081	8741
884.152	10828
884.187	11516
884.233	11955
884.292	12248
884.314	11170
884.394	6253
884.398	6069
884.475	5265
884.504	4901
884.555	5399
884.610	5979
884.636	6606
884.716	8485
884.716	8520
884.797	12751
884.821	13495
884.877	11597
884.927	10317
884.958	9567
885.033	7722
885.038	7634
885.118	5870
885.139	5522
885.199	6046
885.244	6538
885.279	7704
885.350	10057
885.359	10448
885.439	13576
885.456	13981
885.520	10776
885.561	9004
885.600	8408
885.667	7696
885.680	7929
885.760	9232
885.773	9304
885.840	7005
885.878	6109
885.920	6676
885.984	7288
886.000	7696
886.080	9937
886.089	10119
886.160	10588
886.195	10681
886.240	9885
886.300	9007
886.320	9083
886.400	9485
886.406	9462
886.480	8092
886.511	7795
886.560	8195
886.616	8168
886.640	8141
886.720	8265
886.722	8251
886.800	7920
886.827	7912
886.879	8711
886.932	9346
886.959	9921
887.038	11501
887.039	11505
887.119	9868
887.143	9523
887.198	9763
887.248	9818
887.278	9517
887.354	8659
887.358	8686
887.437	8728
887.459	8874
887.517	10091
887.564	10612
887.596	9434
887.669	7034
887.676	6957
887.755	5881
887.774	5636
887.835	6413
887.880	6954
887.914	7945
887.985	9861
887.994	10083
888.073	12088
888.090	12394
888.153	13542
888.195	14291
888.232	12208
888.300	8446
888.311	8415
888.391	8001
888.405	7921
888.470	7530
888.510	7211
888.549	7637
888.615	8612
888.628	9064
888.708	11372
888.720	11715
888.787	11138
888.825	10747
888.866	8975
888.930	6270
888.945	6640
889.024	8557
889.035	8787
889.103	10383
889.140	11193
889.182	10096
889.245	8512
889.261	8723
889.340	9597
889.349	9676
889.419	8972
889.454	8611
889.498	8262
889.559	7743
889.577	8262
889.656	10471
889.664	10671
889.735	10300
889.768	10078
889.814	9428
889.873	8512
889.978	8746
890.083	8322
890.187	10604
890.292	11061
890.397	8426
890.501	8422
890.606	7413
890.710	8590
890.815	12871
890.919	9783
891.024	9719
891.128	7609
891.233	6661
891.337	11295
891.442	11020
891.546	9103
891.650	7295
891.755	6714
891.859	9649
891.963	12037
892.068	9658
892.172	7122
892.276	6299
892.380	8130
892.484	11748
892.589	11370
892.693	9688
892.797	5839
892.901	5354
893.005	7823
893.109	13039
893.213	11553
893.317	8411
893.421	5867
893.525	5582
893.629	7447
893.733	10083
893.837	9225
893.941	8816
894.045	6799
894.148	5540
894.252	7507
894.356	11090
894.460	13044
894.564	7212
894.667	9035
894.771	5346
894.875	4864
894.978	7394
895.082	9530
895.186	9954
895.289	7732
895.393	6940
895.496	10978
895.600	7676
895.703	6209
895.807	6679
895.910	8193
896.014	8618
896.117	6674
896.221	8525
896.324	9361
896.427	6383
896.531	5958
896.634	7959
896.737	7737
896.840	9339
896.944	10852
897.047	10564
897.150	7707
897.253	5073
897.356	5773
897.460	4726
897.563	6161
897.666	10362
897.769	9369
897.872	5390
897.975	6382
898.078	7521
898.181	6732
898.284	6827
898.387	9670
898.490	8746
898.593	7458
898.695	5945
898.798	6638
898.901	6244
899.004	7217
899.107	7417
899.209	8304
899.312	10857
899.415	7377
899.518	4531
899.620	4988
899.723	5089
899.826	7001
899.928	6035
900.031	7488
900.133	10001
900.236	7629
900.338	5016
900.441	5601
900.543	6481
900.646	7244
900.748	8606
900.851	10100
900.953	7169
901.055	6501
901.158	7466
901.260	5863
901.362	4991
901.465	5581
901.567	8918
901.669	9765
901.771	6317
901.873	7080
901.976	6894
902.078	8503
902.180	5531
902.282	5800
902.384	7380
902.486	10843
902.588	8378
902.690	6033
902.792	4674
902.894	7665
902.996	8865
903.098	8578
903.200	5521
903.302	5228
903.404	6178
903.505	5869
903.607	6420
903.709	10084
903.811	10427
903.913	7045
904.014	4724
904.116	5569
904.218	4787
904.319	7227
904.421	11007
904.523	8351
904.624	5953
904.726	5803
904.827	5214
904.929	5590
905.030	5485
905.132	10976
905.233	8470
905.335	4953
905.436	4672
905.537	4694
905.639	5272
905.740	6649
905.841	8688
905.943	7487
906.044	6026
906.145	4596
906.247	4956
906.348	5733
906.449	7484
906.550	8662
906.651	5800
906.752	5369
906.854	5674
906.955	5285
907.056	6493
907.157	9692
907.258	8576
907.359	5563
907.460	4726
907.561	5275
907.662	5500
907.762	7199
907.863	7585
907.964	9134
908.065	6878
908.166	5696
908.267	5647
908.367	5045
908.468	5433
908.569	6434
908.670	8432
908.770	6589
908.871	7279
908.971	6976
909.072	5862
909.173	5630
909.273	6180
909.374	8911
909.474	6517
909.575	6559
909.675	6124
909.776	7010
909.876	5979
909.977	5826
910.077	7322
910.177	8697
910.278	7345
910.378	5504
910.478	5469
910.579	8340
910.679	7795
910.779	7818
910.879	7655
910.980	7679
911.080	8303
911.180	5531
911.280	5389
911.380	5208
911.480	5364
911.580	6504
911.680	6493
911.780	7016
911.880	7507
911.980	6572
912.080	6382
912.180	7105
912.280	5608
912.380	5991
912.480	4565
912.580	5491
912.679	6338
912.779	8614
912.879	7857
912.979	6860
913.078	5291
913.178	5339
913.278	4515
913.377	4677
913.477	4958
913.577	6692
913.676	8449
913.776	8356
913.875	7329
913.975	6899
914.074	6567
914.174	7344
914.273	4850
914.373	6929
914.472	6220
914.572	5132
914.671	5496
914.770	6736
914.870	5657
914.969	6010
915.068	7750
915.167	8399
915.267	5311
915.366	6827
915.465	6813
915.564	7097
915.663	6413
915.763	8076
915.862	8356
915.961	8335
916.060	5685
916.159	5977
916.258	4987
916.357	6010
916.456	7243
916.555	6955
916.654	7174
916.752	9105
916.851	7625
916.950	6231
917.049	5317
917.148	5899
917.247	5170
917.345	5379
917.444	5153
917.543	6424
917.642	7306
917.740	7125
917.839	10894
917.937	11824
918.036	9195
918.135	6999
918.233	6163
918.332	6708
918.430	5704
918.529	6340
918.627	7370
918.726	9577
918.824	7646
918.923	6707
919.021	7076
919.119	6078
919.218	6258
919.316	7375
919.414	8233
919.512	9435
919.611	9468
919.709	8131
919.807	10579
919.905	11365
920.003	10192
920.102	9871
920.200	10144
920.298	10694
920.396	10323
920.494	9956
920.592	8907
920.690	10524
920.788	10184
920.886	9906
920.984	11478
921.082	11934
921.180	11983
921.277	12015
921.375	15891
921.473	20034
921.571	19037
921.669	17336
921.766	16095
921.864	16563
921.962	16432
922.060	15710
922.157	16493
922.255	18097
922.352	16651
922.450	18017
922.548	19394
922.645	21407
922.743	28139
922.840	43210
922.938	47346
923.035	40994
923.133	40928
923.230	46365
923.327	55975
923.425	51080
923.522	49607
923.619	46338
923.717	43272
923.814	40906
923.911	40223
924.008	42153
924.106	39334
924.203	39558
924.300	41818
924.397	40220
924.494	41297
924.591	41589
924.688	38607
924.786	40741
924.883	40616
924.979	41073
925.077	40129
925.173	37374
925.270	38494
925.367	39250
925.464	41943
925.561	43185
925.658	43684
925.755	36154
925.852	43610
925.948	39804
926.045	39251
926.142	40832
926.239	40210
926.335	32162
926.432	38475
926.529	40005
926.625	41543
926.722	34078
926.818	34561
926.915	40623
927.011	36581
927.108	35837
927.204	37676
927.301	31665
927.397	38905
927.494	42724
927.590	28403
927.687	32032
927.783	40166
927.879	39290
927.976	33185
928.072	30957
928.168	35987
928.264	35789
928.361	34020
928.457	39186
928.553	32075
928.649	33930
928.745	34631
928.841	29844
928.937	34654
929.033	33305
929.129	32393
929.225	38573
929.321	32549
929.417	29863
929.513	36786
929.609	29801
929.705	30200
929.801	34516
929.897	29126
929.993	29528
930.089	32499
930.184	28320
930.280	31983
930.376	39283
930.471	28925
930.567	27190
930.663	30500
930.758	27459
930.854	29643
930.950	29892
931.045	26488
931.141	28881
931.236	36251
931.332	28768
931.427	25176
931.523	34735
931.618	31441
931.714	22829
931.809	26657
931.905	33203
932.000	22463
932.095	22907
932.191	33105
932.286	36965
932.381	28359
932.476	22641
932.572	27391
932.667	23782
932.762	25599
932.857	28215
932.952	33463
933.047	27353
933.142	21729
933.237	27985
933.332	28997
933.427	31931
933.522	25945
933.617	23161
933.712	23945
933.807	30882
933.902	33188
933.997	32639
934.092	22666
934.187	24573
934.282	27758
934.376	27655
934.471	28972
934.566	24055
934.661	23134
934.755	29256
934.850	30258
934.945	24189
935.039	21689
935.134	18999
935.228	25150
935.323	35465
935.417	22858
935.512	16787
935.606	19494
935.701	26843
935.795	27414
935.890	25564
935.984	20271
936.079	17785
936.173	23670
936.267	22050
936.362	20619
936.456	25016
936.550	30947
936.644	25634
936.738	19075
936.833	19795
936.927	16039
937.021	21438
937.115	24323
937.209	26062
937.303	21605
937.397	16769
937.491	20805
937.585	25144
937.679	23629
937.773	18598
937.867	15675
937.961	17917
938.055	26310
938.149	22920
938.243	14204
938.337	16206
938.430	18998
938.524	27359
938.618	19063
938.712	17036
938.805	19495
938.899	23835
938.993	27767
939.086	17490
939.180	12342
939.274	16750
939.367	22383
939.461	24157
939.554	17777
939.648	16882
939.741	17776
939.835	21052
939.928	27269
940.022	22601
940.115	19810
940.208	23228
940.302	25629
940.395	26703
940.488	18722
940.582	17252
940.675	15291
940.768	16403
940.861	23338
940.954	24093
941.048	14721
941.141	13528
941.234	16879
941.327	19116
941.420	20745
941.513	22004
941.606	18007
941.699	16696
941.792	21925
941.885	19450
941.978	20245
942.071	19568
942.164	14584
942.257	15018
942.349	16802
942.442	19026
942.535	14664
942.628	15178
942.721	16472
942.813	18114
942.906	19312
942.999	16535
943.091	14096
943.184	17015
943.277	16308
943.369	12862
943.462	11059
943.554	16106
943.647	16691
943.739	20330
943.832	20931
943.924	11186
944.017	12181
944.109	14102
944.201	14986
944.294	15354
944.386	15366
944.478	14073
944.571	13030
944.663	14837
944.755	15794
944.847	18195
944.940	14972
945.032	11650
945.124	11524
945.216	14644
945.308	16209
945.400	15417
945.492	13694
945.584	19183
945.676	20001
945.768	16602
945.860	17961
945.952	19814
946.044	15493
946.136	13392
946.228	14396
946.320	13674
946.412	16100
946.503	19638
946.595	17886
946.687	12782
946.779	11183
946.870	12622
946.962	12665
947.054	13185
947.145	16285
947.237	12953
947.329	13527
947.420	15494
947.512	13158
947.603	10255
947.695	10922
947.786	11725
947.878	12444
947.969	15090
948.061	16975
948.152	15064
948.243	9642
948.335	10160
948.426	10872
948.517	13927
948.609	15720
948.700	14703
948.791	13673
948.882	9403
948.973	9725
949.065	14059
949.156	13385
949.247	10065
949.338	12404
949.429	9642
949.520	10223
949.611	13407
949.702	16116
949.793	11154
949.884	12947
949.975	11703
950.066	8710
950.157	9505
950.247	11250
950.338	10338
950.429	10982
950.520	11906
950.611	9992
950.701	13110
950.792	16246
950.883	14716
950.973	12062
951.064	14361
951.155	14714
951.245	14853
951.336	14347
951.427	15258
951.517	16824
951.608	13948
951.698	10934
951.788	9490
951.879	9388
951.969	10216
952.060	11866
952.150	12001
952.240	15637
952.331	13659
952.421	13149
952.511	8665
952.602	7660
952.692	9099
952.782	9086
952.872	10401
952.962	12264
953.052	10924
953.143	10180
953.233	11466
953.323	10866
953.413	13011
953.503	13775
953.593	11676
953.683	11466
953.773	8923
953.863	9508
953.953	8843
954.042	11322
954.132	13414
954.222	13077
954.312	10476
954.402	10538
954.492	10733
954.581	12015
954.671	11725
954.761	10579
954.850	12306
954.940	7355
955.030	7755
955.119	8277
955.209	9583
955.298	10880
955.388	12008
955.477	12115
955.567	8567
955.656	8177
955.746	9573
955.835	9524
955.925	9182
956.014	12229
956.103	14313
956.193	15010
956.282	12729
956.371	10486
956.461	11131
956.550	10663
956.639	10198
956.728	10164
956.817	9658
956.906	10118
956.995	13445
957.085	9719
957.174	10757
957.263	9511
957.352	9286
957.441	10552
957.530	10576
957.619	8333
957.708	9943
957.796	9231
957.885	9612
957.974	9544
958.063	10050
958.152	6804
958.241	7609
958.329	6859
958.418	10130
958.507	9248
958.596	12765
958.684	9517
958.773	10196
958.861	7344
958.950	7258
959.039	7457
959.127	8766
959.216	9984
959.304	8196
959.393	9103
959.481	10414
959.570	7335
959.658	6240
959.746	7043
959.835	8252
959.923	7929
960.011	8508
960.100	9534
960.188	10972
960.276	8899
960.365	7391
960.453	6521
960.541	6591
960.629	7781
960.717	5961
960.805	5367
960.893	7210
960.981	10389
961.069	11957
961.158	13818
961.245	14096
961.333	11943
961.421	9539
961.509	8813
961.597	9936
961.685	8267
961.773	9550
961.861	10211
961.949	11810
962.036	8000
962.124	7398
962.212	7175
962.299	8600
962.387	6941
962.475	7689
962.562	7478
962.650	9897
962.738	8500
962.825	6804
962.913	6404
963.000	8077
963.088	9032
963.175	9352
963.263	8448
963.350	8074
963.438	8683
963.525	7356
963.612	7280
963.700	7698
963.787	9389
963.874	8966
963.962	7466
964.049	6812
964.136	7475
964.223	6905
964.310	7379
964.398	7349
964.485	8412
964.572	8165
964.659	8503
964.746	7209
964.833	5559
964.920	7194
965.007	7504
965.094	7253
965.181	8057
965.268	9223
965.355	7813
965.441	7705
965.528	7388
965.615	9114
965.702	7833
965.789	7919
965.875	8904
965.962	9014
966.049	8259
966.136	11382
966.222	11831
966.309	12687
966.395	11971
966.482	10697
966.569	8800
966.655	9358
966.742	7828
966.828	7050
966.915	6449
967.001	7429
967.087	5685
967.174	7244
967.260	6744
967.347	8427
967.433	8047
967.519	9264
967.605	9790
967.692	9042
967.778	8228
967.864	7388
967.950	8240
968.036	7189
968.123	7807
968.209	7411
968.295	5435
968.381	7655
968.467	7081
968.553	5466
968.639	8949
968.725	9571
968.811	13511
968.897	11944
968.983	8853
969.069	7108
969.154	6277
969.240	6997
969.326	5519
969.412	6429
969.497	6799
969.583	6528
969.669	8522
969.755	8449
969.840	9318
969.926	15202
970.012	18373
970.097	22682
970.183	19690
970.268	12603
970.354	8722
970.439	7508
970.525	7492
970.610	7001
970.696	9457
970.781	7354
970.866	6606
970.952	7782
971.037	7285
971.122	7867
971.208	8021
971.293	7805
971.378	7056
971.463	7660
971.549	6175
971.634	6869
971.719	6954
971.804	7171
971.889	6670
971.974	7105
972.059	7198
972.144	6673
972.229	6940
972.314	7479
972.399	7115
972.484	5874
972.569	6271
972.654	5607
972.739	7463
972.824	6810
972.908	6955
972.993	5454
973.078	6119
973.163	7215
973.247	8269
973.332	5920
973.417	8528
973.501	6824
973.586	7890
973.671	8187
973.755	6301
973.840	7578
973.924	9225
974.009	11398
974.093	11851
974.178	9830
974.262	9202
974.346	8771
974.431	8546
974.515	7101
974.600	8727
974.684	8194
974.768	6990
974.852	9504
974.937	7031
975.021	8175
975.105	7925
975.189	7544
975.273	7169
975.358	6484
975.442	5352
975.526	7850
975.610	6169
975.694	6325
975.778	7918
975.862	6886
975.946	5087
976.030	8376
976.114	7066
976.198	6931
976.281	6856
976.365	8542
976.449	5802
976.533	6553
976.617	6145
976.700	5704
976.784	5515
976.868	6378
976.951	7017
977.035	6546
977.119	7240
977.202	7210
977.286	8346
977.369	11296
977.453	15057
977.536	13298
977.620	10368
977.703	11136
977.787	8602
977.870	9935
977.953	9528
978.037	7113
978.120	7820
978.203	8909
978.287	9217
978.370	8076
978.453	6433
978.536	6965
978.620	8226
978.703	8522
978.786	6981
978.869	6542
978.952	6474
979.035	9280
979.118	8084
979.201	6803
979.284	8025
979.367	8589
979.450	7972
979.533	6902
979.616	6116
979.699	7774
979.782	7210
979.865	7480
979.948	7269
980.030	6978
980.113	7382
980.196	6449
980.279	7650
980.361	7315
980.444	7036
980.526	10002
980.609	13424
980.692	16227
980.774	13836
980.857	10880
980.939	11138
981.022	9666
981.104	8993
981.187	8620
981.269	9309
981.352	9388
981.434	8567
981.516	9633
981.599	9910
981.681	8953
981.763	8583
981.846	9185
981.928	8614
982.010	8867
982.092	7800
982.174	9976
982.256	8881
982.339	8749
982.421	7807
982.503	8328
982.585	7288
982.667	8009
982.749	8015
982.831	9063
982.913	7775
982.995	9261
983.077	8749
983.158	10502
983.240	8229
983.322	12457
983.404	16630
983.486	15951
983.568	14354
983.649	13384
983.731	13279
983.813	11671
983.894	10593
983.976	11663
984.058	10166
984.139	11246
984.221	10165
984.302	10984
984.384	10273
984.465	10891
984.547	10707
984.628	9866
984.710	11530
984.791	10365
984.872	10142
984.954	10206
985.035	11354
985.116	11077
985.198	9426
985.279	11629
985.360	10601
985.441	11147
985.522	11680
985.604	11538
985.685	8929
985.766	10971
985.847	11999
985.928	10566
986.009	10110
986.090	10561
986.171	11437
986.252	10127
986.333	10767
986.414	10646
986.495	11061
986.576	12483
986.656	11862
986.737	13219
986.818	13691
986.899	12146
986.980	11408
987.060	12896
987.141	13714
987.222	14594
987.302	15311
987.383	16856
987.464	15194
987.544	16440
987.625	14493
987.705	15774
987.786	16189
987.866	14911
987.947	15269
988.027	15850
988.108	13832
988.188	14172
988.268	12886
988.349	14543
988.429	14306
988.509	13457
988.589	13196
988.670	12395
988.750	14101
988.830	12982
988.910	14058
988.990	13563
989.070	12263
989.151	12755
989.231	12508
989.311	12734
989.391	11739
989.471	12375
989.551	12407
989.631	11973
989.711	13861
989.791	12196
989.870	11471
989.950	12960
990.030	12296
990.110	11884
990.190	10320
990.269	10520
990.349	11621
990.429	12662
990.509	10798
990.588	9069
990.668	10829
990.747	10499
990.827	10105
990.907	10750
990.986	11709
991.066	11048
991.145	8476
991.225	11152
991.304	11497
991.383	11261
991.463	10170
991.542	11786
991.622	8222
991.701	10350
991.780	8594
991.859	9314
991.939	9134
992.018	10991
992.097	10847
992.176	8729
992.256	9460
992.335	10083
992.414	10603
992.493	8862
992.572	6952
992.651	10162
992.730	9346
992.809	7660
992.888	7638
992.967	9410
993.046	9075
993.125	7118
993.203	8630
993.282	9754
993.361	9475
993.440	8127
993.519	8300
993.597	8649
993.676	7606
993.755	9512
993.834	8041
993.912	7188
993.991	8355
994.069	7759
994.148	8192
994.226	7035
994.305	7525
994.384	7674
994.462	9956
994.540	6849
994.619	6016
994.697	8361
994.776	8607
994.854	9013
994.932	5796
995.011	6856
995.089	7461
995.167	7612
995.245	7454
995.324	7519
995.402	7623
995.480	6803
995.558	6448
995.636	5853
995.714	6185
995.792	8913
995.870	6222
995.948	6947
996.026	6256
996.104	5779
996.182	7455
996.260	5529
996.338	5428
996.416	6276
996.494	6702
996.572	7022
996.649	5289
996.727	5778
996.805	6394
996.883	6259
996.960	6260
997.038	6221
997.116	7101
997.193	5490
997.271	5331
997.348	4013
997.426	5372
997.504	6244
997.581	7213
997.658	6335
997.736	2595
997.813	4134
997.891	6880
997.968	6098
998.046	4941
998.123	5906
998.200	6701
998.277	5775
998.355	5743
998.432	3909
998.509	3572
998.586	5599
998.663	5570
998.741	4790
998.818	4254
998.895	4321
998.972	5128
999.049	6345
999.126	5010
999.203	4146
999.280	5330
999.357	4984
999.434	5173
999.511	5190
999.587	4077
999.664	3058
999.741	4673
999.818	5935
999.895	4295
999.971	4797
1000.048	4389
1000.125	4733
1000.202	4009
1000.278	4871
1000.355	5059
1000.431	2897
1000.508	4137
1000.584	3238
1000.661	3636
1000.738	4068
1000.814	4483
1000.890	4095
1000.967	4231
1001.043	4463
1001.120	3179
1001.196	4405
1001.272	3435
1001.349	4076
1001.425	4995
1001.501	3869
1001.577	4081
1001.654	3701
1001.730	3940
1001.806	4369
1001.882	3480
1001.958	5279
1002.034	4280
1002.110	3061
1002.186	2254
1002.262	3372
1002.338	1981
1002.414	4340
1002.490	3689
1002.566	3162
1002.642	2703
1002.718	3787
1002.794	3142
1002.870	2967
1002.945	2810
1003.021	2954
1003.097	2400
1003.173	4153
1003.248	3031
1003.324	4117
1003.400	3431
1003.475	1993
1003.551	2739
1003.626	2646
1003.702	2415
1003.777	3250
1003.853	1971
1003.928	2595
1004.004	1628
1004.079	3053
1004.155	3425
1004.230	2486
1004.305	3275
1004.381	2617
1004.456	2510
1004.531	1939
1004.607	2617
1004.682	3429
1004.757	2471
1004.832	1868
1004.907	2357
1004.982	2468
1005.057	2738
1005.133	1835
1005.208	2366
1005.283	1932
1005.358	1930
1005.433	740
1005.508	2865
1005.583	1643
1005.657	2416
1005.732	1905
1005.807	2098
1005.882	2105
1005.957	1378
1006.032	3053
1006.106	1556
1006.181	2349
1006.256	3142
1006.331	2018
1006.405	1108
1006.480	1570
1006.554	1766
1006.629	2460
1006.704	1482
1006.778	1705
1006.853	1988
1006.927	1745
1007.002	635
1007.076	1633
1007.150	1409
1007.225	1488
1007.299	2268
1007.373	1827
1007.448	1567
1007.522	1366
1007.596	1791
1007.671	1960
1007.745	2443
1007.819	1480
1007.893	1377
1007.967	2417
1008.041	1019
1008.115	2549
1008.190	180
1008.264	2039
1008.338	468
1008.412	1044
1008.486	1220
1008.560	1340
1008.633	1710
1008.707	1792
1008.781	2672
1008.855	2720
1008.929	2587
1009.003	1233
1009.076	215
1009.150	1321
1009.224	1122
1009.298	1084
1009.371	1011
1009.445	1286
1009.519	657
1009.592	503
1009.666	621
1009.739	1613
1009.813	473
1009.886	2261
1009.960	453
1010.033	1043
1010.107	1323
1010.180	-151
1010.253	-114
1010.327	263
1010.400	212
1010.473	119
1010.547	679
1010.620	658
1010.693	1303
1010.766	703
1010.840	1063
1010.913	596
1010.986	-36
1011.059	-335
1011.132	365
1011.205	1039
1011.278	147
1011.351	471
1011.424	680
1011.497	601
1011.570	96
1011.643	105
1011.716	-132
1011.789	117
1011.862	157
1011.934	411
1012.007	349
1012.080	218
1012.153	386
1012.225	505
1012.298	-336
1012.371	467
1012.443	915
1012.516	232
1012.588	815
1012.661	841
1012.733	-1037
1012.806	582
1012.879	-142
1012.951	473
1013.023	259
1013.096	725
1013.168	127
1013.241	176
1013.313	527
1013.385	-756
1013.458	532
1013.530	1382
1013.602	-338
1013.674	74
1013.746	-599
1013.819	159
1013.891	474
1013.963	470
1014.035	584
1014.107	865
1014.179	-8
1014.251	95
1014.323	775
1014.395	338
1014.467	115
1014.539	1051
1014.611	-1013
1014.683	194
1014.754	-498
1014.826	-150
1014.898	414
1014.970	-388
1015.042	678
1015.113	416
1015.185	448
1015.257	391
1015.328	507
1015.400	878
1015.471	730
1015.543	-570
1015.615	-221
1015.686	-654
1015.757	-468
1015.829	336
1015.901	-746
1015.972	97
1016.043	-770
1016.115	-109
1016.186	-449
1016.257	-662
1016.328	-11
1016.400	-74
1016.471	-988
1016.542	201
1016.613	-194
1016.685	-227
1016.756	850
1016.827	62
1016.898	-1065
1016.969	493
1017.040	-719
1017.111	-76
1017.182	-1011
1017.253	61
1017.324	428
1017.395	-456
1017.466	258
1017.537	-12
1017.608	-942
1017.678	-130
1017.749	-1220
1017.820	-623
1017.891	-1542
1017.961	-400
1018.032	-144
1018.103	163
1018.173	-414
1018.244	-1100
1018.315	-927
1018.385	139
1018.456	-578
1018.526	-532
1018.597	-1091
1018.667	-18
1018.738	-848
1018.808	-377
1018.878	-802
1018.949	-540
1019.019	-401
1019.089	-173
1019.160	-1106
1019.230	-1087
1019.300	-170
1019.371	-744
1019.441	-656
1019.511	-371
1019.581	-777
1019.651	-32
1019.721	-434
1019.791	-817
1019.861	-496
1019.931	574
1020.001	-656
1020.071	-368
1020.141	-152
1020.211	-849
1020.281	-1152
1020.351	-1313
1020.421	-822
1020.491	-71
1020.560	-294
1020.630	-360
1020.700	-734
1020.770	-479
1020.839	-915
1020.909	-529
1020.979	-1031
1021.048	-964
1021.118	-801
1021.187	-931
1021.257	-1751
1021.326	-327
1021.396	-1080
1021.465	-529
1021.535	-945
1021.604	-1141
1021.674	514
1021.743	-20
1021.812	-896
1021.882	-192
1021.951	-89
1022.020	-636
1022.089	-23
1022.159	-973
1022.228	-45
1022.297	-250
1022.366	-347
1022.435	-1302
1022.504	-624
1022.573	-434
1022.642	-934
1022.711	-827
1022.781	-1049
1022.849	-819
1022.918	-1155
1022.987	-733
1023.056	-946
1023.125	-902
1023.194	-799
1023.263	-166
1023.331	-351
1023.400	-1249
1023.469	-1577
1023.538	-59
1023.606	-1085
1023.675	-455
1023.744	-155
1023.812	-1452
1023.881	-1218
1023.949	-656
1024.018	-924
1024.086	-864
1024.155	-526
1024.223	-996
1024.292	-245
1024.360	-498
1024.429	-868
1024.497	-953
1024.565	-589
1024.634	-1160
1024.702	-162
1024.770	-1039
1024.838	-337
1024.907	-1105
1024.975	-1975
1025.043	-791
1025.111	-1390
1025.179	-39
1025.247	-1142
1025.315	-508
1025.383	-729
1025.451	-1010
1025.519	-1470
1025.587	-677
1025.655	-1132
1025.723	-733
1025.791	-449
1025.859	-1323
1025.927	-800
1025.995	-881
1026.062	-1341
1026.130	487
1026.198	-783
1026.266	-1035
1026.333	-909
1026.401	56
1026.469	-390
1026.536	-647
1026.604	-477
1026.671	-881
1026.739	-1491
1026.806	-969
1026.874	-1122
1026.941	-1703
1027.009	-1142
1027.076	-823
1027.144	-196
1027.211	-1334
1027.278	-1442
1027.345	-890
1027.413	-749
1027.480	-1611
1027.547	-1172
1027.614	-1192
1027.682	-476
1027.749	-407
1027.816	-1790
1027.883	-352
1027.950	-415
1028.017	-1085
1028.084	-775
1028.151	-720
1028.218	-1092
1028.285	-997
1028.352	-239
1028.419	-1739
1028.486	-1185
1028.553	-1194
1028.619	-731
1028.686	-727
1028.753	-985
1028.820	-825
1028.886	-945
1028.953	-682
1029.020	-906
1029.086	-676
1029.153	-1557
1029.220	-142
1029.286	-1732
1029.353	-717
1029.419	-1330
1029.486	-724
1029.552	-767
1029.619	-1204
1029.685	-1413
1029.751	-1165
1029.818	-49
1029.884	-1120
1029.951	-616
1030.017	-846
1030.083	-1840
1030.149	-1105
1030.216	-1171
1030.282	-449
1030.348	-458
1030.414	-1066
1030.480	-1317
1030.546	-1368
1030.612	-1381
1030.678	-1379
1030.744	-1394
1030.810	-663
1030.876	-882
1030.942	-1459
1031.008	-660
1031.074	-875
1031.140	-1181
1031.206	-157
1031.272	-1853
1031.337	-848
1031.403	-155
1031.469	-1892
1031.534	-614
1031.600	-1276
1031.666	-1501
1031.731	-980
1031.797	-795
1031.863	-444
1031.928	-1424
1031.994	-1399
1032.059	-1177
1032.125	-1039
1032.190	-868
1032.256	-1149
1032.321	-1385
1032.386	-468
1032.452	-873
1032.517	-606
1032.582	-702
1032.647	-78
1032.713	-906
1032.778	-714
1032.843	-950
1032.908	-874
1032.974	-1082
1033.039	-616
1033.104	-973
1033.169	-139
1033.234	-755
1033.299	-952
1033.364	-362
1033.429	-613
1033.494	-663
1033.559	-972
1033.624	-689
1033.688	213
1033.753	62
1033.818	591
1033.883	828
1033.948	1860
1034.013	2678
1034.077	3144
1034.142	5046
1034.207	6667
1034.271	9968
1034.336	12149
1034.400	10512
1034.465	5303
1034.530	3137
1034.594	1332
1034.658	257
1034.723	-558
1034.787	981
1034.852	-539
1034.916	-481
1034.981	-69
1035.045	-926
1035.109	-933
1035.173	-808
1035.238	-771
1035.302	-849
1035.366	-451
1035.430	-1485
1035.495	-755
1035.559	-560
1035.623	-1022
1035.687	-278
1035.751	-596
1035.815	-2133
1035.879	-1022
1035.943	-1570
1036.007	-1031
1036.071	-816
1036.135	-536
1036.198	-1813
1036.262	-825
1036.326	-1015
1036.390	-271
1036.454	-1043
1036.517	-1035
1036.581	-1741
1036.645	-1034
1036.709	-906
1036.772	-660
1036.836	-670
1036.900	-619
1036.963	-1263
1037.026	-764
1037.090	-1469
1037.154	-831
1037.217	-897
1037.280	-817
1037.344	-1818
1037.407	401
1037.471	-1002
1037.534	-345
1037.597	-808
1037.661	-88
1037.724	-357
1037.787	-411
1037.850	-2
1037.913	-1663
1037.977	-496
1038.040	-496
1038.103	-1113
1038.166	-1680
1038.229	-1066
1038.292	-1186
1038.355	-325
1038.418	-1645
1038.481	-910
1038.544	-1131
1038.607	-1023
1038.670	-1847
1038.732	-1475
1038.795	-1161
1038.858	-1809
1038.921	-1154
1038.984	-1405
1039.046	-453
1039.109	-1288
1039.172	-906
1039.234	-1120
1039.297	-1141
1039.360	-909
1039.422	-923
1039.485	-988
1039.547	-959
1039.610	-960
1039.672	-890
1039.734	-2213
1039.797	-1216
1039.859	-1056
1039.922	-1243
1039.984	-914
1040.046	-1090
1040.109	-1710
1040.171	-897
1040.233	-1684
1040.295	-674
1040.358	-1368
1040.420	-1839
1040.482	-1406
1040.544	-1022
1040.606	-1731
1040.668	-1220
1040.730	-633
1040.792	-1664
1040.854	-1109
1040.916	-2155
1040.978	-1793
1041.040	-1211
1041.102	-1442
1041.164	-1147
1041.225	-1700
1041.287	-1661
1041.349	-1666
1041.411	-1375
1041.472	-1889
1041.534	-928
1041.596	-1460
1041.657	-1729
1041.719	-1205
1041.781	-1738
1041.842	-1920
1041.904	-1669
1041.965	-1840
1042.027	-647
1042.088	-1015
1042.150	-1938
1042.211	-901
1042.272	-779
1042.334	-2071
1042.395	-817
1042.456	-2225
1042.518	-723
1042.579	-1391
1042.640	-1838
1042.701	-1737
1042.763	-1496
1042.824	-1504
1042.885	-1613
1042.946	-2063
1043.007	283
1043.068	-2017
1043.129	-939
1043.190	-1625
1043.251	-433
1043.312	-1908
1043.373	-1116
1043.434	-1566
1043.495	-1491
1043.556	-776
1043.616	-1379
1043.677	-1023
1043.738	-813
1043.799	-2162
1043.859	-1299
1043.920	-1728
1043.981	-1434
1044.041	-1360
1044.102	-1248
1044.162	-1124
1044.223	-1125
1044.284	-2105
1044.344	-1402
1044.405	-1500
1044.465	-907
1044.525	-1468
1044.586	-551
1044.646	-1523
1044.707	-258
1044.767	-1425
1044.827	-1492
1044.887	-920
1044.948	-1266
1045.008	-1182
1045.068	-1124
1045.128	-1211
1045.188	-1219
1045.249	-457
1045.309	-1159
1045.369	-1343
1045.429	-165
1045.489	-1928
1045.549	-834
1045.609	-1641
1045.669	-1149
1045.729	-1183
1045.789	309
1045.848	-1768
1045.908	-1204
1045.968	-1254
1046.028	-1069
1046.088	-1308
1046.147	-440
1046.207	-452
1046.267	-1298
1046.326	-1190
1046.386	-1461
1046.446	-1255
1046.505	-260
1046.565	-739
1046.624	-81
1046.684	-1268
1046.743	-515
1046.803	-675
1046.862	44
1046.922	0
