'Start Wavelength	183.907
'End Wavelength	1046.922
'Gate Delay	5.000
'Gate Width (ms)	1.050
'Laser Output Level	0.000
'X Position	0.000
'Y Position	0.000
'Z Position	0.000
'Grid Point Number	1.000
'Shot Number	100.000
183.907	514.000
183.977	-760.000
184.047	-299
184.116	494
184.186	56
184.256	683
184.325	-59
184.395	-848
184.465	734
184.534	-160
184.604	-217
184.674	-536
184.743	-60
184.813	449
184.883	-474
184.952	558
185.022	-113
185.092	198
185.161	-324
185.231	-333
185.301	-511
185.370	254
185.440	-397
185.509	149
185.579	181
185.649	139
185.718	-590
185.788	551
185.857	-421
185.927	99
185.996	-459
186.066	-316
186.136	291
186.205	201
186.275	-172
186.344	-183
186.414	-384
186.483	-717
186.553	854
186.622	745
186.692	-20
186.761	-365
186.831	-213
186.900	-121
186.970	-176
187.039	943
187.109	375
187.178	211
187.248	-139
187.317	293
187.387	-772
187.456	74
187.526	142
187.595	210
187.664	-860
187.734	155
187.803	-688
187.873	129
187.942	-49
188.012	-262
188.081	-283
188.150	-532
188.220	-77
188.289	396
188.358	-46
188.428	-516
188.497	-289
188.567	57
188.636	-60
188.705	-272
188.775	206
188.844	-1339
188.913	461
188.983	40
189.052	-175
189.121	105
189.191	-272
189.260	-134
189.329	-192
189.399	56
189.468	-420
189.537	-91
189.606	-104
189.676	-144
189.745	-343
189.814	232
189.883	-416
189.953	-62
190.022	-509
190.091	198
190.161	-1002
190.230	74
190.299	83
190.368	402
190.437	151
190.507	115
190.576	-320
190.645	-47
190.714	-596
190.783	-222
190.853	287
190.922	735
190.991	76
191.060	176
191.129	-1070
191.198	-1
191.268	-280
191.337	65
191.406	252
191.475	252
191.544	-737
191.613	143
191.682	330
191.752	-82
191.821	107
191.890	-489
191.959	-31
192.028	81
192.097	-468
192.166	-475
192.235	-267
192.304	791
192.373	-454
192.442	96
192.511	-608
192.580	-516
192.650	-83
192.719	-28
192.788	-216
192.857	-346
192.926	535
192.995	-629
193.064	-372
193.133	22
193.202	-534
193.271	-852
193.340	820
193.409	-38
193.478	-197
193.547	-503
193.615	-605
193.684	107
193.753	-906
193.822	-136
193.891	-763
193.960	-162
194.029	-483
194.098	-653
194.167	-613
194.236	593
194.305	-366
194.374	4
194.443	-619
194.512	66
194.580	44
194.649	220
194.718	-841
194.787	271
194.856	-326
194.925	-163
194.994	103
195.062	60
195.131	-461
195.200	-605
195.269	-273
195.338	90
195.407	-356
195.475	-195
195.544	-173
195.613	-151
195.682	-205
195.751	-283
195.819	-321
195.888	-98
195.957	530
196.026	-481
196.094	164
196.163	-442
196.232	201
196.301	264
196.369	-212
196.438	-545
196.507	-276
196.576	-603
196.644	-232
196.713	-505
196.782	123
196.850	166
196.919	-197
196.988	-487
197.056	-215
197.125	612
197.194	80
197.262	553
197.331	174
197.400	-114
197.468	-465
197.537	-921
197.606	-530
197.674	647
197.743	644
197.812	-625
197.880	-214
197.949	-585
198.017	-304
198.086	-666
198.155	-549
198.223	-868
198.292	-62
198.360	259
198.429	-462
198.497	-213
198.566	-693
198.635	644
198.703	139
198.772	391
198.840	-210
198.909	-689
198.977	234
199.046	-296
199.114	128
199.183	89
199.251	-283
199.320	-604
199.388	-383
199.457	-1146
199.525	-637
199.594	49
199.662	260
199.731	-51
199.799	16
199.867	-903
199.936	-706
200.004	206
200.073	-52
200.141	-727
200.210	-734
200.278	343
200.346	-418
200.415	-335
200.483	13
200.552	609
200.620	301
200.688	288
200.757	-139
200.825	89
200.893	1106
200.962	-226
201.030	-235
201.098	-885
201.167	-8
201.235	75
201.303	129
201.372	-100
201.440	-265
201.508	-63
201.577	-213
201.645	64
201.713	-266
201.781	-580
201.850	-289
201.918	-8
201.986	-670
202.055	416
202.123	-74
202.191	6
202.259	-886
202.327	53
202.396	-770
202.464	284
202.532	-130
202.600	34
202.669	-1280
202.737	-327
202.805	-828
202.873	-63
202.941	-196
203.009	-345
203.078	-719
203.146	110
203.214	-1369
203.282	-1240
203.350	339
203.418	137
203.487	-332
203.555	-142
203.623	-108
203.691	-931
203.759	-602
203.827	-106
203.895	-134
203.963	-355
204.031	-367
204.099	-395
204.168	-468
204.236	-536
204.304	-620
204.372	-146
204.440	-837
204.508	-470
204.576	-692
204.644	251
204.712	-1034
204.780	282
204.848	-279
204.916	-601
204.984	-646
205.052	82
205.120	315
205.188	-692
205.256	-1042
205.324	-1093
205.392	-625
205.460	-102
205.528	-1313
205.596	-710
205.664	-837
205.732	-136
205.799	255
205.867	-195
205.935	-1339
206.003	411
206.071	-322
206.139	-1565
206.207	-62
206.275	71
206.343	-992
206.411	-450
206.478	-624
206.546	-510
206.614	-544
206.682	-593
206.750	-644
206.818	77
206.885	313
206.953	-999
207.021	1040
207.089	-146
207.157	-559
207.225	-300
207.292	-1219
207.360	-919
207.428	-51
207.496	-371
207.563	-167
207.631	-285
207.699	-1269
207.767	-716
207.834	-759
207.902	-303
207.970	-287
208.038	-385
208.105	-392
208.173	-46
208.241	-684
208.309	-236
208.376	-84
208.444	-504
208.512	-363
208.579	-1140
208.647	-700
208.715	157
208.782	-821
208.850	-685
208.918	-767
208.985	-353
209.053	-408
209.120	-903
209.188	-944
209.256	-368
209.323	-1272
209.391	-667
209.459	885
209.526	-567
209.594	-519
209.661	-410
209.729	-179
209.796	-373
209.864	-186
209.932	-1571
209.999	397
210.067	-479
210.134	-304
210.202	-733
210.269	197
210.337	116
210.404	70
210.472	-361
210.539	-163
210.607	-411
210.674	-749
210.742	-27
210.809	29
210.877	-472
210.944	-177
211.012	-1792
211.079	450
211.146	58
211.214	-106
211.281	-315
211.349	-206
211.416	-451
211.484	-460
211.551	-612
211.618	-47
211.686	-97
211.753	-768
211.821	-125
211.888	121
211.955	-233
212.023	25
212.090	-636
212.157	-856
212.225	-107
212.292	-260
212.359	-522
212.427	-160
212.494	-252
212.561	-88
212.629	-24
212.696	-824
212.763	-784
212.831	-1212
212.898	92
212.965	-481
213.032	-681
213.100	-542
213.167	-710
213.234	-42
213.301	123
213.369	-632
213.436	-454
213.503	-532
213.570	-442
213.638	-373
213.705	-1393
213.772	-1464
213.839	-685
213.906	-191
213.973	-141
214.041	-480
214.108	-859
214.175	-602
214.242	-667
214.309	-844
214.376	-29
214.444	-469
214.511	-12
214.578	-68
214.645	424
214.712	19
214.779	52
214.846	-1090
214.913	163
214.980	135
215.048	467
215.115	381
215.182	570
215.249	-552
215.316	-415
215.383	-336
215.450	-306
215.517	-341
215.584	29
215.651	-649
215.718	-554
215.785	-151
215.852	-944
215.919	764
215.986	-535
216.053	-179
216.120	-654
216.187	17
216.254	263
216.321	-502
216.388	-353
216.455	-373
216.522	-670
216.589	-1570
216.656	26
216.722	-211
216.789	-269
216.856	88
216.923	-903
216.990	-302
217.057	-384
217.124	-795
217.191	-930
217.258	-1090
217.324	-680
217.391	-1202
217.458	-863
217.525	-469
217.592	-307
217.659	-1588
217.725	33
217.792	-686
217.859	-279
217.926	-1042
217.993	-865
218.059	-407
218.126	-54
218.193	-345
218.260	-714
218.327	-694
218.393	-463
218.460	-847
218.527	-865
218.594	-1078
218.660	-425
218.727	-116
218.794	-716
218.860	30
218.927	-486
218.994	-1321
219.061	-500
219.127	-71
219.194	-261
219.261	171
219.327	-1040
219.394	501
219.461	-1232
219.527	-488
219.594	-225
219.661	-536
219.727	-1244
219.794	586
219.860	-425
219.927	573
219.994	1034
220.060	1591
220.127	1975
220.193	805
220.260	241
220.326	553
220.393	-725
220.460	-91
220.526	-185
220.593	-1119
220.659	901
220.726	-789
220.792	-890
220.859	-592
220.925	-640
220.992	-736
221.058	79
221.125	-412
221.191	-975
221.258	-1015
221.324	-288
221.391	-457
221.457	-745
221.524	-964
221.590	173
221.657	-1095
221.723	-1207
221.789	-12
221.856	-127
221.922	-512
221.989	125
222.055	-1188
222.121	-1091
222.188	1170
222.254	-380
222.321	-351
222.387	-444
222.453	176
222.520	-208
222.586	-1558
222.652	66
222.719	-1272
222.785	-183
222.851	-616
222.918	-175
222.984	-334
223.050	-949
223.116	-1830
223.183	38
223.249	-845
223.315	-1227
223.382	-425
223.448	-630
223.514	-1219
223.580	-364
223.647	-1403
223.713	-1065
223.779	-54
223.845	-879
223.911	-668
223.978	-1068
224.044	-30
224.110	-1279
224.176	388
224.242	-896
224.309	-1632
224.375	-678
224.441	-15
224.507	-1396
224.573	-847
224.639	265
224.705	-676
224.772	-8
224.838	-1145
224.904	-390
224.970	-672
225.036	-1022
225.102	-1909
225.168	7
225.234	-582
225.300	-645
225.366	-311
225.432	127
225.499	-503
225.565	248
225.631	-994
225.697	-831
225.763	-975
225.829	-13
225.895	-597
225.961	-289
226.027	-611
226.093	-777
226.159	-264
226.225	-280
226.291	30
226.357	-63
226.423	-386
226.489	-118
226.554	-481
226.620	-284
226.686	-562
226.752	-717
226.818	-384
226.884	-16
226.950	-318
227.016	-852
227.082	-893
227.148	299
227.214	-221
227.279	-122
227.345	-936
227.411	959
227.477	2346
227.543	3669
227.609	4969
227.674	3614
227.740	1303
227.806	998
227.872	-30
227.938	-643
228.003	-192
228.069	-465
228.135	-1264
228.201	-49
228.267	-904
228.332	-473
228.398	-2281
228.464	-877
228.530	-495
228.595	-334
228.661	-1077
228.727	-1198
228.792	33
228.858	-1079
228.924	-2656
228.990	56
229.055	-1932
229.121	-1111
229.187	-660
229.252	-1198
229.318	-1032
229.384	-919
229.449	-160
229.515	-1612
229.581	-2359
229.646	1076
229.712	-851
229.777	-1198
229.843	-820
229.909	-1220
229.974	-130
230.040	-654
230.105	-324
230.171	-1332
230.236	-665
230.302	-603
230.368	-1270
230.433	-1242
230.499	-557
230.564	264
230.630	-1776
230.695	-241
230.761	-235
230.826	-1466
230.892	434
230.957	-2593
231.023	-610
231.088	-301
231.154	-1519
231.219	-360
231.284	-1568
231.350	-352
231.415	-1560
231.481	-1
231.546	-486
231.612	-611
231.677	-761
231.742	-2156
231.808	658
231.873	-1316
231.939	-2362
232.004	251
232.069	32
232.135	-1237
232.200	-1519
232.265	-261
232.331	-1627
232.396	-845
232.461	-938
232.527	-1540
232.592	-1654
232.657	-131
232.723	-515
232.788	-420
232.853	-1076
232.918	-54
232.984	-836
233.049	142
233.114	-1376
233.179	-491
233.245	115
233.310	-518
233.375	-1462
233.440	168
233.506	-312
233.571	-1402
233.636	-782
233.701	-714
233.766	-98
233.832	-601
233.897	-1739
233.962	-1862
234.027	-239
234.092	-34
234.157	-935
234.222	-939
234.288	-371
234.353	-920
234.418	-32
234.483	-509
234.548	-1126
234.613	-1098
234.678	-883
234.743	-1219
234.808	-173
234.873	-1448
234.938	140
235.004	-613
235.069	-676
235.134	-1437
235.199	-478
235.264	-474
235.329	-1807
235.394	-433
235.459	370
235.524	-1294
235.589	-1247
235.654	-1061
235.719	-2281
235.784	-14
235.849	-1453
235.913	-509
235.978	-988
236.043	-981
236.108	-1522
236.173	-1290
236.238	79
236.303	-1370
236.368	-1213
236.433	-697
236.498	-1532
236.563	-194
236.627	-769
236.692	-1025
236.757	-790
236.822	-1242
236.887	-1726
236.952	332
237.017	-1554
237.081	462
237.146	-1921
237.211	-690
237.276	-648
237.341	-939
237.405	-1060
237.470	-437
237.535	-799
237.600	-925
237.664	-382
237.729	-1525
237.794	-1979
237.859	-1253
237.923	-1036
237.988	-522
238.053	676
238.118	-636
238.182	-750
238.247	1300
238.312	-1161
238.376	-453
238.441	-2404
238.506	121
238.570	-1751
238.635	819
238.700	-386
238.764	-1029
238.829	-888
238.893	-1662
238.958	-66
239.023	-1402
239.087	-939
239.152	271
239.216	-1266
239.281	398
239.346	-317
239.410	-990
239.475	-1111
239.539	177
239.604	-1558
239.668	697
239.733	1417
239.797	3234
239.862	9550
239.926	7907
239.991	3632
240.055	1508
240.120	-363
240.184	-535
240.249	-855
240.313	-407
240.378	-739
240.442	-889
240.507	-433
240.571	-1176
240.635	-1656
240.700	-678
240.764	-1028
240.829	57
240.893	-2031
240.957	-3
241.022	284
241.086	-655
241.151	-1746
241.215	-1587
241.279	125
241.344	-1013
241.408	-632
241.472	-1641
241.537	124
241.601	594
241.665	-1085
241.730	-1355
241.794	-14
241.858	-1455
241.922	-454
241.987	24
242.051	-1211
242.115	-1506
242.179	-518
242.244	-1660
242.308	-293
242.372	-542
242.436	-2079
242.501	-719
242.565	-1303
242.629	-764
242.693	-572
242.757	-888
242.822	-1075
242.886	-497
242.950	-443
243.014	-1691
243.078	-802
243.142	-712
243.206	-1112
243.271	-587
243.335	-727
243.399	13
243.463	-1456
243.527	-705
243.591	-1404
243.655	-976
243.719	-1459
243.783	-63
243.847	-907
243.911	-117
243.975	-1545
244.040	-1952
244.104	289
244.168	-524
244.232	-1577
244.296	-1468
244.360	-811
244.424	-1409
244.488	-63
244.552	-714
244.615	-2465
244.679	-594
244.743	-1507
244.807	-1830
244.871	-1259
244.935	73
244.999	-2657
245.063	-717
245.127	202
245.191	-898
245.255	-1107
245.319	-573
245.383	-2898
245.446	756
245.510	-1562
245.574	-764
245.638	-313
245.702	-2014
245.766	-301
245.829	327
245.893	-1605
245.957	-1618
246.021	-30
246.085	-914
246.149	-449
246.212	182
246.276	-505
246.340	-1177
246.404	-1095
246.467	-201
246.531	-2779
246.595	1220
246.659	-508
246.722	-2094
246.786	-632
246.850	-484
246.913	63
246.977	-1361
247.041	-289
247.104	-1339
247.168	-1303
247.232	-1045
247.295	511
247.359	-638
247.423	-731
247.486	-832
247.550	-761
247.614	-747
247.677	-1169
247.741	-417
247.804	-1477
247.868	-677
247.932	-956
247.995	1758
248.059	-923
248.122	-638
248.186	446
248.249	-579
248.313	1439
248.376	1930
248.440	155
248.503	-2325
248.567	218
248.630	-1401
248.694	-784
248.757	174
248.821	1790
248.884	1656
248.948	-921
249.011	13
249.075	2035
249.138	2411
249.202	120
249.265	-805
249.328	315
249.392	-1432
249.455	306
249.519	-201
249.582	-714
249.645	-85
249.709	-1169
249.772	-1947
249.835	-616
249.899	-649
249.962	398
250.025	-1565
250.089	-661
250.152	601
250.215	-949
250.279	-1637
250.342	-309
250.405	-190
250.468	-1217
250.532	-807
250.595	-799
250.658	-2105
250.721	-1244
250.785	-963
250.848	171
250.911	-1127
250.974	-838
251.038	-1246
251.101	232
251.164	-914
251.227	-253
251.290	-501
251.354	-949
251.417	-1644
251.480	-810
251.543	-538
251.606	-1772
251.669	-1227
251.732	-130
251.795	18
251.859	300
251.922	-457
251.985	-379
252.048	241
252.111	-667
252.174	-927
252.237	-504
252.300	2252
252.363	-499
252.426	552
252.489	-1559
252.552	241
252.615	-1281
252.678	-108
252.741	791
252.804	-146
252.867	-221
252.930	652
252.993	-942
253.056	330
253.119	-1370
253.182	-1029
253.245	-575
253.308	-510
253.371	-1137
253.434	-178
253.497	-106
253.559	567
253.622	-1101
253.685	-1192
253.748	-922
253.811	-1189
253.874	-137
253.937	-387
254.000	-131
254.062	-226
254.125	-310
254.188	1008
254.251	-499
254.314	-788
254.376	-1298
254.439	32
254.502	-998
254.565	-544
254.628	587
254.690	-39
254.753	-1246
254.816	-1152
254.878	-294
254.941	527
255.004	191
255.067	-151
255.129	-1497
255.192	-119
255.255	-2039
255.317	-52
255.380	-648
255.443	-588
255.505	-27
255.568	-572
255.631	-287
255.693	-267
255.756	-388
255.819	510
255.881	-556
255.944	81
256.006	-243
256.069	-976
256.132	-1012
256.194	-926
256.257	-501
256.319	-592
256.382	-19
256.444	1266
256.507	332
256.569	-171
256.632	-806
256.694	-1176
256.757	-9
256.819	-740
256.882	-1947
256.944	-645
257.007	133
257.069	-1203
257.132	-474
257.194	430
257.257	-545
257.319	-886
257.381	-1501
257.444	53
257.506	-377
257.569	-350
257.631	617
257.693	261
257.756	7
257.818	-554
257.880	-1440
257.943	469
258.005	-1262
258.067	-687
258.130	-72
258.192	-1527
258.254	-1455
258.317	-889
258.379	-117
258.441	-791
258.503	657
258.566	-1018
258.628	-74
258.690	-973
258.753	-567
258.815	-769
258.877	-1163
258.939	-728
259.001	-74
259.064	-747
259.126	-1489
259.188	-754
259.250	-289
259.312	-661
259.375	-796
259.437	-1066
259.499	-203
259.561	-464
259.623	-204
259.685	-1024
259.747	-654
259.809	29
259.872	-912
259.934	660
259.996	251
260.058	161
260.120	-1285
260.182	-94
260.244	-832
260.306	-394
260.368	41
260.430	-591
260.492	-897
260.554	439
260.616	-968
260.678	-279
260.740	-728
260.802	-702
260.864	-640
260.926	-1245
260.988	168
261.050	-852
261.112	-1576
261.174	656
261.236	48
261.298	-551
261.359	-734
261.421	796
261.483	-1151
261.545	386
261.607	-1535
261.669	102
261.731	-817
261.793	450
261.854	-2141
261.916	211
261.978	-1063
262.040	745
262.102	471
262.164	-777
262.225	-179
262.287	-474
262.349	-1552
262.411	-529
262.472	143
262.534	-1039
262.596	-874
262.658	-636
262.719	-1004
262.781	169
262.843	-888
262.904	-145
262.966	-247
263.028	-748
263.090	-517
263.151	54
263.213	-267
263.275	-1089
263.336	-569
263.398	533
263.459	-632
263.521	-17
263.583	236
263.644	-582
263.706	-615
263.767	-1225
263.829	401
263.891	-76
263.952	-563
264.014	-866
264.075	-693
264.137	-166
264.198	-590
264.260	-514
264.321	-952
264.383	139
264.444	-140
264.506	-688
264.567	-695
264.629	433
264.690	-1597
264.752	57
264.813	-611
264.875	-991
264.936	33
264.998	-669
265.059	-100
265.120	312
265.182	-1069
265.243	-904
265.305	-930
265.366	-156
265.427	13
265.489	970
265.550	-1112
265.611	-682
265.673	-430
265.734	-420
265.795	26
265.857	-1459
265.918	-702
265.979	82
266.040	-1327
266.102	-955
266.163	372
266.224	-155
266.286	-716
266.347	-1245
266.408	-449
266.469	-1178
266.530	-498
266.592	-683
266.653	-98
266.714	-412
266.775	-569
266.836	-543
266.898	-1564
266.959	-714
267.020	-408
267.081	959
267.142	-744
267.203	-414
267.264	-1004
267.326	-67
267.387	-1320
267.448	-18
267.509	-1106
267.570	-765
267.631	-769
267.692	-1024
267.753	282
267.814	-1191
267.875	-469
267.936	-995
267.997	-866
268.058	-1071
268.119	-544
268.180	-594
268.241	-796
268.302	-344
268.363	-627
268.424	-762
268.485	-426
268.546	-1011
268.607	-221
268.668	-506
268.729	-1048
268.790	-529
268.851	-467
268.912	-382
268.972	-137
269.033	-855
269.094	-855
269.155	369
269.216	-1003
269.277	-438
269.338	-695
269.398	-773
269.459	-1433
269.520	-467
269.581	-981
269.642	-653
269.702	-1083
269.763	-585
269.824	-634
269.885	-329
269.945	-735
270.006	-113
270.067	-341
270.128	-379
270.188	-413
270.249	-1017
270.310	-1018
270.370	-49
270.431	-323
270.492	-899
270.553	-920
270.613	-502
270.674	-2
270.734	-497
270.795	-489
270.856	-307
270.916	-1074
270.977	251
271.038	554
271.098	-111
271.159	-1209
271.219	-17
271.280	-1052
271.340	1088
271.401	-840
271.462	-467
271.522	-348
271.583	-31
271.643	-555
271.704	-1459
271.764	-390
271.825	-832
271.885	1503
271.946	3808
272.006	381
272.066	1476
272.127	3689
272.187	5352
272.248	1859
272.308	-297
272.369	1171
272.429	686
272.489	-976
272.550	-550
272.610	-207
272.671	-734
272.731	-197
272.791	-224
272.852	-432
272.912	170
272.972	-250
273.033	222
273.093	-679
273.153	-154
273.214	-516
273.274	235
273.334	-165
273.394	428
273.455	183
273.515	286
273.575	-491
273.635	29
273.696	51
273.756	1266
273.816	723
273.876	-354
273.936	171
273.997	-269
274.057	-259
274.117	-666
274.177	-256
274.237	1310
274.297	1238
274.358	-17
274.418	451
274.478	173
274.538	-340
274.598	-673
274.658	599
274.718	357
274.778	-230
274.838	-448
274.898	-499
274.958	721
275.018	2021
275.078	2034
275.138	222
275.198	132
275.258	495
275.318	83
275.378	259
275.438	-182
275.498	-149
275.558	896
275.618	686
275.678	16
275.738	411
275.798	-86
275.858	-21
275.918	-393
275.978	-328
276.038	248
276.098	-759
276.157	400
276.217	940
276.277	488
276.337	-429
276.397	8
276.457	787
276.517	-432
276.576	-291
276.636	-386
276.696	77
276.756	246
276.815	270
276.875	192
276.935	-64
276.995	106
277.055	45
277.114	1039
277.174	173
277.234	285
277.293	-56
277.353	34
277.413	-692
277.472	-259
277.532	-422
277.592	-206
277.651	-51
277.711	2907
277.771	931
277.830	2170
277.890	2559
277.950	1846
278.009	7077
278.069	3036
278.128	2528
278.188	2790
278.248	584
278.307	3819
278.367	2595
278.426	940
278.486	-131
278.545	613
278.605	-105
278.664	-108
278.724	309
278.783	1572
278.843	2288
278.902	369
278.962	-162
279.021	-512
279.081	-21
279.140	12
279.199	-348
279.259	528
279.318	271
279.378	1064
279.437	1134
279.496	9042
279.556	21298
279.615	16678
279.675	3121
279.734	1851
279.793	2186
279.853	7199
279.912	3563
279.971	2146
280.031	1088
280.090	3126
280.149	6074
280.208	2805
280.268	11562
280.327	14317
280.386	1730
280.445	1663
280.505	248
280.564	694
280.623	637
280.682	-607
280.742	158
280.801	708
280.860	-176
280.919	95
280.978	-19
281.037	-8
281.097	-188
281.156	-3
281.215	444
281.274	535
281.333	961
281.392	642
281.451	90
281.510	162
281.569	-226
281.628	108
281.688	189
281.747	188
281.806	-259
281.865	1173
281.924	-350
281.983	-480
282.042	-158
282.101	-18
282.160	493
282.219	-562
282.278	-1015
282.337	499
282.396	-197
282.454	451
282.513	-76
282.572	66
282.631	-394
282.690	-115
282.749	-375
282.808	396
282.867	178
282.926	-531
282.985	-419
283.043	213
283.102	-57
283.161	-177
283.220	306
283.279	882
283.338	-89
283.396	441
283.455	-143
283.514	373
283.573	219
283.631	93
283.690	119
283.749	-131
283.808	65
283.866	884
283.925	-405
283.984	452
284.043	467
284.101	887
284.160	-675
284.219	463
284.277	583
284.336	250
284.395	1330
284.453	415
284.512	171
284.570	1074
284.629	492
284.688	250
284.746	233
284.805	863
284.863	1544
284.922	1649
284.981	1278
285.039	2939
285.098	4772
285.156	12776
285.215	36824
285.273	37294
285.332	15915
285.390	7369
285.449	4017
285.507	3045
285.566	1296
285.624	2028
285.683	1203
285.741	487
285.799	-213
285.858	825
285.916	-253
285.975	908
286.033	991
286.091	470
286.150	32
286.208	-63
286.267	841
286.325	144
286.383	-15
286.442	697
286.500	-935
286.558	769
286.616	-463
286.675	728
286.733	-747
286.791	1035
286.850	121
286.908	540
286.966	250
287.024	-104
287.083	-37
287.141	335
287.199	182
287.257	1212
287.315	858
287.374	346
287.432	-616
287.490	601
287.548	-305
287.606	209
287.664	456
287.723	303
287.781	445
287.839	479
287.897	-420
287.955	710
288.013	-134
288.071	-283
288.129	161
288.187	588
288.245	945
288.303	-214
288.361	101
288.419	640
288.477	-264
288.535	286
288.593	-79
288.651	-345
288.709	452
288.767	408
288.825	-315
288.883	514
288.941	-41
288.999	417
289.057	314
289.115	204
289.173	-1105
289.231	474
289.289	283
289.346	376
289.404	-67
289.462	393
289.520	418
289.578	4
289.636	157
289.694	240
289.751	290
289.809	224
289.867	153
289.925	1768
289.983	722
290.040	58
290.098	-404
290.156	489
290.214	261
290.271	-533
290.329	992
290.387	474
290.444	912
290.502	55
290.560	561
290.617	558
290.675	455
290.733	539
290.790	634
290.848	1178
290.906	586
290.963	591
291.021	866
291.078	580
291.136	443
291.194	467
291.251	404
291.309	390
291.366	644
291.424	-188
291.481	1037
291.539	-494
291.596	513
291.654	1080
291.711	657
291.769	656
291.826	425
291.884	375
291.941	-276
291.999	807
292.056	218
292.114	450
292.171	187
292.228	1468
292.286	1110
292.343	117
292.401	364
292.458	1274
292.515	-176
292.573	1548
292.630	293
292.687	879
292.745	-153
292.802	219
292.859	-251
292.917	1282
292.974	305
293.031	618
293.089	25
293.146	811
293.203	-44
293.260	1269
293.318	257
293.375	349
293.432	-466
293.489	-207
293.546	98
293.604	-243
293.661	878
293.718	2579
293.775	711
293.832	175
293.889	301
293.947	830
294.004	1045
294.061	737
294.118	204
294.175	650
294.232	1074
294.289	846
294.346	755
294.403	251
294.460	380
294.517	853
294.574	346
294.631	-272
294.688	-243
294.745	1169
294.802	1683
294.859	1838
294.916	215
294.973	1186
295.030	272
295.087	1012
295.144	256
295.201	772
295.258	-646
295.315	1081
295.372	1072
295.429	1906
295.486	39
295.542	-361
295.599	319
295.656	484
295.713	94
295.770	1283
295.827	763
295.883	-205
295.940	292
295.997	-18
296.054	153
296.111	230
296.167	980
296.224	272
296.281	86
296.338	-488
296.394	-402
296.451	531
296.508	16
296.564	1550
296.621	840
296.678	2483
296.734	3784
296.791	1118
296.848	171
296.904	674
296.961	899
297.018	1809
297.074	725
297.131	1048
297.187	113
297.244	1506
297.301	1386
297.357	4705
297.414	1306
297.470	566
297.527	-244
297.583	1145
297.640	-138
297.696	494
297.753	558
297.809	-509
297.866	-17
297.922	242
297.979	838
298.035	-153
298.092	500
298.148	581
298.204	353
298.261	935
298.317	1471
298.374	2904
298.430	1296
298.486	1014
298.543	50
298.599	457
298.656	-34
298.712	265
298.768	135
298.824	-312
298.881	370
298.937	499
298.993	1041
299.050	-244
299.106	763
299.162	363
299.218	177
299.275	1293
299.331	926
299.387	1666
299.443	4484
299.500	12270
299.556	10796
299.612	4768
299.668	3009
299.724	9674
299.780	14100
299.837	6038
299.893	3486
299.949	7686
300.005	12672
300.061	9153
300.117	15749
300.173	7947
300.229	2613
300.285	2029
300.341	1762
300.397	1645
300.453	1267
300.510	1663
300.566	2403
300.622	4964
300.678	15337
300.734	21413
300.790	10010
300.845	6275
300.901	8909
300.957	13843
301.013	6358
301.069	2380
301.125	1912
301.181	1451
301.237	1186
301.293	-248
301.349	927
301.405	252
301.461	1098
301.516	605
301.572	-389
301.628	279
301.684	1050
301.740	360
301.796	888
301.851	890
301.907	992
301.963	741
302.019	1660
302.074	7515
302.130	8034
302.186	3820
302.242	1497
302.297	1056
302.353	-107
302.409	1720
302.464	1098
302.520	1111
302.576	1558
302.631	2477
302.687	372
302.743	133
302.798	-303
302.854	-126
302.910	75
302.965	790
303.021	1
303.076	769
303.132	-158
303.187	256
303.243	-42
303.299	470
303.354	825
303.410	261
303.465	-18
303.521	555
303.576	421
303.632	396
303.687	948
303.743	2231
303.798	2564
303.853	552
303.909	897
303.964	236
304.020	188
304.075	241
304.130	206
304.186	-40
304.241	1673
304.297	817
304.352	608
304.358	585
304.407	392
304.449	868
304.463	1032
304.518	475
304.539	439
304.573	339
304.629	-51
304.630	-42
304.684	435
304.720	1158
304.739	1488
304.794	3422
304.811	3127
304.850	2424
304.902	932
304.905	835
304.960	772
304.992	556
305.015	377
305.071	745
305.083	747
305.126	777
305.173	428
305.181	381
305.236	300
305.264	602
305.292	837
305.347	-55
305.354	81
305.402	1105
305.445	1341
305.457	1367
305.512	788
305.535	785
305.567	816
305.622	448
305.626	445
305.678	572
305.716	1508
305.733	1885
305.788	2325
305.807	2254
305.843	2159
305.897	2595
305.898	2597
305.953	2619
305.988	2014
306.008	1674
306.063	968
306.078	981
306.118	1315
306.168	1146
306.173	1113
306.228	1046
306.259	942
306.283	886
306.338	485
306.349	500
306.393	545
306.440	279
306.448	266
306.503	1119
306.530	1177
306.558	1134
306.613	962
306.620	889
306.668	887
306.711	1733
306.723	1805
306.778	1774
306.801	1350
306.833	948
306.888	801
306.892	821
306.943	1202
306.982	909
306.997	778
307.052	707
307.072	666
307.107	607
307.162	1058
307.163	1049
307.217	809
307.253	1067
307.272	1110
307.327	1179
307.343	1104
307.381	1045
307.434	981
307.436	992
307.491	1582
307.524	1575
307.546	1506
307.600	1566
307.614	1698
307.655	1794
307.704	972
307.710	935
307.765	1048
307.795	1073
307.819	1019
307.874	653
307.885	637
307.929	853
307.975	1133
307.984	1163
308.038	1579
308.065	1456
308.093	1418
308.148	1757
308.156	1738
308.202	1350
308.246	1301
308.257	1371
308.312	1457
308.336	1692
308.366	1792
308.421	1181
308.426	1187
308.475	1652
308.517	1798
308.530	1685
308.585	959
308.607	660
308.639	797
308.694	1306
308.697	1336
308.748	1474
308.787	1446
308.803	1523
308.857	1315
308.877	1452
308.912	1595
308.967	1311
308.967	1310
309.021	2591
309.058	3024
309.076	2961
309.130	2869
309.148	2718
309.185	2843
309.238	3410
309.239	3436
309.293	4579
309.328	4411
309.348	3947
309.402	2912
309.418	2777
309.457	3079
309.508	2687
309.511	2682
309.566	2864
309.598	3215
309.620	3783
309.674	4661
309.688	4989
309.729	5437
309.778	5552
309.783	5440
309.837	3778
309.868	2897
309.892	3199
309.946	3766
309.959	3975
310.001	4125
310.049	4025
310.055	3972
310.109	3384
310.139	3097
310.163	2643
310.218	1559
310.229	1325
310.272	2152
310.319	3023
310.326	2909
310.381	2202
310.409	1743
310.435	1966
310.489	2341
310.499	2421
310.543	2437
310.589	2447
310.598	2511
310.652	2777
310.679	2870
310.706	2779
310.760	2783
310.769	2740
310.814	3045
310.859	3401
310.868	3382
310.923	3004
310.948	2948
310.977	3339
311.031	3800
311.038	3891
311.085	3473
311.128	2766
311.139	2834
311.193	3435
311.218	3600
311.247	3412
311.301	3061
311.308	3007
311.356	3303
311.398	3585
311.410	3519
311.464	3144
311.488	2945
311.518	3207
311.572	3581
311.578	3626
311.626	3398
311.668	3099
311.680	3201
311.734	3565
311.758	3769
311.788	3607
311.842	3201
311.847	3151
311.896	3899
311.937	4517
311.950	4350
312.004	3536
312.027	3181
312.058	3286
312.112	3451
312.117	3458
312.165	3237
312.207	3034
312.297	3005
312.386	3043
312.476	3921
312.566	4411
312.656	3416
312.745	3312
312.835	4769
312.925	3949
313.015	5096
313.104	4674
313.194	5007
313.284	4606
313.374	5739
313.463	5606
313.553	6772
313.643	6223
313.732	7183
313.822	6724
313.912	7340
314.001	7147
314.091	8665
314.180	7723
314.270	8406
314.360	7595
314.449	8165
314.539	7169
314.628	7803
314.718	7460
314.808	9286
314.897	8756
314.987	9940
315.076	9156
315.166	9796
315.255	9591
315.345	8841
315.434	8196
315.524	9280
315.613	9559
315.703	13035
315.792	27443
315.881	89925
315.971	32597
316.060	12271
316.150	8542
316.239	8211
316.328	9127
316.418	9550
316.507	9724
316.597	12424
316.686	11790
316.775	11117
316.865	9326
316.954	8528
317.043	7181
317.133	8022
317.222	6894
317.311	6471
317.400	5361
317.490	8023
317.579	7721
317.668	9303
317.757	14402
317.847	43508
317.936	128159
318.025	44248
318.114	39566
318.203	20416
318.293	9953
318.382	15144
318.471	15602
318.560	13027
318.649	9867
318.738	8627
318.828	6439
318.917	5464
319.006	4637
319.095	5268
319.184	5837
319.273	7362
319.362	5018
319.451	5379
319.540	4711
319.629	6100
319.718	6102
319.807	6461
319.896	6071
319.985	6698
320.074	6329
320.163	6351
320.252	6386
320.341	7626
320.430	7877
320.519	8114
320.608	8186
320.697	10647
320.786	11801
320.875	13505
320.964	13115
321.053	15563
321.142	16270
321.230	17731
321.319	18947
321.408	20052
321.497	19596
321.586	18970
321.675	16054
321.764	15560
321.852	15622
321.941	17140
322.030	16617
322.119	17912
322.207	21199
322.296	23529
322.385	24049
322.474	27922
322.562	26701
322.651	22552
322.740	17886
322.829	17569
322.917	13435
323.006	12370
323.095	12402
323.183	10584
323.272	9941
323.361	10506
323.449	9454
323.538	9457
323.626	9407
323.715	8790
323.804	7643
323.892	7666
323.981	7510
324.069	8000
324.158	7198
324.246	6976
324.335	6724
324.424	7631
324.512	5857
324.601	6537
324.689	5775
324.778	7066
324.866	6748
324.954	6610
325.043	6020
325.131	5747
325.220	5740
325.308	6200
325.397	5375
325.485	6202
325.574	5740
325.662	5414
325.750	4309
325.839	5807
325.927	5221
326.015	6303
326.104	4659
326.192	5432
326.280	3919
326.369	5217
326.457	4944
326.545	5735
326.634	5035
326.722	5305
326.810	5666
326.898	7107
326.987	6841
327.075	6893
327.163	6297
327.251	6916
327.340	6465
327.428	9674
327.516	11027
327.604	10085
327.692	6978
327.781	6105
327.869	4976
327.957	5528
328.045	4949
328.133	5347
328.221	3515
328.309	5066
328.397	4909
328.485	6346
328.574	9413
328.662	15735
328.750	10326
328.838	7526
328.926	5369
329.014	5137
329.102	5579
329.190	5907
329.278	3693
329.366	5029
329.454	3880
329.542	4654
329.630	3953
329.718	5070
329.806	4160
329.893	4836
329.981	3667
330.069	5475
330.157	5114
330.245	5137
330.333	4639
330.421	4699
330.509	4290
330.597	5894
330.684	4927
330.772	5107
330.860	4149
330.948	4615
331.036	3914
331.123	5394
331.211	4939
331.299	5046
331.387	4212
331.475	5415
331.562	4295
331.650	5146
331.738	4897
331.825	5925
331.913	4020
332.001	5195
332.089	4389
332.176	6044
332.264	5159
332.352	6017
332.439	4394
332.527	5737
332.614	4927
332.702	5875
332.790	5478
332.877	5928
332.965	6018
333.052	6259
333.140	5831
333.228	8202
333.315	6517
333.403	6674
333.490	6782
333.578	7840
333.665	10065
333.753	9990
333.840	8671
333.928	12032
334.015	12565
334.103	15490
334.190	18507
334.278	26618
334.365	32655
334.452	34016
334.540	24797
334.627	25839
334.715	31652
334.802	43117
334.889	58168
334.977	71623
335.064	49406
335.151	30084
335.239	21957
335.326	18505
335.413	18005
335.501	18503
335.588	20768
335.675	23906
335.762	29474
335.850	39583
335.937	52236
336.024	77757
336.111	99178
336.199	87813
336.286	48686
336.373	30773
336.460	22020
336.547	17828
336.635	15201
336.722	13324
336.809	10946
336.896	10727
336.983	10098
337.070	9874
337.157	8845
337.245	9383
337.332	9922
337.419	10260
337.506	9044
337.593	9763
337.680	7770
337.767	8277
337.854	7369
337.941	8003
338.028	7354
338.115	7363
338.202	8356
338.289	7643
338.376	6300
338.463	6378
338.550	5649
338.637	6422
338.724	5373
338.811	7140
338.898	6349
338.984	6298
339.071	4877
339.158	5949
339.245	6049
339.332	6193
339.419	5676
339.506	7171
339.593	4973
339.679	7169
339.766	4767
339.853	6321
339.940	5688
340.027	5898
340.113	4898
340.200	5479
340.287	4262
340.374	5412
340.460	5165
340.547	4112
340.634	4994
340.720	7163
340.807	4942
340.894	6167
340.980	5562
341.067	5928
341.154	6232
341.240	6238
341.327	5166
341.414	7122
341.500	4747
341.587	5883
341.674	4709
341.760	6278
341.847	5800
341.933	5381
342.020	4712
342.106	5757
342.193	5349
342.279	4928
342.366	4195
342.452	5364
342.539	4185
342.625	5272
342.712	5683
342.798	5367
342.885	4462
342.971	5304
343.058	4566
343.144	5082
343.230	4883
343.317	5496
343.403	3938
343.490	5347
343.576	3892
343.662	5167
343.749	4032
343.835	5596
343.921	5731
344.008	12359
344.094	22657
344.180	7882
344.267	4691
344.353	6575
344.439	6944
344.525	5943
344.612	5068
344.698	4942
344.784	3525
344.870	6125
344.957	3476
345.043	6180
345.129	4450
345.215	5360
345.301	4455
345.387	4352
345.474	4247
345.560	5067
345.646	3638
345.732	5644
345.818	4619
345.904	5489
345.990	4094
346.076	4773
346.162	3881
346.249	6106
346.335	4415
346.421	6126
346.507	6766
346.593	9668
346.679	4971
346.765	7695
346.851	11261
346.937	10555
347.023	7190
347.108	6112
347.194	4790
347.280	6566
347.366	8262
347.452	21932
347.538	29497
347.624	17325
347.710	10159
347.796	6657
347.882	5447
347.967	6032
348.053	4675
348.139	6136
348.225	5407
348.311	5445
348.397	5015
348.482	6387
348.568	6766
348.654	11125
348.740	29824
348.825	36590
348.911	17570
348.997	12579
349.083	13400
349.168	6456
349.254	6185
349.340	6336
349.425	5978
349.511	6541
349.597	5798
349.682	6132
349.768	7811
349.854	7103
349.939	5667
350.025	6059
350.110	5128
350.196	6624
350.282	4108
350.367	6668
350.453	4920
350.538	5154
350.624	4124
350.709	6242
350.795	4586
350.880	4721
350.966	5159
351.051	5200
351.137	5465
351.222	5934
351.308	5135
351.393	6674
351.479	5891
351.564	4922
351.649	4751
351.735	5653
351.820	4980
351.906	5618
351.991	4572
352.076	6009
352.162	6216
352.247	5706
352.332	4815
352.418	5408
352.503	4545
352.588	7990
352.673	5691
352.759	5273
352.844	4678
352.929	5370
353.014	4225
353.100	6623
353.185	6142
353.270	6001
353.355	4946
353.441	5473
353.526	3996
353.611	4978
353.696	4629
353.781	5521
353.866	4244
353.952	5607
354.037	3759
354.122	6572
354.207	4863
354.292	4230
354.377	4528
354.462	5519
354.547	4894
354.632	5786
354.717	5057
354.802	7001
354.887	5375
354.972	5575
355.057	4813
355.142	4822
355.227	6198
355.312	5303
355.397	4588
355.482	6726
355.567	4795
355.652	6589
355.737	5021
355.822	7446
355.907	5839
355.991	7208
356.076	5483
356.161	5767
356.246	3921
356.331	5566
356.416	4891
356.501	13272
356.585	10993
356.670	5523
356.755	7682
356.840	7440
356.924	11387
357.009	24775
357.094	11274
357.179	6356
357.263	5513
357.348	7274
357.433	5169
357.517	6397
357.602	5086
357.687	5261
357.771	6935
357.856	6589
357.941	6512
358.025	11372
358.110	30232
358.195	15675
358.279	6199
358.364	6837
358.448	8132
358.533	10862
358.617	7755
358.702	9985
358.787	6377
358.871	7219
358.956	6025
359.040	6779
359.125	5047
359.209	6380
359.294	8028
359.378	11822
359.462	10533
359.547	7574
359.631	5999
359.716	5687
359.800	5146
359.885	7019
359.969	4406
360.053	7567
360.138	5432
360.222	6299
360.306	6036
360.391	7235
360.475	6243
360.559	7219
360.644	6796
360.728	6632
360.812	11147
360.896	17634
360.981	8801
361.065	8013
361.149	9152
361.233	8645
361.318	6904
361.402	7578
361.486	9360
361.570	8812
361.654	8937
361.739	10516
361.823	15740
361.907	23737
361.991	14774
362.075	18125
362.159	24026
362.243	44861
362.327	92719
362.411	117489
362.495	54108
362.580	32031
362.664	28677
362.748	35640
362.832	54974
362.916	100530
363.000	205719
363.084	236794
363.168	115170
363.252	47512
363.336	29998
363.420	23326
363.503	18622
363.587	17686
363.671	17533
363.755	19076
363.839	21419
363.923	23585
364.007	30952
364.091	43007
364.175	65273
364.258	122395
364.342	237664
364.426	319916
364.510	191927
364.594	81428
364.677	43620
364.761	35165
364.845	24962
364.929	16994
365.013	13771
365.096	13429
365.180	10915
365.264	10414
365.347	10361
365.431	9940
365.515	8626
365.598	8614
365.682	10144
365.766	8374
365.849	7669
365.933	9654
366.017	9635
366.100	9505
366.184	7686
366.267	9971
366.351	9079
366.435	7898
366.518	7813
366.602	8430
366.685	8281
366.769	8904
366.852	7315
366.936	8921
367.019	8128
367.103	6961
367.186	8819
367.270	8403
367.353	7801
367.436	11261
367.520	9425
367.603	10954
367.687	8700
367.770	9306
367.853	9214
367.937	11144
368.020	11065
368.104	7464
368.187	8023
368.270	8052
368.353	6959
368.437	7961
368.520	6798
368.603	7995
368.687	7114
368.770	9838
368.853	7207
368.936	7464
369.020	6887
369.103	7103
369.186	6395
369.269	6432
369.352	6489
369.436	6747
369.519	6018
369.602	4497
369.685	7133
369.768	6146
369.851	6454
369.934	6416
370.018	4918
370.101	4901
370.184	7988
370.267	7312
370.350	6983
370.433	7992
370.516	18152
370.599	56384
370.682	26863
370.765	10784
370.848	9490
370.931	10228
371.014	7772
371.097	4927
371.180	6031
371.263	7070
371.346	4633
371.429	6256
371.511	5699
371.594	5678
371.677	5996
371.760	7391
371.843	6283
371.926	14841
372.009	26507
372.091	13384
372.174	6737
372.257	13072
372.340	8117
372.423	7603
372.505	7538
372.588	6566
372.671	8029
372.754	10445
372.836	8315
372.919	7295
373.002	7156
373.085	6158
373.167	7463
373.250	8301
373.332	11744
373.415	19217
373.498	32675
373.580	25390
373.663	76530
373.746	78105
373.828	17001
373.911	11881
373.993	7833
374.076	9237
374.159	7814
374.241	9368
374.324	11219
374.406	12287
374.489	14217
374.571	25889
374.654	13228
374.736	12168
374.819	17470
374.901	26103
374.983	25555
375.066	12495
375.148	10011
375.231	10860
375.313	12119
375.395	11476
375.478	10374
375.560	11990
375.643	11040
375.725	13587
375.807	20427
375.890	18194
375.972	8848
376.054	9827
376.136	8215
376.219	8623
376.301	10710
376.383	15944
376.465	10284
376.548	7763
376.630	8808
376.712	13321
376.794	8848
376.877	7823
376.959	5629
377.041	6867
377.123	5857
377.205	6909
377.287	5231
377.369	8005
377.452	6511
377.534	7773
377.616	7020
377.698	6394
377.780	5528
377.862	8000
377.944	7142
378.026	6043
378.108	7014
378.190	7041
378.272	6470
378.354	7155
378.436	6267
378.518	5927
378.600	5350
378.682	7469
378.764	8003
378.846	9071
378.928	6663
379.010	6678
379.091	6531
379.173	6680
379.255	5599
379.337	6244
379.419	6040
379.501	10617
379.583	7530
379.664	6566
379.746	5381
379.828	9211
379.910	7333
379.991	8881
380.073	5746
380.155	6197
380.237	5283
380.318	6421
380.400	5816
380.482	7410
380.564	6833
380.645	7639
380.727	5987
380.809	7145
380.890	5927
380.972	6011
381.053	5798
381.135	6621
381.217	5555
381.298	9014
381.380	6625
381.461	7340
381.543	12065
381.624	14341
381.706	6962
381.787	6686
381.869	6524
381.951	11218
382.032	22983
382.113	18867
382.195	5556
382.276	9429
382.358	8623
382.439	13291
382.521	14378
382.602	22944
382.684	11935
382.765	14950
382.846	18236
382.928	30700
383.009	19749
383.090	18242
383.172	45719
383.253	62253
383.334	23552
383.416	21124
383.497	14811
383.578	12231
383.659	16968
383.741	45470
383.822	98884
383.903	50355
383.984	18933
384.066	21360
384.147	15311
384.228	13453
384.309	13796
384.390	15319
384.471	13781
384.553	13368
384.634	11487
384.715	12525
384.796	8684
384.877	9268
384.958	11998
385.039	11488
385.120	9563
385.201	11027
385.282	10331
385.363	12071
385.444	11605
385.525	13859
385.606	17372
385.687	17031
385.768	13406
385.849	12478
385.930	21271
386.011	29480
386.092	15713
386.173	14608
386.254	13375
386.335	14152
386.416	11783
386.496	13336
386.577	14089
386.658	13051
386.739	12386
386.820	14670
386.901	12886
386.981	16689
387.062	16962
387.143	18732
387.224	20749
387.304	24334
387.385	22486
387.466	21806
387.547	23934
387.627	24194
387.708	24423
387.789	26958
387.869	25988
387.950	22777
388.031	18186
388.111	15873
388.192	18318
388.273	18853
388.353	15862
388.434	14662
388.514	13391
388.595	20273
388.676	18442
388.756	14051
388.837	13237
388.917	12828
388.998	9149
389.078	12662
389.159	10885
389.239	10261
389.320	12839
389.400	9276
389.480	11068
389.561	12492
389.641	12009
389.722	11448
389.802	9715
389.883	12245
389.963	14392
390.043	11929
390.124	8988
390.204	11004
390.284	11763
390.365	10291
390.445	10983
390.525	10724
390.605	10251
390.686	10636
390.766	11933
390.846	13153
390.927	10384
391.007	12312
391.087	12636
391.167	12387
391.247	10930
391.328	13435
391.408	14036
391.488	14270
391.568	13060
391.648	14990
391.728	16277
391.808	16788
391.888	15820
391.969	18906
392.049	19609
392.129	20665
392.209	21720
392.289	26925
392.369	25213
392.449	27867
392.529	29314
392.609	34866
392.689	39303
392.769	48293
392.849	57040
392.929	73985
393.009	98611
393.089	142029
393.169	235060
393.248	408086
393.328	535068
393.408	514050
393.488	394398
393.568	228834
393.648	133979
393.728	90141
393.807	61770
393.887	50793
393.967	40919
394.047	34442
394.127	27673
394.206	26093
394.286	23462
394.366	21903
394.446	21607
394.525	19831
394.605	17691
394.685	19514
394.764	21011
394.844	36217
394.924	48880
395.003	26513
395.083	17352
395.163	16318
395.242	15037
395.322	15980
395.402	14030
395.481	18873
395.561	19669
395.640	51472
395.720	105389
395.799	60336
395.879	24845
395.958	21870
396.038	22171
396.117	24336
396.197	27585
396.276	31675
396.356	35251
396.435	46765
396.515	63929
396.594	96160
396.673	178849
396.753	358180
396.832	494222
396.912	424904
396.991	231631
397.070	119800
397.150	71095
397.229	60020
397.308	89306
397.388	156626
397.467	86403
397.546	36539
397.625	22266
397.705	22435
397.784	18828
397.863	17895
397.942	15474
398.022	14904
398.101	12018
398.180	14592
398.259	12155
398.338	13417
398.417	10527
398.497	10739
398.576	11131
398.655	9897
398.734	10306
398.813	9492
398.892	8754
398.971	9703
399.050	7877
399.129	8001
399.208	8750
399.287	9401
399.366	7227
399.445	8072
399.524	7822
399.603	6765
399.682	7078
399.761	8032
399.840	7638
399.919	7844
399.998	6646
400.077	6679
400.156	6052
400.235	9210
400.313	6073
400.392	5630
400.471	7274
400.550	8375
400.629	5512
400.708	6545
400.786	5060
400.865	5911
400.944	4018
401.023	7762
401.102	5537
401.180	6016
401.259	5812
401.338	5820
401.416	5385
401.495	4854
401.574	6152
401.652	5318
401.731	5327
401.810	4585
401.888	4555
401.967	5032
402.046	5327
402.124	5512
402.203	3595
402.281	5682
402.360	3949
402.438	5139
402.517	3456
402.596	6411
402.674	4768
402.753	6018
402.831	5607
402.910	7252
402.988	10085
403.066	26503
403.145	16876
403.223	12458
403.302	22567
403.380	18831
403.459	18228
403.537	11157
403.615	7758
403.694	7323
403.772	7185
403.850	7101
403.929	5016
404.007	6191
404.085	8112
404.164	7906
404.242	5505
404.320	7238
404.398	6646
404.477	6970
404.555	14085
404.633	13368
404.711	6390
404.789	6614
404.868	5445
404.946	5283
405.024	4803
405.102	5427
405.180	3119
405.258	3188
405.336	5002
405.415	4457
405.493	5389
405.571	7315
405.649	3788
405.727	4912
405.805	7012
405.883	6484
405.961	6725
406.039	5318
406.117	4391
406.195	6825
406.273	4578
406.351	11772
406.429	7943
406.507	5097
406.585	3614
406.663	5273
406.740	4324
406.818	4312
406.896	3689
406.974	6211
407.052	3896
407.130	8450
407.208	9396
407.285	6617
407.363	4292
407.441	6041
407.519	6150
407.596	8416
407.674	22554
407.752	84240
407.830	61206
407.907	13406
407.985	6351
408.063	6043
408.141	4621
408.218	6555
408.296	4487
408.373	6816
408.451	6362
408.529	7170
408.606	6407
408.684	8397
408.762	8069
408.839	8731
408.917	8902
408.994	9233
409.072	10287
409.149	14493
409.227	20414
409.304	29558
409.382	33756
409.459	38792
409.537	45757
409.614	45604
409.692	38328
409.769	37787
409.846	48056
409.924	57032
410.001	46281
410.079	37397
410.156	28440
410.233	22487
410.311	17792
410.388	16335
410.465	13576
410.543	13046
410.620	12616
410.697	12440
410.775	11369
410.852	11391
410.929	12544
411.006	12883
411.083	10820
411.161	10262
411.238	9366
411.315	9538
411.392	8969
411.469	9792
411.547	7561
411.624	7388
411.701	7013
411.778	7819
411.855	7211
411.932	6328
412.009	5546
412.086	7421
412.163	5686
412.240	5812
412.317	5532
412.394	5492
412.471	5672
412.548	5397
412.625	4693
412.702	5032
412.779	4776
412.856	5704
412.933	3986
413.010	5940
413.087	5098
413.164	5888
413.241	5638
413.318	4773
413.395	4912
413.471	4572
413.548	4228
413.625	5735
413.702	3290
413.779	5326
413.855	4093
413.932	4282
414.009	3076
414.086	4382
414.162	3779
414.239	5321
414.316	5272
414.393	6332
414.469	3502
414.546	4193
414.623	4029
414.699	4334
414.776	2989
414.853	3778
414.929	3769
415.006	4203
415.082	3219
415.159	4302
415.236	3768
415.312	4139
415.389	3723
415.465	4224
415.542	3361
415.618	4120
415.695	4211
415.771	3887
415.848	3184
415.924	4773
416.000	3143
416.077	5653
416.153	2864
416.230	3547
416.306	3626
416.383	4080
416.459	4151
416.535	4187
416.612	3054
416.688	3670
416.764	3030
416.841	3517
416.917	3340
416.993	4302
417.069	3490
417.146	3852
417.222	2751
417.298	4287
417.374	3280
417.451	4792
417.527	4507
417.603	3508
417.679	3513
417.755	5389
417.831	3040
417.908	5052
417.984	4038
418.060	3864
418.136	4637
418.212	4867
418.288	4165
418.364	5475
418.440	3398
418.516	5739
418.592	4417
418.668	5454
418.744	5048
418.820	5834
418.896	4244
418.972	5455
419.048	4669
419.124	7153
419.200	4691
419.276	6676
419.352	4582
419.428	6610
419.504	6069
419.579	7211
419.655	6614
419.731	7510
419.807	7386
419.883	7049
419.959	7892
420.034	8494
420.110	8494
420.186	9656
420.262	9709
420.337	9720
420.413	9666
420.489	11847
420.565	12381
420.640	12623
420.716	13228
420.792	12837
420.867	15001
420.943	15165
421.019	15138
421.094	17363
421.170	18110
421.245	19407
421.321	21831
421.397	25501
421.472	40780
421.548	79635
421.623	56913
421.699	39166
421.774	40910
421.850	46138
421.925	54758
422.001	64000
422.076	76119
422.152	94090
422.227	115166
422.302	148125
422.378	189682
422.453	241192
422.529	266605
422.604	204729
422.679	127886
422.755	194940
422.830	260778
422.905	242587
422.981	198641
423.056	159355
423.131	127890
423.207	102224
423.282	81871
423.357	70672
423.432	57412
423.508	52385
423.583	43643
423.658	39148
423.733	36220
423.808	33336
423.883	31917
423.959	32056
424.034	34029
424.109	32542
424.184	24841
424.259	22239
424.334	18603
424.409	18385
424.484	15618
424.559	14721
424.634	13272
424.709	13503
424.784	12346
424.859	11629
424.934	10229
425.009	10938
425.084	10723
425.159	10432
425.234	9810
425.309	8796
425.384	8494
425.459	8403
425.534	7922
425.609	8232
425.683	7300
425.758	8497
425.833	7052
425.908	8586
425.983	6052
426.058	8288
426.132	7452
426.207	6284
426.282	7346
426.357	5599
426.431	5572
426.506	6509
426.581	5811
426.655	7096
426.730	5063
426.805	5203
426.879	5945
426.954	5915
427.029	4255
427.103	6631
427.178	9061
427.253	7402
427.327	4470
427.402	4793
427.476	4619
427.551	4870
427.625	5156
427.700	5330
427.774	4727
427.849	6412
427.923	5567
427.998	7755
428.072	7815
428.147	16781
428.221	58065
428.296	148922
428.370	87341
428.444	20548
428.519	10060
428.593	8308
428.667	8681
428.742	10934
428.816	26119
428.890	97385
428.965	134144
429.039	42588
429.113	11586
429.188	7596
429.262	6262
429.336	6511
429.410	5686
429.485	7436
429.559	6446
429.633	8164
429.707	10894
429.781	24390
429.855	90239
429.930	120373
430.004	42859
430.078	32067
430.152	76425
430.226	196183
430.300	181892
430.374	63974
430.448	23696
430.522	15050
430.596	15043
430.670	37989
430.744	118856
430.818	119936
430.892	30757
430.966	10615
431.040	6481
431.114	5644
431.188	4988
431.262	4866
431.336	3549
431.410	5414
431.484	4358
431.557	5983
431.631	7662
431.705	14210
431.779	47661
431.853	143170
431.927	98510
432.000	22487
432.074	7942
432.148	5312
432.222	4074
432.295	5127
432.369	2627
432.443	3217
432.516	3563
432.590	8081
432.664	3722
432.737	2921
432.811	1848
432.885	3107
432.958	2450
433.032	2970
433.106	2361
433.179	3082
433.253	1935
433.326	2092
433.400	2219
433.473	2258
433.547	1765
433.620	3578
433.694	2015
433.767	3816
433.841	2570
433.914	2769
433.988	3126
434.061	4353
434.134	2841
434.208	2566
434.281	1934
434.355	2454
434.428	2352
434.501	2697
434.575	2186
434.648	2732
434.721	2343
434.795	3564
434.868	2394
434.941	3601
435.014	2846
435.088	4229
435.161	3978
435.234	6241
435.307	6114
435.381	8093
435.454	12427
435.527	20792
435.600	24765
435.673	21943
435.746	16749
435.819	14802
435.892	10992
435.966	9653
436.039	7127
436.112	7747
436.185	5105
436.258	5032
436.331	4319
436.404	4282
436.477	2525
436.550	3978
436.623	3497
436.696	3389
436.769	2762
436.842	3563
436.915	2544
436.987	2897
437.060	2321
437.133	3108
437.206	2289
437.279	3416
437.352	2000
437.425	3207
437.498	1846
437.570	3142
437.643	1584
437.716	2589
437.789	1287
437.861	1977
437.934	1991
438.007	2369
438.080	1128
438.152	2541
438.225	1804
438.298	4376
438.370	10859
438.443	6262
438.516	1994
438.588	2507
438.661	1595
438.734	2548
438.806	1527
438.879	2431
438.951	1363
439.024	2364
439.096	633
439.169	1954
439.241	1292
439.314	2569
439.386	1558
439.459	2077
439.531	979
439.604	2338
439.676	1762
439.749	2578
439.821	974
439.893	2562
439.966	1159
440.038	1926
440.110	929
440.183	2840
440.255	1640
440.327	3404
440.400	2659
440.472	5706
440.544	3808
440.617	2587
440.689	3049
440.761	2965
440.833	2029
440.905	2910
440.978	2987
441.050	2827
441.122	3107
441.194	3180
441.266	2526
441.338	2957
441.411	3021
441.483	3856
441.555	4270
441.627	3554
441.699	3852
441.771	4083
441.843	3049
441.915	4927
441.987	4918
442.059	6278
442.131	6217
442.203	8086
442.275	11006
442.347	19217
442.419	41447
442.491	134947
442.563	220729
442.635	107032
442.706	33954
442.778	16481
442.850	12114
442.922	11628
442.994	10222
443.066	12788
443.137	15376
443.209	21745
443.281	32357
443.353	65753
443.425	158078
443.496	299727
443.568	299172
443.640	157241
443.711	59045
443.783	29890
443.855	17905
443.926	13696
443.998	10224
444.070	9123
444.141	8039
444.213	7817
444.285	7034
444.356	6750
444.428	6201
444.499	6720
444.571	6442
444.642	8068
444.714	5633
444.785	8505
444.857	9370
444.928	11331
445.000	13234
445.071	16968
445.143	22100
445.214	34047
445.285	57149
445.357	117836
445.428	248963
445.500	319755
445.571	306853
445.642	227006
445.714	103898
445.785	44179
445.856	23934
445.928	17453
445.999	12081
446.070	9436
446.141	8169
446.213	8059
446.284	5606
446.355	5785
446.426	4739
446.497	5426
446.569	3534
446.640	3944
446.711	2686
446.782	3967
446.853	2610
446.924	3678
446.995	2733
447.066	2506
447.138	2370
447.209	2821
447.280	880
447.351	2154
447.422	1165
447.493	1893
447.564	1135
447.635	1990
447.706	1335
447.777	1230
447.847	1773
447.918	1192
447.989	1049
448.060	1878
448.131	1192
448.202	1101
448.273	811
448.344	1753
448.414	1037
448.485	2272
448.556	803
448.627	1178
448.698	2203
448.768	1030
448.839	965
448.910	1022
448.981	1451
449.051	1547
449.122	1694
449.193	1817
449.263	1203
449.334	1507
449.405	1390
449.475	1885
449.546	1868
449.616	2553
449.687	2655
449.758	2284
449.828	1614
449.899	949
449.969	579
450.040	1413
450.110	1897
450.181	1327
450.251	1358
450.322	1385
450.392	950
450.463	2405
450.533	434
450.604	2546
450.674	1583
450.744	2834
450.815	2591
450.885	4001
450.955	3982
451.026	4162
451.096	2950
451.166	3485
451.237	3435
451.307	6482
451.377	3550
451.447	3532
451.518	2030
451.588	2443
451.658	2235
451.728	2940
451.799	1384
451.869	2500
451.939	1416
452.009	3151
452.079	1362
452.149	2202
452.219	1803
452.289	2638
452.360	2522
452.430	3848
452.500	5381
452.570	10251
452.640	22042
452.710	49187
452.780	55282
452.850	34242
452.920	18108
452.990	11409
453.060	7957
453.129	5667
453.199	3914
453.269	4096
453.339	3469
453.409	2863
453.479	1587
453.549	3193
453.619	1231
453.688	1470
453.758	1359
453.828	1866
453.898	817
453.968	1729
454.037	1188
454.087	1633
454.107	1807
454.168	1322
454.177	1234
454.247	1849
454.249	1825
454.316	836
454.330	1059
454.386	1924
454.411	1626
454.456	1036
454.492	1760
454.525	2410
454.574	1994
454.595	1767
454.655	2237
454.665	2311
454.734	1350
454.736	1387
454.804	2165
454.817	2171
454.873	2162
454.898	1933
454.943	1453
454.979	1232
455.013	1009
455.060	1122
455.082	1158
455.141	1208
455.152	1233
455.221	2974
455.222	2990
455.291	2731
455.303	3767
455.360	7987
455.384	12006
455.430	18620
455.465	13846
455.499	9519
455.546	4622
455.569	2393
455.627	2947
455.638	3025
455.707	1876
455.708	1891
455.777	2194
455.789	2224
455.846	2141
455.869	2403
455.916	2968
455.950	2605
455.985	2186
456.031	2081
456.054	2037
456.112	2498
456.124	2563
456.193	2619
456.193	2604
456.262	2781
456.274	2954
456.332	3422
456.355	3006
456.401	2374
456.436	2625
456.470	2761
456.516	2859
456.540	2940
456.597	3482
456.609	3546
456.678	2919
456.678	2901
456.747	3047
456.759	2989
456.817	2712
456.840	2875
456.886	3117
456.920	3539
456.955	3975
457.001	4301
457.024	4307
457.082	3790
457.093	3736
457.162	4672
457.163	4687
457.232	3942
457.243	4113
457.301	5103
457.324	5110
457.370	4938
457.405	5482
457.439	6220
457.485	6402
457.508	6367
457.566	8233
457.577	8858
457.646	11554
457.647	11624
457.715	23142
457.727	26083
457.784	45604
457.808	62347
457.853	85549
457.889	102298
457.922	106434
457.969	74627
457.991	70940
458.050	74692
458.060	76112
458.129	128848
458.130	130389
458.198	148783
458.211	137355
458.267	85749
458.292	63371
458.336	40672
458.372	35748
458.405	40475
458.453	54743
458.474	66735
458.533	118843
458.543	123516
458.611	200693
458.614	201608
458.680	146842
458.694	122987
458.749	62937
458.775	46500
458.818	28175
458.855	21511
458.887	17368
458.936	14486
458.955	13233
459.016	10235
459.024	9975
459.093	9736
459.097	9658
459.162	7566
459.177	7485
459.230	7184
459.257	7016
459.299	6888
459.338	6793
459.368	6694
459.418	5929
459.437	5736
459.499	6283
459.505	6322
459.574	5841
459.579	5932
459.643	6673
459.659	6514
459.711	6158
459.740	6125
459.780	6068
459.820	5892
459.849	5901
459.900	6337
459.917	6224
459.981	5106
459.986	5073
460.054	5878
460.061	5895
460.123	5822
460.141	5963
460.191	6532
460.222	6383
460.260	6117
460.302	6384
460.328	6634
460.382	6825
460.397	6916
460.462	8511
460.465	8808
460.534	14510
460.543	15427
460.602	40144
460.623	50316
460.671	78109
460.703	105441
460.739	101288
460.783	81472
460.808	69152
460.864	21059
460.876	16444
460.944	8073
460.945	7993
461.013	7139
461.024	6965
461.081	5838
461.104	5866
461.150	6671
461.184	6644
461.218	6097
461.264	5932
461.286	6021
461.345	5877
461.355	5860
461.423	6604
461.425	6595
461.491	5221
461.505	5086
461.559	5594
461.585	5654
461.628	5197
461.665	5181
461.696	5739
461.745	6279
461.764	6149
461.825	5971
461.832	6035
461.901	6255
461.905	6301
461.969	5659
461.985	5424
462.037	6245
462.065	6759
462.105	6253
462.145	5724
462.173	5863
462.225	6237
462.241	6367
462.305	6190
462.310	6155
462.378	6644
462.385	6586
462.446	6279
462.465	6439
462.514	6503
462.545	6285
462.582	5957
462.625	5770
462.650	5745
462.705	5463
462.718	5509
462.785	6144
462.786	6143
462.854	5154
462.865	5129
462.922	5874
462.945	6033
462.990	5834
463.025	5796
463.058	5913
463.104	5812
463.126	5784
463.184	6107
463.194	6151
463.262	5822
463.264	5833
463.330	6149
463.344	6079
463.398	6503
463.424	6791
463.466	6256
463.504	5864
463.533	6031
463.583	6182
463.601	6183
463.663	5806
463.669	5752
463.737	5885
463.743	5820
463.805	5875
463.823	6073
463.873	6387
463.903	6425
463.940	6131
463.982	5606
464.008	5810
464.062	6279
464.076	6202
464.142	6220
464.144	6235
464.211	6415
464.221	6423
464.279	6106
464.301	5951
464.347	6357
464.381	6717
464.414	6353
464.461	5733
464.482	5683
464.540	5712
464.550	5835
464.617	6177
464.620	6207
464.685	6202
464.699	6049
464.753	5876
464.779	5891
464.820	6304
464.859	6612
464.888	6179
464.938	5527
464.956	5817
465.018	6591
465.023	6553
465.091	6283
465.098	6217
465.158	6179
465.177	6255
465.226	6651
465.257	6668
465.293	6449
465.336	6414
465.361	6753
465.416	7343
465.428	7187
465.495	6392
465.496	6396
465.563	5441
465.575	5345
465.631	6000
465.654	6173
465.698	6074
465.734	6079
465.765	6359
465.813	6643
465.833	6633
465.893	6629
465.900	6625
465.968	6355
465.972	6343
466.035	6053
466.052	5931
466.102	6011
466.131	6029
466.170	5839
466.210	5617
466.237	5986
466.290	6827
466.304	6877
466.369	6831
466.372	6843
466.439	7022
466.449	7013
466.506	6573
466.528	6439
466.573	6623
466.607	6686
466.641	7042
466.687	7597
466.708	7656
466.766	7667
466.775	7566
466.842	6769
466.845	6720
466.909	7730
466.925	7969
466.977	7713
467.004	7532
467.044	7795
467.083	8075
467.111	7949
467.163	7621
467.178	7609
467.242	7538
467.245	7556
467.312	7719
467.321	7732
467.379	8025
467.400	8108
467.446	7797
467.480	7551
467.559	8360
467.638	7733
467.717	8290
467.796	9083
467.875	8428
467.955	9496
468.034	10609
468.113	11895
468.192	13341
468.271	16709
468.350	24190
468.429	34353
468.508	36132
468.588	22907
468.667	13933
468.746	11308
468.825	9997
468.904	9064
468.983	8963
469.062	8346
469.141	9634
469.220	7855
469.299	8631
469.378	6701
469.456	8253
469.535	8069
469.614	7795
469.693	8024
469.772	7984
469.851	8157
469.930	6971
470.009	7886
470.088	7929
470.166	7736
470.245	8229
470.324	8017
470.403	7514
470.482	7272
470.560	8388
470.639	8289
470.718	8323
470.797	7335
470.875	7216
470.954	6674
471.033	7963
471.111	7333
471.190	7926
471.269	7910
471.347	8078
471.426	7893
471.505	7243
471.583	7754
471.662	7537
471.740	7580
471.819	7184
471.898	7553
471.976	8023
472.055	7156
472.133	10094
472.212	12535
472.290	7933
472.369	6597
472.447	7791
472.526	7479
472.604	8277
472.683	8707
472.761	8100
472.839	7661
472.918	7830
472.996	7189
473.075	8823
473.153	8609
473.231	7947
473.310	8412
473.388	8322
473.466	7923
473.545	8724
473.623	8608
473.701	8933
473.780	8586
473.858	7375
473.936	10176
474.014	8689
474.093	10293
474.171	13232
474.249	10148
474.327	8498
474.405	7928
474.484	8467
474.562	8110
474.640	8311
474.718	8489
474.796	8146
474.874	8311
474.952	8440
475.030	7345
475.108	7793
475.187	7678
475.265	9064
475.343	9058
475.421	10038
475.499	8202
475.577	8607
475.655	8155
475.733	8743
475.811	7624
475.889	7504
475.966	8109
476.044	8201
476.122	7992
476.200	9355
476.278	7696
476.356	8063
476.434	7960
476.512	8540
476.590	9008
476.667	9375
476.745	7537
476.823	8294
476.901	7654
476.979	7919
477.056	7999
477.134	8066
477.212	7422
477.290	7639
477.367	8137
477.445	8663
477.523	6927
477.601	7209
477.678	7412
477.756	7491
477.834	7852
477.911	8502
477.989	7359
478.066	8771
478.144	7577
478.222	8240
478.299	9783
478.377	11777
478.454	10875
478.532	8138
478.609	7199
478.687	8392
478.764	6697
478.842	7998
478.919	7145
478.997	8370
479.074	6551
479.152	7897
479.229	7916
479.307	7348
479.384	7355
479.461	7756
479.539	7381
479.616	6816
479.694	7726
479.771	8535
479.848	7227
479.926	6519
480.003	8998
480.080	7628
480.157	7393
480.235	8553
480.312	7568
480.389	7205
480.467	7949
480.544	8675
480.621	8999
480.698	9295
480.775	8685
480.853	9068
480.930	8342
481.007	9689
481.084	14194
481.161	23934
481.238	14811
481.315	8443
481.392	7832
481.470	8028
481.547	7999
481.624	9033
481.701	7733
481.778	9003
481.855	8816
481.932	9537
482.009	9568
482.086	10740
482.163	11010
482.240	14373
482.317	14606
482.393	14414
482.470	11676
482.547	10639
482.624	10029
482.701	10514
482.778	9870
482.855	9222
482.932	9702
483.009	11053
483.085	13452
483.162	21623
483.239	20120
483.316	13029
483.393	13859
483.469	12268
483.546	11147
483.623	10086
483.699	8691
483.776	9384
483.853	8443
483.930	8585
484.006	7734
484.083	10464
484.160	9241
484.236	9531
484.313	9879
484.389	9402
484.466	12077
484.543	13631
484.619	18312
484.696	21125
484.772	13978
484.849	11397
484.925	9727
485.002	10119
485.078	8398
485.155	7668
485.231	7646
485.308	7743
485.384	8403
485.461	8323
485.537	8035
485.614	8724
485.690	7536
485.766	7205
485.843	6736
485.919	7765
485.995	7763
486.072	8331
486.148	7994
486.224	7284
486.301	7970
486.377	8176
486.453	6383
486.530	8415
486.606	8710
486.682	8605
486.758	8693
486.835	10393
486.911	9999
486.987	11275
487.063	11339
487.139	16197
487.215	22480
487.292	21641
487.368	20015
487.444	24102
487.520	35188
487.596	56621
487.672	113506
487.748	346245
487.824	547565
487.900	216357
487.976	65565
488.052	32894
488.128	22915
488.204	16537
488.280	14142
488.356	11782
488.432	10742
488.508	11193
488.584	9610
488.660	10010
488.736	8902
488.812	8172
488.888	8785
488.964	8424
489.039	8886
489.115	9982
489.191	11047
489.267	9438
489.343	8222
489.418	8959
489.494	7322
489.570	6863
489.646	8692
489.722	7617
489.797	7856
489.873	8346
489.949	7902
490.024	8181
490.100	8385
490.176	8181
490.251	7400
490.327	8534
490.403	7465
490.478	8180
490.554	7155
490.629	7060
490.705	7258
490.781	8675
490.856	7263
490.932	6788
491.007	7880
491.083	7160
491.158	6526
491.234	7033
491.309	7567
491.385	6039
491.460	5599
491.536	7166
491.611	6565
491.686	7469
491.762	6839
491.837	8151
491.913	7323
491.988	7019
492.063	6922
492.139	6802
492.214	6293
492.289	6571
492.365	6044
492.440	6416
492.515	5927
492.590	7072
492.666	6017
492.741	6307
492.816	6940
492.891	6815
492.967	7709
493.042	6743
493.117	6416
493.192	7279
493.267	10374
493.342	25684
493.418	35137
493.493	9866
493.568	7424
493.643	6140
493.718	5737
493.793	6287
493.868	6534
493.943	6783
494.018	6336
494.093	6499
494.168	6034
494.243	5880
494.318	5829
494.393	6690
494.468	6258
494.543	5512
494.618	5904
494.693	5607
494.768	6105
494.842	5454
494.917	5605
494.992	6412
495.067	5808
495.142	5340
495.217	5776
495.292	5863
495.366	5913
495.441	5087
495.516	5786
495.591	5906
495.665	7353
495.740	9509
495.815	6911
495.890	6116
495.964	4276
496.039	8840
496.114	10548
496.188	21087
496.263	16354
496.338	6397
496.412	5045
496.487	6564
496.561	5380
496.636	5919
496.710	7596
496.785	9007
496.860	6422
496.934	4983
497.009	5761
497.083	5757
497.158	5747
497.232	5057
497.307	5346
497.381	5195
497.455	5807
497.530	5791
497.604	5601
497.679	5913
497.753	6096
497.827	5167
497.902	5370
497.976	5093
498.050	4946
498.125	5636
498.199	5457
498.273	5782
498.348	5806
498.422	6303
498.496	4859
498.570	6521
498.645	5378
498.719	4633
498.793	5704
498.867	5618
498.941	4353
499.016	5828
499.090	6138
499.164	6325
499.238	6206
499.312	6448
499.386	5883
499.460	6494
499.534	6143
499.609	6165
499.683	4649
499.757	6270
499.831	4948
499.905	5432
499.979	5196
500.053	6372
500.127	4923
500.201	5223
500.275	5633
500.349	5726
500.422	5567
500.496	6442
500.570	6216
500.644	7082
500.718	5274
500.792	6924
500.866	6302
500.940	6338
501.013	6576
501.087	6104
501.161	5653
501.235	5166
501.309	7111
501.382	6303
501.456	6073
501.530	6227
501.603	5118
501.677	5736
501.751	4483
501.825	7667
501.898	5963
501.972	5343
502.046	5214
502.119	5829
502.193	5728
502.266	5301
502.340	5342
502.413	5358
502.487	6122
502.561	5898
502.634	5670
502.708	6274
502.781	5303
502.855	6900
502.928	4679
503.002	7036
503.075	5795
503.149	6258
503.222	6193
503.295	6581
503.369	6856
503.442	7699
503.516	8873
503.589	9972
503.662	11109
503.736	14500
503.809	18363
503.882	23387
503.956	35217
504.029	71784
504.102	206087
504.175	320014
504.249	137162
504.322	51960
504.395	27125
504.468	18946
504.542	13171
504.615	10607
504.688	10301
504.761	6501
504.834	8463
504.907	7420
504.980	6482
505.053	5512
505.127	4052
505.200	8842
505.273	4876
505.346	4941
505.419	5003
505.492	6840
505.565	5781
505.638	4745
505.711	4402
505.784	4661
505.857	4768
505.930	6307
506.003	3161
506.076	6132
506.149	4433
506.221	3130
506.294	6865
506.367	3786
506.440	4894
506.513	5433
506.586	4597
506.659	4125
506.731	4494
506.804	3872
506.877	3392
506.950	5455
507.022	5183
507.095	3738
507.168	5058
507.241	5552
507.313	3878
507.386	3298
507.459	5487
507.531	4523
507.604	3992
507.677	4504
507.749	3026
507.822	5465
507.894	3883
507.967	4183
508.040	3442
508.112	4962
508.185	4103
508.257	2681
508.330	5447
508.402	3227
508.475	3801
508.547	4409
508.620	3725
508.692	3850
508.765	3849
508.837	3939
508.909	5394
508.982	3092
509.054	3791
509.127	3295
509.199	3628
509.271	3041
509.344	4091
509.416	3747
509.488	4141
509.560	4149
509.633	3759
509.705	3713
509.777	3378
509.849	4019
509.922	1841
509.994	4054
510.066	4964
510.138	3068
510.210	5520
510.283	3703
510.355	3482
510.427	3918
510.499	4054
510.571	4355
510.643	2772
510.715	5545
510.787	2286
510.859	5262
510.931	3652
511.003	4097
511.076	4202
511.148	2866
511.219	2898
511.291	4262
511.363	3797
511.435	3680
511.507	2934
511.579	5250
511.651	5647
511.723	3677
511.795	3386
511.867	3125
511.939	4384
512.010	3532
512.082	4049
512.154	3537
512.226	3966
512.298	4549
512.369	3479
512.441	4908
512.513	3853
512.585	2543
512.656	5136
512.728	4552
512.800	3961
512.871	5188
512.943	4515
513.015	2828
513.086	4496
513.158	4837
513.230	2867
513.301	4235
513.373	4634
513.444	4374
513.516	4435
513.588	3750
513.659	4036
513.731	3897
513.802	2232
513.874	5824
513.945	4400
514.016	3784
514.088	4378
514.159	3056
514.231	4420
514.302	3321
514.374	3810
514.445	2554
514.516	5215
514.588	3217
514.659	3808
514.730	3068
514.802	4977
514.873	1989
514.944	5777
515.016	3827
515.087	3486
515.158	3964
515.229	4902
515.301	3362
515.372	5520
515.443	4096
515.514	4083
515.585	4994
515.656	5714
515.728	6016
515.799	3926
515.870	4323
515.941	5256
516.012	3228
516.083	5742
516.154	2997
516.225	5536
516.296	6245
516.367	4594
516.438	4199
516.509	4461
516.580	5582
516.651	11709
516.722	24097
516.793	14197
516.864	6122
516.935	6030
517.006	6834
517.077	7377
517.148	10936
517.219	34682
517.289	58645
517.360	11286
517.431	7209
517.502	5692
517.573	6162
517.643	5589
517.714	5027
517.785	6474
517.856	6783
517.926	8505
517.997	9303
518.068	8506
518.138	13042
518.209	13316
518.280	31420
518.350	100547
518.421	56233
518.492	26613
518.562	32069
518.633	43539
518.703	66602
518.774	148464
518.845	377486
518.915	365774
518.986	119607
519.056	48643
519.127	28908
519.197	20558
519.268	14627
519.338	13804
519.408	9864
519.479	8996
519.549	7585
519.620	8489
519.690	7667
519.760	6421
519.831	6678
519.901	6117
519.971	6775
520.042	5285
520.112	4126
520.182	5758
520.253	5549
520.323	4439
520.393	3865
520.463	6920
520.534	2941
520.604	7815
520.674	5494
520.744	4945
520.814	3816
520.885	4952
520.955	5068
521.025	4405
521.095	4225
521.165	5769
521.235	4597
521.305	4114
521.375	5753
521.445	4698
521.515	3610
521.585	6369
521.655	3687
521.725	5129
521.795	5546
521.865	2283
521.935	7329
522.005	3153
522.075	3946
522.145	6598
522.215	5608
522.285	5840
522.355	4887
522.424	5604
522.494	5551
522.564	5717
522.634	5315
522.704	6495
522.774	4848
522.843	5347
522.913	7422
522.983	5487
523.053	4706
523.122	6316
523.192	4773
523.262	4837
523.331	5303
523.401	5974
523.471	6286
523.540	6139
523.610	5363
523.680	6077
523.749	6899
523.819	8608
523.888	8527
523.958	6586
524.027	6929
524.097	5774
524.166	6127
524.236	4908
524.305	8463
524.375	5066
524.444	5187
524.514	8441
524.583	6603
524.653	5214
524.722	6370
524.791	6567
524.861	7947
524.930	6057
524.999	6975
525.069	7968
525.138	6849
525.207	8335
525.277	9528
525.346	8641
525.415	9700
525.484	11573
525.554	13263
525.623	16669
525.692	25139
525.761	26037
525.830	30595
525.900	38751
525.969	62087
526.038	121364
526.107	227091
526.176	631617
526.245	527387
526.314	169266
526.383	315839
526.452	446995
526.522	553710
526.591	539267
526.660	117602
526.729	62652
526.797	63524
526.867	85206
526.935	223935
527.004	745439
527.073	544918
527.142	105973
527.211	42088
527.280	26666
527.349	20240
527.418	14464
527.487	13916
527.555	10293
527.624	10322
527.693	8844
527.762	10945
527.831	6865
527.899	9326
527.968	7428
528.037	6548
528.106	7582
528.174	8387
528.243	7536
528.312	6627
528.380	6158
528.449	5829
528.518	7753
528.586	5544
528.655	7500
528.723	6763
528.792	6268
528.861	6195
528.929	5718
528.998	8160
529.066	5745
529.135	6560
529.203	5458
529.272	5190
529.340	6501
529.409	8264
529.477	5009
529.545	4503
529.614	8014
529.682	5335
529.751	5676
529.819	8997
529.887	5773
529.956	5585
530.024	7230
530.092	5630
530.161	6879
530.229	6850
530.297	6016
530.365	7823
530.434	7361
530.502	5692
530.570	7834
530.638	4736
530.707	7664
530.775	8251
530.843	6245
530.911	6740
530.979	7171
531.047	6216
531.115	7382
531.183	8144
531.252	7477
531.320	6675
531.388	6866
531.456	7241
531.524	5095
531.592	8505
531.660	9134
531.728	6034
531.796	6420
531.864	7242
531.932	6411
532.000	6730
532.067	6389
532.135	7637
532.203	10012
532.271	7739
532.339	10011
532.407	10588
532.475	10010
532.542	9495
532.610	9486
532.678	7851
532.746	11119
532.814	12685
532.881	10380
532.949	9426
533.017	10150
533.084	9301
533.152	8109
533.220	9317
533.287	8697
533.355	8168
533.423	9861
533.490	8836
533.558	9551
533.625	9206
533.693	8998
533.761	9666
533.828	10262
533.896	7376
533.963	11403
534.031	11484
534.098	14066
534.166	16743
534.233	14790
534.300	19897
534.368	18869
534.435	17845
534.503	19729
534.570	20863
534.637	23641
534.705	27443
534.772	33036
534.840	61763
534.907	260346
534.974	354021
535.041	59517
535.109	24425
535.176	19410
535.243	17985
535.310	17016
535.378	15980
535.445	16147
535.512	18078
535.579	16630
535.646	15808
535.714	16798
535.781	17947
535.848	17690
535.915	17407
535.982	16512
536.049	15852
536.116	18356
536.183	16638
536.250	14665
536.317	16870
536.384	17991
536.451	18367
536.518	18280
536.585	17471
536.652	19077
536.719	18680
536.786	15623
536.853	16748
536.920	20192
536.987	18636
537.053	14850
537.120	19749
537.187	20826
537.254	20385
537.321	18876
537.388	20851
537.454	19123
537.521	19486
537.588	18461
537.654	20358
537.721	20577
537.788	21206
537.855	20489
537.921	21182
537.988	18782
538.055	18110
538.121	16800
538.188	18156
538.254	16562
538.321	17389
538.388	18580
538.454	22397
538.521	22706
538.587	21451
538.654	20368
538.720	20987
538.787	20421
538.853	20705
538.920	18978
538.986	17780
539.053	16600
539.119	18935
539.185	19131
539.252	20597
539.318	19913
539.385	23623
539.451	20782
539.517	21017
539.583	20962
539.650	20648
539.716	20602
539.782	19651
539.849	17834
539.915	20525
539.981	19299
540.047	18311
540.114	18893
540.180	21999
540.246	20400
540.312	22607
540.378	21121
540.444	21781
540.510	20733
540.576	22405
540.643	19591
540.709	18603
540.775	19954
540.841	19784
540.907	20141
540.973	19462
541.039	19965
541.105	20806
541.171	21045
541.237	21899
541.303	21502
541.369	23443
541.435	20848
541.500	20563
541.566	18114
541.632	19292
541.698	20581
541.764	22356
541.830	19640
541.896	20211
541.961	20420
542.027	20526
542.093	21528
542.159	23112
542.224	19769
542.290	21731
542.356	20128
542.421	21080
542.487	20043
542.553	18999
542.618	19171
542.684	19746
542.750	20634
542.815	21432
542.881	19615
542.947	21885
543.012	22995
543.078	20272
543.143	18626
543.209	20232
543.274	19464
543.340	19994
543.405	20398
543.471	20172
543.536	21733
543.602	22058
543.667	19597
543.732	21835
543.798	19648
543.863	21427
543.928	21044
543.994	21173
544.059	21613
544.124	23079
544.190	22295
544.255	22425
544.320	22985
544.386	22727
544.451	24025
544.516	24587
544.581	23059
544.646	24363
544.712	25092
544.777	23736
544.842	24384
544.907	23764
544.972	24381
545.037	26196
545.102	26951
545.168	25944
545.233	26616
545.298	27572
545.363	26077
545.428	28461
545.493	28912
545.558	27955
545.623	27998
545.688	27938
545.753	29926
545.818	30150
545.883	33584
545.947	33754
546.012	34476
546.077	35720
546.142	38593
546.207	38245
546.272	40499
546.337	40670
546.401	42973
546.466	46094
546.531	46985
546.596	50991
546.661	52266
546.725	56105
546.790	59095
546.855	62583
546.919	69438
546.984	78420
547.049	83977
547.113	95228
547.178	105085
547.243	120642
547.307	137800
547.372	150982
547.436	150186
547.501	159420
547.565	168915
547.630	155323
547.695	151031
547.759	151147
547.823	153800
547.888	154933
547.952	162521
548.017	169230
548.081	178006
548.146	171880
548.210	172850
548.274	184895
548.339	182863
548.403	165213
548.468	157360
548.532	156776
548.596	159147
548.660	161149
548.725	173648
548.789	186517
548.853	183426
548.917	174632
548.982	167575
549.046	154017
549.110	141613
549.174	145374
549.238	167677
549.303	183276
549.367	187892
549.431	178244
549.495	168105
549.559	169143
549.623	194826
549.687	209991
549.751	205045
549.815	240753
549.879	245043
549.943	236731
550.007	243634
550.071	244087
550.135	218594
550.199	211298
550.263	208529
550.327	197360
550.391	203526
550.455	224977
550.519	233877
550.582	246097
550.646	273518
550.710	276549
550.774	273120
550.838	277545
550.901	282989
550.965	299801
551.029	310630
551.093	329810
551.156	355690
551.220	383685
551.284	410924
551.347	341124
551.411	297441
551.475	284216
551.538	293193
551.602	275290
551.666	261662
551.729	247880
551.793	243772
551.856	239836
551.920	236895
551.983	234697
552.047	232265
552.110	234100
552.174	237577
552.237	242517
552.301	225780
552.364	217551
552.428	210811
552.491	217201
552.554	221371
552.618	221047
552.681	222562
552.745	214452
552.808	219292
552.871	229380
552.934	225221
552.998	219877
553.061	217910
553.124	208803
553.187	207994
553.251	216022
553.314	214387
553.377	218429
553.440	233887
553.503	253953
553.567	265560
553.630	234906
553.693	228260
553.756	231308
553.819	224964
553.882	216637
553.945	220254
554.008	219738
554.071	222123
554.134	224633
554.197	212305
554.260	207082
554.323	211441
554.386	213349
554.449	221454
554.512	221386
554.575	212959
554.638	210732
554.701	209550
554.764	208327
554.827	201357
554.889	193012
554.952	185395
555.015	182163
555.078	183809
555.141	187108
555.203	182070
555.266	181731
555.329	180672
555.391	174070
555.454	171894
555.517	168581
555.580	159213
555.642	157143
555.705	154306
555.768	153380
555.830	149732
555.893	143119
555.955	139290
556.018	137526
556.080	138152
556.143	141832
556.206	139441
556.268	135818
556.330	132554
556.393	129920
556.455	126317
556.518	124567
556.580	119809
556.643	115242
556.705	113668
556.767	112934
556.830	110889
556.892	109043
556.955	106775
557.017	104865
557.079	104051
557.142	101237
557.204	100871
557.266	98845
557.328	92906
557.391	87716
557.453	86103
557.515	86218
557.577	87177
557.639	87906
557.701	86774
557.764	86579
557.826	88803
557.888	90379
557.950	93255
558.012	98515
558.074	118065
558.136	214883
558.198	461283
558.260	215123
558.322	98173
558.384	94650
558.446	96502
558.508	102360
558.570	111164
558.632	124976
558.694	153953
558.756	234041
558.818	526816
558.880	969370
558.942	540771
559.003	509023
559.065	289636
559.127	126074
559.189	114165
559.251	119987
559.312	160866
559.374	315374
559.436	759878
559.498	479174
559.559	151698
559.621	116456
559.683	124720
559.744	180193
559.806	446231
559.868	643903
559.929	213046
559.991	128286
560.052	180829
560.114	440889
560.176	320950
560.237	266781
560.299	423198
560.360	130095
560.422	57352
560.483	48805
560.545	43756
560.606	42073
560.667	41338
560.729	39529
560.790	36573
560.852	37436
560.913	35886
560.974	35412
561.036	34324
561.097	35073
561.158	33643
561.220	33873
561.281	32433
561.342	30539
561.403	31498
561.465	31117
561.526	31552
561.587	31796
561.648	29155
561.709	29035
561.771	29009
561.832	27935
561.893	28141
561.954	27823
562.015	27585
562.076	26897
562.137	27102
562.198	26076
562.259	26417
562.320	26569
562.381	26246
562.442	26735
562.503	26559
562.564	25139
562.625	24590
562.686	24992
562.747	25225
562.808	24482
562.869	24449
562.930	24136
562.991	23724
563.051	22807
563.112	22319
563.173	22588
563.234	22288
563.294	22986
563.355	21354
563.416	22934
563.477	22549
563.537	22363
563.598	21596
563.659	21919
563.720	21384
563.780	21480
563.841	20708
563.901	22501
563.962	21731
564.023	21341
564.083	21236
564.144	21806
564.204	20703
564.265	20937
564.325	20734
564.386	21064
564.446	19765
564.507	21308
564.567	19943
564.628	19375
564.688	19048
564.749	19784
564.809	20175
564.869	20951
564.930	19378
564.990	20012
565.050	19819
565.111	19326
565.171	20047
565.231	20133
565.292	20573
565.352	19407
565.412	19679
565.472	19409
565.532	19056
565.593	19385
565.653	19532
565.713	19075
565.773	20598
565.833	20496
565.893	20659
565.953	19074
566.013	18016
566.074	19155
566.134	18486
566.194	17369
566.254	18104
566.314	18755
566.374	18380
566.434	19218
566.494	17943
566.554	18496
566.614	18947
566.673	19324
566.733	20188
566.793	19422
566.853	19651
566.913	19524
566.973	19155
567.033	20711
567.092	19343
567.152	18964
567.212	19864
567.272	20530
567.331	20994
567.391	21202
567.451	22526
567.511	21903
567.570	20475
567.630	21947
567.690	20383
567.749	20576
567.809	20304
567.868	20062
567.928	19979
567.988	20547
568.047	20980
568.107	20341
568.166	20119
568.226	20196
568.285	20921
568.345	21504
568.404	21499
568.464	20245
568.523	20057
568.582	21943
568.642	21478
568.701	20296
568.761	18834
568.820	18607
568.879	19453
568.939	20789
568.998	20418
569.057	19767
569.116	19835
569.176	21099
569.235	20441
569.294	20849
569.353	20064
569.413	20038
569.472	19374
569.531	19688
569.590	18668
569.649	19863
569.708	18899
569.767	20404
569.827	19745
569.886	19618
569.945	19885
570.004	20031
570.063	19839
570.122	21091
570.181	21315
570.240	20793
570.299	21133
570.358	21626
570.417	22268
570.475	21741
570.534	21216
570.593	22848
570.652	21113
570.711	22123
570.770	20105
570.829	21190
570.887	20734
570.946	22371
571.005	21747
571.064	21568
571.122	21542
571.181	20763
571.240	20627
571.299	20290
571.357	21099
571.416	20226
571.475	20252
571.533	22150
571.592	23252
571.650	23167
571.709	22537
571.768	26060
571.826	26790
571.885	26170
571.943	22962
572.002	22331
572.060	21375
572.119	21609
572.177	20659
572.236	21352
572.294	21105
572.352	23524
572.411	22847
572.469	21848
572.528	21337
572.586	21882
572.644	20582
572.703	21171
572.761	19966
572.819	20137
572.877	19092
572.936	19621
572.994	18713
573.052	19292
573.110	20039
573.169	21453
573.227	20884
573.285	20867
573.343	20655
573.401	19827
573.459	20970
573.517	20973
573.576	21360
573.634	21039
573.692	21127
573.750	20929
573.808	20293
573.866	19653
573.924	20104
573.982	19732
574.040	20290
574.098	20357
574.155	19509
574.213	19531
574.271	19338
574.329	21900
574.387	20304
574.445	18666
574.503	18996
574.560	18534
574.618	17804
574.676	18913
574.734	18267
574.792	18940
574.849	17775
574.907	16405
574.965	16078
575.022	15025
575.080	15712
575.138	16334
575.195	14859
575.253	15197
575.311	15047
575.368	16219
575.426	14551
575.483	15537
575.541	16821
575.598	15711
575.656	15101
575.713	16236
575.771	17154
575.828	16660
575.886	15736
575.943	16515
576.001	15415
576.058	14204
576.115	15000
576.173	15286
576.230	16200
576.287	16844
576.345	15607
576.402	16174
576.459	16562
576.517	15433
576.574	14907
576.631	15448
576.688	15202
576.746	14032
576.803	14542
576.860	14140
576.917	15192
576.974	15135
577.031	15731
577.089	14613
577.146	14292
577.203	14899
577.260	14431
577.317	14466
577.374	14489
577.431	14803
577.488	14036
577.545	13800
577.602	14745
577.659	14804
577.716	14228
577.773	15570
577.830	14579
577.886	14120
577.943	13823
578.000	13199
578.057	13154
578.114	13648
578.171	13662
578.227	13709
578.284	12871
578.341	14735
578.398	14417
578.454	14762
578.511	15138
578.568	14962
578.625	13890
578.681	14644
578.738	13422
578.794	14519
578.851	14422
578.908	14276
578.964	14350
579.021	14307
579.077	14087
579.134	14472
579.190	15137
579.247	14328
579.303	14046
579.360	14355
579.416	14043
579.473	14779
579.529	14415
579.586	15379
579.642	14390
579.698	15283
579.755	14947
579.811	16045
579.867	15464
579.924	15090
579.980	15108
580.036	15507
580.093	15120
580.149	15832
580.205	15519
580.261	16369
580.317	17457
580.374	16460
580.430	17068
580.486	16153
580.542	15630
580.598	17038
580.619	16964
580.654	16848
580.692	16553
580.710	16429
580.765	16741
580.767	16760
580.823	17678
580.838	17458
580.879	16924
580.911	17311
580.935	17617
580.984	17528
580.991	17527
581.047	17446
581.057	17164
581.103	15940
581.130	15930
581.159	15919
581.203	16879
581.215	17150
581.270	16419
581.276	16294
581.326	15173
581.349	15720
581.382	16529
581.422	16553
581.438	16562
581.494	16169
581.494	16160
581.550	15872
581.567	15893
581.606	15911
581.640	15789
581.661	15735
581.713	16668
581.717	16749
581.773	16849
581.786	16721
581.829	16226
581.859	16141
581.885	16110
581.932	16469
581.940	16524
581.996	16884
582.004	16994
582.052	17667
582.077	17144
582.107	16485
582.150	16820
582.163	16919
582.219	16450
582.223	16395
582.274	15904
582.296	16068
582.330	16195
582.368	16577
582.386	16913
582.441	17433
582.441	17431
582.497	16713
582.514	16936
582.552	17721
582.587	17562
582.608	17350
582.659	16888
582.663	16868
582.719	17952
582.732	17759
582.774	17063
582.805	16975
582.830	16919
582.877	17947
582.885	18100
582.941	17343
582.950	17246
582.996	16799
583.023	16794
583.052	16932
583.095	16992
583.107	16960
583.162	17318
583.168	17313
583.218	17093
583.240	16821
583.273	16532
583.313	16808
583.328	16980
583.384	17177
583.385	17169
583.439	16534
583.458	16874
583.494	17661
583.531	17916
583.549	18193
583.603	17637
583.605	17601
583.660	17392
583.676	17478
583.715	18020
583.748	18514
583.770	18674
583.820	18710
583.825	18749
583.881	19537
583.893	19381
583.936	18648
583.965	18677
583.991	18758
584.038	18990
584.046	19025
584.101	19078
584.110	19080
584.156	19378
584.183	19816
584.211	20104
584.255	20077
584.266	20170
584.321	20906
584.328	21048
584.376	21734
584.400	21605
584.431	21755
584.472	21688
584.486	21534
584.541	21851
584.545	21845
584.596	22355
584.617	23006
584.651	24144
584.689	24185
584.706	24168
584.761	25401
584.762	25403
584.816	26767
584.834	27194
584.871	28591
584.906	29498
584.926	29743
584.978	31528
584.980	31649
585.035	34907
585.051	35754
585.090	38198
585.123	40883
585.145	43160
585.195	48125
585.200	48736
585.254	57576
585.267	59760
585.309	68197
585.340	74989
585.364	81313
585.412	95006
585.419	97535
585.473	120857
585.484	126922
585.528	168015
585.556	203485
585.583	271412
585.628	415169
585.637	464880
585.692	837382
585.700	896696
585.747	1083640
585.772	1024526
585.801	773247
585.845	409395
585.856	352885
585.910	180711
585.917	163499
585.965	116040
585.989	96880
586.019	84846
586.061	71339
586.074	68742
586.128	59158
586.133	58450
586.183	54618
586.205	53055
586.237	51791
586.277	50007
586.292	49469
586.346	48158
586.349	48028
586.401	47346
586.421	46744
586.455	45915
586.493	45822
586.509	46129
586.564	46102
586.565	46094
586.618	50445
586.637	52072
586.672	58541
586.709	65839
586.727	69223
586.781	78990
586.781	79077
586.835	67205
586.853	63284
586.889	56631
586.925	51305
586.944	50065
586.996	47221
586.998	47229
587.052	46212
587.068	45994
587.106	47251
587.140	47458
587.161	47105
587.212	46647
587.215	46731
587.269	47175
587.284	47379
587.323	48636
587.356	49467
587.377	49837
587.427	50288
587.431	50418
587.485	51589
587.499	51812
587.539	53212
587.571	54258
587.593	55226
587.643	57484
587.648	57719
587.702	58593
587.715	58642
587.755	58678
587.786	59011
587.810	59550
587.858	59631
587.864	59726
587.917	60718
587.930	60640
587.971	60149
588.001	59878
588.025	59969
588.073	59685
588.079	59752
588.133	59296
588.145	59237
588.187	59609
588.217	59251
588.241	59580
588.288	60738
588.295	60943
588.348	61803
588.360	61769
588.402	61279
588.431	60601
588.456	60762
588.503	61325
588.510	61742
588.564	64878
588.575	65379
588.617	66735
588.646	67273
588.671	67803
588.718	68647
588.725	69056
588.778	71480
588.789	72054
588.832	81609
588.861	89144
588.886	113159
588.932	162754
588.939	168038
588.993	209861
589.004	210991
589.047	131151
589.075	84075
589.100	76198
589.147	66800
589.154	66771
589.207	65427
589.218	65095
589.261	66609
589.290	67658
589.314	68444
589.361	69633
589.368	70248
589.421	74280
589.433	75279
589.475	93072
589.504	106188
589.528	127721
589.576	173907
589.582	169944
589.635	113457
589.647	101604
589.689	81604
589.718	69962
589.742	69864
589.790	69134
589.795	69255
589.849	69442
589.861	69331
589.902	70189
589.932	70466
589.955	70523
590.004	70122
590.009	70292
590.062	70615
590.075	70473
590.115	70571
590.146	70785
590.168	70935
590.218	70265
590.222	70538
590.275	72520
590.289	72816
590.328	74387
590.360	75446
590.381	76125
590.431	77167
590.435	77404
590.488	78241
590.503	78363
590.541	79586
590.574	80329
590.594	81330
590.645	83356
590.647	83688
590.700	87356
590.716	88265
590.753	90131
590.787	91570
590.806	92734
590.859	94837
590.859	95073
590.912	95830
590.930	95830
590.965	97119
591.001	97873
591.018	98013
591.071	97654
591.072	97409
591.124	96637
591.143	96041
591.177	96853
591.214	97490
591.230	98070
591.283	98929
591.285	98716
591.336	99270
591.356	99178
591.389	99672
591.427	99526
591.442	99308
591.495	97857
591.498	97497
591.547	97996
591.569	97939
591.600	99606
591.640	101091
591.653	101818
591.706	103954
591.711	103906
591.759	107466
591.782	108982
591.811	111231
591.853	113652
591.864	113985
591.917	114159
591.924	113874
591.969	114016
591.995	113662
592.022	114644
592.066	115545
592.075	116409
592.127	119834
592.137	120145
592.180	122378
592.208	123360
592.233	125071
592.279	127285
592.285	128063
592.338	131778
592.350	132251
592.390	131703
592.421	130662
592.443	132100
592.491	134174
592.495	134739
592.548	137459
592.562	137835
592.600	137284
592.633	136109
592.653	136913
592.704	137274
592.705	138121
592.775	140943
592.846	145210
592.916	146515
592.987	147481
593.058	149255
593.128	151885
593.199	151918
593.270	153106
593.341	157595
593.411	162417
593.482	166903
593.553	172354
593.623	173990
593.694	180023
593.764	182751
593.835	180566
593.906	185151
593.976	187811
594.047	192924
594.117	202482
594.188	207691
594.258	205660
594.329	207281
594.399	213457
594.470	218032
594.540	226744
594.611	228294
594.681	227926
594.751	228614
594.822	237991
594.892	246709
594.963	253111
595.033	258966
595.103	268531
595.174	269302
595.244	275094
595.314	284426
595.384	290656
595.455	298629
595.525	310740
595.595	320465
595.665	319725
595.736	310499
595.806	316812
595.876	321246
595.946	325770
596.016	337781
596.087	350631
596.157	347934
596.227	348830
596.297	368667
596.367	392743
596.437	412620
596.507	408053
596.577	407590
596.647	422338
596.717	442214
596.787	447818
596.857	449738
596.927	451130
596.997	450900
597.067	457752
597.137	464774
597.207	468504
597.277	470932
597.347	452237
597.417	438364
597.487	436643
597.557	450516
597.626	461319
597.696	465061
597.766	458049
597.836	433935
597.906	413071
597.975	404967
598.045	414030
598.115	429670
598.185	462846
598.254	511752
598.324	549744
598.394	561529
598.464	541198
598.533	531885
598.603	499384
598.672	483487
598.742	496826
598.812	498105
598.881	509997
598.951	505257
599.020	516819
599.090	531990
599.159	542099
599.229	519153
599.299	510553
599.368	523721
599.437	517748
599.507	477395
599.576	462003
599.646	454588
599.715	451093
599.785	443681
599.854	429924
599.924	424582
599.993	422500
600.062	432082
600.132	443519
600.201	466530
600.270	539723
600.340	562776
600.409	553042
600.478	546824
600.547	560424
600.617	503952
600.686	410176
600.755	373753
600.824	350777
600.894	343687
600.963	344071
601.032	340153
601.101	326264
601.170	308127
601.239	299182
601.308	299041
601.378	299484
601.447	301674
601.516	299569
601.585	301159
601.654	308577
601.723	307145
601.792	315103
601.861	327328
601.930	339842
601.999	342212
602.068	337108
602.137	343297
602.206	348660
602.275	352116
602.343	355279
602.412	356762
602.481	361670
602.550	364821
602.619	375561
602.688	380449
602.756	383315
602.825	385240
602.894	396019
602.963	404039
603.032	411096
603.100	409158
603.169	413817
603.238	417135
603.307	418884
603.375	427358
603.444	432861
603.513	443476
603.581	449704
603.650	451370
603.719	447238
603.787	464245
603.856	477244
603.924	487617
603.993	502184
604.061	524577
604.130	544079
604.198	555044
604.267	564750
604.335	571740
604.404	581494
604.472	588033
604.541	592144
604.609	595536
604.678	597420
604.746	600816
604.815	617106
604.883	625082
604.951	625632
605.020	635215
605.088	648560
605.156	663068
605.225	671872
605.293	672340
605.361	674958
605.429	681960
605.498	692809
605.566	712846
605.634	742780
605.702	767089
605.771	780651
605.839	784818
605.907	774532
605.975	748204
606.043	736350
606.111	735223
606.180	729029
606.248	730813
606.316	727000
606.384	721295
606.452	727362
606.520	751952
606.588	775236
606.656	779909
606.724	765893
606.792	727683
606.860	667578
606.928	614341
606.996	594097
607.064	582579
607.132	597166
607.200	629467
607.267	649635
607.335	663997
607.403	673857
607.471	649576
607.539	634862
607.607	636558
607.674	568689
607.742	569900
607.810	566161
607.878	567501
607.946	582183
608.013	603239
608.081	616693
608.149	619768
608.216	640255
608.284	656488
608.352	658165
608.419	653093
608.487	635442
608.555	629124
608.622	648821
608.690	685593
608.757	742718
608.825	758014
608.893	741724
608.960	699744
609.028	673397
609.095	677480
609.163	672815
609.230	607335
609.298	559989
609.365	593811
609.432	635153
609.500	679903
609.567	764602
609.635	850654
609.702	883654
609.769	843024
609.837	680107
609.904	612565
609.971	626548
610.039	677934
610.106	805422
610.173	1205472
610.241	1937376
610.308	1497137
610.375	838593
610.442	695309
610.509	646551
610.577	642111
610.644	644559
610.711	664541
610.778	673829
610.845	700367
610.912	734856
610.980	762199
611.047	763703
611.114	747800
611.181	722055
611.248	726187
611.315	758539
611.382	778368
611.449	799082
611.516	812070
611.583	800625
611.650	807433
611.717	814852
611.784	830957
611.851	858223
611.918	896290
611.984	1001589
612.051	1214197
612.118	1704850
612.185	2403059
612.252	2127267
612.319	1360131
612.386	1096953
612.452	979325
612.519	921768
612.586	892169
612.653	901258
612.719	920117
612.786	889659
612.853	834018
612.919	825411
612.986	832150
613.053	792489
613.120	750670
613.186	730090
613.253	731437
613.319	732556
613.386	735395
613.453	744702
613.519	749707
613.586	733874
613.652	742293
613.719	734001
613.785	746206
613.852	753482
613.918	748420
613.985	755031
614.051	787905
614.118	786897
614.184	761652
614.250	746934
614.317	763205
614.383	752990
614.449	764848
614.516	759909
614.582	763472
614.648	752540
614.715	745353
614.781	730742
614.847	733148
614.914	726325
614.980	712860
615.046	715593
615.112	733112
615.179	734142
615.245	740269
615.311	734271
615.377	744216
615.443	753653
615.509	762276
615.575	788903
615.642	787300
615.708	802243
615.774	831919
615.840	874078
615.906	920623
615.972	1044092
616.038	1331213
616.104	1944361
616.170	2542139
616.236	2419915
616.302	1727728
616.368	1423696
616.434	1119333
616.500	998331
616.565	1057098
616.631	1262656
616.697	1123619
616.763	1092247
616.829	1416015
616.895	2067127
616.961	2036471
617.026	1303521
617.092	945576
617.158	842179
617.224	795895
617.289	733162
617.355	694045
617.421	683569
617.487	677522
617.552	646303
617.618	642248
617.684	642709
617.749	640218
617.815	616699
617.880	603204
617.946	602852
618.012	614853
618.077	626221
618.143	597583
618.208	603575
618.274	643900
618.339	642793
618.405	543982
618.470	546330
618.536	544105
618.601	534453
618.667	500217
618.732	477516
618.798	468509
618.863	468256
618.928	463779
618.994	467562
619.059	462322
619.124	465075
619.190	461092
619.255	459795
619.320	460450
619.386	465852
619.451	459093
619.516	442841
619.581	453860
619.647	469988
619.712	466266
619.777	444316
619.842	451026
619.907	458800
619.972	465845
620.038	463685
620.103	450280
620.168	450095
620.233	460663
620.298	460903
620.363	464202
620.428	476755
620.493	487577
620.558	492182
620.623	497029
620.688	495669
620.753	492152
620.818	504750
620.883	504085
620.948	501785
621.013	497437
621.078	489319
621.143	496644
621.207	503574
621.272	494493
621.337	477056
621.402	474334
621.467	468893
621.532	468381
621.596	473004
621.661	457959
621.726	455451
621.791	462022
621.855	459002
621.920	453425
621.985	462644
622.049	471549
622.114	470236
622.179	478903
622.243	488629
622.308	504141
622.373	519331
622.437	508620
622.502	482954
622.566	479662
622.631	481271
622.695	488759
622.760	483552
622.824	484797
622.889	486720
622.953	486944
623.018	514240
623.082	518191
623.147	513718
623.211	503239
623.276	503361
623.340	485561
623.404	476680
623.469	475688
623.533	483835
623.597	468242
623.662	468978
623.726	436390
623.790	413458
623.854	398696
623.919	411531
623.983	415834
624.047	423415
624.111	427802
624.176	435058
624.240	435393
624.304	449869
624.368	435877
624.432	436997
624.496	447716
624.560	468150
624.625	472370
624.689	468250
624.753	487314
624.817	467181
624.881	457146
624.945	416822
625.009	405243
625.073	414474
625.137	426668
625.201	443134
625.265	441473
625.329	422985
625.393	430851
625.456	435959
625.520	447334
625.584	453092
625.648	465099
625.712	475425
625.776	467780
625.839	444448
625.903	382776
625.967	362013
626.031	383022
626.095	450366
626.158	419455
626.222	336305
626.286	317521
626.349	306884
626.413	288999
626.477	285142
626.540	292841
626.604	288611
626.668	283462
626.731	281083
626.795	282046
626.858	283696
626.922	278480
626.986	275105
627.049	277843
627.113	288695
627.176	275857
627.240	270215
627.303	273282
627.366	270041
627.430	276195
627.493	270794
627.557	265167
627.620	270671
627.684	283896
627.747	286515
627.810	262179
627.874	240095
627.937	228192
628.000	237090
628.064	230395
628.127	210888
628.190	204140
628.253	200060
628.317	193300
628.380	183941
628.443	178556
628.506	179227
628.569	171957
628.632	163090
628.696	165070
628.759	163722
628.822	156405
628.885	153698
628.948	150335
629.011	148952
629.074	145043
629.137	140616
629.200	137005
629.263	136927
629.326	134736
629.389	136251
629.452	134995
629.515	129596
629.578	129263
629.641	133067
629.704	132823
629.767	131183
629.830	127231
629.892	124623
629.955	123489
630.018	125752
630.081	125220
630.144	124395
630.207	122392
630.269	124088
630.332	119100
630.395	118839
630.458	115758
630.520	112271
630.583	114048
630.646	115206
630.708	117473
630.771	120804
630.834	126593
630.896	124776
630.959	123385
631.021	119112
631.084	120358
631.146	121000
631.209	122371
631.272	122288
631.334	125353
631.397	126045
631.459	125974
631.522	135536
631.584	139871
631.646	147704
631.709	150010
631.771	150157
631.834	144569
631.896	139825
631.958	131344
632.021	125272
632.083	120079
632.145	120326
632.208	117728
632.270	117025
632.332	115622
632.395	114735
632.457	116189
632.519	113703
632.581	112582
632.643	111242
632.706	111638
632.768	109008
632.830	112477
632.892	115137
632.954	115253
633.016	116338
633.078	115311
633.141	116018
633.203	113772
633.265	114601
633.327	113724
633.389	115269
633.451	115679
633.513	115172
633.575	118765
633.637	116418
633.698	120119
633.760	127255
633.822	132281
633.884	136005
633.946	139006
634.008	143529
634.070	149266
634.132	158748
634.193	170580
634.255	181399
634.317	185430
634.379	181407
634.441	164545
634.502	151111
634.564	138163
634.626	129932
634.687	123065
634.749	116491
634.811	117543
634.873	114458
634.934	115431
634.996	115697
635.057	115048
635.119	117106
635.181	120142
635.242	121432
635.304	119328
635.365	121468
635.427	117700
635.488	119784
635.550	117720
635.611	120997
635.673	122003
635.734	131569
635.796	138075
635.857	150233
635.918	161875
635.980	175137
636.041	186851
636.102	196866
636.164	197612
636.225	187687
636.286	167109
636.348	151788
636.409	137077
636.470	126661
636.531	122058
636.593	116004
636.654	110451
636.715	108118
636.776	106895
636.838	103554
636.899	101283
636.960	101011
637.021	97724
637.082	96689
637.143	93791
637.204	90756
637.265	92575
637.326	93298
637.387	96159
637.448	93273
637.509	92618
637.570	92366
637.631	92048
637.692	87802
637.753	86433
637.814	87178
637.875	85837
637.936	85557
637.997	86917
638.058	86050
638.119	85300
638.179	84565
638.240	85220
638.301	86600
638.362	81261
638.423	80116
638.483	79947
638.544	77370
638.605	80403
638.666	80921
638.726	79936
638.787	78468
638.848	79401
638.908	76961
638.969	74432
639.030	73632
639.090	73104
639.151	74326
639.211	75788
639.272	77324
639.332	77928
639.393	79981
639.453	86598
639.514	88212
639.574	77127
639.635	71808
639.695	71767
639.756	69730
639.816	68394
639.877	68671
639.937	71146
639.997	70098
640.058	69873
640.118	69553
640.178	71149
640.239	69863
640.299	70703
640.359	72521
640.420	79374
640.480	86866
640.540	98835
640.600	102718
640.661	94751
640.721	92531
640.781	105765
640.841	105094
640.901	77263
640.961	73548
641.021	77698
641.082	83363
641.142	75123
641.202	69740
641.262	65993
641.322	67224
641.382	65167
641.442	65705
641.502	66064
641.562	68148
641.622	69215
641.682	76340
641.742	87756
641.802	82079
641.861	69837
641.921	66112
641.981	63390
642.041	60696
642.101	60516
642.161	58979
642.221	61575
642.280	61887
642.340	61819
642.400	62332
642.460	63944
642.519	63854
642.579	64513
642.639	65629
642.698	63950
642.758	69826
642.818	67481
642.877	64553
642.937	66453
642.997	65936
643.056	66639
643.116	64822
643.175	68884
643.235	68444
643.294	70642
643.354	74603
643.414	79735
643.473	90079
643.532	103930
643.592	132393
643.651	187153
643.711	292303
643.770	514112
643.830	1001871
643.889	1401512
643.948	675899
644.008	246183
644.067	146435
644.126	109297
644.186	91879
644.245	81322
644.304	72559
644.363	73301
644.423	68545
644.482	69239
644.541	71249
644.600	75933
644.659	89799
644.719	106760
644.778	148869
644.837	234384
644.896	441458
644.955	816969
645.014	337131
645.073	124270
645.132	90434
645.191	80228
645.250	77533
645.309	80683
645.368	89259
645.427	115943
645.486	200742
645.545	322754
645.604	108046
645.663	72069
645.722	70691
645.781	73791
645.840	79080
645.898	93917
645.957	121800
646.016	170650
646.075	270030
646.134	480608
646.192	990508
646.251	1154033
646.310	414391
646.369	176785
646.427	138361
646.486	101580
646.545	78935
646.603	71328
646.662	66401
646.721	62669
646.779	63399
646.838	63498
646.896	76161
646.955	97748
647.014	145429
647.072	268040
647.131	617571
647.189	314771
647.248	83103
647.306	61077
647.365	55829
647.423	49449
647.481	51192
647.540	47602
647.598	47727
647.657	47980
647.715	47258
647.773	45680
647.832	45318
647.890	41902
647.948	41491
648.007	40939
648.065	39453
648.123	40882
648.181	41954
648.240	41990
648.298	39975
648.356	38792
648.414	38535
648.472	37569
648.531	37225
648.589	36857
648.647	37190
648.705	37009
648.763	38963
648.821	39358
648.879	40282
648.937	43919
648.995	50424
649.053	62062
649.111	85192
649.169	127679
649.227	219177
649.285	433002
649.343	904525
649.401	506026
649.459	131495
649.516	75888
649.574	61775
649.632	66391
649.690	73979
649.748	77869
649.806	111987
649.863	199829
649.921	482085
649.979	317143
650.037	68230
650.094	42139
650.152	38943
650.210	35571
650.268	38116
650.325	41065
650.383	50339
650.440	32104
650.498	28751
650.556	29491
650.613	28342
650.671	29170
650.728	30215
650.786	33876
650.843	49401
650.901	35959
650.958	27497
651.016	26155
651.073	25122
651.131	25263
651.188	23166
651.246	24251
651.303	23711
651.360	24347
651.418	23346
651.475	23266
651.532	22859
651.590	23411
651.647	22546
651.704	22717
651.762	22976
651.819	21827
651.876	23810
651.933	21040
651.990	22422
652.048	19895
652.105	20673
652.162	20885
652.219	20369
652.276	20859
652.333	21891
652.390	20609
652.448	21061
652.505	20558
652.562	19932
652.619	20856
652.676	24113
652.733	24334
652.790	19954
652.847	18734
652.904	19802
652.961	17969
653.017	18583
653.074	20304
653.131	18773
653.188	18717
653.245	18941
653.302	19038
653.359	19791
653.415	18730
653.472	18374
653.529	19519
653.586	18180
653.642	18421
653.699	19898
653.756	18484
653.813	19265
653.869	20108
653.926	19211
653.983	18443
654.039	19870
654.096	18550
654.152	19228
654.209	17266
654.266	17493
654.322	16835
654.379	18342
654.435	18963
654.492	16877
654.548	17668
654.605	18360
654.661	21422
654.717	18600
654.774	18291
654.830	18300
654.887	18358
654.943	20849
655.000	27101
655.056	21460
655.112	18961
655.168	17581
655.225	18921
655.281	18956
655.337	18228
655.394	17189
655.450	17411
655.506	17419
655.562	16126
655.618	17738
655.675	15967
655.731	17114
655.787	16231
655.843	16947
655.899	16504
655.955	17380
656.011	18522
656.067	17462
656.123	16907
656.179	16586
656.235	18504
656.291	17068
656.347	19773
656.403	17228
656.459	17294
656.515	17957
656.571	16620
656.627	16930
656.683	16430
656.739	16493
656.795	15850
656.850	16223
656.906	17107
656.962	17678
657.018	19424
657.074	23092
657.129	31383
657.185	49447
657.241	109530
657.297	55356
657.352	19914
657.408	16718
657.464	17053
657.519	16099
657.575	15040
657.630	15698
657.686	16203
657.742	15066
657.797	15585
657.853	14584
657.908	16494
657.964	14269
658.019	15677
658.075	15491
658.130	15523
658.186	14890
658.241	14816
658.297	14251
658.352	14486
658.407	15209
658.463	13965
658.518	14487
658.573	15026
658.629	13954
658.684	14720
658.739	14325
658.795	13481
658.850	14365
658.905	14139
658.960	14058
659.016	12716
659.071	14317
659.126	12917
659.181	13422
659.236	14212
659.291	13715
659.346	13401
659.401	13277
659.457	15796
659.512	16252
659.567	15017
659.622	13463
659.677	13213
659.732	12923
659.787	13070
659.842	12659
659.897	13612
659.952	13491
660.007	12458
660.061	13013
660.116	12105
660.171	12535
660.226	13232
660.281	14266
660.336	12682
660.391	13602
660.445	12556
660.500	13554
660.555	12926
660.610	12851
660.664	13116
660.719	12043
660.774	12021
660.828	13495
660.883	12202
660.938	11560
660.992	11516
661.047	12598
661.101	12172
661.156	12031
661.211	11216
661.265	11761
661.320	11405
661.374	12965
661.429	11838
661.483	12527
661.538	12100
661.592	14156
661.647	16485
661.701	22732
661.755	15325
661.810	12737
661.864	11465
661.919	12529
661.973	12455
662.027	11629
662.081	11098
662.136	12537
662.190	12332
662.244	12262
662.299	11143
662.353	11407
662.407	10847
662.461	12491
662.515	11551
662.569	10817
662.624	11060
662.678	11846
662.732	11336
662.786	11268
662.840	10963
662.894	11712
662.948	11368
663.002	11834
663.056	11530
663.110	11028
663.164	11329
663.218	11960
663.272	12104
663.326	11976
663.380	10668
663.434	11804
663.488	10703
663.542	11617
663.595	11310
663.649	11820
663.703	11821
663.757	11752
663.811	11802
663.864	11429
663.918	11362
663.972	10774
664.026	11334
664.079	12534
664.133	12239
664.187	12561
664.240	13211
664.294	13482
664.348	13616
664.401	12544
664.455	11371
664.508	11239
664.562	11531
664.615	12158
664.669	11094
664.722	10807
664.776	10213
664.829	11183
664.883	11143
664.936	11522
664.990	11623
665.043	11402
665.097	11675
665.150	13264
665.203	11500
665.257	11948
665.310	12716
665.363	12455
665.417	12382
665.470	12375
665.523	12478
665.576	13331
665.630	12622
665.683	13331
665.736	12854
665.789	12671
665.842	11636
665.895	11644
665.949	11816
666.002	12005
666.055	12821
666.108	14163
666.161	12965
666.214	12945
666.267	14110
666.320	14585
666.373	13205
666.426	14123
666.479	13475
666.532	13643
666.585	14651
666.638	13687
666.691	13690
666.744	13219
666.796	13050
666.849	12573
666.902	13536
666.955	13285
667.008	12412
667.060	13032
667.113	12646
667.166	13647
667.219	14444
667.271	15077
667.324	14307
667.377	13500
667.430	13098
667.482	14614
667.535	13645
667.587	12977
667.640	13123
667.693	12922
667.745	13871
667.798	13228
667.850	12474
667.903	13822
667.955	13644
668.008	13665
668.060	11894
668.113	12435
668.165	12970
668.218	12470
668.270	12722
668.322	12951
668.375	12759
668.427	12227
668.479	12199
668.532	13600
668.584	11724
668.636	11867
668.689	13010
668.741	11703
668.793	12678
668.845	12349
668.898	12433
668.950	12083
669.002	12359
669.054	12467
669.106	11111
669.158	12201
669.211	12207
669.263	12419
669.315	12726
669.367	11870
669.419	11882
669.471	11543
669.523	11142
669.575	11407
669.627	10787
669.679	11141
669.731	12012
669.783	11596
669.835	11705
669.886	11581
669.938	10554
669.990	10985
670.042	10573
670.094	11427
670.146	11179
670.197	11310
670.249	10311
670.301	11106
670.353	11309
670.404	11508
670.456	11058
670.508	11483
670.560	12090
670.611	13109
670.663	14761
670.715	21551
670.766	23153
670.818	14069
670.869	12902
670.921	13413
670.972	14719
671.024	13277
671.075	12551
671.127	13200
671.178	13711
671.230	14667
671.281	18031
671.333	20037
671.384	22573
671.436	30759
671.487	41618
671.538	58683
671.590	90257
671.641	144670
671.692	246421
671.744	409071
671.795	327609
671.846	157355
671.897	83335
671.949	54166
672.000	38896
672.051	29540
672.102	24329
672.153	20197
672.204	18133
672.256	15981
672.307	14977
672.358	13232
672.409	12938
672.460	12724
672.511	11775
672.562	10512
672.613	10408
672.664	10106
672.715	12091
672.766	9436
672.817	9583
672.868	9260
672.919	9332
672.970	7772
673.021	9435
673.071	9053
673.122	8886
673.173	9303
673.224	9218
673.275	8975
673.326	8640
673.376	8422
673.427	8207
673.478	8037
673.528	9238
673.579	8991
673.630	8486
673.680	9460
673.731	8239
673.782	8383
673.832	9242
673.883	7896
673.934	8378
673.984	8205
674.035	9229
674.085	8577
674.136	8198
674.186	9955
674.237	8771
674.287	9092
674.338	9740
674.388	9453
674.438	9648
674.489	10164
674.539	11049
674.589	10459
674.640	10657
674.690	9984
674.740	9666
674.791	9054
674.841	9367
674.891	8757
674.942	7045
674.992	7659
675.042	7906
675.092	7207
675.142	6376
675.193	6791
675.243	6232
675.293	7416
675.343	6731
675.393	7416
675.443	7948
675.493	8270
675.543	7551
675.593	8062
675.643	7943
675.693	8337
675.743	7362
675.793	6697
675.843	5962
675.893	6619
675.943	6272
675.993	6157
676.043	5710
676.093	6192
676.142	6810
676.192	6554
676.242	7038
676.292	6053
676.341	6560
676.391	6932
676.441	6247
676.491	6632
676.540	5677
676.590	6639
676.640	6090
676.689	6536
676.739	4494
676.789	5512
676.838	5935
676.888	5908
676.937	5128
676.987	6225
677.037	5950
677.086	5995
677.136	5120
677.185	5726
677.235	6062
677.284	5844
677.333	5721
677.383	6297
677.432	5507
677.482	6428
677.531	5293
677.580	4990
677.630	5224
677.679	4572
677.728	4981
677.778	6495
677.827	5792
677.876	5538
677.925	5876
677.975	6316
678.024	6347
678.073	6378
678.122	6699
678.171	7241
678.220	8364
678.269	8232
678.319	9590
678.368	9404
678.417	7880
678.466	7635
678.515	6764
678.564	5461
678.613	4921
678.662	4749
678.711	5243
678.760	5293
678.809	5276
678.857	5573
678.906	6545
678.955	6723
679.004	6530
679.053	7922
679.102	8516
679.151	4906
679.199	4852
679.248	5636
679.297	4919
679.346	5241
679.394	4426
679.443	4516
679.492	5305
679.540	5439
679.589	5053
679.638	4905
679.686	6275
679.735	7407
679.784	7799
679.832	9330
679.881	7694
679.929	6136
679.978	5579
680.026	6477
680.075	5872
680.123	4419
680.172	5194
680.220	5228
680.268	4903
680.317	4156
680.365	3908
680.414	3989
680.462	4243
680.510	4351
680.559	4973
680.607	3705
680.655	5736
680.703	5142
680.752	4189
680.800	4898
680.848	4815
680.896	4547
680.945	4378
680.993	4033
681.041	4008
681.089	4635
681.137	4293
681.185	4482
681.233	4540
681.258	4610
681.281	4610
681.329	4002
681.377	3719
681.380	3841
681.425	4793
681.473	5188
681.502	5580
681.521	5726
681.569	6253
681.617	6309
681.624	6359
681.665	6113
681.713	4999
681.745	6042
681.761	6446
681.809	5737
681.857	6742
681.867	6800
681.904	6691
681.952	7180
681.989	6726
682.000	6498
682.048	6044
682.096	6490
682.111	6625
682.143	6722
682.191	7073
682.233	8107
682.239	8189
682.286	7811
682.334	7607
682.354	7735
682.382	7750
682.430	8669
682.476	8051
682.477	7979
682.525	7593
682.572	7767
682.598	8096
682.620	8218
682.667	8410
682.715	9385
682.720	9390
682.763	8958
682.810	9671
682.841	9506
682.857	9292
682.905	8684
682.952	9458
682.963	9489
683.000	9340
683.047	8939
683.085	10064
683.095	10330
683.142	9824
683.190	9960
683.206	9738
683.237	9099
683.284	10040
683.328	9789
683.332	9720
683.379	9814
683.426	10346
683.449	10741
683.473	11094
683.521	10201
683.568	11476
683.571	11443
683.615	10116
683.662	11450
683.693	11086
683.709	10830
683.757	11015
683.804	11789
683.814	11790
683.851	11605
683.898	11426
683.936	11337
683.945	11308
683.992	11612
684.039	12774
684.057	12747
684.086	12403
684.133	12011
684.179	11744
684.180	11698
684.227	12755
684.274	12159
684.300	12643
684.321	13002
684.368	12068
684.415	12957
684.422	13013
684.462	13143
684.509	12972
684.543	13259
684.556	13299
684.603	14449
684.649	13991
684.665	14066
684.696	14128
684.743	14004
684.786	14810
684.790	14821
684.837	13803
684.883	13912
684.908	13963
684.930	14133
684.977	15066
685.023	15113
685.029	15167
685.070	15277
685.117	14827
685.150	15403
685.164	15543
685.210	15309
685.257	15324
685.272	15510
685.303	15939
685.350	15953
685.393	16214
685.396	16172
685.443	15215
685.490	15705
685.514	15427
685.536	15380
685.583	15346
685.629	15226
685.636	15264
685.675	15366
685.722	16256
685.757	16374
685.768	16315
685.815	16183
685.861	16203
685.878	16327
685.908	16721
685.954	16082
686.000	17095
686.000	17098
686.047	16806
686.093	17627
686.121	18082
686.139	18145
686.185	17635
686.232	17905
686.242	17922
686.278	18147
686.324	17934
686.363	17790
686.370	17768
686.416	18337
686.463	18728
686.484	18844
686.509	18684
686.555	17680
686.601	18244
686.606	18211
686.647	18242
686.693	18367
686.727	18622
686.739	18698
686.785	18525
686.831	18566
686.848	18723
686.877	18933
686.923	18870
686.969	18893
686.969	18892
687.015	19341
687.061	20875
687.090	21081
687.107	20994
687.153	21131
687.199	21121
687.211	21113
687.245	20864
687.291	19969
687.332	20135
687.336	20244
687.382	20620
687.428	21288
687.453	21681
687.474	21904
687.520	22885
687.565	23369
687.574	23422
687.611	24813
687.657	28032
687.695	29490
687.702	30183
687.748	36906
687.794	43736
687.816	44719
687.839	40933
687.885	34486
687.931	29240
687.937	28542
687.976	27076
688.022	24839
688.058	23821
688.067	23925
688.113	22954
688.158	22489
688.179	22417
688.204	22529
688.249	22334
688.295	22758
688.300	22742
688.340	23019
688.386	23599
688.421	23341
688.431	23235
688.477	23475
688.522	24019
688.542	24038
688.567	24458
688.613	25378
688.658	26098
688.663	26224
688.703	26415
688.749	25369
688.784	25056
688.794	25100
688.839	25435
688.884	25643
688.905	25754
688.930	25660
688.975	25224
689.020	24980
689.026	24956
689.065	25939
689.110	26356
689.146	27005
689.155	27194
689.201	28603
689.246	29347
689.267	29341
689.291	28253
689.336	26651
689.381	25367
689.388	25177
689.426	25770
689.471	26069
689.509	26104
689.516	26086
689.561	26218
689.606	26107
689.630	25928
689.651	25851
689.696	25729
689.741	25896
689.750	25832
689.785	26000
689.830	26502
689.871	26754
689.875	26769
689.920	26219
689.965	26049
689.992	26042
690.010	26128
690.054	26145
690.099	25633
690.112	25749
690.144	26077
690.189	25493
690.233	25244
690.233	25278
690.278	25691
690.323	26173
690.354	26229
690.367	26366
690.412	26419
690.457	26626
690.474	27021
690.501	27044
690.546	26053
690.590	25328
690.595	25184
690.635	24873
690.680	24990
690.716	24929
690.724	25002
690.769	25008
690.813	25556
690.836	25545
690.857	25880
690.902	26596
690.946	27456
690.957	27608
690.991	27633
691.035	27570
691.077	27601
691.080	27670
691.124	27994
691.168	28260
691.198	28227
691.213	28096
691.257	27846
691.301	27979
691.318	27758
691.346	27627
691.390	27884
691.434	27445
691.439	27466
691.478	28235
691.522	28110
691.559	28352
691.567	28502
691.611	29323
691.655	29500
691.680	29849
691.699	29921
691.743	29240
691.787	29654
691.800	29478
691.831	29356
691.875	29333
691.919	29418
691.921	29363
691.964	29153
692.008	29269
692.041	28978
692.052	28991
692.096	29089
692.139	29433
692.162	29282
692.183	29127
692.227	29000
692.271	29079
692.282	29016
692.315	29166
692.359	28775
692.402	29042
692.403	29099
692.447	29037
692.490	29335
692.523	29313
692.534	29290
692.578	29488
692.622	29287
692.643	29161
692.666	29348
692.709	29837
692.753	30125
692.763	30088
692.797	29905
692.840	29860
692.884	29785
692.884	29842
692.928	29667
692.971	29718
693.004	29264
693.015	29294
693.059	29758
693.102	30202
693.124	30240
693.146	30445
693.189	30952
693.233	31443
693.245	31512
693.276	31348
693.320	31075
693.363	30473
693.365	30396
693.407	30540
693.450	30704
693.485	30731
693.493	30778
693.537	30768
693.580	30466
693.605	30637
693.624	30758
693.667	29902
693.710	29774
693.725	29691
693.753	29891
693.797	29508
693.840	29701
693.845	29630
693.883	30018
693.926	30372
693.966	30618
693.970	30713
694.013	31154
694.056	31455
694.086	31584
694.099	31581
694.142	31524
694.185	31413
694.206	31347
694.229	31728
694.272	32223
694.315	32603
694.326	32574
694.358	32408
694.401	32463
694.444	32626
694.446	32543
694.487	32530
694.530	32609
694.566	32574
694.573	32678
694.616	33078
694.659	33486
694.686	33519
694.702	33668
694.745	34270
694.787	34474
694.806	34492
694.830	34639
694.873	34942
694.916	34962
694.926	35005
694.959	35657
695.002	36009
695.044	36424
695.046	36371
695.087	37134
695.130	37395
695.166	37684
695.172	37761
695.215	37756
695.258	37992
695.286	37669
695.301	38057
695.343	39276
695.386	40684
695.406	41087
695.428	42543
695.471	45488
695.514	48376
695.526	49128
695.556	52054
695.599	56048
695.641	59735
695.646	60010
695.684	56850
695.726	53185
695.766	49750
695.769	49798
695.811	48647
695.854	47668
695.886	46815
695.896	47144
695.938	47938
695.981	48926
696.005	49252
696.023	50439
696.065	53251
696.108	56058
696.125	57109
696.150	58133
696.192	59473
696.235	60720
696.245	60940
696.277	61032
696.319	60912
696.361	60740
696.365	60582
696.404	59622
696.446	58376
696.485	57175
696.488	57302
696.530	57135
696.572	56878
696.604	56702
696.614	56890
696.656	56987
696.698	57029
696.724	56921
696.740	57452
696.783	58514
696.825	59789
696.844	60083
696.867	60093
696.909	59992
696.951	59781
696.964	59634
696.992	60419
697.034	61125
697.076	61939
697.083	61949
697.118	63718
697.160	65496
697.202	67265
697.203	67150
697.244	66401
697.286	65579
697.323	64457
697.327	64633
697.369	64927
697.411	65176
697.442	65200
697.453	65420
697.494	65802
697.536	66012
697.562	65994
697.578	66032
697.620	65705
697.661	65430
697.682	65118
697.703	66314
697.744	68388
697.786	70434
697.801	71006
697.828	70951
697.869	70518
697.911	70120
697.921	69872
697.952	69706
697.994	69128
698.035	68590
698.040	68352
698.077	69165
698.118	69900
698.160	70618
698.160	70444
698.201	72272
698.243	73966
698.279	75305
698.284	75699
698.325	77576
698.367	79457
698.399	80716
698.408	81089
698.449	81830
698.491	82627
698.518	82938
698.532	83102
698.573	82948
698.614	82793
698.638	82498
698.656	82607
698.697	82381
698.738	82110
698.757	81791
698.779	81766
698.820	81297
698.862	80840
698.877	80463
698.903	80978
698.944	81463
698.985	81954
698.996	81879
699.026	82177
699.067	82301
699.116	82236
699.235	80872
699.354	81547
699.474	75294
699.593	74110
699.713	74163
699.832	76048
699.951	81005
700.070	77591
700.190	72694
700.309	69851
700.428	69620
700.547	67974
700.667	67681
700.786	68314
700.905	65061
701.024	67546
701.143	64868
701.262	69924
701.381	69866
701.500	72530
701.619	67728
701.738	69969
701.857	68310
701.976	63462
702.095	66970
702.214	69834
702.333	66154
702.452	69034
702.571	69395
702.690	67726
702.809	69508
702.928	64952
703.047	60285
703.165	62752
703.284	62396
703.403	62230
703.522	61145
703.640	59155
703.759	59042
703.878	56899
703.997	59484
704.115	60164
704.234	59166
704.353	60607
704.471	55382
704.590	54802
704.708	54737
704.827	54026
704.946	54592
705.064	53738
705.183	53705
705.301	54348
705.420	51276
705.538	51159
705.656	48837
705.775	50232
705.893	67274
706.012	68881
706.130	49187
706.249	51415
706.367	47038
706.485	50472
706.604	46835
706.722	49016
706.840	63337
706.958	102283
707.077	67488
707.195	47106
707.313	46632
707.431	42652
707.549	43166
707.668	40733
707.786	46723
707.904	42692
708.022	46796
708.140	44074
708.258	41447
708.376	46224
708.494	40151
708.612	44010
708.730	44763
708.848	41849
708.966	44349
709.084	43957
709.202	43392
709.320	38954
709.438	39899
709.556	40164
709.674	36666
709.791	37885
709.909	37197
710.027	36392
710.145	36104
710.263	36815
710.380	36975
710.498	36336
710.616	35997
710.733	33249
710.851	35067
710.969	35012
711.086	33793
711.204	35693
711.322	34421
711.439	35236
711.557	32511
711.674	32606
711.792	34281
711.909	33531
712.027	35586
712.144	31936
712.262	32128
712.379	33402
712.497	32601
712.614	31434
712.732	33389
712.849	31340
712.966	32849
713.084	34660
713.201	29424
713.318	33512
713.436	35395
713.553	32241
713.670	37814
713.787	36216
713.905	34193
714.022	35937
714.139	40278
714.256	47613
714.373	69573
714.490	124172
714.608	308802
714.725	969127
714.842	821985
714.959	156014
715.076	67123
715.193	49928
715.310	42377
715.427	33691
715.544	35423
715.661	32667
715.778	30938
715.895	30857
716.011	30835
716.128	29195
716.245	29806
716.362	28557
716.479	24536
716.596	26703
716.713	29100
716.829	26058
716.946	25072
717.063	24082
717.180	23957
717.296	24420
717.413	24789
717.530	23558
717.646	22790
717.763	23415
717.880	23879
717.996	22276
718.113	23409
718.229	22774
718.346	20953
718.462	21450
718.579	23238
718.695	22301
718.812	22017
718.928	21916
719.045	21629
719.161	22485
719.277	23735
719.394	24662
719.510	24509
719.626	27772
719.743	34339
719.859	54220
719.975	113283
720.092	402713
720.208	694448
720.324	122772
720.440	40419
720.557	29840
720.673	26466
720.789	23883
720.905	22695
721.021	21769
721.137	20406
721.253	18394
721.369	20295
721.486	20872
721.602	19046
721.718	19014
721.834	19847
721.950	19463
722.066	18620
722.181	18759
722.297	18961
722.413	18669
722.529	18921
722.645	18336
722.761	18436
722.877	20125
722.993	22672
723.108	30102
723.224	25530
723.340	20200
723.456	19283
723.571	17429
723.687	16641
723.803	17485
723.918	18440
724.034	16428
724.150	17372
724.265	17003
724.381	16113
724.497	16181
724.612	16246
724.728	17384
724.843	16264
724.959	16543
725.074	17320
725.190	16963
725.305	16169
725.421	15284
725.536	17330
725.651	17504
725.767	15999
725.882	16416
725.997	15031
726.113	17499
726.228	16101
726.343	16354
726.459	15923
726.574	15733
726.689	16187
726.804	15583
726.920	16169
727.035	16635
727.150	15715
727.265	15169
727.380	16547
727.495	16467
727.610	15334
727.725	14765
727.841	18066
727.956	26610
728.071	20175
728.186	15777
728.301	14535
728.416	16696
728.531	16277
728.645	14502
728.760	15029
728.875	15635
728.990	15316
729.105	14522
729.220	14771
729.335	16052
729.449	15374
729.564	15456
729.679	15376
729.794	16514
729.908	15650
730.023	14396
730.138	16711
730.253	17114
730.367	15483
730.482	15948
730.596	16808
730.711	21285
730.826	33853
730.940	38283
731.055	23194
731.169	23011
731.284	23791
731.398	23948
731.513	25756
731.627	29049
731.742	35854
731.856	47600
731.970	49428
732.085	63713
732.199	92988
732.313	166560
732.428	389012
732.542	839614
732.656	481247
732.771	139758
732.885	77497
732.999	63457
733.113	63068
733.227	57972
733.342	54567
733.456	52777
733.570	49625
733.684	47246
733.798	44234
733.912	45314
734.026	46395
734.140	44298
734.254	43624
734.368	42712
734.482	41937
734.596	41989
734.710	40570
734.824	39840
734.938	39607
735.052	40900
735.166	39941
735.280	40188
735.393	39685
735.507	39146
735.621	38510
735.735	35573
735.849	39004
735.962	34359
736.076	38275
736.190	35989
736.303	36785
736.417	36225
736.531	33073
736.644	36836
736.758	34596
736.872	33781
736.985	34161
737.099	33043
737.212	34256
737.326	32929
737.439	35156
737.553	31410
737.666	34319
737.780	30843
737.893	34133
738.007	31053
738.120	34374
738.233	28808
738.347	32976
738.460	29007
738.573	34056
738.687	29403
738.800	32136
738.913	31846
739.026	29958
739.140	29821
739.253	31389
739.366	29266
739.479	29341
739.592	29547
739.705	26981
739.818	32720
739.932	27765
740.045	29228
740.158	27996
740.271	29691
740.384	28671
740.497	25208
740.610	28861
740.723	26449
740.836	27057
740.949	26909
741.062	30716
741.174	25971
741.287	26483
741.400	27698
741.513	23715
741.626	28903
741.739	25679
741.851	25504
741.964	27872
742.077	25062
742.189	22737
742.302	26061
742.415	25606
742.527	24749
742.640	24850
742.753	21762
742.865	24879
742.978	22690
743.090	22104
743.203	24218
743.316	22629
743.428	22372
743.541	24741
743.653	20774
743.766	24302
743.878	23228
743.990	20980
744.103	24096
744.215	21951
744.327	20675
744.440	25513
744.552	21397
744.664	20461
744.777	24119
744.889	21578
745.001	19380
745.113	23801
745.226	20568
745.338	18764
745.450	24420
745.562	20628
745.674	18683
745.786	23465
745.898	21658
746.010	19643
746.122	21217
746.234	21412
746.347	19569
746.459	20576
746.570	16706
746.682	21789
746.794	23033
746.906	17823
747.018	18616
747.130	20818
747.242	17420
747.354	18827
747.466	19691
747.577	18024
747.689	19350
747.801	20276
747.913	17045
748.024	17808
748.136	18635
748.248	16913
748.359	17626
748.471	19920
748.583	16796
748.694	17400
748.806	19728
748.918	16703
749.029	17114
749.141	18624
749.252	18219
749.364	15767
749.475	15435
749.587	15241
749.698	14647
749.809	17549
749.921	15949
750.032	16122
750.144	15589
750.255	15549
750.366	16517
750.478	15076
750.589	15535
750.700	15430
750.811	16784
750.923	14349
751.034	13927
751.145	16806
751.256	14808
751.367	14273
751.479	15708
751.590	14728
751.701	14376
751.812	13009
751.923	13649
752.034	17776
752.145	17128
752.256	15134
752.367	14556
752.478	14457
752.589	15314
752.700	15290
752.811	13525
752.922	14635
753.032	15542
753.143	15433
753.254	14018
753.365	17066
753.476	17577
753.586	14654
753.697	14909
753.808	14222
753.919	12862
754.029	14172
754.140	12727
754.251	13779
754.361	13925
754.472	14874
754.582	13587
754.693	13445
754.804	15050
754.914	13573
755.025	11372
755.135	14034
755.246	15470
755.356	13267
755.466	11796
755.577	13296
755.687	12759
755.798	12268
755.908	12322
756.018	13310
756.129	13537
756.239	13667
756.349	14458
756.460	15109
756.570	15825
756.680	13787
756.790	13577
756.900	13633
757.011	11710
757.121	11088
757.231	11820
757.341	13530
757.451	11271
757.561	11086
757.671	12787
757.781	13875
757.891	11630
758.001	11334
758.111	13148
758.221	14214
758.331	14940
758.441	14437
758.551	13325
758.661	15801
758.771	14888
758.880	13722
758.990	13818
759.100	14039
759.210	14104
759.320	13714
759.429	14275
759.539	15765
759.649	16515
759.758	20274
759.868	19993
759.978	19552
760.087	21479
760.197	21282
760.307	20142
760.416	19201
760.526	17223
760.635	18480
760.745	20186
760.854	21471
760.964	25269
761.073	25103
761.182	23525
761.292	20645
761.401	17233
761.511	15433
761.620	13128
761.729	14266
761.839	11964
761.948	11893
762.057	11591
762.166	13751
762.276	11538
762.385	12485
762.494	12193
762.603	11447
762.712	12264
762.822	11768
762.931	9967
763.040	10016
763.149	10605
763.258	10702
763.367	10109
763.476	9295
763.585	9926
763.694	10214
763.803	9810
763.912	9968
764.021	8567
764.130	9605
764.238	10291
764.347	11839
764.456	12181
764.565	10803
764.674	9841
764.783	10356
764.891	9556
765.000	9653
765.109	8769
765.217	8171
765.326	8536
765.435	8454
765.543	9541
765.652	8057
765.761	8375
765.869	8344
765.978	7744
766.086	9551
766.195	9733
766.303	10436
766.412	16893
766.520	15819
766.629	8805
766.737	9358
766.846	9884
766.954	8344
767.062	10280
767.171	11469
767.279	11197
767.387	9288
767.496	7627
767.604	6947
767.712	8561
767.820	7777
767.928	7642
768.037	7825
768.145	9163
768.253	8423
768.361	8473
768.469	8522
768.577	7151
768.685	8022
768.793	9316
768.901	8892
769.009	9103
769.117	8681
769.225	8789
769.333	9421
769.441	9424
769.549	9335
769.657	10049
769.765	10536
769.873	15758
769.981	10478
770.088	9769
770.196	9962
770.304	9813
770.412	10922
770.519	10364
770.627	11877
770.735	10824
770.842	11661
770.950	11388
771.058	12357
771.165	15666
771.273	18089
771.380	18675
771.488	24981
771.595	30705
771.703	25098
771.810	23265
771.918	23576
772.025	30042
772.133	34204
772.240	31211
772.348	36025
772.455	34763
772.562	31930
772.670	30193
772.777	32137
772.884	31424
772.991	28900
773.099	31882
773.206	28497
773.313	29679
773.420	29915
773.528	29091
773.635	27595
773.742	30650
773.849	27087
773.956	30012
774.063	26777
774.170	29224
774.277	28789
774.384	27794
774.491	26531
774.598	27537
774.705	26395
774.812	27369
774.919	26843
775.026	27624
775.133	26780
775.239	26074
775.346	25587
775.453	25361
775.560	25125
775.667	26525
775.773	24677
775.880	25090
775.987	24574
776.093	24801
776.200	28910
776.307	20723
776.413	21553
776.520	28717
776.627	22899
776.733	21321
776.840	21263
776.946	29530
777.053	23823
777.159	21952
777.266	21670
777.372	21537
777.478	24575
777.585	23693
777.691	20003
777.798	25177
777.904	21269
778.010	21852
778.117	23230
778.223	20345
778.329	22659
778.435	18844
778.542	23466
778.648	20575
778.754	18826
778.860	20879
778.966	21516
779.072	20330
779.178	21436
779.284	16411
779.391	18574
779.497	21573
779.603	21106
779.708	18380
779.815	17385
779.920	20203
780.026	17330
780.132	18568
780.238	18094
780.344	15573
780.450	22635
780.556	15350
780.661	16549
780.767	21270
780.873	13771
780.979	16418
781.085	21212
781.190	17351
781.296	16561
781.402	18212
781.507	19021
781.613	13489
781.719	16774
781.824	19161
781.930	16243
782.035	17318
782.141	20664
782.246	13933
782.352	15056
782.457	17367
782.563	16667
782.668	16847
782.773	14187
782.879	14430
782.984	16284
783.090	15147
783.195	16021
783.300	18381
783.405	15440
783.511	12672
783.616	14497
783.721	15150
783.826	15120
783.932	12980
784.037	14796
784.142	16456
784.247	14052
784.352	15390
784.457	11763
784.562	15460
784.667	16544
784.772	12003
784.877	11664
784.982	16373
785.087	15838
785.192	11833
785.297	13009
785.402	14342
785.507	13379
785.611	13329
785.716	10765
785.821	13407
785.926	14902
786.031	13290
786.135	13318
786.240	13149
786.345	10194
786.450	10990
786.554	12708
786.659	12286
786.763	11657
786.868	13592
786.973	14190
787.077	11730
787.182	10730
787.286	13729
787.391	15105
787.495	10009
787.600	9550
787.704	11188
787.809	13248
787.913	11294
788.017	12821
788.122	13410
788.226	11723
788.330	8621
788.435	12091
788.539	13527
788.643	11462
788.747	8596
788.852	11363
788.956	11528
789.060	11985
789.164	11304
789.268	10730
789.372	12571
789.476	10842
789.580	8809
789.684	9177
789.788	12481
789.892	11549
789.996	8505
790.100	8279
790.204	11820
790.308	12989
790.412	8970
790.516	8657
790.620	10456
790.724	12591
790.828	10466
790.931	6217
791.035	9633
791.139	10108
791.242	10844
791.346	10261
791.450	11177
791.554	9416
791.657	7394
791.761	9740
791.864	11279
791.968	11108
792.072	11509
792.175	8464
792.279	8098
792.382	8186
792.486	7445
792.589	9922
792.693	10717
792.796	7559
792.899	10183
793.003	11139
793.106	8047
793.209	9573
793.313	8324
793.416	5908
793.519	8519
793.623	11740
793.726	10457
793.829	7490
793.932	6553
794.035	6539
794.138	10779
794.242	12328
794.345	7083
794.448	7235
794.551	6238
794.654	10487
794.757	8439
794.860	8156
794.963	8847
795.066	6870
795.169	10061
795.272	8126
795.375	9616
795.477	6490
795.580	6841
795.683	6469
795.786	10094
795.889	7630
795.991	8489
796.094	7891
796.197	6653
796.300	8992
796.402	8921
796.505	7009
796.608	6110
796.710	7714
796.813	9404
796.915	9906
797.018	9462
797.120	9340
797.223	7174
797.326	10345
797.428	7293
797.530	6057
797.633	6804
797.735	10345
797.838	8659
797.940	9383
798.042	7492
798.145	6997
798.247	6854
798.349	5071
798.452	8381
798.554	8769
798.656	8832
798.758	10620
798.860	8988
798.962	8243
799.065	6867
799.167	5952
799.269	8352
799.371	8800
799.473	11924
799.575	9499
799.677	7599
799.779	7857
799.881	6391
799.983	9634
800.085	6964
800.187	8073
800.289	5053
800.390	7804
800.492	9577
800.594	7825
800.696	5830
800.798	5959
800.899	6345
801.001	7071
801.103	7999
801.205	7033
801.306	7893
801.408	7558
801.509	7217
801.611	8215
801.713	7582
801.814	5735
801.916	5231
802.017	5671
802.119	5180
802.220	6817
802.322	5857
802.423	7900
802.525	5515
802.626	6222
802.727	6966
802.829	7920
802.930	3012
803.031	6872
803.133	5800
803.234	6941
803.335	7276
803.436	5840
803.538	6460
803.639	5901
803.740	5890
803.841	6056
803.942	7228
804.043	6616
804.144	5980
804.245	5881
804.346	5357
804.447	5088
804.548	5418
804.649	6446
804.750	4794
804.851	5615
804.952	5702
805.053	5123
805.154	4704
805.255	6498
805.355	6236
805.456	5123
805.557	5172
805.658	4840
805.758	6251
805.859	5505
805.960	5650
806.061	5624
806.161	5565
806.262	5496
806.362	4574
806.463	4997
806.564	7165
806.664	6014
806.765	5101
806.865	4781
806.966	3930
807.066	4789
807.166	6424
807.267	6855
807.367	4265
807.468	6844
807.568	3439
807.668	5941
807.769	6542
807.869	5588
807.969	5222
808.069	5633
808.170	4286
808.270	5151
808.370	5938
808.470	5614
808.570	4578
808.670	5060
808.770	4535
808.870	4710
808.970	5356
809.070	4622
809.170	4486
809.271	5870
809.370	4915
809.470	5293
809.570	4338
809.670	3540
809.770	5166
809.870	6104
809.970	5110
810.070	6405
810.169	5411
810.269	4125
810.369	6468
810.469	5899
810.568	5129
810.668	5346
810.768	5429
810.867	5086
810.967	3993
811.066	4812
811.166	5006
811.265	5327
811.365	5232
811.464	5300
811.564	4563
811.663	5893
811.763	3622
811.862	5847
811.962	5637
812.061	5500
812.160	4752
812.260	4943
812.359	4923
812.458	5721
812.557	6209
812.657	5372
812.756	5614
812.855	5996
812.954	4434
813.053	5167
813.153	4919
813.252	4595
813.351	6136
813.450	6092
813.549	4958
813.648	5734
813.747	4918
813.846	6639
813.945	6192
814.044	6202
814.143	5752
814.242	5784
814.341	5997
814.439	7256
814.538	6739
814.637	6993
814.736	6752
814.835	7833
814.933	6623
815.032	9675
815.131	11848
815.229	21265
815.328	29989
815.427	21447
815.525	20607
815.624	19103
815.722	18447
815.821	20028
815.919	19476
816.018	19413
816.116	19580
816.215	19946
816.313	20603
816.412	25196
816.510	26023
816.609	26566
816.707	28645
816.805	26458
816.904	25368
817.002	26054
817.100	26514
817.198	27985
817.296	23501
817.395	25092
817.493	24486
817.591	23895
817.689	23112
817.787	24852
817.885	23532
817.983	20929
818.081	21793
818.179	21946
818.277	25038
818.375	21534
818.473	21684
818.571	19242
818.669	21327
818.767	24069
818.865	20961
818.963	17631
819.061	21534
819.158	20517
819.256	24542
819.354	18923
819.452	20209
819.549	18920
819.647	23141
819.745	18416
819.842	18508
819.940	21592
820.038	19063
820.135	16773
820.233	21207
820.330	19452
820.428	18333
820.525	21025
820.623	17846
820.720	16492
820.818	18263
820.915	19783
821.012	18167
821.110	16684
821.207	18767
821.304	17144
821.402	19737
821.499	19075
821.596	15068
821.693	18072
821.791	17948
821.888	17095
821.985	19302
822.082	14829
822.179	17629
822.276	19201
822.373	15169
822.470	16111
822.567	17808
822.664	15986
822.761	16438
822.858	18531
822.955	15954
823.052	14333
823.149	16709
823.246	17909
823.343	13666
823.440	14371
823.536	17811
823.633	17186
823.730	13616
823.827	15871
823.923	15201
824.020	13657
824.117	17608
824.213	17481
824.310	13874
824.407	12483
824.503	16766
824.600	14500
824.696	11911
824.793	17209
824.889	16797
824.986	13651
825.082	11288
825.179	12325
825.275	16536
825.371	17917
825.468	11671
825.564	8638
825.660	15314
825.757	18706
825.853	13223
825.949	12388
826.045	11819
826.142	14717
826.238	15635
826.334	14632
826.430	14423
826.526	9685
826.622	9223
826.718	15600
826.814	17202
826.910	14435
827.006	7425
827.102	9822
827.198	13973
827.294	16046
827.390	13543
827.486	11783
827.582	9436
827.678	10134
827.774	16029
827.869	10663
827.965	10481
828.061	9280
828.157	14917
828.252	14712
828.348	11861
828.444	10121
828.539	10756
828.635	13144
828.731	13187
828.826	10031
828.922	12847
829.017	14360
829.113	14425
829.208	10024
829.304	12864
829.399	15715
829.495	12567
829.590	10358
829.685	11432
829.781	13515
829.876	14570
829.971	7107
830.066	7429
830.162	10497
830.257	16590
830.352	12273
830.447	9057
830.543	9320
830.638	12134
830.733	14649
830.828	10036
830.923	12073
831.018	12357
831.113	14073
831.208	9198
831.303	7361
831.398	7686
831.493	11440
831.588	16553
831.683	10186
831.778	7965
831.873	8776
831.967	12092
832.062	11885
832.157	10166
832.252	9695
832.346	9447
832.441	12126
832.536	11226
832.631	10510
832.725	8137
832.820	9802
832.914	9638
833.009	8907
833.104	7128
833.198	7247
833.293	9765
833.387	12122
833.482	10973
833.576	10982
833.670	9322
833.765	10050
833.859	12099
833.954	11085
834.048	9390
834.142	8494
834.237	6068
834.331	8349
834.425	10612
834.519	8348
834.613	7465
834.708	7699
834.802	7961
834.896	8788
834.990	9794
835.084	7434
835.178	7020
835.272	8641
835.366	10754
835.460	11162
835.554	8756
835.648	6349
835.742	4770
835.836	6501
835.930	8411
836.024	10233
836.117	7340
836.211	7817
836.305	6313
836.399	6417
836.493	7002
836.586	9380
836.680	7976
836.774	6655
836.867	7653
836.961	6195
837.055	5933
837.148	6679
837.242	7274
837.335	7599
837.429	7062
837.522	6248
837.616	6097
837.709	6979
837.803	6762
837.896	9857
837.989	8964
838.083	5613
838.176	4641
838.269	4922
838.363	6130
838.456	6317
838.549	8711
838.642	6993
838.735	6811
838.829	7845
838.922	6429
839.015	6521
839.108	5862
839.201	6524
839.294	7755
839.387	6758
839.480	4459
839.573	6034
839.666	4492
839.759	7015
839.852	5272
839.945	8084
840.038	6311
840.131	5253
840.223	5320
840.316	7106
840.409	7291
840.502	8342
840.594	7823
840.687	3995
840.780	4300
840.873	3794
840.965	5050
841.058	6554
841.150	8009
841.243	4057
841.336	4524
841.428	6000
841.521	4825
841.613	5767
841.706	5240
841.798	4926
841.890	6326
841.983	4176
842.075	4462
842.167	4897
842.260	6226
842.352	7547
842.444	6712
842.537	3784
842.629	3867
842.721	3560
842.813	6388
842.905	5005
842.997	6293
843.090	6528
843.182	5401
843.274	3955
843.366	4480
843.458	5557
843.550	6862
843.642	5959
843.734	5876
843.826	4679
843.918	3963
844.009	6024
844.101	5246
844.193	5503
844.285	6094
844.377	6397
844.469	4043
844.560	2880
844.652	3684
844.744	4002
844.835	5528
844.927	6052
845.019	6657
845.110	4518
845.202	6092
845.293	4718
845.385	3458
845.476	5452
845.568	6229
845.659	5095
845.751	5175
845.842	4631
845.934	5408
846.025	5082
846.116	4973
846.208	4712
846.299	2984
846.390	2991
846.482	4328
846.573	6200
846.664	4733
846.755	4783
846.846	6086
846.937	3144
847.029	4457
847.120	4284
847.211	4150
847.302	6459
847.393	4832
847.484	5720
847.575	2233
847.666	3003
847.757	3475
847.847	5098
847.938	5607
848.029	6365
848.120	4872
848.211	4206
848.302	3426
848.392	3398
848.483	4920
848.574	5074
848.664	4682
848.755	5607
848.846	3718
848.936	4809
849.027	5808
849.118	6100
849.208	5290
849.299	7888
849.389	11700
849.480	18288
849.570	32424
849.661	60663
849.751	88785
849.841	35505
849.932	9890
850.022	6412
850.112	5448
850.203	5283
850.293	4597
850.383	4924
850.474	4516
850.564	3420
850.654	3758
850.744	3427
850.834	3852
850.924	5783
851.014	6563
851.104	5156
851.194	4403
851.284	4026
851.374	3678
851.464	4400
851.554	4046
851.644	4027
851.734	4305
851.824	5075
851.914	5003
852.004	5663
852.094	3533
852.183	3101
852.273	4505
852.363	4390
852.452	5283
852.542	4991
852.632	4134
852.721	4453
852.811	4322
852.901	6723
852.990	6938
853.080	5906
853.169	6148
853.259	6821
853.348	6576
853.438	8261
853.527	10386
853.617	14169
853.706	21969
853.795	36369
853.885	65456
853.974	106942
854.063	174786
854.152	205532
854.242	106328
854.331	41069
854.420	22218
854.509	16022
854.598	12322
854.687	9864
854.777	9183
854.866	6495
854.955	6085
855.044	5672
855.133	5441
855.222	5287
855.311	4618
855.400	4759
855.488	4375
855.577	4687
855.666	3926
855.755	5375
855.844	5105
855.933	4825
856.021	5225
856.110	4882
856.199	4470
856.288	3285
856.376	3500
856.465	3588
856.554	4225
856.642	4868
856.731	5359
856.819	4995
856.908	4375
856.996	5061
857.085	3860
857.173	4020
857.262	4164
857.350	2814
857.438	3332
857.527	3957
857.615	4599
857.703	4854
857.792	4622
857.880	3347
857.968	3520
858.056	3567
858.145	3837
858.233	4568
858.321	2866
858.409	4382
858.497	3994
858.585	4184
858.673	3351
858.761	3336
858.849	3513
858.937	2356
859.025	4251
859.113	4551
859.201	4473
859.289	5120
859.377	5058
859.465	3845
859.552	3499
859.640	4242
859.728	4069
859.816	4406
859.903	3592
859.991	3013
860.079	4218
860.166	3216
860.254	4163
860.342	4577
860.429	2218
860.517	3692
860.604	3543
860.692	3002
860.779	2257
860.867	4069
860.954	4563
861.042	4552
861.129	5313
861.216	4471
861.304	5159
861.391	4584
861.478	2971
861.565	4480
861.653	4790
861.740	3439
861.827	3684
861.914	5002
862.001	4200
862.089	5782
862.176	4304
862.263	3759
862.350	4014
862.437	3773
862.524	4534
862.611	3950
862.698	4929
862.785	4898
862.871	5851
862.958	5449
863.045	4578
863.132	4940
863.219	4315
863.306	3467
863.392	4620
863.479	4623
863.566	3438
863.652	4928
863.739	4766
863.826	5702
863.912	5839
863.999	5722
864.086	5436
864.172	5445
864.259	6446
864.345	6639
864.432	6677
864.518	7046
864.604	6254
864.691	6160
864.777	7391
864.863	8888
864.950	12558
865.036	17533
865.122	28438
865.209	28927
865.295	26844
865.381	25766
865.467	23963
865.553	25472
865.639	29373
865.726	36600
865.812	51791
865.898	75158
865.984	103944
866.070	154878
866.156	145992
866.242	69849
866.328	37576
866.414	27834
866.499	26179
866.585	24423
866.671	22099
866.757	22460
866.843	20922
866.928	21068
867.014	20184
867.100	20667
867.186	20395
867.271	19056
867.357	21222
867.442	18660
867.528	18823
867.614	18995
867.699	18645
867.785	18825
867.870	17546
867.956	19107
868.041	18902
868.127	18177
868.212	17324
868.297	17568
868.383	18130
868.468	17313
868.553	19341
868.639	17817
868.724	17293
868.809	18543
868.894	16574
868.979	17069
869.065	17415
869.150	14482
869.235	17323
869.320	17803
869.405	15563
869.490	18011
869.575	16553
869.660	13824
869.745	17283
869.830	18166
869.915	15041
870.000	15573
870.085	15481
870.169	18786
870.254	19441
870.339	13097
870.424	13959
870.509	16175
870.593	18286
870.678	17526
870.763	14905
870.847	13230
870.932	16932
871.016	16454
871.101	10998
871.186	15768
871.270	18437
871.355	12662
871.439	13820
871.523	16379
871.608	12864
871.692	13027
871.777	17113
871.861	15808
871.945	13755
872.030	15613
872.114	14502
872.198	13172
872.282	12581
872.367	13624
872.451	13305
872.535	14327
872.619	14894
872.703	12792
872.787	14458
872.871	14225
872.955	11728
873.039	10092
873.123	14377
873.207	14536
873.291	9344
873.375	11736
873.459	14804
873.543	13143
873.627	10912
873.711	11340
873.794	14432
873.878	13398
873.962	9126
874.045	12699
874.129	11366
874.137	11444
874.213	12225
874.245	12221
874.296	12231
874.352	10739
874.380	10012
874.460	11918
874.464	11998
874.547	10542
874.568	10915
874.631	12025
874.676	12143
874.714	12247
874.784	13007
874.798	13162
874.881	9792
874.892	9655
874.965	8785
874.999	10219
875.048	12153
875.107	11294
875.131	10962
875.215	8093
875.215	8091
875.298	8282
875.323	9108
875.381	11079
875.430	12616
875.465	13718
875.538	12198
875.548	11978
875.631	8460
875.646	8323
875.714	7711
875.753	8213
875.798	8835
875.861	10962
875.881	11591
875.964	9763
875.968	9695
876.047	8599
876.076	9072
876.130	9955
876.183	10758
876.213	11219
876.291	11426
876.296	11423
876.379	8835
876.398	8651
876.462	8260
876.506	7716
876.545	7131
876.613	8099
876.628	8344
876.711	8352
876.721	8575
876.794	10220
876.828	10165
876.877	9967
876.935	8073
876.960	7330
877.043	7871
877.043	7877
877.125	8809
877.150	9264
877.208	10315
877.258	8596
877.291	7434
877.365	6992
877.374	6920
877.456	7546
877.472	7335
877.539	6766
877.579	7928
877.622	8931
877.687	8934
877.704	9016
877.787	8621
877.794	8686
877.869	9016
877.901	8904
877.952	8697
878.008	6651
878.034	5710
878.115	6447
878.117	6462
878.199	6351
878.222	6710
878.282	7646
878.329	8207
878.364	8512
878.437	8371
878.447	8328
878.529	5858
878.544	5835
878.611	6060
878.651	6795
878.694	7442
878.758	7140
878.776	7094
878.858	7706
878.865	7674
878.941	6637
878.972	5611
879.023	4390
879.078	5921
879.105	6628
879.185	7526
879.187	7535
879.269	7019
879.292	7072
879.351	6917
879.399	5838
879.433	5214
879.506	6352
879.516	6482
879.598	6318
879.613	6096
879.680	5347
879.720	6498
879.762	7493
879.827	6283
879.844	5936
879.926	5223
879.933	5282
880.007	6087
880.040	5726
880.089	5015
880.147	5532
880.171	5890
880.253	6729
880.254	6732
880.335	5355
880.360	5558
880.417	6346
880.467	6508
880.499	6454
880.574	5973
880.580	5964
880.662	6647
880.680	6387
880.744	4644
880.787	4346
880.825	4474
880.893	5513
880.907	5664
880.989	4705
881.000	4847
881.070	5974
881.106	6092
881.152	5840
881.213	4501
881.233	4155
881.315	4885
881.319	4888
881.396	5189
881.426	5325
881.478	5246
881.532	6030
881.559	6469
881.639	5345
881.641	5291
881.722	4488
881.745	4462
881.803	5239
881.852	5303
881.885	5070
881.958	4185
881.966	4084
882.047	4378
882.064	4337
882.129	4098
882.171	3587
882.210	3132
882.277	3356
882.291	3469
882.372	4532
882.383	4742
882.454	5932
882.489	5599
882.535	5125
882.596	5962
882.616	6121
882.697	4727
882.702	4662
882.778	3690
882.808	3537
882.859	3154
882.914	3067
882.940	3099
883.020	3695
883.021	3696
883.102	4211
883.127	4653
883.183	5698
883.233	5356
883.264	4670
883.339	3321
883.345	3227
883.426	2655
883.445	2674
883.507	3178
883.551	3637
883.587	4061
883.657	4644
883.668	4669
883.749	4231
883.763	4164
883.830	3443
883.869	3139
883.910	2959
883.975	3267
883.991	3416
884.072	3950
884.081	4016
884.152	5021
884.187	5463
884.233	5421
884.292	4534
884.314	4040
884.394	2425
884.398	2383
884.475	2250
884.504	2377
884.555	2621
884.610	3003
884.636	3113
884.716	3476
884.716	3473
884.797	5105
884.821	5251
884.877	4294
884.927	3880
884.958	3642
885.033	2885
885.038	2827
885.118	2239
885.139	2164
885.199	2586
885.244	3072
885.279	3231
885.350	3641
885.359	3819
885.439	5276
885.456	5313
885.520	3765
885.561	3054
885.600	2582
885.667	2746
885.680	2853
885.760	2895
885.773	2850
885.840	2129
885.878	2092
885.920	2083
885.984	1960
886.000	2222
886.080	3365
886.089	3527
886.160	3094
886.195	2657
886.240	2633
886.300	2931
886.320	2986
886.400	3171
886.406	3167
886.480	2372
886.511	2279
886.560	2260
886.616	2150
886.640	2227
886.720	2351
886.722	2366
886.800	2415
886.827	2457
886.879	2610
886.932	2811
886.959	2978
887.038	3286
887.039	3271
887.119	2808
887.143	2654
887.198	2512
887.248	2581
887.278	2703
887.354	2902
887.358	2885
887.437	2526
887.459	2542
887.517	2762
887.564	2759
887.596	2581
887.669	2152
887.676	2090
887.755	1592
887.774	1482
887.835	1486
887.880	1698
887.914	2055
887.985	2417
887.994	2476
888.073	3434
888.090	3576
888.153	3676
888.195	3647
888.232	2838
888.300	1624
888.311	1649
888.391	1961
888.405	2034
888.470	1376
888.510	868
888.549	1361
888.615	2460
888.628	2513
888.708	2858
888.720	2886
888.787	2432
888.825	2225
888.866	1634
888.930	827
888.945	1022
889.024	2134
889.035	2285
889.103	2071
889.140	1962
889.182	2122
889.245	2470
889.261	2536
889.340	2844
889.349	2888
889.419	2671
889.454	2572
889.498	2104
889.559	1512
889.577	1673
889.656	2425
889.664	2512
889.735	2091
889.768	1899
889.814	1934
889.873	1991
889.978	2246
890.083	1683
890.187	2264
890.292	3218
890.397	1494
890.501	2395
890.606	839
890.710	2584
890.815	2347
890.919	2435
891.024	2247
891.128	1839
891.233	1739
891.337	2844
891.442	1971
891.546	2232
891.650	1567
891.755	2213
891.859	3016
891.963	3077
892.068	2370
892.172	1317
892.276	877
892.380	2635
892.484	2184
892.589	2933
892.693	1446
892.797	906
892.901	1032
893.005	1879
893.109	2631
893.213	2917
893.317	1942
893.421	557
893.525	565
893.629	576
893.733	2649
893.837	2166
893.941	1750
894.045	1601
894.148	857
894.252	1723
894.356	1634
894.460	3240
894.564	923
894.667	1820
894.771	674
894.875	1321
894.978	1400
895.082	1985
895.186	2906
895.289	3084
895.393	1656
895.496	2448
895.600	1930
895.703	1197
895.807	1569
895.910	2025
896.014	1709
896.117	1920
896.221	1701
896.324	3161
896.427	296
896.531	1814
896.634	1380
896.737	1498
896.840	1173
896.944	3263
897.047	2465
897.150	2233
897.253	903
897.356	674
897.460	1002
897.563	1487
897.666	1974
897.769	2211
897.872	545
897.975	1106
898.078	1520
898.181	1422
898.284	1393
898.387	2084
898.490	1423
898.593	2137
898.695	1439
898.798	1888
898.901	1286
899.004	1375
899.107	1450
899.209	2254
899.312	2184
899.415	1207
899.518	983
899.620	870
899.723	732
899.826	1509
899.928	547
900.031	1162
900.133	2165
900.236	1291
900.338	894
900.441	1474
900.543	846
900.646	2671
900.748	1814
900.851	2485
900.953	1486
901.055	1622
901.158	1094
901.260	737
901.362	911
901.465	1195
901.567	1242
901.669	2076
901.771	700
901.873	1495
901.976	542
902.078	1891
902.180	788
902.282	841
902.384	191
902.486	2413
902.588	2063
902.690	1054
902.792	672
902.894	2162
902.996	1995
903.098	1544
903.200	618
903.302	841
903.404	830
903.505	838
903.607	1512
903.709	1786
903.811	1898
903.913	1446
904.014	-8
904.116	536
904.218	1031
904.319	1826
904.421	2304
904.523	1994
904.624	1395
904.726	1002
904.827	1225
904.929	1096
905.030	790
905.132	2664
905.233	700
905.335	1093
905.436	443
905.537	895
905.639	813
905.740	879
905.841	1912
905.943	1625
906.044	1009
906.145	1023
906.247	1085
906.348	1319
906.449	1182
906.550	1281
906.651	461
906.752	1040
906.854	554
906.955	971
907.056	746
907.157	1976
907.258	1185
907.359	1242
907.460	409
907.561	1262
907.662	582
907.762	1264
907.863	1721
907.964	2203
908.065	818
908.166	995
908.267	1161
908.367	572
908.468	423
908.569	855
908.670	2316
908.770	2171
908.871	1683
908.971	2393
909.072	636
909.173	563
909.273	781
909.374	1819
909.474	1379
909.575	667
909.675	1156
909.776	2080
909.876	623
909.977	1764
910.077	1762
910.177	1682
910.278	733
910.378	547
910.478	729
910.579	1273
910.679	1101
910.779	1179
910.879	1233
910.980	1859
911.080	1657
911.180	1344
911.280	462
911.380	907
911.480	841
911.580	1086
911.680	431
911.780	1141
911.880	1540
911.980	1566
912.080	1353
912.180	1743
912.280	1417
912.380	1430
912.480	708
912.580	384
912.679	724
912.779	1967
912.879	525
912.979	873
913.078	1295
913.178	1265
913.278	791
913.377	988
913.477	298
913.577	601
913.676	1178
913.776	2255
913.875	1603
913.975	1441
914.074	299
914.174	2272
914.273	371
914.373	2094
914.472	938
914.572	782
914.671	-20
914.770	1408
914.870	1019
914.969	2108
915.068	1054
915.167	938
915.267	873
915.366	1101
915.465	1055
915.564	1312
915.663	1128
915.763	1159
915.862	1211
915.961	1734
916.060	891
916.159	818
916.258	349
916.357	1372
916.456	1705
916.555	848
916.654	757
916.752	2212
916.851	799
916.950	729
917.049	130
917.148	609
917.247	965
917.345	394
917.444	468
917.543	1838
917.642	1486
917.740	898
917.839	1480
917.937	2751
918.036	1786
918.135	2301
918.233	805
918.332	1646
918.430	638
918.529	568
918.627	1092
918.726	2366
918.824	1200
918.923	1526
919.021	734
919.119	601
919.218	1367
919.316	987
919.414	1183
919.512	1663
919.611	1596
919.709	498
919.807	1463
919.905	2269
920.003	1823
920.102	2138
920.200	1669
920.298	2244
920.396	1225
920.494	1829
920.592	1110
920.690	1856
920.788	1111
920.886	2551
920.984	2435
921.082	2941
921.180	2319
921.277	2262
921.375	3178
921.473	4364
921.571	3871
921.669	3729
921.766	3490
921.864	4246
921.962	3753
922.060	2764
922.157	3116
922.255	4010
922.352	3289
922.450	4330
922.548	3620
922.645	4093
922.743	5837
922.840	9588
922.938	11011
923.035	10094
923.133	8896
923.230	11355
923.327	13229
923.425	13040
923.522	11696
923.619	11462
923.717	9336
923.814	9352
923.911	8725
924.008	10524
924.106	8631
924.203	8993
924.300	9043
924.397	9874
924.494	9032
924.591	9595
924.688	8219
924.786	9661
924.883	9260
924.979	9709
925.077	8955
925.173	9340
925.270	9009
925.367	9335
925.464	9414
925.561	9695
925.658	10318
925.755	8120
925.852	9535
925.948	9089
926.045	9070
926.142	7661
926.239	9762
926.335	7083
926.432	8278
926.529	9242
926.625	9438
926.722	7819
926.818	7078
926.915	9816
927.011	8044
927.108	8361
927.204	8109
927.301	7379
927.397	7931
927.494	9887
927.590	6883
927.687	7197
927.783	8942
927.879	8815
927.976	7063
928.072	6890
928.168	6971
928.264	9079
928.361	6796
928.457	9654
928.553	7086
928.649	7567
928.745	7352
928.841	6266
928.937	6965
929.033	8431
929.129	6756
929.225	9562
929.321	7356
929.417	6382
929.513	8287
929.609	6557
929.705	6565
929.801	8213
929.897	5522
929.993	6707
930.089	7185
930.184	6255
930.280	5703
930.376	9265
930.471	5487
930.567	4888
930.663	6548
930.758	6544
930.854	5801
930.950	6137
931.045	6435
931.141	7194
931.236	7425
931.332	7434
931.427	4506
931.523	7639
931.618	5892
931.714	4156
931.809	4798
931.905	7249
932.000	5046
932.095	4037
932.191	6347
932.286	8808
932.381	6569
932.476	4157
932.572	5123
932.667	6162
932.762	4996
932.857	6452
932.952	6748
933.047	6248
933.142	4302
933.237	5576
933.332	6637
933.427	6908
933.522	6305
933.617	5003
933.712	5823
933.807	6293
933.902	6840
933.997	7486
934.092	4481
934.187	4572
934.282	6763
934.376	5555
934.471	6297
934.566	5697
934.661	4276
934.755	5708
934.850	6608
934.945	6160
935.039	4667
935.134	4809
935.228	4649
935.323	8145
935.417	5066
935.512	4195
935.606	3586
935.701	5505
935.795	6692
935.890	5207
935.984	4328
936.079	3876
936.173	4915
936.267	4157
936.362	3750
936.456	4827
936.550	6528
936.644	5531
936.738	2926
936.833	4394
936.927	2126
937.021	4229
937.115	3868
937.209	5204
937.303	4704
937.397	2807
937.491	3922
937.585	5643
937.679	4608
937.773	4042
937.867	3354
937.961	3242
938.055	6538
938.149	5255
938.243	3201
938.337	2738
938.430	3681
938.524	5425
938.618	3884
938.712	3888
938.805	4118
938.899	4845
938.993	5810
939.086	3820
939.180	915
939.274	2775
939.367	4180
939.461	6122
939.554	3493
939.648	3442
939.741	2920
939.835	3617
939.928	5808
940.022	5505
940.115	3567
940.208	4784
940.302	5110
940.395	6111
940.488	3117
940.582	3723
940.675	2743
940.768	3960
940.861	4168
940.954	6092
941.048	2545
941.141	2599
941.234	2241
941.327	3786
941.420	4407
941.513	4660
941.606	3313
941.699	3535
941.792	4339
941.885	4221
941.978	3989
942.071	4284
942.164	2655
942.257	2675
942.349	3144
942.442	4587
942.535	1758
942.628	3090
942.721	2155
942.813	3532
942.906	3556
942.999	3048
943.091	1692
943.184	3460
943.277	3010
943.369	2206
943.462	1607
943.554	3440
943.647	2472
943.739	4699
943.832	4492
943.924	1241
944.017	1455
944.109	1904
944.201	1673
944.294	3977
944.386	2565
944.478	2625
944.571	1410
944.663	2383
944.755	2921
944.847	3529
944.940	2799
945.032	1928
945.124	1569
945.216	2937
945.308	2533
945.400	3835
945.492	2394
945.584	3879
945.676	3373
945.768	3655
945.860	3289
945.952	4056
946.044	2487
946.136	1579
946.228	2943
946.320	2707
946.412	3158
946.503	3677
946.595	3942
946.687	2077
946.779	1053
946.870	2362
946.962	2297
947.054	2830
947.145	3009
947.237	2373
947.329	1784
947.420	2757
947.512	2620
947.603	1055
947.695	2549
947.786	1338
947.878	1593
947.969	3282
948.061	2463
948.152	3059
948.243	1556
948.335	1625
948.426	1732
948.517	2173
948.609	2776
948.700	2112
948.791	2383
948.882	1849
948.973	1823
949.065	2312
949.156	2282
949.247	1347
949.338	2807
949.429	1289
949.520	1180
949.611	1690
949.702	2831
949.793	2061
949.884	2587
949.975	1876
950.066	1832
950.157	1871
950.247	1343
950.338	1851
950.429	1228
950.520	2826
950.611	1156
950.701	2369
950.792	3617
950.883	2902
950.973	2612
951.064	3284
951.155	2132
951.245	2663
951.336	2094
951.427	2148
951.517	3668
951.608	3288
951.698	1669
951.788	1820
951.879	786
951.969	1146
952.060	1884
952.150	1701
952.240	2968
952.331	1816
952.421	2608
952.511	1802
952.602	670
952.692	1808
952.782	682
952.872	1933
952.962	2350
953.052	1646
953.143	1443
953.233	2376
953.323	2199
953.413	2139
953.503	2982
953.593	2605
953.683	2072
953.773	749
953.863	1953
953.953	1162
954.042	1135
954.132	1714
954.222	2095
954.312	1837
954.402	1862
954.492	1879
954.581	813
954.671	2249
954.761	1405
954.850	3334
954.940	643
955.030	971
955.119	545
955.209	2045
955.298	1834
955.388	1523
955.477	3239
955.567	1657
955.656	1516
955.746	2422
955.835	1243
955.925	1159
956.014	1793
956.103	2814
956.193	3090
956.282	2997
956.371	929
956.461	2097
956.550	1141
956.639	1820
956.728	899
956.817	1918
956.906	1065
956.995	2185
957.085	476
957.174	2213
957.263	2050
957.352	1559
957.441	741
957.530	2174
957.619	1180
957.708	1950
957.796	983
957.885	1196
957.974	1672
958.063	1108
958.152	732
958.241	1039
958.329	1278
958.418	1032
958.507	377
958.596	2618
958.684	819
958.773	2214
958.861	252
958.950	1259
959.039	1201
959.127	1143
959.216	1906
959.304	1486
959.393	1607
959.481	1483
959.570	1268
959.658	878
959.746	560
959.835	1917
959.923	831
960.011	574
960.100	1227
960.188	2152
960.276	1009
960.365	1379
960.453	1035
960.541	273
960.629	1200
960.717	310
960.805	161
960.893	1775
960.981	1320
961.069	2778
961.158	1954
961.245	3482
961.333	2655
961.421	892
961.509	1381
961.597	1392
961.685	1156
961.773	1538
961.861	1294
961.949	2285
962.036	847
962.124	1366
962.212	1044
962.299	999
962.387	448
962.475	1439
962.562	1302
962.650	2832
962.738	763
962.825	1306
962.913	959
963.000	1598
963.088	898
963.175	1417
963.263	824
963.350	1329
963.438	860
963.525	878
963.612	1245
963.700	1464
963.787	783
963.874	1950
963.962	220
964.049	2025
964.136	316
964.223	641
964.310	845
964.398	962
964.485	812
964.572	2335
964.659	1449
964.746	845
964.833	446
964.920	1838
965.007	803
965.094	991
965.181	469
965.268	2716
965.355	38
965.441	1823
965.528	705
965.615	1761
965.702	1358
965.789	658
965.875	1107
965.962	2809
966.049	779
966.136	2172
966.222	1101
966.309	2129
966.395	2398
966.482	2867
966.569	586
966.655	1628
966.742	1028
966.828	1884
966.915	1079
967.001	1718
967.087	-684
967.174	1298
967.260	714
967.347	975
967.433	914
967.519	1902
967.605	368
967.692	1304
967.778	1257
967.864	1320
967.950	886
968.036	884
968.123	1661
968.209	1185
968.295	913
968.381	2107
968.467	858
968.553	51
968.639	1074
968.725	943
968.811	1082
968.897	1623
968.983	1265
969.069	754
969.154	993
969.240	1514
969.326	309
969.412	543
969.497	722
969.583	925
969.669	1684
969.755	1757
969.840	893
969.926	2278
970.012	2860
970.097	5126
970.183	2130
970.268	2177
970.354	2068
970.439	531
970.525	1574
970.610	-178
970.696	1268
970.781	1940
970.866	-657
970.952	1793
971.037	-751
971.122	428
971.208	1458
971.293	1931
971.378	635
971.463	1447
971.549	112
971.634	576
971.719	807
971.804	351
971.889	1520
971.974	942
972.059	689
972.144	1368
972.229	461
972.314	566
972.399	1088
972.484	221
972.569	70
972.654	399
972.739	1266
972.824	390
972.908	172
972.993	562
973.078	716
973.163	1579
973.247	518
973.332	230
973.417	1068
973.501	820
973.586	811
973.671	956
973.755	759
973.840	1110
973.924	1937
974.009	1819
974.093	516
974.178	2838
974.262	569
974.346	1389
974.431	845
974.515	1228
974.600	478
974.684	1151
974.768	606
974.852	1933
974.937	-327
975.021	1060
975.105	631
975.189	1133
975.273	448
975.358	99
975.442	116
975.526	1747
975.610	-504
975.694	-176
975.778	822
975.862	497
975.946	-1767
976.030	2112
976.114	-161
976.198	98
976.281	1056
976.365	1576
976.449	348
976.533	1145
976.617	917
976.700	976
976.784	789
976.868	319
976.951	837
977.035	1265
977.119	749
977.202	1231
977.286	1158
977.369	1706
977.453	3368
977.536	3221
977.620	1212
977.703	1768
977.787	-280
977.870	2157
977.953	1921
978.037	592
978.120	1309
978.203	1010
978.287	525
978.370	1690
978.453	244
978.536	385
978.620	873
978.703	1701
978.786	-498
978.869	557
978.952	-427
979.035	2217
979.118	1664
979.201	528
979.284	1502
979.367	610
979.450	933
979.533	121
979.616	1090
979.699	1048
979.782	1346
979.865	269
979.948	293
980.030	310
980.113	764
980.196	-14
980.279	1271
980.361	895
980.444	702
980.526	2432
980.609	2234
980.692	2571
980.774	2791
980.857	1308
980.939	2430
981.022	1594
981.104	950
981.187	423
981.269	1516
981.352	820
981.434	53
981.516	1258
981.599	1670
981.681	604
981.763	184
981.846	1007
981.928	904
982.010	1084
982.092	376
982.174	1858
982.256	785
982.339	1310
982.421	974
982.503	292
982.585	-512
982.667	925
982.749	696
982.831	1652
982.913	959
982.995	2176
983.077	1303
983.158	2341
983.240	-73
983.322	1477
983.404	3077
983.486	2264
983.568	2041
983.649	2258
983.731	2391
983.813	1455
983.894	1606
983.976	1633
984.058	1380
984.139	2501
984.221	485
984.302	2436
984.384	1321
984.465	1814
984.547	969
984.628	973
984.710	1767
984.791	1337
984.872	1526
984.954	925
985.035	2396
985.116	1541
985.198	1173
985.279	3118
985.360	1567
985.441	1760
985.522	1474
985.604	2777
985.685	-469
985.766	2705
985.847	2588
985.928	640
986.009	1029
986.090	1561
986.171	1825
986.252	1074
986.333	2154
986.414	1971
986.495	1958
986.576	2083
986.656	2718
986.737	2713
986.818	1628
986.899	1084
986.980	1317
987.060	2927
987.141	1423
987.222	3306
987.302	3441
987.383	3501
987.464	2954
987.544	3136
987.625	2254
987.705	2528
987.786	3187
987.866	2686
987.947	1562
988.027	2778
988.108	1660
988.188	2625
988.268	1789
988.349	3094
988.429	2488
988.509	2662
988.589	1380
988.670	1603
988.750	2985
988.830	1206
988.910	2784
988.990	2074
989.070	1541
989.151	2025
989.231	959
989.311	2308
989.391	1872
989.471	2405
989.551	1150
989.631	1403
989.711	2309
989.791	2354
989.870	1745
989.950	3010
990.030	2296
990.110	2063
990.190	1094
990.269	804
990.349	1237
990.429	3024
990.509	980
990.588	651
990.668	1054
990.747	1236
990.827	1242
990.907	1960
990.986	982
991.066	2006
991.145	920
991.225	2189
991.304	1829
991.383	2428
991.463	583
991.542	2367
991.622	533
991.701	1156
991.780	273
991.859	771
991.939	935
992.018	1507
992.097	1807
992.176	813
992.256	567
992.335	565
992.414	2061
992.493	201
992.572	862
992.651	2079
992.730	661
992.809	1359
992.888	459
992.967	994
993.046	996
993.125	-893
993.203	593
993.282	1243
993.361	1622
993.440	806
993.519	545
993.597	1001
993.676	626
993.755	1169
993.834	1065
993.912	-65
993.991	1841
994.069	505
994.148	179
994.226	785
994.305	492
994.384	959
994.462	2685
994.540	56
994.619	-311
994.697	674
994.776	10
994.854	1261
994.932	-436
995.011	830
995.089	40
995.167	334
995.245	137
995.324	214
995.402	941
995.480	775
995.558	127
995.636	-46
995.714	-291
995.792	2463
995.870	-521
995.948	695
996.026	-340
996.104	-189
996.182	973
996.260	53
996.338	-465
996.416	-486
996.494	-145
996.572	1293
996.649	-387
996.727	-287
996.805	224
996.883	1655
996.960	-1116
997.038	635
997.116	430
997.193	301
997.271	-22
997.348	-538
997.426	419
997.504	213
997.581	552
997.658	519
997.736	-1652
997.813	-349
997.891	1405
997.968	-490
998.046	-263
998.123	262
998.200	481
998.277	523
998.355	484
998.432	-1271
998.509	-316
998.586	235
998.663	-636
998.741	224
998.818	-278
998.895	22
998.972	518
999.049	1001
999.126	-141
999.203	104
999.280	397
999.357	-617
999.434	-870
999.511	616
999.587	377
999.664	-159
999.741	-311
999.818	6
999.895	40
999.971	211
1000.048	-1499
1000.125	351
1000.202	-756
1000.278	328
1000.355	-496
1000.431	-423
1000.508	-1428
1000.584	-969
1000.661	-599
1000.738	-670
1000.814	-1082
1000.890	-309
1000.967	-419
1001.043	-63
1001.120	-1355
1001.196	212
1001.272	-1189
1001.349	-114
1001.425	-112
1001.501	210
1001.577	10
1001.654	311
1001.730	-1162
1001.806	-478
1001.882	-1528
1001.958	492
1002.034	-918
1002.110	-732
1002.186	-1127
1002.262	-688
1002.338	-601
1002.414	491
1002.490	-770
1002.566	-329
1002.642	-1232
1002.718	122
1002.794	-469
1002.870	-408
1002.945	-1057
1003.021	-120
1003.097	-245
1003.173	-932
1003.248	-1337
1003.324	376
1003.400	-263
1003.475	-953
1003.551	-1098
1003.626	-457
1003.702	-955
1003.777	-515
1003.853	-764
1003.928	-377
1004.004	-896
1004.079	-447
1004.155	-485
1004.230	-1751
1004.305	118
1004.381	-799
1004.456	-727
1004.531	-639
1004.607	-684
1004.682	-1158
1004.757	-1290
1004.832	-346
1004.907	-1760
1004.982	-594
1005.057	-872
1005.133	-1081
1005.208	-991
1005.283	-337
1005.358	-341
1005.433	-612
1005.508	-618
1005.583	-1721
1005.657	-1024
1005.732	64
1005.807	-1003
1005.882	-144
1005.957	-1132
1006.032	-265
1006.106	-887
1006.181	-262
1006.256	-628
1006.331	-910
1006.405	-2498
1006.480	-573
1006.554	-993
1006.629	-1175
1006.704	-1475
1006.778	38
1006.853	-44
1006.927	-1006
1007.002	-905
1007.076	-826
1007.150	-846
1007.225	-649
1007.299	-887
1007.373	-715
1007.448	-705
1007.522	-595
1007.596	-1449
1007.671	-1519
1007.745	-334
1007.819	-1349
1007.893	-2016
1007.967	714
1008.041	-2599
1008.115	-710
1008.190	-1718
1008.264	-412
1008.338	-2159
1008.412	-1416
1008.486	-1856
1008.560	-266
1008.633	-932
1008.707	-1089
1008.781	-995
1008.855	-673
1008.929	-1206
1009.003	-1140
1009.076	-1179
1009.150	-743
1009.224	-1189
1009.298	-713
1009.371	-2346
1009.445	-815
1009.519	-1014
1009.592	-1439
1009.666	-897
1009.739	-1143
1009.813	-2217
1009.886	522
1009.960	-1708
1010.033	117
1010.107	-989
1010.180	-1680
1010.253	-1587
1010.327	-1686
1010.400	-1738
1010.473	-718
1010.547	-804
1010.620	-714
1010.693	-1415
1010.766	-1652
1010.840	-946
1010.913	-687
1010.986	-796
1011.059	-1345
1011.132	-1920
1011.205	-384
1011.278	-1197
1011.351	-1452
1011.424	-1209
1011.497	-1000
1011.570	-1956
1011.643	-1367
1011.716	-2360
1011.789	-1103
1011.862	-1887
1011.934	-1238
1012.007	-2671
1012.080	-1900
1012.153	-1559
1012.225	-527
1012.298	-1112
1012.371	-847
1012.443	-1217
1012.516	-1707
1012.588	-1261
1012.661	-1218
1012.733	-1692
1012.806	-641
1012.879	-1771
1012.951	-1067
1013.023	-1516
1013.096	-388
1013.168	-1759
1013.241	-207
1013.313	-1735
1013.385	-1518
1013.458	-1283
1013.530	-743
1013.602	-2279
1013.674	-1322
1013.746	-2088
1013.819	-1515
1013.891	-1439
1013.963	-1543
1014.035	-1315
1014.107	-1952
1014.179	-885
1014.251	-1878
1014.323	-1150
1014.395	-791
1014.467	-1120
1014.539	-1222
1014.611	-2050
1014.683	-1220
1014.754	-1725
1014.826	-3006
1014.898	-1328
1014.970	-1950
1015.042	-633
1015.113	-905
1015.185	-818
1015.257	-2164
1015.328	-1818
1015.400	-1623
1015.471	-1444
1015.543	-1758
1015.615	-2163
1015.686	-1548
1015.757	-1351
1015.829	-822
1015.901	-1593
1015.972	-1733
1016.043	-1467
1016.115	-1699
1016.186	-1384
1016.257	-1769
1016.328	-1030
1016.400	-1109
1016.471	-1837
1016.542	-610
1016.613	-982
1016.685	-1000
1016.756	-1179
1016.827	-1462
1016.898	-2512
1016.969	-332
1017.040	-989
1017.111	-1703
1017.182	-1863
1017.253	-1073
1017.324	-1294
1017.395	-2034
1017.466	-2194
1017.537	-1265
1017.608	-1210
1017.678	-1217
1017.749	-2158
1017.820	-591
1017.891	-2028
1017.961	-1666
1018.032	-1709
1018.103	-1059
1018.173	-2188
1018.244	-1714
1018.315	-2622
1018.385	-137
1018.456	-1615
1018.526	-1390
1018.597	-1268
1018.667	-1544
1018.738	-1474
1018.808	-1319
1018.878	-1426
1018.949	-822
1019.019	-1860
1019.089	-920
1019.160	-1803
1019.230	-1330
1019.300	-1830
1019.371	-2670
1019.441	-1042
1019.511	-1377
1019.581	-1813
1019.651	-1300
1019.721	-1535
1019.791	-1660
1019.861	-2186
1019.931	-1190
1020.001	-2038
1020.071	-1229
1020.141	-1922
1020.211	-910
1020.281	-1433
1020.351	-1560
1020.421	-359
1020.491	-1385
1020.560	-2552
1020.630	-631
1020.700	-1872
1020.770	-1045
1020.839	-2119
1020.909	-1428
1020.979	-1973
1021.048	-1922
1021.118	-1576
1021.187	-1319
1021.257	-1791
1021.326	-924
1021.396	-2223
1021.465	-1170
1021.535	-2027
1021.604	-1540
1021.674	-1197
1021.743	-1815
1021.812	-1625
1021.882	-1437
1021.951	-2078
1022.020	-1261
1022.089	-1603
1022.159	-2051
1022.228	-1986
1022.297	-1310
1022.366	-2017
1022.435	-1735
1022.504	-1685
1022.573	-1502
1022.642	-1085
1022.711	-1497
1022.781	-1812
1022.849	-1713
1022.918	-2051
1022.987	-818
1023.056	-1714
1023.125	-1522
1023.194	-1718
1023.263	-1451
1023.331	-1328
1023.400	-1613
1023.469	-2312
1023.538	-275
1023.606	-1667
1023.675	-1342
1023.744	-2244
1023.812	-2494
1023.881	-2619
1023.949	-1360
1024.018	-1868
1024.086	-1308
1024.155	-1627
1024.223	-1879
1024.292	-1609
1024.360	-1239
1024.429	-1193
1024.497	-2025
1024.565	-1680
1024.634	-1246
1024.702	-1227
1024.770	-1512
1024.838	-1505
1024.907	-782
1024.975	-1712
1025.043	-1468
1025.111	-2545
1025.179	-1383
1025.247	-1076
1025.315	-1092
1025.383	-1536
1025.451	-1307
1025.519	-2305
1025.587	-1896
1025.655	-1898
1025.723	-1796
1025.791	-2046
1025.859	-1785
1025.927	-1409
1025.995	-2065
1026.062	-1822
1026.130	-2120
1026.198	-1369
1026.266	-2157
1026.333	-1222
1026.401	-1758
1026.469	-1971
1026.536	-1296
1026.604	-1944
1026.671	-1446
1026.739	-1833
1026.806	-1624
1026.874	-1464
1026.941	-1270
1027.009	-1708
1027.076	-753
1027.144	-1398
1027.211	-2140
1027.278	-2519
1027.345	-1368
1027.413	-1392
1027.480	-1420
1027.547	-1918
1027.614	-1892
1027.682	-1917
1027.749	-1402
1027.816	-1523
1027.883	-1708
1027.950	-1455
1028.017	-1543
1028.084	-1769
1028.151	-2258
1028.218	-1222
1028.285	-945
1028.352	-2291
1028.419	-1874
1028.486	-3079
1028.553	-2140
1028.619	-2329
1028.686	-1229
1028.753	-1523
1028.820	-1169
1028.886	-1869
1028.953	-2162
1029.020	-1737
1029.086	-2239
1029.153	-2608
1029.220	-1671
1029.286	-2382
1029.353	-1676
1029.419	-2032
1029.486	-1071
1029.552	-1552
1029.619	-1828
1029.685	-2670
1029.751	-1607
1029.818	-1270
1029.884	-2257
1029.951	-1701
1030.017	-1882
1030.083	-1732
1030.149	-1087
1030.216	-1664
1030.282	-1365
1030.348	-2095
1030.414	-2386
1030.480	-2267
1030.546	-1591
1030.612	-1437
1030.678	-1411
1030.744	-2184
1030.810	-1305
1030.876	-1440
1030.942	-1608
1031.008	-2025
1031.074	-1595
1031.140	-1674
1031.206	-2072
1031.272	-2005
1031.337	-1174
1031.403	-1577
1031.469	-1423
1031.534	-3206
1031.600	-1243
1031.666	-2473
1031.731	-1366
1031.797	-2597
1031.863	-2207
1031.928	-2841
1031.994	-2279
1032.059	-2458
1032.125	-1385
1032.190	-1702
1032.256	-2605
1032.321	-2502
1032.386	-2039
1032.452	-1369
1032.517	-2780
1032.582	-2457
1032.647	-1522
1032.713	-2409
1032.778	-1081
1032.843	-2048
1032.908	-1707
1032.974	-2313
1033.039	-2461
1033.104	-1797
1033.169	-2237
1033.234	-2481
1033.299	-1221
1033.364	-1968
1033.429	-2255
1033.494	-1766
1033.559	-1523
1033.624	-2050
1033.688	-2164
1033.753	-1852
1033.818	-1546
1033.883	-2475
1033.948	-903
1034.013	-939
1034.077	-408
1034.142	-1676
1034.207	-569
1034.271	1799
1034.336	1257
1034.400	-203
1034.465	-1046
1034.530	-1785
1034.594	-1693
1034.658	-1871
1034.723	-2789
1034.787	-1690
1034.852	-981
1034.916	-2146
1034.981	-1758
1035.045	-1590
1035.109	-1967
1035.173	-2034
1035.238	-2157
1035.302	-2360
1035.366	-2400
1035.430	-2348
1035.495	-1140
1035.559	-1462
1035.623	-1795
1035.687	-2944
1035.751	-1738
1035.815	-2105
1035.879	-1286
1035.943	-1389
1036.007	-2025
1036.071	-2258
1036.135	-1791
1036.198	-1734
1036.262	-2671
1036.326	-2322
1036.390	-2347
1036.454	-2856
1036.517	-1888
1036.581	-2429
1036.645	-1540
1036.709	-2442
1036.772	-1693
1036.836	-1682
1036.900	-861
1036.963	-2401
1037.026	-1348
1037.090	-2049
1037.154	-1995
1037.217	-1731
1037.280	-1997
1037.344	-2430
1037.407	-2407
1037.471	-1849
1037.534	-2425
1037.597	-1924
1037.661	-2408
1037.724	-2016
1037.787	-1184
1037.850	-1704
1037.913	-2153
1037.977	-1953
1038.040	-2037
1038.103	-2667
1038.166	-2063
1038.229	-2659
1038.292	-2358
1038.355	-2233
1038.418	-1979
1038.481	-2203
1038.544	-2115
1038.607	-2590
1038.670	-2165
1038.732	-2090
1038.795	-2457
1038.858	-2887
1038.921	-1994
1038.984	-2368
1039.046	-2154
1039.109	-3192
1039.172	-2051
1039.234	-2899
1039.297	-1488
1039.360	-2752
1039.422	-1668
1039.485	-2801
1039.547	-2389
1039.610	-1483
1039.672	-2034
1039.734	-2233
1039.797	-1727
1039.859	-2072
1039.922	-2543
1039.984	-2114
1040.046	-1881
1040.109	-1862
1040.171	-2194
1040.233	-2081
1040.295	-2637
1040.358	-2366
1040.420	-1324
1040.482	-1959
1040.544	-1930
1040.606	-2242
1040.668	-2195
1040.730	-2472
1040.792	-1250
1040.854	-2714
1040.916	-1244
1040.978	-2662
1041.040	-1692
1041.102	-2531
1041.164	-1267
1041.225	-2161
1041.287	-2449
1041.349	-2584
1041.411	-1382
1041.472	-2594
1041.534	-1371
1041.596	-2473
1041.657	-2074
1041.719	-2365
1041.781	-1202
1041.842	-2403
1041.904	-2499
1041.965	-2339
1042.027	-2355
1042.088	-2689
1042.150	-1597
1042.211	-2504
1042.272	-679
1042.334	-3381
1042.395	-1971
1042.456	-2184
1042.518	-2010
1042.579	-2390
1042.640	-2393
1042.701	-1986
1042.763	-2182
1042.824	-2180
1042.885	-2164
1042.946	-2858
1043.007	-2769
1043.068	-2817
1043.129	-2160
1043.190	-1940
1043.251	-2011
1043.312	-2250
1043.373	-1993
1043.434	-2399
1043.495	-1161
1043.556	-2570
1043.616	-1871
1043.677	-2669
1043.738	-2294
1043.799	-2832
1043.859	-1698
1043.920	-1956
1043.981	-2114
1044.041	-2613
1044.102	-1029
1044.162	-2652
1044.223	-1757
1044.284	-2147
1044.344	-1970
1044.405	-1534
1044.465	-1315
1044.525	-2330
1044.586	-1589
1044.646	-1733
1044.707	-1630
1044.767	-2221
1044.827	-1918
1044.887	-2550
1044.948	-1417
1045.008	-1855
1045.068	-2055
1045.128	-2424
1045.188	-1922
1045.249	-1893
1045.309	-1731
1045.369	-2200
1045.429	-2026
1045.489	-1987
1045.549	-1661
1045.609	-2069
1045.669	-2257
1045.729	-2000
1045.789	-1503
1045.848	-2137
1045.908	-1554
1045.968	-1767
1046.028	-885
1046.088	-1705
1046.147	-998
1046.207	-1643
1046.267	-1385
1046.326	-1996
1046.386	-1362
1046.446	-1552
1046.505	-708
1046.565	-1551
1046.624	-394
1046.684	-1181
1046.743	-556
1046.803	-1747
1046.862	-580
1046.922	0
