'Start Wavelength	183.907
'End Wavelength	1046.922
'Gate Delay	5.000
'Gate Width (ms)	1.050
'Laser Output Level	0.000
'X Position	0.000
'Y Position	0.000
'Z Position	0.000
'Grid Point Number	1.000
'Shot Number	100.000
183.907	767.000
183.977	164.000
184.047	-650
184.116	1123
184.186	225
184.256	110
184.325	-243
184.395	-261
184.465	671
184.534	264
184.604	-504
184.674	169
184.743	-936
184.813	994
184.883	52
184.952	165
185.022	182
185.092	-51
185.161	-167
185.231	422
185.301	-584
185.370	-69
185.440	-24
185.509	-584
185.579	-94
185.649	472
185.718	95
185.788	204
185.857	-398
185.927	-266
185.996	649
186.066	-123
186.136	-683
186.205	-548
186.275	-276
186.344	462
186.414	5
186.483	-493
186.553	-248
186.622	97
186.692	-84
186.761	508
186.831	-529
186.900	-8
186.970	246
187.039	372
187.109	465
187.178	-58
187.248	-21
187.317	64
187.387	-678
187.456	25
187.526	-11
187.595	169
187.664	-275
187.734	-109
187.803	-87
187.873	359
187.942	-37
188.012	-199
188.081	-126
188.150	96
188.220	-613
188.289	190
188.358	-116
188.428	488
188.497	-630
188.567	245
188.636	-189
188.705	674
188.775	-381
188.844	-349
188.913	292
188.983	-124
189.052	41
189.121	-375
189.191	-828
189.260	796
189.329	368
189.399	-38
189.468	82
189.537	356
189.606	93
189.676	91
189.745	-354
189.814	84
189.883	72
189.953	-119
190.022	150
190.091	-75
190.161	-17
190.230	884
190.299	-122
190.368	-176
190.437	-360
190.507	279
190.576	-576
190.645	323
190.714	-392
190.783	-423
190.853	273
190.922	-72
190.991	-182
191.060	270
191.129	-501
191.198	565
191.268	182
191.337	527
191.406	389
191.475	-253
191.544	-460
191.613	-65
191.682	-296
191.752	-324
191.821	-433
191.890	-923
191.959	28
192.028	-539
192.097	-422
192.166	357
192.235	-1255
192.304	959
192.373	236
192.442	906
192.511	-345
192.580	-593
192.650	167
192.719	579
192.788	302
192.857	332
192.926	-720
192.995	337
193.064	-105
193.133	-388
193.202	-105
193.271	658
193.340	264
193.409	723
193.478	90
193.547	572
193.615	-415
193.684	1085
193.753	-902
193.822	717
193.891	-277
193.960	803
194.029	-66
194.098	227
194.167	191
194.236	204
194.305	-137
194.374	103
194.443	-1007
194.512	-45
194.580	-167
194.649	312
194.718	614
194.787	839
194.856	-552
194.925	136
194.994	0
195.062	-98
195.131	-850
195.200	335
195.269	-108
195.338	384
195.407	486
195.475	-247
195.544	387
195.613	-166
195.682	-168
195.751	-158
195.819	-168
195.888	226
195.957	553
196.026	-56
196.094	370
196.163	255
196.232	743
196.301	-156
196.369	262
196.438	142
196.507	-41
196.576	-422
196.644	-178
196.713	71
196.782	-362
196.850	1026
196.919	97
196.988	-139
197.056	-215
197.125	-10
197.194	-813
197.262	75
197.331	86
197.400	-316
197.468	-467
197.537	-38
197.606	-158
197.674	288
197.743	-447
197.812	80
197.880	521
197.949	-477
198.017	197
198.086	574
198.155	-466
198.223	440
198.292	474
198.360	-14
198.429	-526
198.497	-333
198.566	-197
198.635	145
198.703	-506
198.772	106
198.840	-218
198.909	37
198.977	260
199.046	156
199.114	-216
199.183	553
199.251	-15
199.320	-334
199.388	173
199.457	514
199.525	-247
199.594	117
199.662	-149
199.731	559
199.799	-58
199.867	684
199.936	70
200.004	385
200.073	149
200.141	179
200.210	-1027
200.278	181
200.346	-91
200.415	-51
200.483	76
200.552	856
200.620	-33
200.688	-517
200.757	143
200.825	-222
200.893	-384
200.962	-439
201.030	-449
201.098	-326
201.167	-225
201.235	172
201.303	-827
201.372	793
201.440	-21
201.508	-23
201.577	-437
201.645	-101
201.713	-412
201.781	294
201.850	542
201.918	-286
201.986	-203
202.055	863
202.123	170
202.191	-31
202.259	-107
202.327	-141
202.396	435
202.464	-700
202.532	73
202.600	886
202.669	370
202.737	139
202.805	-103
202.873	80
202.941	127
203.009	54
203.078	130
203.146	626
203.214	-713
203.282	157
203.350	317
203.418	-272
203.487	811
203.555	-215
203.623	212
203.691	-16
203.759	-164
203.827	209
203.895	-578
203.963	49
204.031	-622
204.099	63
204.168	-246
204.236	514
204.304	753
204.372	-756
204.440	336
204.508	-151
204.576	-390
204.644	127
204.712	141
204.780	-397
204.848	143
204.916	-343
204.984	-584
205.052	706
205.120	-880
205.188	179
205.256	-307
205.324	-345
205.392	458
205.460	199
205.528	-177
205.596	473
205.664	-113
205.732	96
205.799	216
205.867	544
205.935	-1110
206.003	448
206.071	-538
206.139	-35
206.207	-124
206.275	5
206.343	42
206.411	-62
206.478	-781
206.546	319
206.614	485
206.682	-163
206.750	-175
206.818	335
206.885	293
206.953	-872
207.021	842
207.089	311
207.157	-1012
207.225	417
207.292	-405
207.360	-69
207.428	-286
207.496	-526
207.563	-684
207.631	163
207.699	-180
207.767	-121
207.834	-457
207.902	456
207.970	-442
208.038	1
208.105	79
208.173	918
208.241	-448
208.309	14
208.376	-152
208.444	1101
208.512	247
208.579	-902
208.647	200
208.715	1647
208.782	-756
208.850	625
208.918	-333
208.985	621
209.053	89
209.120	147
209.188	-166
209.256	395
209.323	-710
209.391	-140
209.459	1265
209.526	574
209.594	13
209.661	496
209.729	115
209.796	333
209.864	288
209.932	-753
209.999	1539
210.067	582
210.134	615
210.202	256
210.269	250
210.337	289
210.404	458
210.472	167
210.539	682
210.607	200
210.674	15
210.742	540
210.809	179
210.877	332
210.944	506
211.012	-804
211.079	1921
211.146	837
211.214	381
211.281	-666
211.349	182
211.416	742
211.484	-104
211.551	106
211.618	414
211.686	-265
211.753	104
211.821	570
211.888	-242
211.955	149
212.023	81
212.090	-54
212.157	-206
212.225	374
212.292	339
212.359	1207
212.427	1570
212.494	1329
212.561	123
212.629	641
212.696	275
212.763	335
212.831	-1013
212.898	1257
212.965	-530
213.032	306
213.100	260
213.167	-651
213.234	1514
213.301	-60
213.369	-179
213.436	463
213.503	-161
213.570	368
213.638	699
213.705	249
213.772	-1595
213.839	251
213.906	922
213.973	1048
214.041	136
214.108	941
214.175	64
214.242	188
214.309	496
214.376	734
214.444	121
214.511	1213
214.578	-167
214.645	1119
214.712	252
214.779	-114
214.846	-510
214.913	855
214.980	1025
215.048	361
215.115	424
215.182	420
215.249	341
215.316	220
215.383	1415
215.450	265
215.517	135
215.584	537
215.651	-486
215.718	1178
215.785	235
215.852	-320
215.919	1005
215.986	619
216.053	-385
216.120	432
216.187	1045
216.254	-419
216.321	429
216.388	495
216.455	131
216.522	1087
216.589	-135
216.656	923
216.722	58
216.789	918
216.856	851
216.923	340
216.990	653
217.057	642
217.124	449
217.191	755
217.258	980
217.324	1336
217.391	1103
217.458	1264
217.525	777
217.592	263
217.659	-814
217.725	1284
217.792	-203
217.859	1334
217.926	-558
217.993	704
218.059	1228
218.126	4
218.193	311
218.260	315
218.327	82
218.393	322
218.460	91
218.527	-455
218.594	-17
218.660	382
218.727	162
218.794	-553
218.860	926
218.927	-384
218.994	629
219.061	-424
219.127	888
219.194	541
219.261	516
219.327	-104
219.394	264
219.461	-725
219.527	134
219.594	-368
219.661	-545
219.727	-675
219.794	1400
219.860	-51
219.927	960
219.994	815
220.060	475
220.127	1687
220.193	655
220.260	270
220.326	1602
220.393	1262
220.460	1570
220.526	1272
220.593	1376
220.659	2806
220.726	1182
220.792	1638
220.859	2425
220.925	2379
220.992	3180
221.058	2884
221.125	2672
221.191	1285
221.258	354
221.324	930
221.391	439
221.457	41
221.524	146
221.590	1297
221.657	1086
221.723	425
221.789	613
221.856	1119
221.922	-166
221.989	864
222.055	-20
222.121	-822
222.188	1080
222.254	256
222.321	-259
222.387	-27
222.453	252
222.520	281
222.586	-623
222.652	335
222.719	-968
222.785	1248
222.851	240
222.918	237
222.984	90
223.050	-614
223.116	-837
223.183	881
223.249	-410
223.315	-133
223.382	-197
223.448	645
223.514	-859
223.580	86
223.647	-716
223.713	-264
223.779	-39
223.845	177
223.911	76
223.978	-950
224.044	-264
224.110	-347
224.176	383
224.242	169
224.309	-273
224.375	633
224.441	-576
224.507	268
224.573	-916
224.639	269
224.705	64
224.772	512
224.838	-710
224.904	261
224.970	-102
225.036	169
225.102	-1463
225.168	1433
225.234	163
225.300	-59
225.366	648
225.432	133
225.499	379
225.565	159
225.631	181
225.697	51
225.763	992
225.829	-22
225.895	1175
225.961	819
226.027	1045
226.093	547
226.159	1544
226.225	2380
226.291	3315
226.357	5755
226.423	3156
226.489	1321
226.554	2628
226.620	969
226.686	1198
226.752	2286
226.818	3331
226.884	6356
226.950	6078
227.016	3179
227.082	2148
227.148	888
227.214	1353
227.279	495
227.345	600
227.411	847
227.477	1003
227.543	2870
227.609	2161
227.674	1509
227.740	708
227.806	765
227.872	300
227.938	648
228.003	487
228.069	595
228.135	-1445
228.201	-182
228.267	40
228.332	256
228.398	-1232
228.464	16
228.530	414
228.595	98
228.661	80
228.727	-63
228.792	878
228.858	-820
228.924	-688
228.990	1330
229.055	-586
229.121	818
229.187	218
229.252	-556
229.318	-397
229.384	556
229.449	-584
229.515	-961
229.581	-501
229.646	1545
229.712	-141
229.777	-157
229.843	-444
229.909	1022
229.974	608
230.040	526
230.105	700
230.171	-507
230.236	772
230.302	320
230.368	447
230.433	2346
230.499	1438
230.564	1014
230.630	-666
230.695	178
230.761	899
230.826	-1382
230.892	1106
230.957	-104
231.023	371
231.088	21
231.154	-660
231.219	1098
231.284	-513
231.350	835
231.415	-755
231.481	824
231.546	-288
231.612	157
231.677	-116
231.742	-800
231.808	1580
231.873	-402
231.939	-2040
232.004	1791
232.069	870
232.135	-850
232.200	93
232.265	-426
232.331	-462
232.396	35
232.461	-469
232.527	-273
232.592	-1292
232.657	419
232.723	46
232.788	-441
232.853	443
232.918	253
232.984	-1243
233.049	342
233.114	-436
233.179	26
233.245	663
233.310	204
233.375	-1142
233.440	681
233.506	2482
233.571	2584
233.636	524
233.701	58
233.766	212
233.832	8
233.897	-693
233.962	-1507
234.027	1359
234.092	522
234.157	-325
234.222	-779
234.288	-98
234.353	-327
234.418	1286
234.483	785
234.548	-157
234.613	-25
234.678	219
234.743	274
234.808	1360
234.873	-420
234.938	1668
235.004	608
235.069	-593
235.134	-380
235.199	360
235.264	314
235.329	-1287
235.394	553
235.459	1439
235.524	-749
235.589	1346
235.654	-28
235.719	-990
235.784	1566
235.849	-265
235.913	453
235.978	774
236.043	1013
236.108	-320
236.173	-315
236.238	-73
236.303	-809
236.368	-700
236.433	1290
236.498	499
236.563	1594
236.627	2246
236.692	8087
236.757	7641
236.822	3095
236.887	1119
236.952	1262
237.017	19
237.081	3015
237.146	1293
237.211	4568
237.276	7917
237.341	11263
237.405	6590
237.470	3518
237.535	2101
237.600	1455
237.664	1496
237.729	685
237.794	485
237.859	3231
237.923	1224
237.988	1004
238.053	1390
238.118	420
238.182	269
238.247	2593
238.312	-108
238.376	801
238.441	-1118
238.506	1026
238.570	-1161
238.635	1483
238.700	1020
238.764	548
238.829	18
238.893	-21
238.958	842
239.023	439
239.087	116
239.152	806
239.216	-1172
239.281	403
239.346	-57
239.410	139
239.475	-121
239.539	1656
239.604	-553
239.668	537
239.733	-46
239.797	1988
239.862	4939
239.926	3708
239.991	1784
240.055	201
240.120	-572
240.184	575
240.249	-419
240.313	-681
240.378	654
240.442	717
240.507	815
240.571	-186
240.635	-177
240.700	211
240.764	-451
240.829	487
240.893	-1202
240.957	293
241.022	312
241.086	942
241.151	-978
241.215	-1013
241.279	520
241.344	-502
241.408	164
241.472	458
241.537	1078
241.601	1169
241.665	-1306
241.730	-163
241.794	1879
241.858	-234
241.922	320
241.987	462
242.051	308
242.115	-926
242.179	355
242.244	-360
242.308	445
242.372	144
242.436	-533
242.501	578
242.565	-905
242.629	-643
242.693	1112
242.757	-290
242.822	-185
242.886	130
242.950	1014
243.014	-811
243.078	598
243.142	105
243.206	58
243.271	558
243.335	-927
243.399	605
243.463	1754
243.527	7094
243.591	709
243.655	858
243.719	-543
243.783	1269
243.847	629
243.911	863
243.975	181
244.040	-162
244.104	1468
244.168	445
244.232	-1020
244.296	88
244.360	778
244.424	268
244.488	780
244.552	913
244.615	-1657
244.679	-126
244.743	74
244.807	-465
244.871	214
244.935	351
244.999	-1150
245.063	-1544
245.127	609
245.191	796
245.255	17
245.319	852
245.383	-1142
245.446	1363
245.510	-377
245.574	-586
245.638	746
245.702	-1238
245.766	733
245.829	1414
245.893	-702
245.957	-591
246.021	1259
246.085	296
246.149	123
246.212	1802
246.276	1194
246.340	-123
246.404	315
246.467	1356
246.531	-1152
246.595	1334
246.659	799
246.722	-773
246.786	776
246.850	982
246.913	1411
246.977	-14
247.041	21
247.104	649
247.168	721
247.232	910
247.295	2524
247.359	1594
247.423	373
247.486	576
247.550	1332
247.614	-103
247.677	270
247.741	638
247.804	-215
247.868	950
247.932	47
247.995	3427
248.059	677
248.122	-1231
248.186	1240
248.249	1161
248.313	4346
248.376	5674
248.440	2981
248.503	406
248.567	1675
248.630	-73
248.694	1913
248.757	3577
248.821	5131
248.884	3860
248.948	2238
249.011	5236
249.075	5124
249.138	5828
249.202	1004
249.265	654
249.328	1553
249.392	208
249.455	1457
249.519	590
249.582	855
249.645	1784
249.709	959
249.772	466
249.835	492
249.899	776
249.962	691
250.025	116
250.089	1443
250.152	2914
250.215	1534
250.279	161
250.342	1357
250.405	1585
250.468	-78
250.532	1098
250.595	2192
250.658	4528
250.721	10359
250.785	4144
250.848	3081
250.911	1733
250.974	1771
251.038	1127
251.101	2841
251.164	1515
251.227	2052
251.290	1907
251.354	2913
251.417	7532
251.480	9087
251.543	5755
251.606	13718
251.669	14220
251.732	4861
251.795	4707
251.859	4983
251.922	10209
251.985	6991
252.048	3004
252.111	2097
252.174	1016
252.237	3053
252.300	7308
252.363	5723
252.426	12900
252.489	5124
252.552	3290
252.615	465
252.678	2758
252.741	4642
252.804	5224
252.867	13758
252.930	7858
252.993	4208
253.056	3607
253.119	1188
253.182	845
253.245	1175
253.308	1732
253.371	760
253.434	1481
253.497	950
253.559	3441
253.622	965
253.685	1317
253.748	1779
253.811	805
253.874	1334
253.937	295
254.000	1199
254.062	1382
254.125	2496
254.188	2945
254.251	1476
254.314	556
254.376	956
254.439	1319
254.502	1852
254.565	1177
254.628	3720
254.690	1468
254.753	685
254.816	76
254.878	202
254.941	1593
255.004	1494
255.067	1637
255.129	132
255.192	352
255.255	-809
255.317	1012
255.380	480
255.443	592
255.505	-393
255.568	-288
255.631	282
255.693	624
255.756	-121
255.819	1343
255.881	-304
255.944	279
256.006	-955
256.069	-150
256.132	84
256.194	186
256.257	896
256.319	464
256.382	-678
256.444	845
256.507	1017
256.569	454
256.632	254
256.694	678
256.757	4324
256.819	15565
256.882	6799
256.944	2644
257.007	1482
257.069	567
257.132	439
257.194	1405
257.257	-342
257.319	-448
257.381	416
257.444	3904
257.506	13463
257.569	20379
257.631	7066
257.693	3508
257.756	1866
257.818	751
257.880	289
257.943	1126
258.005	-399
258.067	719
258.130	174
258.192	1071
258.254	-555
258.317	350
258.379	153
258.441	1084
258.503	1887
258.566	995
258.628	1329
258.690	-85
258.753	419
258.815	1224
258.877	215
258.939	195
259.001	1172
259.064	103
259.126	-511
259.188	-237
259.250	-121
259.312	-126
259.375	402
259.437	434
259.499	382
259.561	-64
259.623	176
259.685	66
259.747	92
259.809	1495
259.872	943
259.934	2674
259.996	2901
260.058	1326
260.120	4
260.182	319
260.244	-84
260.306	-262
260.368	512
260.430	-228
260.492	762
260.554	2921
260.616	244
260.678	1005
260.740	1069
260.802	-443
260.864	694
260.926	-478
260.988	448
261.050	-310
261.112	178
261.174	3775
261.236	1769
261.298	430
261.359	94
261.421	1925
261.483	-738
261.545	1240
261.607	-1148
261.669	406
261.731	-477
261.793	830
261.854	-452
261.916	137
261.978	-146
262.040	-291
262.102	380
262.164	-861
262.225	31
262.287	1161
262.349	903
262.411	802
262.472	1436
262.534	-89
262.596	837
262.658	-142
262.719	-389
262.781	458
262.843	-1146
262.904	774
262.966	-181
263.028	-84
263.090	1603
263.151	6302
263.213	2562
263.275	1070
263.336	400
263.398	627
263.459	-209
263.521	383
263.583	480
263.644	627
263.706	166
263.767	-795
263.829	465
263.891	202
263.952	-307
264.014	130
264.075	-474
264.137	1993
264.198	604
264.260	-417
264.321	-291
264.383	1040
264.444	3301
264.506	827
264.567	-16
264.629	1757
264.690	1866
264.752	1281
264.813	699
264.875	121
264.936	1035
264.998	-430
265.059	-27
265.120	111
265.182	444
265.243	6572
265.305	10016
265.366	2881
265.427	1810
265.489	1784
265.550	-840
265.611	995
265.673	0
265.734	262
265.795	454
265.857	-400
265.918	-244
265.979	2010
266.040	11521
266.102	14085
266.163	3738
266.224	1775
266.286	34
266.347	107
266.408	264
266.469	322
266.530	546
266.592	211
266.653	393
266.714	1453
266.775	-160
266.836	656
266.898	-45
266.959	-459
267.020	-290
267.081	902
267.142	-515
267.203	-6
267.264	-320
267.326	540
267.387	-527
267.448	-27
267.509	-414
267.570	-128
267.631	-585
267.692	-1545
267.753	-295
267.814	-566
267.875	355
267.936	1873
267.997	351
268.058	393
268.119	-193
268.180	-409
268.241	-274
268.302	-729
268.363	-32
268.424	-199
268.485	-954
268.546	38
268.607	334
268.668	-121
268.729	-1387
268.790	-281
268.851	130
268.912	1045
268.972	204
269.033	-57
269.094	-283
269.155	357
269.216	30
269.277	388
269.338	-153
269.398	614
269.459	-616
269.520	426
269.581	169
269.642	810
269.702	-363
269.763	787
269.824	-257
269.885	798
269.945	-35
270.006	719
270.067	-1135
270.128	-907
270.188	-367
270.249	-182
270.310	421
270.370	749
270.431	-248
270.492	-23
270.553	-275
270.613	791
270.674	1370
270.734	-4
270.795	-1100
270.856	137
270.916	167
270.977	-64
271.038	47
271.098	216
271.159	-399
271.219	115
271.280	640
271.340	298
271.401	-183
271.462	616
271.522	650
271.583	273
271.643	142
271.704	-150
271.764	-68
271.825	732
271.885	4354
271.946	7233
272.006	2353
272.066	2489
272.127	5773
272.187	2767
272.248	1465
272.308	-40
272.369	3220
272.429	2309
272.489	611
272.550	610
272.610	996
272.671	811
272.731	228
272.791	686
272.852	330
272.912	350
272.972	286
273.033	14
273.093	-39
273.153	832
273.214	290
273.274	-865
273.334	2039
273.394	4413
273.455	1548
273.515	1856
273.575	3678
273.635	1843
273.696	1423
273.756	4892
273.816	1383
273.876	1084
273.936	549
273.997	1210
274.057	18
274.117	482
274.177	-189
274.237	5348
274.297	6128
274.358	1932
274.418	2819
274.478	3638
274.538	1068
274.598	542
274.658	837
274.718	1677
274.778	709
274.838	899
274.898	217
274.958	1455
275.018	3355
275.078	3008
275.138	824
275.198	197
275.258	-921
275.318	185
275.378	668
275.438	1233
275.498	187
275.558	992
275.618	2064
275.678	2911
275.738	1679
275.798	1502
275.858	220
275.918	-359
275.978	-919
276.038	-179
276.098	-199
276.157	234
276.217	3160
276.277	1152
276.337	490
276.397	211
276.457	-397
276.517	586
276.576	213
276.636	3
276.696	549
276.756	1350
276.815	1498
276.875	442
276.935	605
276.995	500
277.055	217
277.114	346
277.174	599
277.234	2950
277.293	1627
277.353	237
277.413	316
277.472	575
277.532	417
277.592	1597
277.651	2190
277.711	7831
277.771	2309
277.830	7314
277.890	7374
277.950	2830
278.009	13259
278.069	6663
278.128	3535
278.188	8575
278.248	2743
278.307	7852
278.367	5443
278.426	1511
278.486	401
278.545	951
278.605	385
278.664	652
278.724	468
278.783	2082
278.843	5372
278.902	1609
278.962	1061
279.021	1346
279.081	380
279.140	1164
279.199	693
279.259	1197
279.318	2013
279.378	2065
279.437	1853
279.496	9262
279.556	25182
279.615	24385
279.675	6570
279.734	3098
279.793	4007
279.853	7750
279.912	4228
279.971	2363
280.031	1535
280.090	2313
280.149	6502
280.208	3551
280.268	14889
280.327	21276
280.386	4551
280.445	2599
280.505	2143
280.564	1979
280.623	67
280.682	1156
280.742	3070
280.801	1003
280.860	325
280.919	528
280.978	6
281.037	364
281.097	244
281.156	932
281.215	860
281.274	84
281.333	3093
281.392	3789
281.451	-81
281.510	-140
281.569	20
281.628	760
281.688	-2
281.747	700
281.806	-311
281.865	36
281.924	-14
281.983	15
282.042	-297
282.101	428
282.160	-191
282.219	128
282.278	1
282.337	937
282.396	1216
282.454	44
282.513	390
282.572	3480
282.631	1473
282.690	57
282.749	161
282.808	539
282.867	-413
282.926	459
282.985	1046
283.043	72
283.102	191
283.161	228
283.220	800
283.279	3372
283.338	1061
283.396	408
283.455	200
283.514	-121
283.573	499
283.631	1544
283.690	24
283.749	549
283.808	967
283.866	2558
283.925	1199
283.984	1253
284.043	609
284.101	1930
284.160	818
284.219	1110
284.277	1037
284.336	1909
284.395	4128
284.453	4464
284.512	1342
284.570	3029
284.629	2697
284.688	2668
284.746	3086
284.805	4260
284.863	4747
284.922	7206
284.981	9147
285.039	13098
285.098	21831
285.156	39802
285.215	51860
285.273	51160
285.332	48757
285.390	30003
285.449	18581
285.507	13281
285.566	9301
285.624	6725
285.683	5176
285.741	4805
285.799	3487
285.858	2919
285.916	2517
285.975	2218
286.033	1725
286.091	1741
286.150	967
286.208	2406
286.267	1065
286.325	1641
286.383	1607
286.442	1559
286.500	1318
286.558	743
286.616	1151
286.675	917
286.733	579
286.791	328
286.850	860
286.908	1086
286.966	1373
287.024	800
287.083	32
287.141	521
287.199	688
287.257	1075
287.315	692
287.374	334
287.432	1383
287.490	1619
287.548	976
287.606	662
287.664	541
287.723	1026
287.781	1407
287.839	346
287.897	518
287.955	1533
288.013	2000
288.071	3853
288.129	11489
288.187	41163
288.245	24115
288.303	7146
288.361	3540
288.419	2212
288.477	1544
288.535	843
288.593	673
288.651	374
288.709	-48
288.767	613
288.825	-1082
288.883	691
288.941	-186
288.999	-258
289.057	125
289.115	-45
289.173	32
289.231	120
289.289	-672
289.346	-651
289.404	318
289.462	793
289.520	258
289.578	535
289.636	-23
289.694	-191
289.751	72
289.809	423
289.867	115
289.925	990
289.983	-257
290.040	-386
290.098	472
290.156	-153
290.214	-5
290.271	-124
290.329	530
290.387	279
290.444	64
290.502	-471
290.560	-367
290.617	127
290.675	258
290.733	91
290.790	-335
290.848	733
290.906	-428
290.963	-517
291.021	-211
291.078	886
291.136	304
291.194	1526
291.251	4952
291.309	1707
291.366	-70
291.424	322
291.481	91
291.539	-36
291.596	-37
291.654	54
291.711	176
291.769	97
291.826	622
291.884	435
291.941	-861
291.999	560
292.056	-268
292.114	355
292.171	55
292.228	-250
292.286	592
292.343	222
292.401	503
292.458	1083
292.515	-450
292.573	659
292.630	-272
292.687	240
292.745	-158
292.802	660
292.859	2331
292.917	3759
292.974	2596
293.031	-82
293.089	578
293.146	-447
293.203	-286
293.260	70
293.318	157
293.375	1240
293.432	-253
293.489	236
293.546	-273
293.604	441
293.661	1641
293.718	7835
293.775	4422
293.832	1202
293.889	1149
293.947	720
294.004	-5
294.061	488
294.118	1015
294.175	4259
294.232	6146
294.289	3475
294.346	1591
294.403	1037
294.460	998
294.517	466
294.574	-408
294.631	570
294.688	217
294.745	2113
294.802	7283
294.859	11194
294.916	3957
294.973	1074
295.030	455
295.087	1573
295.144	344
295.201	542
295.258	245
295.315	497
295.372	1471
295.429	6262
295.486	2840
295.542	1210
295.599	3240
295.656	8469
295.713	5219
295.770	6657
295.827	2579
295.883	1240
295.940	713
295.997	925
296.054	741
296.111	1129
296.167	142
296.224	131
296.281	-367
296.338	16
296.394	148
296.451	795
296.508	1544
296.564	5081
296.621	3793
296.678	6217
296.734	11059
296.791	4913
296.848	1770
296.904	2003
296.961	2791
297.018	6007
297.074	6346
297.131	2185
297.187	1176
297.244	1850
297.301	4675
297.357	14340
297.414	5263
297.470	2612
297.527	986
297.583	976
297.640	107
297.696	-200
297.753	128
297.809	393
297.866	110
297.922	805
297.979	-662
298.035	-476
298.092	787
298.148	3584
298.204	4486
298.261	1531
298.317	2291
298.374	8302
298.430	5727
298.486	1750
298.543	416
298.599	700
298.656	85
298.712	2079
298.768	4642
298.824	4909
298.881	891
298.937	740
298.993	712
299.050	394
299.106	204
299.162	1459
299.218	1149
299.275	378
299.331	418
299.387	1990
299.443	7324
299.500	12892
299.556	7949
299.612	2848
299.668	1496
299.724	4459
299.780	7168
299.837	3123
299.893	1729
299.949	6189
300.005	10830
300.061	7896
300.117	15080
300.173	8926
300.229	2913
300.285	1641
300.341	3764
300.397	1735
300.453	569
300.510	616
300.566	1641
300.622	2583
300.678	8142
300.734	15832
300.790	10717
300.845	9994
300.901	7406
300.957	11342
301.013	7650
301.069	2445
301.125	1632
301.181	1239
301.237	813
301.293	205
301.349	655
301.405	602
301.461	279
301.516	1517
301.572	1054
301.628	1862
301.684	1192
301.740	1246
301.796	3880
301.851	3100
301.907	3754
301.963	4377
302.019	5870
302.074	20368
302.130	24848
302.186	13055
302.242	4782
302.297	3611
302.353	2392
302.409	4153
302.464	3974
302.520	3697
302.576	6288
302.631	10405
302.687	5656
302.743	2616
302.798	1178
302.854	1055
302.910	1063
302.965	1532
303.021	2300
303.076	2236
303.132	2810
303.187	3165
303.243	1992
303.299	1314
303.354	689
303.410	1415
303.465	1292
303.521	291
303.576	385
303.632	815
303.687	1507
303.743	6861
303.798	8575
303.853	3627
303.909	879
303.964	816
304.020	197
304.075	2911
304.130	1605
304.186	3296
304.241	5077
304.297	3201
304.352	2266
304.358	2167
304.407	1355
304.449	1147
304.463	1080
304.518	1241
304.539	1374
304.573	1576
304.629	1139
304.630	1154
304.684	1930
304.720	3861
304.739	4774
304.794	9622
304.811	8593
304.850	6017
304.902	2527
304.905	2311
304.960	2130
304.992	1696
305.015	1345
305.071	1899
305.083	1657
305.126	779
305.173	1067
305.181	1139
305.236	459
305.264	985
305.292	1450
305.347	1410
305.354	1404
305.402	1492
305.445	1824
305.457	1899
305.512	1972
305.535	2363
305.567	2903
305.622	2343
305.626	2377
305.678	4282
305.716	8032
305.733	8960
305.788	11140
305.807	9998
305.843	8756
305.897	8733
305.898	8711
305.953	11130
305.988	7529
306.008	5700
306.063	4683
306.078	4104
306.118	2687
306.168	1711
306.173	1633
306.228	1382
306.259	1404
306.283	1541
306.338	1303
306.349	1483
306.393	2153
306.440	2094
306.448	2097
306.503	2758
306.530	2530
306.558	2783
306.613	5375
306.620	5697
306.668	8210
306.711	10955
306.723	10882
306.778	8764
306.801	6691
306.833	4893
306.888	3268
306.892	3172
306.943	2583
306.982	2335
306.997	2582
307.052	4697
307.072	5560
307.107	9613
307.162	19157
307.163	19202
307.217	15997
307.253	10460
307.272	8934
307.327	5737
307.343	5274
307.381	4963
307.434	4183
307.436	4261
307.491	7232
307.524	9287
307.546	9513
307.600	10533
307.614	9984
307.655	7375
307.704	4570
307.710	4542
307.765	5087
307.795	5618
307.819	6356
307.874	8700
307.885	9043
307.929	9737
307.975	10428
307.984	11300
308.038	17851
308.065	21884
308.093	36915
308.148	70392
308.156	76707
308.202	106520
308.246	132734
308.257	128437
308.312	80664
308.336	57406
308.366	43452
308.421	25069
308.426	23411
308.475	16184
308.517	11898
308.530	11229
308.585	9779
308.607	9033
308.639	8733
308.694	8977
308.697	9003
308.748	11491
308.787	13415
308.803	13310
308.857	12728
308.877	12028
308.912	12671
308.967	14781
308.967	14793
309.021	21958
309.058	26878
309.076	33692
309.130	56278
309.148	64224
309.185	101070
309.238	160052
309.239	160717
309.293	172412
309.328	170639
309.348	152752
309.402	90923
309.418	73395
309.457	54436
309.508	32800
309.511	32405
309.566	28325
309.598	26229
309.620	28402
309.674	35647
309.688	37684
309.729	36959
309.778	33839
309.783	33201
309.837	23759
309.868	18682
309.892	19096
309.946	20850
309.959	21539
310.001	24908
310.049	28093
310.055	27080
310.109	16804
310.139	10636
310.163	8817
310.218	5721
310.229	5150
310.272	5157
310.319	5382
310.326	5265
310.381	4092
310.409	3647
310.435	3746
310.489	3680
310.499	3738
310.543	3773
310.589	3434
310.598	3525
310.652	4484
310.679	4751
310.706	4295
310.760	3553
310.769	3419
310.814	3137
310.859	2850
310.868	2986
310.923	3606
310.948	3944
310.977	4138
311.031	4405
311.038	4448
311.085	4018
311.128	3380
311.139	3427
311.193	3890
311.218	3952
311.247	3844
311.301	3915
311.308	3888
311.356	3464
311.398	3070
311.410	3095
311.464	3188
311.488	3211
311.518	3136
311.572	2984
311.578	2964
311.626	3868
311.668	4620
311.680	4630
311.734	4536
311.758	4490
311.788	4242
311.842	3839
311.847	3782
311.896	5216
311.937	6444
311.950	6261
312.004	5381
312.027	4978
312.058	4748
312.112	4315
312.117	4260
312.165	3806
312.207	3398
312.297	5071
312.386	3999
312.476	4025
312.566	6530
312.656	4135
312.745	3615
312.835	4099
312.925	4047
313.015	3865
313.104	3302
313.194	4048
313.284	3330
313.374	4874
313.463	4114
313.553	4562
313.643	3016
313.732	4157
313.822	4717
313.912	4904
314.001	4803
314.091	5358
314.180	5895
314.270	5956
314.360	5487
314.449	5235
314.539	4803
314.628	4536
314.718	4608
314.808	5217
314.897	4378
314.987	5404
315.076	4625
315.166	5635
315.255	5091
315.345	6028
315.434	4166
315.524	4712
315.613	5616
315.703	6933
315.792	10901
315.881	32968
315.971	12506
316.060	7653
316.150	7937
316.239	7725
316.328	4831
316.418	4016
316.507	4133
316.597	6471
316.686	5953
316.775	5550
316.865	7826
316.954	4446
317.043	5330
317.133	3851
317.222	3057
317.311	3505
317.400	2751
317.490	5731
317.579	5356
317.668	5185
317.757	7745
317.847	18072
317.936	55691
318.025	18978
318.114	13233
318.203	8845
318.293	11612
318.382	22769
318.471	16752
318.560	20102
318.649	29685
318.738	7395
318.828	5465
318.917	5639
319.006	5748
319.095	10189
319.184	35873
319.273	17273
319.362	9278
319.451	4340
319.540	4507
319.629	7226
319.718	11210
319.807	7194
319.896	11300
319.985	44167
320.074	14345
320.163	5256
320.252	6392
320.341	7084
320.430	6271
320.519	6906
320.608	5948
320.697	6553
320.786	5509
320.875	7054
320.964	7101
321.053	9926
321.142	12508
321.230	13187
321.319	11803
321.408	21071
321.497	11616
321.586	10814
321.675	9908
321.764	11021
321.852	9078
321.941	13203
322.030	9693
322.119	11662
322.207	21001
322.296	15733
322.385	13193
322.474	13414
322.562	25798
322.651	15462
322.740	11413
322.829	12930
322.917	11762
323.006	9031
323.095	8120
323.183	6136
323.272	8495
323.361	11815
323.449	26321
323.538	9429
323.626	18127
323.715	11823
323.804	6350
323.892	16743
323.981	9916
324.069	5918
324.158	9216
324.246	8912
324.335	5685
324.424	7831
324.512	4465
324.601	5319
324.689	5415
324.778	6258
324.866	6846
324.954	3498
325.043	3750
325.131	5148
325.220	7846
325.308	8235
325.397	6337
325.485	5086
325.574	4162
325.662	3378
325.750	3121
325.839	4186
325.927	3051
326.015	3800
326.104	4213
326.192	5358
326.280	3799
326.369	3987
326.457	4483
326.545	6526
326.634	4292
326.722	3685
326.810	3995
326.898	4441
326.987	4746
327.075	6582
327.163	6058
327.251	4087
327.340	4611
327.428	5942
327.516	4633
327.604	4329
327.692	3159
327.781	3852
327.869	4171
327.957	4053
328.045	3229
328.133	3955
328.221	3449
328.309	3906
328.397	2827
328.485	3703
328.574	5929
328.662	14964
328.750	7653
328.838	3511
328.926	2945
329.014	3383
329.102	3857
329.190	8729
329.278	5367
329.366	4114
329.454	2614
329.542	3398
329.630	3327
329.718	3573
329.806	4278
329.893	4908
329.981	4277
330.069	6660
330.157	22352
330.245	69089
330.333	32254
330.421	6676
330.509	5293
330.597	14411
330.684	10248
330.772	4900
330.860	5187
330.948	8038
331.036	4838
331.123	2734
331.211	3436
331.299	4357
331.387	7025
331.475	10347
331.562	4087
331.650	2865
331.738	2254
331.825	4503
331.913	2776
332.001	3688
332.089	3704
332.176	5808
332.264	8940
332.352	7802
332.439	5352
332.527	4619
332.614	3198
332.702	3711
332.790	3280
332.877	5604
332.965	10980
333.052	7039
333.140	6900
333.228	16545
333.315	5761
333.403	4441
333.490	7566
333.578	8154
333.665	21721
333.753	11482
333.840	4477
333.928	4990
334.015	8519
334.103	15036
334.190	41262
334.278	14622
334.365	12244
334.452	10457
334.540	7778
334.627	7955
334.715	11069
334.802	16348
334.889	40521
334.977	43791
335.064	16828
335.151	10295
335.239	8538
335.326	8467
335.413	26145
335.501	31407
335.588	8844
335.675	8836
335.762	11465
335.850	15463
335.937	17817
336.024	28913
336.111	59510
336.199	38033
336.286	15922
336.373	10655
336.460	6858
336.547	6321
336.635	6726
336.722	5240
336.809	4666
336.896	5718
336.983	13176
337.070	31562
337.157	44713
337.245	22073
337.332	13454
337.419	4541
337.506	4489
337.593	5609
337.680	12496
337.767	34135
337.854	10263
337.941	10398
338.028	8975
338.115	4378
338.202	6067
338.289	7587
338.376	19495
338.463	7267
338.550	19203
338.637	20082
338.724	5601
338.811	7276
338.898	3194
338.984	3196
339.071	3381
339.158	3361
339.245	7582
339.332	5758
339.419	5404
339.506	4997
339.593	1941
339.679	3856
339.766	3470
339.853	4224
339.940	6322
340.027	4175
340.113	3573
340.200	4488
340.287	2663
340.374	4302
340.460	5526
340.547	2525
340.634	4852
340.720	15525
340.807	7564
340.894	3555
340.980	3399
341.067	3345
341.154	3660
341.240	3717
341.327	7165
341.414	3677
341.500	2439
341.587	3726
341.674	3633
341.760	5537
341.847	6586
341.933	4867
342.020	3399
342.106	5022
342.193	5674
342.279	6295
342.366	4416
342.452	6382
342.539	3160
342.625	7157
342.712	14871
342.798	7117
342.885	3714
342.971	2695
343.058	1717
343.144	2822
343.230	2598
343.317	3043
343.403	2114
343.490	2469
343.576	1884
343.662	3500
343.749	2754
343.835	2266
343.921	6748
344.008	32178
344.094	71723
344.180	15622
344.267	6652
344.353	20262
344.439	18487
344.525	8021
344.612	6763
344.698	6009
344.784	3767
344.870	3412
344.957	2052
345.043	4750
345.129	2689
345.215	5360
345.301	2642
345.387	2349
345.474	2343
345.560	2232
345.646	1929
345.732	2804
345.818	2552
345.904	3352
345.990	2831
346.076	2806
346.162	3114
346.249	2907
346.335	2861
346.421	3649
346.507	8663
346.593	29466
346.679	6696
346.765	4465
346.851	4703
346.937	3661
347.023	4187
347.108	3764
347.194	2936
347.280	3158
347.366	3947
347.452	12828
347.538	39368
347.624	27501
347.710	19710
347.796	4745
347.882	2947
347.967	3660
348.053	4078
348.139	2864
348.225	2523
348.311	2965
348.397	2630
348.482	3837
348.568	3903
348.654	4670
348.740	9365
348.825	11479
348.911	7834
348.997	17737
349.083	31615
349.168	6017
349.254	2743
349.340	2470
349.425	2646
349.511	3652
349.597	4076
349.682	5185
349.768	21000
349.854	10830
349.939	6319
350.025	18543
350.110	69355
350.196	20327
350.282	3838
350.367	3742
350.453	3648
350.538	2690
350.624	3048
350.709	4414
350.795	2828
350.880	3190
350.966	3126
351.051	3781
351.137	2972
351.222	2957
351.308	7365
351.393	16495
351.479	4102
351.564	2569
351.649	2726
351.735	3052
351.820	2474
351.906	2601
351.991	3339
352.076	11286
352.162	16087
352.247	4665
352.332	3487
352.418	5428
352.503	8816
352.588	26836
352.673	18620
352.759	5752
352.844	3172
352.929	3831
353.014	3916
353.100	5117
353.185	4618
353.270	6023
353.355	7121
353.441	4036
353.526	2905
353.611	6064
353.696	5011
353.781	4903
353.866	2465
353.952	3758
354.037	4962
354.122	11000
354.207	9647
354.292	5457
354.377	4425
354.462	7383
354.547	7798
354.632	6324
354.717	6116
354.802	5101
354.887	3464
354.972	3553
355.057	1851
355.142	2723
355.227	3446
355.312	4932
355.397	7894
355.482	15711
355.567	7759
355.652	7668
355.737	7817
355.822	23683
355.907	17191
355.991	5453
356.076	3135
356.161	4039
356.246	3719
356.331	4232
356.416	5257
356.501	38887
356.585	37393
356.670	6135
356.755	5934
356.840	7241
356.924	23482
357.009	81623
357.094	29797
357.179	8087
357.263	5197
357.348	7055
357.433	5787
357.517	6238
357.602	5204
357.687	5466
357.771	8699
357.856	19852
357.941	15314
358.025	25588
358.110	87514
358.195	39757
358.279	8384
358.364	6268
358.448	14801
358.533	40082
358.617	28281
358.702	29808
358.787	12249
358.871	7067
358.956	6180
359.040	3957
359.125	2706
359.209	4638
359.294	10094
359.378	16981
359.462	8359
359.547	4381
359.631	3639
359.716	2464
359.800	2722
359.885	6403
359.969	4112
360.053	3379
360.138	3970
360.222	4160
360.306	5552
360.391	5936
360.475	10065
360.559	18137
360.644	14503
360.728	11342
360.812	21234
360.896	57146
360.981	21477
361.065	11036
361.149	5691
361.233	5063
361.318	2741
361.402	4899
361.486	4922
361.570	4245
361.654	4937
361.739	8074
361.823	35224
361.907	55039
361.991	10915
362.075	8634
362.159	13665
362.243	17692
362.327	29423
362.411	41107
362.495	16747
362.580	10369
362.664	8559
362.748	9405
362.832	16117
362.916	29560
363.000	79459
363.084	123260
363.168	90913
363.252	23776
363.336	11699
363.420	12402
363.503	32906
363.587	38694
363.671	9725
363.755	8844
363.839	11315
363.923	8592
364.007	13014
364.091	15815
364.175	25005
364.258	79318
364.342	106039
364.426	156866
364.510	79602
364.594	30790
364.677	20080
364.761	52405
364.845	36344
364.929	12375
365.013	9653
365.096	9589
365.180	8645
365.264	15021
365.347	51288
365.431	20425
365.515	6161
365.598	3960
365.682	4891
365.766	6413
365.849	8124
365.933	4190
366.017	6923
366.100	4506
366.184	3160
366.267	5713
366.351	3592
366.435	3193
366.518	3218
366.602	4037
366.685	3540
366.769	4217
366.852	5224
366.936	8433
367.019	4712
367.103	4480
367.186	8693
367.270	3858
367.353	3140
367.436	4534
367.520	3096
367.603	5046
367.687	4858
367.770	7271
367.853	5356
367.937	16306
368.020	25086
368.104	5982
368.187	6728
368.270	8609
368.353	6925
368.437	8053
368.520	12081
368.603	9817
368.687	16545
368.770	31075
368.853	9231
368.936	9194
369.020	8918
369.103	3788
369.186	3676
369.269	4481
369.352	5706
369.436	6974
369.519	4940
369.602	3311
369.685	4678
369.768	3490
369.851	3429
369.934	2440
370.018	3158
370.101	5449
370.184	7273
370.267	5583
370.350	8558
370.433	11306
370.516	28648
370.599	39170
370.682	11334
370.765	16185
370.848	19909
370.931	37913
371.014	15600
371.097	3703
371.180	4354
371.263	3920
371.346	2055
371.429	3859
371.511	3320
371.594	5700
371.677	7710
371.760	10780
371.843	7676
371.926	32146
372.009	72377
372.091	25647
372.174	16291
372.257	39467
372.340	16331
372.423	12738
372.505	14432
372.588	6811
372.671	13455
372.754	36517
372.836	18047
372.919	17294
373.002	29585
373.085	8720
373.167	8724
373.250	17039
373.332	36512
373.415	47091
373.498	93007
373.580	35088
373.663	54824
373.746	68068
373.828	15127
373.911	8249
373.993	7427
374.076	29210
374.159	24908
374.241	12171
374.324	30859
374.406	20550
374.489	28001
374.571	80907
374.654	31860
374.736	15219
374.819	48738
374.901	68473
374.983	68616
375.066	14346
375.148	7694
375.231	24021
375.313	43766
375.395	16514
375.478	6037
375.560	6061
375.643	6023
375.725	15005
375.807	60107
375.890	43055
375.972	12621
376.054	8628
376.136	11169
376.219	7052
376.301	18088
376.383	52160
376.465	19152
376.548	11522
376.630	14585
376.712	45359
376.794	20763
376.877	4936
376.959	2935
377.041	3791
377.123	6682
377.205	8084
377.287	2804
377.369	3605
377.452	2815
377.534	3898
377.616	3030
377.698	3316
377.780	2376
377.862	3915
377.944	4616
378.026	2931
378.108	3500
378.190	3431
378.272	4000
378.354	2788
378.436	2663
378.518	3889
378.600	11577
378.682	10877
378.764	21972
378.846	17198
378.928	5118
379.010	6891
379.091	4645
379.173	4493
379.255	2915
379.337	3986
379.419	11175
379.501	32833
379.583	12796
379.664	4625
379.746	6234
379.828	21073
379.910	27233
379.991	26167
380.073	4837
380.155	4594
380.237	3130
380.318	3461
380.400	3993
380.482	5684
380.564	7893
380.645	7565
380.727	6521
380.809	6245
380.890	4559
380.972	2629
381.053	4060
381.135	4427
381.217	8464
381.298	22818
381.380	11288
381.461	9452
381.543	42723
381.624	51725
381.706	11242
381.787	7555
381.869	8798
381.951	18553
382.032	72017
382.113	46140
382.195	10481
382.276	11420
382.358	16132
382.439	42730
382.521	47373
382.602	72366
382.684	36654
382.765	65954
382.846	98843
382.928	162914
383.009	93863
383.090	78640
383.172	234049
383.253	302712
383.334	106339
383.416	80801
383.497	47970
383.578	37070
383.659	70175
383.741	210857
383.822	419226
383.903	222018
383.984	76460
384.066	86519
384.147	52084
384.228	17215
384.309	13323
384.390	10688
384.471	9880
384.553	10143
384.634	10453
384.715	10124
384.796	8461
384.877	8629
384.958	23437
385.039	25789
385.120	10625
385.201	7784
385.282	7406
385.363	9269
385.444	8842
385.525	14873
385.606	37302
385.687	31275
385.768	9525
385.849	10197
385.930	36280
386.011	62703
386.092	18854
386.173	9330
386.254	8819
386.335	7690
386.416	6845
386.496	15982
386.577	23902
386.658	10390
386.739	7265
386.820	8918
386.901	5710
386.981	7645
387.062	6023
387.143	8332
387.224	23688
387.304	22943
387.385	12161
387.466	8641
387.547	11866
387.627	8651
387.708	13519
387.789	42880
387.869	48293
387.950	17260
388.031	6490
388.111	5242
388.192	10339
388.273	13543
388.353	8738
388.434	6491
388.514	9561
388.595	39268
388.676	47392
388.756	22308
388.837	22225
388.917	20904
388.998	9733
389.078	10600
389.159	25355
389.239	22965
389.320	13947
389.400	6462
389.480	11914
389.561	26618
389.641	13618
389.722	6719
389.802	7334
389.883	12231
389.963	31231
390.043	17569
390.124	5936
390.204	10694
390.284	24960
390.365	15690
390.445	21693
390.525	50597
390.605	43189
390.686	14202
390.766	8087
390.846	7127
390.927	12283
391.007	22686
391.087	13165
391.167	8023
391.247	4781
391.328	7241
391.408	8188
391.488	8481
391.568	3536
391.648	6189
391.728	7870
391.808	8517
391.888	7851
391.969	16837
392.049	23641
392.129	13418
392.209	13883
392.289	32093
392.369	19517
392.449	18475
392.529	13056
392.609	14612
392.689	15599
392.769	35883
392.849	34198
392.929	31596
393.009	58487
393.089	59632
393.169	82323
393.248	203682
393.328	469161
393.408	478483
393.488	216761
393.568	103437
393.648	55552
393.728	30661
393.807	23366
393.887	19777
393.967	17214
394.047	16896
394.127	18707
394.206	30662
394.286	84885
394.366	288329
394.446	313142
394.525	101661
394.605	32852
394.685	21887
394.764	26700
394.844	39426
394.924	33567
395.003	14233
395.083	9549
395.163	9462
395.242	9233
395.322	10114
395.402	7851
395.481	12760
395.561	19015
395.640	48245
395.720	57655
395.799	56988
395.879	44432
395.958	45514
396.038	129753
396.117	363494
396.197	397230
396.276	164428
396.356	60549
396.435	41653
396.515	33007
396.594	38656
396.673	68004
396.753	192309
396.832	432203
396.912	330959
396.991	104920
397.070	40959
397.150	21865
397.229	20829
397.308	31263
397.388	57006
397.467	29689
397.546	12115
397.625	7449
397.705	9247
397.784	7901
397.863	6200
397.942	6284
398.022	5605
398.101	12867
398.180	32993
398.259	17451
398.338	7523
398.417	4423
398.497	4592
398.576	5379
398.655	3651
398.734	4755
398.813	4422
398.892	11202
398.971	36441
399.050	16300
399.129	4073
399.208	6036
399.287	22234
399.366	36141
399.445	13952
399.524	7090
399.603	5937
399.682	5879
399.761	10452
399.840	36399
399.919	28215
399.998	5350
400.077	2296
400.156	1560
400.235	5269
400.313	1674
400.392	2386
400.471	11455
400.550	17383
400.629	3825
400.708	4086
400.786	2778
400.865	7327
400.944	8397
401.023	6018
401.102	1498
401.180	2542
401.259	1178
401.338	2816
401.416	3203
401.495	2060
401.574	3220
401.652	2370
401.731	3348
401.810	2681
401.888	1459
401.967	1597
402.046	2304
402.124	3782
402.203	2572
402.281	3627
402.360	3905
402.438	10255
402.517	5595
402.596	3584
402.674	3371
402.753	1816
402.831	2463
402.910	3567
402.988	6660
403.066	25112
403.145	14985
403.223	9472
403.302	19324
403.380	15561
403.459	13912
403.537	6311
403.615	2303
403.694	1341
403.772	2455
403.850	2103
403.929	863
404.007	1387
404.085	4869
404.164	4485
404.242	2526
404.320	10727
404.398	33420
404.477	31091
404.555	59023
404.633	50418
404.711	26082
404.789	15407
404.868	4228
404.946	2248
405.024	1520
405.102	1482
405.180	1444
405.258	1077
405.336	2434
405.415	1695
405.493	3972
405.571	4020
405.649	1578
405.727	1212
405.805	3618
405.883	3020
405.961	3237
406.039	2940
406.117	1177
406.195	3267
406.273	11450
406.351	44652
406.429	26257
406.507	4678
406.585	1868
406.663	2126
406.740	2277
406.818	2358
406.896	1564
406.974	3387
407.052	3054
407.130	26009
407.208	36085
407.285	8260
407.363	1855
407.441	2614
407.519	2180
407.596	3882
407.674	16531
407.752	71396
407.830	55715
407.907	10476
407.985	3452
408.063	3089
408.141	2078
408.218	4756
408.296	2196
408.373	3033
408.451	3163
408.529	3080
408.606	2238
408.684	2174
408.762	3022
408.839	2233
408.917	3088
408.994	2568
409.072	2304
409.149	4003
409.227	6882
409.304	9311
409.382	8653
409.459	9308
409.537	13631
409.614	13493
409.692	10408
409.769	9620
409.846	13110
409.924	17610
410.001	13207
410.079	10069
410.156	6945
410.233	5446
410.311	3779
410.388	4603
410.465	4954
410.543	4523
410.620	3580
410.697	3520
410.775	3041
410.852	1669
410.929	4484
411.006	5607
411.083	3418
411.161	7316
411.238	6880
411.315	2850
411.392	1930
411.469	4659
411.547	4569
411.624	2404
411.701	3011
411.778	2737
411.855	3389
411.932	2367
412.009	1764
412.086	2516
412.163	1806
412.240	1878
412.317	3735
412.394	3028
412.471	2738
412.548	1073
412.625	1848
412.702	2312
412.779	3969
412.856	4334
412.933	4545
413.010	14528
413.087	30600
413.164	22777
413.241	23261
413.318	6788
413.395	3818
413.471	4384
413.548	2539
413.625	2876
413.702	627
413.779	1523
413.855	167
413.932	280
414.009	749
414.086	1260
414.162	1020
414.239	2546
414.316	8266
414.393	21492
414.469	6818
414.546	1468
414.623	907
414.699	915
414.776	1672
414.853	1228
414.929	1879
415.006	1658
415.082	2159
415.159	1457
415.236	685
415.312	2280
415.389	2083
415.465	2240
415.542	1663
415.618	593
415.695	2414
415.771	1573
415.848	1624
415.924	2023
416.000	530
416.077	1532
416.153	-448
416.230	1040
416.306	661
416.383	335
416.459	1510
416.535	1523
416.612	3140
416.688	3448
416.764	1185
416.841	902
416.917	1619
416.993	1381
417.069	1286
417.146	1643
417.222	2521
417.298	2236
417.374	412
417.451	1930
417.527	1355
417.603	2179
417.679	1357
417.755	1290
417.831	527
417.908	850
417.984	721
418.060	559
418.136	2770
418.212	3082
418.288	1683
418.364	1272
418.440	922
418.516	2782
418.592	2867
418.668	4316
418.744	5600
418.820	4842
418.896	1312
418.972	544
419.048	1159
419.124	4079
419.200	1133
419.276	1459
419.352	687
419.428	1705
419.504	1518
419.579	1679
419.655	1653
419.731	2296
419.807	3436
419.883	7413
419.959	4490
420.034	3110
420.110	3578
420.186	13239
420.262	10489
420.337	2664
420.413	2464
420.489	2355
420.565	3730
420.640	2104
420.716	2445
420.792	1675
420.867	3811
420.943	3918
421.019	3416
421.094	3622
421.170	3601
421.245	3936
421.321	4658
421.397	5390
421.472	16601
421.548	47748
421.623	28818
421.699	9430
421.774	8761
421.850	9447
421.925	11961
422.001	13324
422.076	15209
422.152	18808
422.227	26218
422.302	37300
422.378	56024
422.453	99861
422.529	195849
422.604	323883
422.679	325791
422.755	332721
422.830	212691
422.905	108170
422.981	61396
423.056	40297
423.131	29443
423.207	21444
423.282	17286
423.357	17429
423.432	13665
423.508	11729
423.583	13087
423.658	11657
423.733	8412
423.808	7531
423.883	7566
423.959	7477
424.034	8406
424.109	7595
424.184	6011
424.259	4827
424.334	4382
424.409	3784
424.484	3558
424.559	3023
424.634	2161
424.709	3718
424.784	3057
424.859	3728
424.934	3079
425.009	10038
425.084	15605
425.159	6047
425.234	2458
425.309	1868
425.384	5623
425.459	7582
425.534	3521
425.609	1489
425.683	1759
425.758	1305
425.833	1606
425.908	2581
425.983	5459
426.058	14377
426.132	7021
426.207	2757
426.282	3447
426.357	3120
426.431	2702
426.506	2443
426.581	1069
426.655	893
426.730	1269
426.805	642
426.879	2754
426.954	1335
427.029	3174
427.103	14782
427.178	38631
427.253	16598
427.327	3149
427.402	3724
427.476	9189
427.551	4514
427.625	1304
427.700	2429
427.774	1632
427.849	2532
427.923	1466
427.998	2197
428.072	2733
428.147	7702
428.221	34823
428.296	115001
428.370	67024
428.444	11183
428.519	5621
428.593	8384
428.667	6352
428.742	9034
428.816	14706
428.890	66508
428.965	101357
429.039	26885
429.113	11327
429.188	5379
429.262	2278
429.336	3544
429.410	8430
429.485	5988
429.559	6327
429.633	6221
429.707	3629
429.781	11176
429.855	65342
429.930	96366
430.004	33102
430.078	38572
430.152	51714
430.226	135542
430.300	131895
430.374	26763
430.448	8804
430.522	14370
430.596	34029
430.670	29891
430.744	92151
430.818	110766
430.892	20725
430.966	4505
431.040	2335
431.114	1466
431.188	1005
431.262	1759
431.336	1053
431.410	4081
431.484	8225
431.557	6127
431.631	1932
431.705	4624
431.779	23674
431.853	97900
431.927	66429
432.000	9443
432.074	3522
432.148	2599
432.222	1872
432.295	2351
432.369	1209
432.443	3127
432.516	15928
432.590	39298
432.664	13731
432.737	1903
432.811	76
432.885	326
432.958	1005
433.032	710
433.106	536
433.179	342
433.253	1407
433.326	1311
433.400	471
433.473	1062
433.547	-97
433.620	583
433.694	884
433.767	1498
433.841	-233
433.914	1117
433.988	736
434.061	1323
434.134	881
434.208	749
434.281	-306
434.355	31
434.428	928
434.501	325
434.575	40
434.648	870
434.721	148
434.795	111
434.868	927
434.941	1883
435.014	4985
435.088	8447
435.161	4846
435.234	4014
435.307	3884
435.381	2849
435.454	4592
435.527	5635
435.600	7214
435.673	5920
435.746	3862
435.819	3565
435.892	2719
435.966	2338
436.039	1753
436.112	2249
436.185	1089
436.258	450
436.331	-225
436.404	1177
436.477	271
436.550	785
436.623	646
436.696	770
436.769	-25
436.842	829
436.915	559
436.987	907
437.060	588
437.133	475
437.206	425
437.279	996
437.352	-471
437.425	701
437.498	47
437.570	2376
437.643	1534
437.716	642
437.789	541
437.861	3713
437.934	10492
438.007	4574
438.080	449
438.152	364
438.225	3079
438.298	19625
438.370	56748
438.443	25119
438.516	8905
438.588	2208
438.661	585
438.734	808
438.806	858
438.879	1196
438.951	2320
439.024	4446
439.096	805
439.169	613
439.241	473
439.314	937
439.386	897
439.459	2405
439.531	3552
439.604	2511
439.676	882
439.749	284
439.821	-117
439.893	1444
439.966	76
440.038	1704
440.110	1684
440.183	3634
440.255	11078
440.327	9681
440.400	9856
440.472	35349
440.544	22144
440.617	2964
440.689	4801
440.761	5627
440.833	7643
440.905	5430
440.978	1054
441.050	802
441.122	1141
441.194	594
441.266	155
441.338	242
441.411	3226
441.483	10258
441.555	14624
441.627	4117
441.699	3252
441.771	3192
441.843	1204
441.915	1175
441.987	840
442.059	1653
442.131	2365
442.203	3534
442.275	4186
442.347	6895
442.419	13917
442.491	70715
442.563	158533
442.635	65795
442.706	18247
442.778	11222
442.850	4019
442.922	3981
442.994	4062
443.066	5887
443.137	11576
443.209	23351
443.281	16344
443.353	23542
443.425	84263
443.496	252131
443.568	254670
443.640	103287
443.711	22424
443.783	9972
443.855	4933
443.926	3896
443.998	3339
444.070	4137
444.141	2766
444.213	3106
444.285	3722
444.356	3413
444.428	2668
444.499	2248
444.571	1952
444.642	2284
444.714	2933
444.785	3637
444.857	4137
444.928	9386
445.000	7264
445.071	8239
445.143	9656
445.214	11090
445.285	19775
445.357	53554
445.428	169236
445.500	320020
445.571	240167
445.642	145918
445.714	50018
445.785	23951
445.856	10335
445.928	6667
445.999	6350
446.070	5672
446.141	4225
446.213	5088
446.284	2165
446.355	2965
446.426	1435
446.497	1361
446.569	2133
446.640	3612
446.711	2624
446.782	1838
446.853	1758
446.924	1572
446.995	1320
447.066	1861
447.138	2571
447.209	2410
447.280	18
447.351	680
447.422	859
447.493	1091
447.564	805
447.635	1445
447.706	264
447.777	750
447.847	535
447.918	-50
447.989	1349
448.060	2082
448.131	4410
448.202	4441
448.273	2179
448.344	1379
448.414	846
448.485	1666
448.556	1032
448.627	1461
448.698	1699
448.768	1810
448.839	2851
448.910	5417
448.981	3781
449.051	1461
449.122	1189
449.193	2012
449.263	2239
449.334	3051
449.405	2792
449.475	4324
449.546	3451
449.616	3839
449.687	3532
449.758	1542
449.828	989
449.899	1187
449.969	637
450.040	551
450.110	1131
450.181	515
450.251	-29
450.322	1364
450.392	1120
450.463	1834
450.533	2221
450.604	13562
450.674	8026
450.744	2605
450.815	554
450.885	1450
450.955	1486
451.026	1127
451.096	1146
451.166	991
451.237	3268
451.307	8969
451.377	4436
451.447	1563
451.518	1349
451.588	176
451.658	1676
451.728	2338
451.799	8202
451.869	10579
451.939	3459
452.009	1745
452.079	2217
452.149	2516
452.219	4094
452.289	15082
452.360	18592
452.430	11384
452.500	10465
452.570	10217
452.640	9480
452.710	19543
452.780	25393
452.850	15743
452.920	9843
452.990	6129
453.060	3632
453.129	3078
453.199	4135
453.269	12675
453.339	25238
453.409	37845
453.479	36035
453.549	53809
453.619	57142
453.688	25033
453.758	4513
453.828	3013
453.898	3264
453.968	2154
454.037	2083
454.087	2044
454.107	2026
454.168	2085
454.177	2086
454.247	1725
454.249	1703
454.316	950
454.330	1244
454.386	2347
454.411	3723
454.456	5996
454.492	7512
454.525	8889
454.574	6190
454.595	5021
454.655	3612
454.665	3384
454.734	4320
454.736	4346
454.804	4851
454.817	6237
454.873	11943
454.898	12783
454.943	14403
454.979	11032
455.013	8018
455.060	9032
455.082	9747
455.141	13093
455.152	14306
455.221	33417
455.222	34059
455.291	79828
455.303	101740
455.360	191755
455.384	251138
455.430	347801
455.465	276792
455.499	213822
455.546	113732
455.569	67929
455.627	34615
455.638	28412
455.707	13363
455.708	13341
455.777	9043
455.789	8645
455.846	6828
455.869	6324
455.916	5296
455.950	4948
455.985	4684
456.031	4454
456.054	4265
456.112	3391
456.124	3247
456.193	3322
456.193	3313
456.262	2738
456.274	2791
456.332	3232
456.355	3111
456.401	2573
456.436	2787
456.470	3061
456.516	2390
456.540	2115
456.597	2266
456.609	2271
456.678	1749
456.678	1740
456.747	1763
456.759	1660
456.817	1214
456.840	1459
456.886	1918
456.920	1902
456.955	1855
457.001	2159
457.024	2283
457.082	1661
457.093	1601
457.162	3367
457.163	3377
457.232	3803
457.243	3917
457.301	4778
457.324	6679
457.370	10013
457.405	13422
457.439	15483
457.485	9289
457.508	6913
457.566	3710
457.577	3236
457.646	4689
457.647	4711
457.715	8503
457.727	9386
457.784	15560
457.808	21418
457.853	30841
457.889	40548
457.922	46579
457.969	48320
457.991	49939
458.050	41647
458.060	41010
458.129	45031
458.130	45472
458.198	50767
458.211	46445
458.267	29300
458.292	21469
458.336	12479
458.372	10968
458.405	12320
458.453	17060
458.474	20748
458.533	37998
458.543	39447
458.611	68890
458.614	69197
458.680	54056
458.694	44846
458.749	21443
458.775	15799
458.818	8516
458.855	6586
458.887	5165
458.936	4329
458.955	3982
459.016	3451
459.024	3466
459.093	4051
459.097	4052
459.162	3291
459.177	3307
459.230	3822
459.257	3852
459.299	3657
459.338	3434
459.368	3318
459.418	3511
459.437	3511
459.499	3397
459.505	3405
459.574	2203
459.579	2202
459.643	1984
459.659	2001
459.711	2188
459.740	2381
459.780	2824
459.820	2934
459.849	3087
459.900	3903
459.917	4265
459.981	6856
459.986	6883
460.054	5793
460.061	5501
460.123	3666
460.141	3356
460.191	3214
460.222	3465
460.260	3581
460.302	4111
460.328	4403
460.382	4200
460.397	4223
460.462	4673
460.465	4830
460.534	9258
460.543	9835
460.602	27348
460.623	34555
460.671	52192
460.703	74112
460.739	74452
460.783	61601
460.808	55915
460.864	16176
460.876	11080
460.944	4361
460.945	4277
461.013	3553
461.024	3333
461.081	2860
461.104	3026
461.150	2769
461.184	2469
461.218	2821
461.264	2832
461.286	2566
461.345	2111
461.355	2058
461.423	2519
461.425	2510
461.491	2317
461.505	2376
461.559	3575
461.585	4253
461.628	5344
461.665	6422
461.696	6923
461.745	9319
461.764	9431
461.825	5762
461.832	5602
461.901	3421
461.905	3450
461.969	3206
461.985	3051
462.037	3883
462.065	4408
462.105	3705
462.145	2947
462.173	3364
462.225	3844
462.241	3955
462.305	5828
462.310	5821
462.378	5129
462.385	4846
462.446	3081
462.465	2760
462.514	2633
462.545	2845
462.582	2961
462.625	2889
462.650	2965
462.705	3354
462.718	3406
462.785	3495
462.786	3496
462.854	3682
462.865	3728
462.922	4272
462.945	4437
462.990	3928
463.025	3157
463.058	2733
463.104	2360
463.126	2170
463.184	1854
463.194	1964
463.262	2702
463.264	2747
463.330	3299
463.344	3255
463.398	3373
463.424	3389
463.466	2720
463.504	2439
463.533	2726
463.583	3145
463.601	3238
463.663	3092
463.669	3068
463.737	3144
463.743	3149
463.805	4606
463.823	5068
463.873	6502
463.903	7518
463.940	7684
463.982	8313
464.008	7826
464.062	5209
464.076	4918
464.142	3291
464.144	3255
464.211	2343
464.221	2321
464.279	3045
464.301	3187
464.347	3009
464.381	2877
464.414	2991
464.461	3297
464.482	3283
464.540	3313
464.550	3300
464.617	3004
464.620	2992
464.685	4012
464.699	4218
464.753	5027
464.779	5543
464.820	6052
464.859	6520
464.888	5803
464.938	4377
464.956	4930
465.018	6696
465.023	6565
465.091	5137
465.098	4955
465.158	4914
465.177	4991
465.226	4768
465.257	4533
465.293	4288
465.336	3994
465.361	4256
465.416	4694
465.428	4865
465.495	6261
465.496	6281
465.563	8062
465.575	8471
465.631	10202
465.654	11053
465.698	8598
465.734	5909
465.765	5559
465.813	4907
465.833	4826
465.893	5162
465.900	5130
465.968	4723
465.972	4698
466.035	4416
466.052	4282
466.102	4376
466.131	4511
466.170	4390
466.210	4195
466.237	4490
466.290	5124
466.304	5056
466.369	4566
466.372	4563
466.439	4491
466.449	4454
466.506	4656
466.528	4758
466.573	5812
466.607	6564
466.641	8629
466.687	11554
466.708	12239
466.766	14254
466.775	13403
466.842	6848
466.845	6526
466.909	5341
466.925	5130
466.977	5501
467.004	5713
467.044	6076
467.083	6464
467.111	7316
467.163	8886
467.178	9191
467.242	10446
467.245	10463
467.312	10595
467.321	10608
467.379	9081
467.400	8502
467.446	8495
467.480	8483
467.559	6523
467.638	6049
467.717	5918
467.796	6849
467.875	6574
467.955	6708
468.034	8833
468.113	13852
468.192	19170
468.271	9161
468.350	10053
468.429	12155
468.508	12386
468.588	8937
468.667	7090
468.746	6573
468.825	6554
468.904	6654
468.983	8505
469.062	18109
469.141	29371
469.220	12784
469.299	6187
469.378	6457
469.456	8431
469.535	7395
469.614	6687
469.693	6305
469.772	8540
469.851	9761
469.930	8604
470.009	9825
470.088	8935
470.166	7616
470.245	8945
470.324	11293
470.403	7585
470.482	7488
470.560	5645
470.639	5495
470.718	6654
470.797	5696
470.875	6621
470.954	6294
471.033	6826
471.111	5501
471.190	4047
471.269	5317
471.347	5030
471.426	4733
471.505	6173
471.583	6613
471.662	6561
471.740	5496
471.819	6330
471.898	4835
471.976	6392
472.055	6009
472.133	6971
472.212	9152
472.290	6958
472.369	6827
472.447	7226
472.526	12188
472.604	21580
472.683	18755
472.761	6102
472.839	5347
472.918	5331
472.996	4194
473.075	5807
473.153	5765
473.231	4808
473.310	4822
473.388	5572
473.466	5046
473.545	5723
473.623	5957
473.701	5630
473.780	6106
473.858	3614
473.936	7345
474.014	5879
474.093	6051
474.171	7460
474.249	8825
474.327	5259
474.405	3976
474.484	4846
474.562	5034
474.640	4490
474.718	4407
474.796	4870
474.874	5131
474.952	4320
475.030	3792
475.108	4473
475.187	5519
475.265	5673
475.343	5818
475.421	5632
475.499	5894
475.577	5107
475.655	6168
475.733	7741
475.811	11046
475.889	10713
475.966	7165
476.044	5018
476.122	4027
476.200	5867
476.278	4062
476.356	4580
476.434	4648
476.512	5052
476.590	5342
476.667	4733
476.745	3863
476.823	3646
476.901	5162
476.979	4289
477.056	4658
477.134	4649
477.212	4134
477.290	3719
477.367	3839
477.445	4337
477.523	3392
477.601	3905
477.678	4087
477.756	5160
477.834	5603
477.911	3738
477.989	4469
478.066	3599
478.144	4398
478.222	3858
478.299	4907
478.377	5703
478.454	5270
478.532	3722
478.609	3968
478.687	4812
478.764	3629
478.842	3535
478.919	3462
478.997	4271
479.074	3773
479.152	3801
479.229	5210
479.307	3606
479.384	3379
479.461	3958
479.539	3463
479.616	4579
479.694	3840
479.771	5082
479.848	3465
479.926	4217
480.003	5643
480.080	3531
480.157	3929
480.235	3095
480.312	3732
480.389	4110
480.467	4514
480.544	5391
480.621	5105
480.698	4748
480.775	4995
480.853	4667
480.930	4850
481.007	5271
481.084	6863
481.161	9690
481.238	7562
481.315	2876
481.392	3861
481.470	4103
481.547	4507
481.624	3579
481.701	3980
481.778	4382
481.855	5021
481.932	5808
482.009	8024
482.086	5355
482.163	5482
482.240	6101
482.317	6460
482.393	6314
482.470	5227
482.547	5084
482.624	4581
482.701	3852
482.778	3911
482.855	5198
482.932	3778
483.009	4631
483.085	6250
483.162	8421
483.239	8324
483.316	4856
483.393	5464
483.469	5193
483.546	4311
483.623	5174
483.699	4135
483.776	4958
483.853	4985
483.930	6469
484.006	10020
484.083	17334
484.160	14149
484.236	23958
484.313	19218
484.389	14257
484.466	14698
484.543	13061
484.619	13889
484.696	14682
484.772	12925
484.849	13865
484.925	11660
485.002	10600
485.078	12106
485.155	11539
485.231	10550
485.308	10498
485.384	10849
485.461	12697
485.537	14082
485.614	16408
485.690	10825
485.766	9135
485.843	9791
485.919	10784
485.995	10491
486.072	9876
486.148	9963
486.224	8927
486.301	9893
486.377	10250
486.453	10349
486.530	11656
486.606	15099
486.682	15663
486.758	15838
486.835	15755
486.911	13079
486.987	17770
487.063	16613
487.139	18707
487.215	18511
487.292	16039
487.368	13889
487.444	15135
487.520	20594
487.596	24791
487.672	43467
487.748	110099
487.824	155922
487.900	55140
487.976	20858
488.052	14569
488.128	16249
488.204	11821
488.280	12132
488.356	11912
488.432	16009
488.508	19144
488.584	9063
488.660	8666
488.736	9977
488.812	8700
488.888	10638
488.964	11772
489.039	15013
489.115	20832
489.191	15014
489.267	10346
489.343	9657
489.418	8337
489.494	9034
489.570	6729
489.646	10000
489.722	8469
489.797	9708
489.873	15207
489.949	29762
490.024	25893
490.100	10293
490.176	8720
490.251	11184
490.327	11733
490.403	8030
490.478	8261
490.554	7169
490.629	7539
490.705	6966
490.781	7876
490.856	7157
490.932	7749
491.007	8424
491.083	7663
491.158	6341
491.234	8476
491.309	12138
491.385	11207
491.460	7896
491.536	8353
491.611	7508
491.686	7669
491.762	7941
491.837	10806
491.913	14482
491.988	18350
492.063	19625
492.139	10911
492.214	8763
492.289	8001
492.365	7170
492.440	8887
492.515	7927
492.590	8771
492.666	9169
492.741	12204
492.816	15445
492.891	15666
492.967	20028
493.042	25174
493.117	33971
493.192	53993
493.267	157968
493.342	564545
493.418	677751
493.493	114470
493.568	29474
493.643	16401
493.718	13676
493.793	11131
493.868	11008
493.943	9370
494.018	8550
494.093	7598
494.168	7547
494.243	6689
494.318	6305
494.393	6253
494.468	6057
494.543	5847
494.618	7241
494.693	7069
494.768	7076
494.842	6241
494.917	4641
494.992	5734
495.067	6789
495.142	6756
495.217	5942
495.292	6904
495.366	5907
495.441	5999
495.516	8554
495.591	9280
495.665	16818
495.740	32542
495.815	15246
495.890	6557
495.964	4978
496.039	8706
496.114	8647
496.188	12120
496.263	11225
496.338	6896
496.412	6848
496.487	7438
496.561	7337
496.636	6828
496.710	7271
496.785	6787
496.860	8673
496.934	6549
497.009	7220
497.083	6883
497.158	7297
497.232	7031
497.307	7964
497.381	7564
497.455	7559
497.530	9051
497.604	7279
497.679	6382
497.753	11005
497.827	10654
497.902	9696
497.976	11791
498.050	25007
498.125	83995
498.199	71244
498.273	13114
498.348	10254
498.422	9770
498.496	8696
498.570	8870
498.645	7104
498.719	6000
498.793	8201
498.867	10403
498.941	12214
499.016	34171
499.090	83627
499.164	25987
499.238	6344
499.312	6095
499.386	7253
499.460	6493
499.534	6473
499.609	7998
499.683	8114
499.757	8195
499.831	15494
499.905	56905
499.979	46506
500.053	9456
500.127	9529
500.201	5968
500.275	6563
500.349	6608
500.422	5908
500.496	9169
500.570	13149
500.644	32766
500.718	54997
500.792	14171
500.866	7136
500.940	7892
501.013	7209
501.087	5773
501.161	7899
501.235	8187
501.309	21660
501.382	48370
501.456	39671
501.530	11947
501.603	16452
501.677	8704
501.751	4261
501.825	7670
501.898	8968
501.972	21457
502.046	12061
502.119	5548
502.193	10952
502.266	21696
502.340	10869
502.413	11202
502.487	19309
502.561	10349
502.634	6109
502.708	4491
502.781	4344
502.855	5248
502.928	3378
503.002	4567
503.075	3981
503.149	4043
503.222	4503
503.295	4551
503.369	5861
503.442	6514
503.516	16989
503.589	35568
503.662	22956
503.736	10552
503.809	20050
503.882	17093
503.956	26322
504.029	31736
504.102	55074
504.175	77040
504.249	29018
504.322	13598
504.395	9120
504.468	6101
504.542	4696
504.615	4381
504.688	4792
504.761	2201
504.834	5253
504.907	3942
504.980	5381
505.053	3831
505.127	2101
505.200	7025
505.273	5041
505.346	3239
505.419	2647
505.492	5687
505.565	2725
505.638	3190
505.711	2658
505.784	2494
505.857	2423
505.930	4578
506.003	2217
506.076	4815
506.149	3571
506.221	2685
506.294	6208
506.367	7693
506.440	26201
506.513	13490
506.586	5523
506.659	2388
506.731	3012
506.804	3748
506.877	2681
506.950	4212
507.022	3123
507.095	2272
507.168	3699
507.241	4211
507.313	2764
507.386	1087
507.459	4802
507.531	2960
507.604	2836
507.677	3632
507.749	1958
507.822	4766
507.894	6000
507.967	10184
508.040	5397
508.112	6542
508.185	5917
508.257	3745
508.330	6783
508.402	4069
508.475	4396
508.547	5334
508.620	3976
508.692	5797
508.765	4772
508.837	2798
508.909	4223
508.982	3900
509.054	4700
509.127	3874
509.199	3570
509.271	2614
509.344	3663
509.416	3582
509.488	3593
509.560	4176
509.633	3608
509.705	3986
509.777	4564
509.849	5162
509.922	3200
509.994	2988
510.066	4578
510.138	3271
510.210	11720
510.283	8913
510.355	6979
510.427	6642
510.499	5319
510.571	5124
510.643	3399
510.715	6849
510.787	3693
510.859	5444
510.931	5438
511.003	6198
511.076	5832
511.148	4257
511.219	3225
511.291	6613
511.363	6797
511.435	4986
511.507	3153
511.579	5338
511.651	6127
511.723	4057
511.795	4157
511.867	3791
511.939	4969
512.010	5910
512.082	6367
512.154	3149
512.226	3862
512.298	8094
512.369	8992
512.441	7727
512.513	7456
512.585	4633
512.656	6645
512.728	4869
512.800	4894
512.871	6069
512.943	5373
513.015	3893
513.086	5341
513.158	5773
513.230	3826
513.301	4630
513.373	7112
513.444	4778
513.516	4421
513.588	4253
513.659	5113
513.731	4876
513.802	3681
513.874	8619
513.945	8574
514.016	5011
514.088	5775
514.159	4135
514.231	6557
514.302	8467
514.374	7612
514.445	5088
514.516	9809
514.588	6525
514.659	5977
514.730	6920
514.802	7516
514.873	3669
514.944	8366
515.016	6440
515.087	5400
515.158	5587
515.229	8826
515.301	4719
515.372	8153
515.443	5322
515.514	5485
515.585	4286
515.656	5853
515.728	6217
515.799	5113
515.870	6896
515.941	8262
516.012	8655
516.083	9877
516.154	7955
516.225	8142
516.296	9737
516.367	7724
516.438	7852
516.509	9551
516.580	13292
516.651	41806
516.722	123933
516.793	46719
516.864	13419
516.935	12839
517.006	15144
517.077	17937
517.148	39507
517.219	164546
517.289	222004
517.360	50908
517.431	16769
517.502	9468
517.573	10668
517.643	9732
517.714	9083
517.785	10334
517.856	9366
517.926	12634
517.997	13528
518.068	13815
518.138	20630
518.209	28693
518.280	110048
518.350	363974
518.421	122521
518.492	22317
518.562	15579
518.633	16305
518.703	19406
518.774	43079
518.845	100795
518.915	87388
518.986	27435
519.056	15295
519.127	14834
519.197	16570
519.268	30395
519.338	19759
519.408	7678
519.479	8054
519.549	6314
519.620	7034
519.690	4310
519.760	6048
519.831	5095
519.901	4609
519.971	5274
520.042	5002
520.112	3657
520.182	6061
520.253	5903
520.323	5421
520.393	4562
520.463	9613
520.534	3208
520.604	10675
520.674	7468
520.744	5136
520.814	9600
520.885	10172
520.955	10790
521.025	32938
521.095	12317
521.165	6231
521.235	3998
521.305	3641
521.375	4795
521.445	5248
521.515	4770
521.585	6424
521.655	3052
521.725	5134
521.795	4775
521.865	1943
521.935	7501
522.005	3771
522.075	3701
522.145	6294
522.215	3837
522.285	6487
522.355	5703
522.424	10015
522.494	7914
522.564	6761
522.634	8537
522.704	16922
522.774	7088
522.843	4799
522.913	4374
522.983	4635
523.053	3865
523.122	5490
523.192	4546
523.262	8977
523.331	6895
523.401	5328
523.471	3965
523.540	4529
523.610	2016
523.680	3730
523.749	4344
523.819	5437
523.888	5247
523.958	3965
524.027	4151
524.097	3461
524.166	3114
524.236	3333
524.305	5711
524.375	3125
524.444	2794
524.514	6160
524.583	4054
524.653	3339
524.722	5341
524.791	2895
524.861	4767
524.930	2455
524.999	2918
525.069	4947
525.138	4224
525.207	4234
525.277	5017
525.346	5036
525.415	4765
525.484	5110
525.554	4122
525.623	7177
525.692	8683
525.761	8713
525.830	9924
525.900	11582
525.969	18619
526.038	33824
526.107	72973
526.176	208506
526.245	152783
526.314	47074
526.383	106688
526.452	136787
526.522	226171
526.591	190221
526.660	37941
526.729	23525
526.797	24418
526.867	36127
526.935	129223
527.004	378120
527.073	201506
527.142	25041
527.211	10833
527.280	8384
527.349	6225
527.418	3978
527.487	5926
527.555	3525
527.624	3287
527.693	3174
527.762	6009
527.831	2970
527.899	4182
527.968	2959
528.037	1795
528.106	3630
528.174	4740
528.243	4233
528.312	4605
528.380	4511
528.449	2482
528.518	4825
528.586	1353
528.655	3555
528.723	2413
528.792	2923
528.861	2400
528.929	1704
528.998	5018
529.066	5069
529.135	8673
529.203	8571
529.272	10164
529.340	14570
529.409	13732
529.477	9679
529.545	9979
529.614	13437
529.682	13011
529.751	15705
529.819	18107
529.887	18460
529.956	14921
530.024	15705
530.092	14128
530.161	14466
530.229	16056
530.297	18061
530.365	17711
530.434	17758
530.502	17447
530.570	15856
530.638	13693
530.707	12888
530.775	13697
530.843	12762
530.911	15703
530.979	14578
531.047	15911
531.115	15450
531.183	14024
531.252	14187
531.320	12726
531.388	12118
531.456	14718
531.524	14059
531.592	16306
531.660	20632
531.728	16473
531.796	14922
531.864	14871
531.932	16117
532.000	15056
532.067	16834
532.135	17271
532.203	20244
532.271	19795
532.339	20748
532.407	21899
532.475	21122
532.542	18051
532.610	18096
532.678	18558
532.746	31373
532.814	46340
532.881	24839
532.949	19037
533.017	16908
533.084	18068
533.152	16621
533.220	16922
533.287	15923
533.355	17663
533.423	17989
533.490	17282
533.558	17674
533.625	16848
533.693	15535
533.761	15861
533.828	16228
533.896	14653
533.963	18054
534.031	19085
534.098	21330
534.166	17006
534.233	16049
534.300	16798
534.368	15412
534.435	14436
534.503	14735
534.570	16451
534.637	16341
534.705	18818
534.772	20534
534.840	28832
534.907	104688
534.974	114383
535.041	21012
535.109	14173
535.176	11964
535.243	12753
535.310	12773
535.378	11980
535.445	12592
535.512	12049
535.579	11862
535.646	10220
535.714	11007
535.781	12308
535.848	12053
535.915	12967
535.982	12136
536.049	11657
536.116	12118
536.183	9523
536.250	10178
536.317	9121
536.384	10453
536.451	10255
536.518	12399
536.585	10013
536.652	12172
536.719	11859
536.786	9603
536.853	9094
536.920	10724
536.987	10664
537.053	9073
537.120	23066
537.187	19487
537.254	8674
537.321	8512
537.388	9656
537.454	7767
537.521	7378
537.588	8708
537.654	9513
537.721	9366
537.788	9041
537.855	7763
537.921	9079
537.988	8427
538.055	8740
538.121	7372
538.188	7904
538.254	7833
538.321	8426
538.388	8694
538.454	8133
538.521	7838
538.587	7658
538.654	7110
538.720	7611
538.787	7825
538.853	7675
538.920	7250
538.986	6408
539.053	6493
539.119	7302
539.185	6379
539.252	7823
539.318	7377
539.385	9173
539.451	6119
539.517	8189
539.583	8186
539.650	9909
539.716	15598
539.782	7614
539.849	5855
539.915	6996
539.981	6029
540.047	6814
540.114	6518
540.180	8307
540.246	5400
540.312	7023
540.378	7888
540.444	9881
540.510	10973
540.576	17408
540.643	7980
540.709	6078
540.775	6546
540.841	6084
540.907	6637
540.973	9008
541.039	7410
541.105	7020
541.171	6642
541.237	4894
541.303	6801
541.369	9014
541.435	7334
541.500	7287
541.566	6191
541.632	5534
541.698	6009
541.764	7269
541.830	5456
541.896	5527
541.961	6907
542.027	5844
542.093	7186
542.159	8051
542.224	6861
542.290	10362
542.356	14854
542.421	28392
542.487	37407
542.553	18345
542.618	10977
542.684	7190
542.750	7422
542.815	8108
542.881	7479
542.947	15868
543.012	12244
543.078	5970
543.143	4913
543.209	5348
543.274	5129
543.340	6858
543.405	8659
543.471	9516
543.536	6050
543.602	5786
543.667	4146
543.732	7776
543.798	4850
543.863	6879
543.928	5218
543.994	5277
544.059	5996
544.124	5891
544.190	5726
544.255	6303
544.320	5976
544.386	5140
544.451	6987
544.516	5841
544.581	6956
544.646	11892
544.712	15226
544.777	7837
544.842	6774
544.907	6747
544.972	7005
545.037	6625
545.102	8413
545.168	7800
545.233	7911
545.298	8497
545.363	7979
545.428	8815
545.493	11000
545.558	13249
545.623	9786
545.688	7077
545.753	7728
545.818	8132
545.883	9171
545.947	8365
546.012	9779
546.077	7769
546.142	9422
546.207	9113
546.272	9397
546.337	8697
546.401	10511
546.466	11493
546.531	9583
546.596	11435
546.661	11473
546.725	12580
546.790	10980
546.855	12566
546.919	12214
546.984	14740
547.049	14594
547.113	17373
547.178	17988
547.243	21974
547.307	25005
547.372	27189
547.436	27440
547.501	28206
547.565	28562
547.630	27908
547.695	26021
547.759	26781
547.823	26043
547.888	27808
547.952	28419
548.017	29814
548.081	33443
548.146	31269
548.210	30714
548.274	31109
548.339	31217
548.403	29034
548.468	26825
548.532	26767
548.596	28209
548.660	27956
548.725	30679
548.789	31711
548.853	32867
548.917	30495
548.982	29642
549.046	27810
549.110	22742
549.174	24929
549.238	28442
549.303	30913
549.367	33561
549.431	31533
549.495	29314
549.559	28678
549.623	33753
549.687	36920
549.751	38925
549.815	43052
549.879	45465
549.943	41204
550.007	45740
550.071	43879
550.135	39601
550.199	38094
550.263	36526
550.327	36618
550.391	38504
550.455	41521
550.519	42424
550.582	44813
550.646	51617
550.710	52481
550.774	50117
550.838	51973
550.901	53206
550.965	56689
551.029	60875
551.093	66194
551.156	72692
551.220	86569
551.284	90678
551.347	69427
551.411	66015
551.475	64236
551.538	59870
551.602	55524
551.666	53258
551.729	52791
551.793	58729
551.856	80017
551.920	112085
551.983	81719
552.047	57985
552.110	51753
552.174	49015
552.237	49206
552.301	44840
552.364	42514
552.428	40969
552.491	42340
552.554	44018
552.618	44542
552.681	44911
552.745	45323
552.808	51389
552.871	55424
552.934	52662
552.998	50955
553.061	53583
553.124	56047
553.187	59966
553.251	65557
553.314	76303
553.377	98370
553.440	174047
553.503	483482
553.567	624347
553.630	198303
553.693	86290
553.756	63753
553.819	55630
553.882	49336
553.945	47165
554.008	47831
554.071	45420
554.134	45793
554.197	43230
554.260	41613
554.323	44032
554.386	42756
554.449	44034
554.512	44379
554.575	40572
554.638	41900
554.701	41751
554.764	40622
554.827	39283
554.889	37887
554.952	36052
555.015	35096
555.078	34561
555.141	36420
555.203	35468
555.266	35734
555.329	34881
555.391	33619
555.454	32929
555.517	31550
555.580	30744
555.642	29801
555.705	28530
555.768	29484
555.830	29214
555.893	28143
555.955	27737
556.018	26064
556.080	26585
556.143	26932
556.206	26368
556.268	26508
556.330	24733
556.393	24575
556.455	24771
556.518	25082
556.580	23383
556.643	22313
556.705	22720
556.767	20831
556.830	20476
556.892	20853
556.955	22124
557.017	19752
557.079	19927
557.142	19760
557.204	19990
557.266	21429
557.328	20104
557.391	17136
557.453	17549
557.515	17689
557.577	17853
557.639	18073
557.701	17972
557.764	18127
557.826	18830
557.888	20689
557.950	21201
558.012	24478
558.074	32705
558.136	74396
558.198	159788
558.260	54025
558.322	23538
558.384	24242
558.446	26127
558.508	29796
558.570	34693
558.632	41554
558.694	56359
558.756	93664
558.818	265391
558.880	511517
558.942	184770
559.003	174786
559.065	80372
559.127	34450
559.189	33294
559.251	38973
559.312	59811
559.374	141296
559.436	385495
559.498	171699
559.559	38653
559.621	33876
559.683	41159
559.744	70898
559.806	211877
559.868	271660
559.929	57714
559.991	38367
560.052	62308
560.114	162935
560.176	99272
560.237	99122
560.299	138839
560.360	30655
560.422	13964
560.483	11002
560.545	10769
560.606	11425
560.667	9692
560.729	8894
560.790	8539
560.852	8652
560.913	7950
560.974	8427
561.036	9087
561.097	8145
561.158	8862
561.220	7893
561.281	7141
561.342	8346
561.403	9003
561.465	9507
561.526	12810
561.587	13328
561.648	7297
561.709	7083
561.771	8089
561.832	7727
561.893	8273
561.954	9033
562.015	7443
562.076	8455
562.137	8765
562.198	7880
562.259	7779
562.320	7634
562.381	8014
562.442	8049
562.503	7666
562.564	7158
562.625	7579
562.686	6640
562.747	8279
562.808	6308
562.869	5861
562.930	8383
562.991	7473
563.051	7247
563.112	6626
563.173	6586
563.234	6745
563.294	7090
563.355	6627
563.416	7728
563.477	7095
563.537	5633
563.598	7527
563.659	6125
563.720	5957
563.780	6666
563.841	6579
563.901	7238
563.962	6471
564.023	5966
564.083	7002
564.144	5991
564.204	6986
564.265	6518
564.325	7384
564.386	9840
564.446	8368
564.507	6423
564.567	6301
564.628	6310
564.688	5574
564.749	6545
564.809	6904
564.869	6922
564.930	6454
564.990	6358
565.050	5501
565.111	6341
565.171	5733
565.231	5783
565.292	6380
565.352	6649
565.412	6983
565.472	6474
565.532	6381
565.593	6014
565.653	5840
565.713	5612
565.773	6767
565.833	7121
565.893	7556
565.953	6114
566.013	6640
566.074	7610
566.134	8315
566.194	9398
566.254	9196
566.314	8496
566.374	7296
566.434	7519
566.494	6754
566.554	6582
566.614	7272
566.673	7462
566.733	8031
566.793	7896
566.853	7683
566.913	8047
566.973	8319
567.033	8337
567.092	7820
567.152	7897
567.212	8851
567.272	8235
567.331	8472
567.391	8028
567.451	8820
567.511	10568
567.570	10271
567.630	7525
567.690	7633
567.749	7977
567.809	9221
567.868	10366
567.928	10248
567.988	13750
568.047	14728
568.107	12512
568.166	15048
568.226	18758
568.285	25270
568.345	23710
568.404	20508
568.464	18140
568.523	16183
568.582	17263
568.642	18980
568.701	21189
568.761	27810
568.820	38692
568.879	39438
568.939	32683
568.998	25868
569.057	20450
569.116	18349
569.176	15231
569.235	12978
569.294	12147
569.353	11327
569.413	11054
569.472	9713
569.531	9682
569.590	8707
569.649	9010
569.708	8367
569.767	9446
569.827	10498
569.886	8453
569.945	7207
570.004	7866
570.063	7966
570.122	7724
570.181	8096
570.240	8093
570.299	9097
570.358	8960
570.417	7031
570.475	6139
570.534	7537
570.593	7834
570.652	7657
570.711	7382
570.770	6215
570.829	7829
570.887	7746
570.946	8195
571.005	7574
571.064	6915
571.122	8445
571.181	8206
571.240	7006
571.299	8706
571.357	9030
571.416	8275
571.475	7707
571.533	8513
571.592	8330
571.650	7406
571.709	7117
571.768	7722
571.826	8426
571.885	7029
571.943	6981
572.002	7311
572.060	6954
572.119	7076
572.177	6853
572.236	6046
572.294	7468
572.352	6681
572.411	6599
572.469	6878
572.528	6150
572.586	6583
572.644	7597
572.703	9395
572.761	7918
572.819	5911
572.877	6382
572.936	5583
572.994	6569
573.052	6208
573.110	5745
573.169	6224
573.227	6200
573.285	6815
573.343	6796
573.401	6341
573.459	6207
573.517	5822
573.576	7035
573.634	7072
573.692	6524
573.750	6720
573.808	6582
573.866	6600
573.924	7354
573.982	7667
574.040	6296
574.098	5976
574.155	6204
574.213	5971
574.271	6721
574.329	6964
574.387	6813
574.445	6253
574.503	5251
574.560	5506
574.618	5503
574.676	4937
574.734	5301
574.792	5898
574.849	5881
574.907	4661
574.965	5723
575.022	4859
575.080	4897
575.138	5430
575.195	6333
575.253	5295
575.311	5569
575.368	5036
575.426	5024
575.483	6637
575.541	6008
575.598	5470
575.656	6045
575.713	5526
575.771	6278
575.828	5129
575.886	5835
575.943	6080
576.001	5482
576.058	5777
576.115	6039
576.173	7004
576.230	6164
576.287	6878
576.345	6463
576.402	5811
576.459	6813
576.517	6168
576.574	7066
576.631	6567
576.688	5804
576.746	6794
576.803	6645
576.860	6104
576.917	7201
576.974	7190
577.031	7017
577.089	8286
577.146	8632
577.203	9716
577.260	11970
577.317	12764
577.374	14762
577.431	16510
577.488	20066
577.545	25869
577.602	36858
577.659	59043
577.716	111622
577.773	163607
577.830	96142
577.886	43354
577.943	25035
578.000	17808
578.057	13613
578.114	12172
578.171	11754
578.227	13119
578.284	12436
578.341	10925
578.398	10599
578.454	10089
578.511	9301
578.568	8698
578.625	7291
578.681	7656
578.738	6491
578.794	7067
578.851	6767
578.908	7737
578.964	7342
579.021	8227
579.077	6088
579.134	6448
579.190	6847
579.247	7242
579.303	7022
579.360	7101
579.416	7453
579.473	7948
579.529	7829
579.586	8519
579.642	9131
579.698	8825
579.755	10945
579.811	11823
579.867	13757
579.924	17981
579.980	27424
580.036	35792
580.093	25808
580.149	21786
580.205	19660
580.261	15106
580.317	14308
580.374	13234
580.430	14631
580.486	17764
580.542	29289
580.598	20122
580.619	16716
580.654	10801
580.692	10117
580.710	9775
580.765	9464
580.767	9449
580.823	9421
580.838	9609
580.879	10106
580.911	10194
580.935	10242
580.984	9760
580.991	9697
581.047	11876
581.057	11649
581.103	10582
581.130	11108
581.159	11628
581.203	10740
581.215	10513
581.270	12496
581.276	12429
581.326	11674
581.349	11983
581.382	12417
581.422	12280
581.438	12239
581.494	11490
581.494	11493
581.550	11159
581.567	11463
581.606	12125
581.640	12389
581.661	12532
581.713	13472
581.717	13543
581.773	13813
581.786	14164
581.829	15223
581.859	15121
581.885	15039
581.932	15135
581.940	15130
581.996	15691
582.004	15789
582.052	16299
582.077	16406
582.107	16532
582.150	16117
582.163	16027
582.219	17628
582.223	17773
582.274	19373
582.296	20200
582.330	21648
582.368	23751
582.386	25070
582.441	30744
582.441	30746
582.497	49378
582.514	59339
582.552	85564
582.587	123694
582.608	137566
582.659	82675
582.663	78631
582.719	31284
582.732	28343
582.774	23996
582.805	22700
582.830	22190
582.877	22169
582.885	22285
582.941	23328
582.950	23961
582.996	27433
583.023	29113
583.052	30684
583.095	31648
583.107	31688
583.162	30868
583.168	30886
583.218	30771
583.240	29315
583.273	26839
583.313	25161
583.328	24787
583.384	24535
583.385	24503
583.439	23203
583.458	22888
583.494	22522
583.531	22211
583.549	22137
583.603	21869
583.605	21859
583.660	21743
583.676	21598
583.715	21532
583.748	22044
583.770	22322
583.820	22242
583.825	22228
583.881	21516
583.893	21509
583.936	21905
583.965	22778
583.991	23516
584.038	22948
584.046	22826
584.101	23446
584.110	23458
584.156	23699
584.183	23909
584.211	24192
584.255	24710
584.266	24947
584.321	25985
584.328	26124
584.376	27146
584.400	27099
584.431	26908
584.472	27182
584.486	27557
584.541	29849
584.545	29883
584.596	30005
584.617	30273
584.651	31215
584.689	32859
584.706	33499
584.761	34121
584.762	34098
584.816	35123
584.834	35810
584.871	37560
584.906	38459
584.926	38943
584.978	40796
584.980	40950
585.035	44439
585.051	45851
585.090	50617
585.123	55104
585.145	61625
585.195	80290
585.200	84982
585.254	151094
585.267	172026
585.309	272091
585.340	349967
585.364	344078
585.412	212724
585.419	193814
585.473	101656
585.484	88827
585.528	101076
585.556	114540
585.583	155039
585.628	237137
585.637	271661
585.692	520838
585.700	560311
585.747	660198
585.772	620312
585.801	426624
585.845	168133
585.856	144164
585.910	81376
585.917	74677
585.965	62973
585.989	58100
586.019	55746
586.061	52655
586.074	52033
586.128	49237
586.133	48970
586.183	47261
586.205	46580
586.237	46148
586.277	44762
586.292	44361
586.346	42511
586.349	42394
586.401	42349
586.421	41938
586.455	41996
586.493	42534
586.509	43801
586.564	46832
586.565	46870
586.618	54596
586.637	55848
586.672	53071
586.709	49605
586.727	49671
586.781	51385
586.781	51486
586.835	45891
586.853	44355
586.889	42471
586.925	40405
586.944	40259
586.996	41099
586.998	41219
587.052	40773
587.068	40720
587.106	41310
587.140	41339
587.161	41625
587.212	42207
587.215	42344
587.269	42961
587.284	43080
587.323	44061
587.356	44738
587.377	45430
587.427	47359
587.431	47638
587.485	48333
587.499	48641
587.539	50772
587.571	52423
587.593	53591
587.643	55447
587.648	55766
587.702	57599
587.715	57924
587.755	60160
587.786	61566
587.810	62830
587.858	65299
587.864	66050
587.917	71662
587.930	72807
587.971	76781
588.001	79634
588.025	82584
588.073	87502
588.079	88694
588.133	97836
588.145	99786
588.187	109602
588.217	115754
588.241	122974
588.288	137152
588.295	139763
588.348	159605
588.360	163484
588.402	183965
588.431	197913
588.456	213419
588.503	243043
588.510	249579
588.564	298913
588.575	309079
588.617	368829
588.646	411007
588.671	474871
588.718	598244
588.725	636852
588.778	939126
588.789	1001709
588.832	1451442
588.861	1761025
588.886	1986234
588.932	2381455
588.939	2380190
588.993	2224548
589.004	2191346
589.047	2036510
589.075	1882930
589.100	1572196
589.147	986198
589.154	953000
589.207	696152
589.218	643594
589.261	593871
589.290	562514
589.314	594980
589.361	660880
589.368	698698
589.421	1007463
589.433	1073162
589.475	1564993
589.504	1912007
589.528	2050228
589.576	2245910
589.582	2215438
589.635	1848992
589.647	1753680
589.689	1174054
589.718	767164
589.742	640479
589.790	398164
589.795	388489
589.849	291467
589.861	268692
589.902	235056
589.932	209182
589.955	194457
590.004	162096
590.009	160899
590.062	142820
590.075	137912
590.115	127987
590.146	119870
590.168	117116
590.218	109450
590.222	109317
590.275	102892
590.289	100863
590.328	97795
590.360	94605
590.381	93416
590.431	89751
590.435	89897
590.488	86582
590.503	85436
590.541	84940
590.574	83854
590.594	85288
590.645	88216
590.647	89045
590.700	102441
590.716	106191
590.753	103399
590.787	98806
590.806	93268
590.859	77156
590.859	77398
590.912	74382
590.930	73230
590.965	73344
591.001	72832
591.018	72998
591.071	72397
591.072	72108
591.124	72149
591.143	71703
591.177	71491
591.214	70771
591.230	71407
591.283	72541
591.285	72293
591.336	71009
591.356	70135
591.389	70359
591.427	69920
591.442	69538
591.495	67019
591.498	66563
591.547	67454
591.569	67554
591.600	67945
591.640	67763
591.653	68159
591.706	68544
591.711	68330
591.759	70709
591.782	71434
591.811	72961
591.853	74540
591.864	74478
591.917	72411
591.924	71845
591.969	72069
591.995	71672
592.022	72101
592.066	72135
592.075	73018
592.127	76559
592.137	76912
592.180	78168
592.208	78429
592.233	77994
592.279	76264
592.285	76570
592.338	76458
592.350	76129
592.390	76627
592.421	76412
592.443	77293
592.491	78234
592.495	78608
592.548	79210
592.562	79049
592.600	79372
592.633	79022
592.653	79125
592.704	78088
592.705	78593
592.775	81267
592.846	83170
592.916	83422
592.987	81597
593.058	83216
593.128	82416
593.199	82866
593.270	83597
593.341	85683
593.411	88002
593.482	91065
593.553	92383
593.623	91113
593.694	94279
593.764	95289
593.835	92800
593.906	94039
593.976	93968
594.047	95773
594.117	103587
594.188	104464
594.258	99956
594.329	100363
594.399	102634
594.470	104750
594.540	105935
594.611	107707
594.681	108047
594.751	109526
594.822	113538
594.892	116998
594.963	118131
595.033	122633
595.103	124097
595.174	127280
595.244	136017
595.314	143867
595.384	132886
595.455	136341
595.525	140968
595.595	143976
595.665	145799
595.736	142691
595.806	146642
595.876	148483
595.946	149579
596.016	157527
596.087	159757
596.157	160978
596.227	164360
596.297	171446
596.367	184190
596.437	192362
596.507	197404
596.577	199810
596.647	196234
596.717	203066
596.787	207181
596.857	212049
596.927	222071
596.997	251307
597.067	374274
597.137	625043
597.207	388755
597.277	236458
597.347	219449
597.417	216475
597.487	215383
597.557	221932
597.626	229595
597.696	233452
597.766	238882
597.836	235158
597.906	216847
597.975	214309
598.045	217387
598.115	224519
598.185	240089
598.254	260327
598.324	280976
598.394	283734
598.464	281074
598.533	279651
598.603	266916
598.672	262629
598.742	271901
598.812	273579
598.881	282761
598.951	280161
599.020	289506
599.090	298350
599.159	306683
599.229	300408
599.299	300273
599.368	313058
599.437	314588
599.507	323928
599.576	383968
599.646	605033
599.715	636523
599.785	335347
599.854	306146
599.924	306092
599.993	308864
600.062	314250
600.132	321751
600.201	337550
600.270	367969
600.340	385614
600.409	383069
600.478	386297
600.547	399486
600.617	383714
600.686	354729
600.755	344535
600.824	345882
600.894	351154
600.963	354715
601.032	364974
601.101	366059
601.170	366682
601.239	371630
601.308	380410
601.378	388198
601.447	396312
601.516	407008
601.585	419433
601.654	434100
601.723	456823
601.792	510298
601.861	687852
601.930	940418
601.999	599849
602.068	512027
602.137	508458
602.206	511793
602.275	518142
602.343	524063
602.412	522628
602.481	529207
602.550	528061
602.619	542190
602.688	537236
602.756	548889
602.825	542622
602.894	563473
602.963	547391
603.032	563729
603.100	561056
603.169	549345
603.238	577472
603.307	538432
603.375	550761
603.444	579824
603.513	526664
603.581	560270
603.650	586505
603.719	473513
603.787	456864
603.856	469522
603.924	479090
603.993	488948
604.061	502641
604.130	515993
604.198	529946
604.267	536591
604.335	548721
604.404	548074
604.472	573069
604.541	566902
604.609	593188
604.678	607313
604.746	624492
604.815	654349
604.883	615917
604.951	603865
605.020	622545
605.088	566288
605.156	536262
605.225	534196
605.293	527147
605.361	537554
605.429	526986
605.498	548313
605.566	530472
605.634	563058
605.702	554925
605.771	570043
605.839	581041
605.907	535605
605.975	574183
606.043	542302
606.111	562361
606.180	737665
606.248	1051425
606.316	1092262
606.384	613869
606.452	420594
606.520	345547
606.588	347678
606.656	347300
606.724	337726
606.792	319596
606.860	291491
606.928	267007
606.996	259311
607.064	255771
607.132	265537
607.200	277841
607.267	287030
607.335	294358
607.403	296089
607.471	288773
607.539	281554
607.607	281481
607.674	249967
607.742	251466
607.810	248220
607.878	248669
607.946	252558
608.013	262760
608.081	265222
608.149	266409
608.216	276662
608.284	286253
608.352	284348
608.419	279276
608.487	274620
608.555	263883
608.622	272825
608.690	283469
608.757	304996
608.825	309542
608.893	301445
608.960	287132
609.028	277207
609.095	275317
609.163	269669
609.230	238315
609.298	221158
609.365	233401
609.432	250045
609.500	274455
609.567	315364
609.635	361358
609.702	377197
609.769	360736
609.837	277376
609.904	244885
609.971	257090
610.039	293782
610.106	405046
610.173	797332
610.241	1739102
610.308	1056046
610.375	434427
610.442	292181
610.509	262410
610.577	259153
610.644	263666
610.711	276543
610.778	289082
610.845	329993
610.912	431397
610.980	743156
611.047	1403076
611.114	684540
611.181	338279
611.248	310585
611.315	318155
611.382	322805
611.449	331817
611.516	335315
611.583	330580
611.650	334641
611.717	336437
611.784	346289
611.851	363820
611.918	390002
611.984	462945
612.051	667083
612.118	1310598
612.185	2756557
612.252	1771318
612.319	604864
612.386	466341
612.452	412835
612.519	387034
612.586	381752
612.653	381370
612.719	394138
612.786	378288
612.853	347659
612.919	343513
612.986	347779
613.053	326888
613.120	304053
613.186	297625
613.253	298526
613.319	298696
613.386	301524
613.453	309515
613.519	314352
613.586	313259
613.652	327984
613.719	327018
613.785	341807
613.852	370286
613.918	422834
613.985	593015
614.051	1131122
614.118	2393140
614.184	2026479
614.250	613237
614.317	410110
614.383	358676
614.449	344266
614.516	335248
614.582	329871
614.648	319565
614.715	314245
614.781	303734
614.847	305992
614.914	303290
614.980	295035
615.046	295168
615.112	305436
615.179	302427
615.245	308061
615.311	312175
615.377	327825
615.443	335093
615.509	323765
615.575	329511
615.642	327293
615.708	336884
615.774	352381
615.840	377066
615.906	413740
615.972	517497
616.038	806882
616.104	1591212
616.170	3061674
616.236	2538556
616.302	890884
616.368	649438
616.434	471352
616.500	418639
616.565	467987
616.631	582553
616.697	481902
616.763	492066
616.829	747859
616.895	1307911
616.961	1238337
617.026	565359
617.092	380219
617.158	344652
617.224	328473
617.289	300136
617.355	287399
617.421	283847
617.487	282085
617.552	266899
617.618	265570
617.684	266843
617.749	269573
617.815	259105
617.880	254879
617.946	251910
618.012	260654
618.077	261802
618.143	249582
618.208	254230
618.274	273187
618.339	273372
618.405	223918
618.470	226825
618.536	226531
618.601	223862
618.667	208303
618.732	200586
618.798	196066
618.863	199087
618.928	195590
618.994	200447
619.059	199100
619.124	208027
619.190	199141
619.255	195168
619.320	195723
619.386	199344
619.451	195392
619.516	189228
619.581	192441
619.647	199581
619.712	198264
619.777	192481
619.842	193083
619.907	198879
619.972	199894
620.038	199219
620.103	194459
620.168	194992
620.233	197095
620.298	201585
620.363	203065
620.428	207664
620.493	213544
620.558	213968
620.623	218097
620.688	215539
620.753	212107
620.818	218658
620.883	219359
620.948	218424
621.013	215464
621.078	213722
621.143	213495
621.207	216731
621.272	213323
621.337	207742
621.402	208254
621.467	212599
621.532	211279
621.596	211213
621.661	202139
621.726	198925
621.791	201844
621.855	202834
621.920	202488
621.985	207204
622.049	210532
622.114	211694
622.179	215268
622.243	219012
622.308	222533
622.373	231366
622.437	224809
622.502	214932
622.566	210938
622.631	211972
622.695	216760
622.760	214460
622.824	215700
622.889	214127
622.953	217634
623.018	239874
623.082	236485
623.147	229201
623.211	223836
623.276	224838
623.340	213738
623.404	212459
623.469	212163
623.533	216161
623.597	208317
623.662	205619
623.726	190656
623.790	181543
623.854	180440
623.919	183440
623.983	181509
624.047	184340
624.111	186557
624.176	191263
624.240	195447
624.304	201314
624.368	187297
624.432	187227
624.496	191651
624.560	201562
624.625	206821
624.689	201174
624.753	209820
624.817	196214
624.881	191610
624.945	175570
625.009	173689
625.073	174049
625.137	181886
625.201	192527
625.265	188422
625.329	179633
625.393	182575
625.456	180439
625.520	184576
625.584	189813
625.648	200876
625.712	214364
625.776	249877
625.839	240627
625.903	168918
625.967	154322
626.031	177787
626.095	213846
626.158	171597
626.222	138396
626.286	128967
626.349	126727
626.413	119850
626.477	117860
626.540	118319
626.604	117567
626.668	117108
626.731	114756
626.795	118679
626.858	114548
626.922	110830
626.986	109447
627.049	110150
627.113	116801
627.176	112827
627.240	109182
627.303	107337
627.366	108444
627.430	107891
627.493	108779
627.557	107068
627.620	111616
627.684	110464
627.747	110901
627.810	101725
627.874	94840
627.937	92561
628.000	98854
628.064	94637
628.127	80118
628.190	81445
628.253	79843
628.317	76957
628.380	75463
628.443	73335
628.506	74702
628.569	69019
628.632	64835
628.696	65363
628.759	66750
628.822	61720
628.885	60745
628.948	60765
629.011	61262
629.074	59872
629.137	58346
629.200	57532
629.263	59343
629.326	55325
629.389	57468
629.452	57032
629.515	57642
629.578	56690
629.641	58309
629.704	56848
629.767	58071
629.830	54863
629.892	53840
629.955	53001
630.018	57317
630.081	54632
630.144	57780
630.207	52444
630.269	56017
630.332	53402
630.395	51913
630.458	51174
630.520	49668
630.583	50785
630.646	50540
630.708	51044
630.771	51413
630.834	54206
630.896	53690
630.959	52079
631.021	53270
631.084	52159
631.146	53406
631.209	55687
631.272	52845
631.334	53985
631.397	54135
631.459	55283
631.522	58602
631.584	60042
631.646	62448
631.709	65133
631.771	67622
631.834	64344
631.896	59451
631.958	54663
632.021	55453
632.083	52549
632.145	54499
632.208	53303
632.270	52827
632.332	50833
632.395	49833
632.457	51764
632.519	49514
632.581	49952
632.643	48373
632.706	48952
632.768	47545
632.830	50079
632.892	50518
632.954	50312
633.016	51016
633.078	50578
633.141	49561
633.203	49977
633.265	50557
633.327	49130
633.389	49982
633.451	52363
633.513	53509
633.575	54301
633.637	53993
633.698	55179
633.760	57937
633.822	61862
633.884	67726
633.946	82200
634.008	116916
634.070	226505
634.132	495130
634.193	201655
634.255	90127
634.317	82714
634.379	79082
634.441	70767
634.502	65184
634.564	60028
634.626	54948
634.687	52452
634.749	51706
634.811	49413
634.873	49218
634.934	48982
634.996	49949
635.057	48453
635.119	49641
635.181	50850
635.242	51822
635.304	49020
635.365	53459
635.427	50924
635.488	50443
635.550	49078
635.611	50485
635.673	50457
635.734	56618
635.796	58507
635.857	64125
635.918	66611
635.980	74392
636.041	78567
636.102	82019
636.164	81760
636.225	79807
636.286	68549
636.348	62883
636.409	55972
636.470	53210
636.531	51250
636.593	50170
636.654	48174
636.715	46484
636.776	45053
636.838	44406
636.899	44172
636.960	42670
637.021	42177
637.082	42217
637.143	40799
637.204	39275
637.265	40284
637.326	41304
637.387	40633
637.448	39507
637.509	40981
637.570	39335
637.631	41061
637.692	37144
637.753	36790
637.814	38000
637.875	38270
637.936	39035
637.997	38291
638.058	38769
638.119	38870
638.179	38317
638.240	36721
638.301	37250
638.362	36514
638.423	35136
638.483	37302
638.544	35117
638.605	36456
638.666	35332
638.726	36153
638.787	36968
638.848	36594
638.908	34875
638.969	34795
639.030	34374
639.090	33050
639.151	33368
639.211	35957
639.272	38296
639.332	43014
639.393	37692
639.453	37972
639.514	39779
639.574	35057
639.635	32697
639.695	33206
639.756	30984
639.816	31875
639.877	33574
639.937	38683
639.997	40677
640.058	31635
640.118	32511
640.178	33237
640.239	32527
640.299	31502
640.359	32793
640.420	35704
640.480	39848
640.540	42962
640.600	45385
640.661	41501
640.721	42518
640.781	55017
640.841	53372
640.901	35636
640.961	34116
641.021	35306
641.082	39130
641.142	37871
641.202	33839
641.262	29878
641.322	31449
641.382	29598
641.442	31655
641.502	29909
641.562	31781
641.622	31784
641.682	34509
641.742	39152
641.802	36089
641.861	32394
641.921	29428
641.981	29970
642.041	29379
642.101	31703
642.161	28152
642.221	28107
642.280	28218
642.340	27099
642.400	28971
642.460	30264
642.519	31052
642.579	29777
642.639	31277
642.698	28886
642.758	32776
642.818	30997
642.877	29868
642.937	30844
642.997	32761
643.056	34880
643.116	30318
643.175	32498
643.235	32217
643.294	32868
643.354	35394
643.414	38154
643.473	43587
643.532	52813
643.592	70322
643.651	108148
643.711	191227
643.770	386571
643.830	945978
643.889	1573769
643.948	391502
644.008	99815
644.067	62808
644.126	48291
644.186	43045
644.245	37541
644.304	33263
644.363	34801
644.423	31285
644.482	33094
644.541	35196
644.600	35435
644.659	47303
644.719	59690
644.778	91424
644.837	160412
644.896	346339
644.955	730420
645.014	362893
645.073	313092
645.132	74673
645.191	44333
645.250	39304
645.309	41300
645.368	44768
645.427	55686
645.486	101523
645.545	155186
645.604	46121
645.663	33335
645.722	34483
645.781	36312
645.840	39582
645.898	48441
645.957	67936
646.016	101469
646.075	185926
646.134	373054
646.192	1003466
646.251	1162989
646.310	199116
646.369	72798
646.427	60270
646.486	43799
646.545	36719
646.603	32972
646.662	30956
646.721	29873
646.779	30508
646.838	32635
646.896	40510
646.955	55583
647.014	89486
647.072	179690
647.131	467182
647.189	173779
647.248	37687
647.306	28730
647.365	27700
647.423	23227
647.481	26266
647.540	23156
647.598	24583
647.657	23549
647.715	26392
647.773	23124
647.832	26288
647.890	24727
647.948	29248
648.007	36557
648.065	49133
648.123	78880
648.181	148610
648.240	392652
648.298	263606
648.356	47801
648.414	31118
648.472	24812
648.531	24464
648.589	23697
648.647	23496
648.705	23457
648.763	23715
648.821	24761
648.879	25063
648.937	28260
648.995	33633
649.053	42076
649.111	61232
649.169	98310
649.227	178015
649.285	386734
649.343	965481
649.401	413659
649.459	189738
649.516	274340
649.574	506377
649.632	1245792
649.690	1261575
649.748	467539
649.806	721012
649.863	936014
649.921	483083
649.979	217448
650.037	59267
650.094	40308
650.152	35873
650.210	30326
650.268	30489
650.325	32536
650.383	37031
650.440	22032
650.498	21762
650.556	20171
650.613	18934
650.671	19575
650.728	19295
650.786	20230
650.843	26079
650.901	17787
650.958	16360
651.016	16783
651.073	16477
651.131	15554
651.188	15237
651.246	15393
651.303	14376
651.360	14262
651.418	13472
651.475	14184
651.532	12962
651.590	13524
651.647	13250
651.704	14434
651.762	13479
651.819	13907
651.876	14139
651.933	13182
651.990	13963
652.048	12719
652.105	13261
652.162	15519
652.219	15107
652.276	16763
652.333	18915
652.390	23029
652.448	32501
652.505	51345
652.562	89017
652.619	178698
652.676	503506
652.733	379311
652.790	52349
652.847	23769
652.904	19449
652.961	15569
653.017	14370
653.074	15046
653.131	13486
653.188	12284
653.245	11837
653.302	11563
653.359	12800
653.415	12113
653.472	12349
653.529	11559
653.586	11209
653.642	11211
653.699	11519
653.756	10267
653.813	11083
653.869	12114
653.926	11398
653.983	11015
654.039	11702
654.096	10710
654.152	11575
654.209	10197
654.266	11406
654.322	10872
654.379	12136
654.435	11859
654.492	11510
654.548	13196
654.605	16149
654.661	14037
654.717	11051
654.774	11464
654.830	11394
654.887	11379
654.943	13319
655.000	16991
655.056	13443
655.112	10942
655.168	10172
655.225	10971
655.281	12995
655.337	12571
655.394	15149
655.450	12170
655.506	13053
655.562	14986
655.618	13596
655.675	8986
655.731	10551
655.787	10573
655.843	11239
655.899	9712
655.955	10860
656.011	10330
656.067	9919
656.123	9917
656.179	10704
656.235	12037
656.291	10539
656.347	11488
656.403	11332
656.459	11307
656.515	11314
656.571	10804
656.627	10791
656.683	10158
656.739	11545
656.795	10984
656.850	10489
656.906	11790
656.962	11774
657.018	10302
657.074	13590
657.129	15712
657.185	23880
657.241	50000
657.297	24576
657.352	11242
657.408	10083
657.464	10923
657.519	10385
657.575	9363
657.630	10116
657.686	9337
657.742	10807
657.797	10393
657.853	10345
657.908	11749
657.964	10116
658.019	12074
658.075	11810
658.130	10996
658.186	10089
658.241	10426
658.297	9423
658.352	10003
658.407	10545
658.463	9581
658.518	9913
658.573	10237
658.629	8866
658.684	8604
658.739	10142
658.795	9615
658.850	9968
658.905	9333
658.960	10745
659.016	9330
659.071	12343
659.126	13601
659.181	17072
659.236	25644
659.291	36098
659.346	58285
659.401	107434
659.457	251759
659.512	395148
659.567	80287
659.622	22826
659.677	15835
659.732	13181
659.787	11949
659.842	12026
659.897	12122
659.952	10276
660.007	9864
660.061	10305
660.116	9408
660.171	8475
660.226	9927
660.281	10671
660.336	8795
660.391	9775
660.445	8388
660.500	8954
660.555	9642
660.610	9143
660.664	9322
660.719	8402
660.774	8134
660.828	9652
660.883	8522
660.938	9497
660.992	7968
661.047	9056
661.101	8142
661.156	8400
661.211	8561
661.265	9610
661.320	8383
661.374	9060
661.429	7857
661.483	9858
661.538	9251
661.592	9489
661.647	11010
661.701	15890
661.755	9464
661.810	8002
661.864	8759
661.919	8299
661.973	8832
662.027	8993
662.081	8031
662.136	8312
662.190	8225
662.244	9127
662.299	8258
662.353	8187
662.407	7986
662.461	8377
662.515	9002
662.569	9104
662.624	8566
662.678	7620
662.732	7568
662.786	9125
662.840	9007
662.894	8004
662.948	8132
663.002	7863
663.056	7748
663.110	8210
663.164	8785
663.218	8703
663.272	8701
663.326	9311
663.380	8057
663.434	8239
663.488	8271
663.542	8835
663.595	8084
663.649	7810
663.703	8422
663.757	8377
663.811	7572
663.864	8161
663.918	7949
663.972	8414
664.026	7614
664.079	7747
664.133	8728
664.187	8315
664.240	9303
664.294	9357
664.348	9525
664.401	8528
664.455	8036
664.508	7689
664.562	7847
664.615	8131
664.669	7289
664.722	7469
664.776	7768
664.829	7766
664.883	8044
664.936	7500
664.990	8525
665.043	8832
665.097	8663
665.150	10249
665.203	9394
665.257	10189
665.310	11461
665.363	12658
665.417	10545
665.470	8586
665.523	9451
665.576	8510
665.630	8346
665.683	9355
665.736	9252
665.789	9032
665.842	7467
665.895	8259
665.949	8440
666.002	8878
666.055	7692
666.108	9687
666.161	8256
666.214	9093
666.267	9590
666.320	9567
666.373	9553
666.426	9461
666.479	7925
666.532	8775
666.585	9113
666.638	9718
666.691	9234
666.744	9204
666.796	8761
666.849	9223
666.902	8961
666.955	9189
667.008	8239
667.060	8898
667.113	9793
667.166	11502
667.219	13900
667.271	18716
667.324	27063
667.377	44652
667.430	76902
667.482	196404
667.535	96731
667.587	18382
667.640	11933
667.693	12431
667.745	11719
667.798	12426
667.850	8962
667.903	9140
667.955	9012
668.008	8996
668.060	9520
668.113	10217
668.165	9475
668.218	9578
668.270	8755
668.322	7802
668.375	8515
668.427	8396
668.479	8028
668.532	8563
668.584	8423
668.636	8528
668.689	8896
668.741	7669
668.793	9072
668.845	9185
668.898	10080
668.950	9756
669.002	11448
669.054	13190
669.106	15745
669.158	24327
669.211	35445
669.263	60966
669.315	150226
669.367	184757
669.419	36305
669.471	16684
669.523	15508
669.575	16260
669.627	13371
669.679	10983
669.731	11056
669.783	10817
669.835	12036
669.886	11139
669.938	10003
669.990	9450
670.042	8980
670.094	10813
670.146	9960
670.197	11653
670.249	12946
670.301	14654
670.353	18602
670.404	25480
670.456	35616
670.508	59209
670.560	100470
670.611	173447
670.663	315244
670.715	749256
670.766	894218
670.818	237284
670.869	59269
670.921	34663
670.972	24994
671.024	19394
671.075	16579
671.127	14497
671.178	12606
671.230	13159
671.281	12823
671.333	13766
671.384	13856
671.436	16861
671.487	20298
671.538	27215
671.590	41505
671.641	67392
671.692	118627
671.744	202072
671.795	132710
671.846	53833
671.897	28670
671.949	20495
672.000	15314
672.051	13468
672.102	11907
672.153	10800
672.204	9815
672.256	9336
672.307	8767
672.358	8087
672.409	8233
672.460	8649
672.511	8212
672.562	7433
672.613	6795
672.664	6888
672.715	7611
672.766	7211
672.817	7209
672.868	6814
672.919	6409
672.970	7541
673.021	7441
673.071	7222
673.122	6172
673.173	6773
673.224	6583
673.275	6675
673.326	5652
673.376	6766
673.427	5054
673.478	6447
673.528	7118
673.579	5723
673.630	5950
673.680	7203
673.731	6223
673.782	5669
673.832	6093
673.883	7225
673.934	6078
673.984	6566
674.035	7137
674.085	5689
674.136	6210
674.186	6096
674.237	7164
674.287	8859
674.338	6724
674.388	6526
674.438	6258
674.489	7162
674.539	6894
674.589	7292
674.640	6313
674.690	6916
674.740	6094
674.791	6328
674.841	7177
674.891	5520
674.942	6039
674.992	5925
675.042	4516
675.092	5556
675.142	5235
675.193	4934
675.243	5693
675.293	6184
675.343	6172
675.393	6078
675.443	6031
675.493	6475
675.543	5880
675.593	5983
675.643	5611
675.693	6213
675.743	5800
675.793	5071
675.843	5011
675.893	5488
675.943	4882
675.993	4629
676.043	5678
676.093	5607
676.142	5325
676.192	5490
676.242	4769
676.292	4813
676.341	5396
676.391	5748
676.441	4589
676.491	4774
676.540	3956
676.590	5010
676.640	3987
676.689	4685
676.739	4591
676.789	6160
676.838	5058
676.888	5515
676.937	4975
676.987	4909
677.037	4704
677.086	5563
677.136	6817
677.185	5384
677.235	4347
677.284	4743
677.333	5325
677.383	4635
677.432	3463
677.482	5398
677.531	4705
677.580	4349
677.630	4373
677.679	4614
677.728	4152
677.778	4408
677.827	4282
677.876	4996
677.925	3850
677.975	5435
678.024	4792
678.073	4740
678.122	5390
678.171	4493
678.220	4407
678.269	6161
678.319	6019
678.368	6193
678.417	5946
678.466	5861
678.515	5235
678.564	5534
678.613	4647
678.662	4729
678.711	4918
678.760	4950
678.809	4686
678.857	5396
678.906	4913
678.955	5445
679.004	5283
679.053	6332
679.102	5063
679.151	5385
679.199	3980
679.248	4356
679.297	4604
679.346	5420
679.394	3959
679.443	4711
679.492	2990
679.540	4617
679.589	4595
679.638	5231
679.686	4655
679.735	5997
679.784	5687
679.832	5778
679.881	4202
679.929	4365
679.978	4246
680.026	5148
680.075	4302
680.123	3742
680.172	4475
680.220	4431
680.268	3783
680.317	4096
680.365	3800
680.414	4103
680.462	2748
680.510	4212
680.559	4291
680.607	3903
680.655	3385
680.703	3934
680.752	3325
680.800	3389
680.848	3657
680.896	3184
680.945	3874
680.993	3961
681.041	4243
681.089	4321
681.137	4022
681.185	4033
681.233	4556
681.258	4420
681.281	4249
681.329	3567
681.377	4079
681.380	4103
681.425	3707
681.473	5295
681.502	5125
681.521	4920
681.569	5628
681.617	4295
681.624	4353
681.665	4438
681.713	5098
681.745	5307
681.761	5335
681.809	4844
681.857	5686
681.867	5583
681.904	5062
681.952	5922
681.989	5502
682.000	5316
682.048	4946
682.096	4590
682.111	4944
682.143	5583
682.191	5288
682.233	6105
682.239	6181
682.286	6268
682.334	5927
682.354	5602
682.382	5075
682.430	6393
682.476	5691
682.477	5636
682.525	6528
682.572	6052
682.598	5837
682.620	5632
682.667	5302
682.715	6713
682.720	6708
682.763	6182
682.810	6278
682.841	6794
682.857	7036
682.905	7103
682.952	6308
682.963	6520
683.000	7067
683.047	6885
683.085	7681
683.095	7871
683.142	6810
683.190	7405
683.206	7394
683.237	7159
683.284	7395
683.328	7176
683.332	7137
683.379	7616
683.426	6799
683.449	7113
683.473	7405
683.521	7164
683.568	7968
683.571	7978
683.615	7526
683.662	8705
683.693	8297
683.709	8040
683.757	7519
683.804	8690
683.814	8627
683.851	8308
683.898	8623
683.936	8512
683.945	8447
683.992	9296
684.039	9278
684.057	8918
684.086	8303
684.133	8526
684.179	8843
684.180	8821
684.227	9533
684.274	8993
684.300	8927
684.321	8907
684.368	8368
684.415	9697
684.422	9675
684.462	9309
684.509	8845
684.543	8866
684.556	8883
684.603	9479
684.649	9367
684.665	9726
684.696	10321
684.743	10140
684.786	10028
684.790	10006
684.837	9645
684.883	10344
684.908	10469
684.930	10583
684.977	11103
685.023	10592
685.029	10609
685.070	10267
685.117	9863
685.150	10933
685.164	11389
685.210	10742
685.257	11493
685.272	11357
685.303	10957
685.350	11588
685.393	11432
685.396	11413
685.443	10995
685.490	12427
685.514	12378
685.536	12219
685.583	11781
685.629	11675
685.636	11775
685.675	12263
685.722	11884
685.757	11568
685.768	11496
685.815	12427
685.861	12401
685.878	12427
685.908	12548
685.954	12828
686.000	13628
686.000	13636
686.047	14282
686.093	16043
686.121	16343
686.139	16206
686.185	15740
686.232	15946
686.242	16050
686.278	17829
686.324	19582
686.363	22010
686.370	23125
686.416	31029
686.463	40695
686.484	47192
686.509	51757
686.555	48532
686.601	43914
686.606	44091
686.647	36342
686.693	28864
686.727	22620
686.739	22327
686.785	20326
686.831	18837
686.848	18401
686.877	17545
686.923	15947
686.969	14032
686.969	14028
687.015	14947
687.061	14894
687.090	15249
687.107	15267
687.153	14688
687.199	14189
687.211	14066
687.245	14192
687.291	14599
687.332	15369
687.336	15423
687.382	15636
687.428	14946
687.453	15196
687.474	15327
687.520	15383
687.565	15879
687.574	15612
687.611	15402
687.657	17681
687.695	18096
687.702	18444
687.748	23311
687.794	26882
687.816	27241
687.839	24738
687.885	20743
687.931	17719
687.937	17249
687.976	16577
688.022	15683
688.058	15373
688.067	15418
688.113	15571
688.158	14776
688.179	15147
688.204	15833
688.249	15565
688.295	16084
688.300	16098
688.340	15981
688.386	16343
688.421	15735
688.431	15586
688.477	15593
688.522	16232
688.542	16289
688.567	16467
688.613	15969
688.658	16491
688.663	16498
688.703	16438
688.749	16298
688.784	16327
688.794	16405
688.839	16417
688.884	16293
688.905	16634
688.930	16909
688.975	16261
689.020	16362
689.026	16348
689.065	16684
689.110	17164
689.146	17123
689.155	17120
689.201	17746
689.246	17326
689.267	17506
689.291	17428
689.336	16856
689.381	16966
689.388	16858
689.426	16956
689.471	17023
689.509	16987
689.516	16920
689.561	17069
689.606	16538
689.630	16321
689.651	16236
689.696	16190
689.741	16429
689.750	16334
689.785	16322
689.830	16712
689.871	17074
689.875	17104
689.920	16673
689.965	16659
689.992	16722
690.010	16884
690.054	17106
690.099	17201
690.112	17212
690.144	17329
690.189	17330
690.233	17069
690.233	17089
690.278	17690
690.323	17700
690.354	17371
690.367	17439
690.412	18454
690.457	18826
690.474	19086
690.501	19264
690.546	19416
690.590	19040
690.595	19030
690.635	19898
690.680	20998
690.716	21460
690.724	21802
690.769	23820
690.813	26565
690.836	27434
690.857	30278
690.902	36675
690.946	43502
690.957	45291
690.991	58913
691.035	77957
691.077	94149
691.080	94094
691.124	86097
691.168	80229
691.198	76267
691.213	71311
691.257	56721
691.301	41925
691.318	36536
691.346	34444
691.390	29771
691.434	25789
691.439	25275
691.478	24250
691.522	23651
691.559	22526
691.567	22486
691.611	23003
691.655	22301
691.680	22077
691.699	21795
691.743	21127
691.787	20328
691.800	20137
691.831	20468
691.875	20925
691.919	21325
691.921	21307
691.964	21394
692.008	20966
692.041	20993
692.052	21126
692.096	20889
692.139	21278
692.162	21137
692.183	20973
692.227	21463
692.271	21379
692.282	21319
692.315	21189
692.359	20983
692.402	20751
692.403	20787
692.447	20610
692.490	20456
692.523	20286
692.534	20486
692.578	21234
692.622	22170
692.643	22502
692.666	22495
692.709	21858
692.753	21856
692.763	21806
692.797	21976
692.840	22275
692.884	21975
692.884	22016
692.928	22080
692.971	22233
693.004	22422
693.015	22621
693.059	22572
693.102	23246
693.124	23327
693.146	23690
693.189	24857
693.233	25264
693.245	25414
693.276	26055
693.320	27066
693.363	28097
693.365	28069
693.407	29981
693.450	32253
693.485	33781
693.493	34804
693.537	40116
693.580	45266
693.605	48356
693.624	54345
693.667	68155
693.710	82553
693.725	87644
693.753	114047
693.797	156553
693.840	197307
693.845	201471
693.883	187030
693.926	170722
693.966	156968
693.970	154075
694.013	120802
694.056	87651
694.086	64780
694.099	61980
694.142	52608
694.185	43152
694.206	38672
694.229	37399
694.272	34614
694.315	32062
694.326	31263
694.358	30320
694.401	29370
694.444	27994
694.446	27871
694.487	26962
694.530	25824
694.566	25084
694.573	25080
694.616	24451
694.659	24061
694.686	23629
694.702	23596
694.745	23607
694.787	23265
694.806	23220
694.830	23340
694.873	22992
694.916	23007
694.926	22936
694.959	23078
695.002	23352
695.044	23406
695.046	23365
695.087	23392
695.130	23050
695.166	23059
695.172	23191
695.215	23229
695.258	23678
695.286	23778
695.301	23690
695.343	23449
695.386	23248
695.406	22994
695.428	23390
695.471	24049
695.514	25039
695.526	25170
695.556	25399
695.599	25788
695.641	26062
695.646	26040
695.684	26008
695.726	25819
695.766	25797
695.769	25840
695.811	25370
695.854	25062
695.886	24649
695.896	24803
695.938	25402
695.981	25620
696.005	25948
696.023	26352
696.065	27028
696.108	27590
696.125	27763
696.150	27850
696.192	28102
696.235	27993
696.245	27995
696.277	28228
696.319	28193
696.361	28281
696.365	28219
696.404	28199
696.446	28036
696.485	27832
696.488	27892
696.530	27854
696.572	27695
696.604	27605
696.614	27523
696.656	26931
696.698	26240
696.724	25767
696.740	25822
696.783	25882
696.825	25871
696.844	25787
696.867	25956
696.909	26092
696.951	26393
696.964	26398
696.992	26422
697.034	26309
697.076	26249
697.083	26193
697.118	26900
697.160	27520
697.202	28130
697.203	28078
697.244	27292
697.286	26442
697.323	25544
697.327	25622
697.369	25899
697.411	25955
697.442	26058
697.453	26271
697.494	26816
697.536	27395
697.562	27596
697.578	27609
697.620	27689
697.661	27645
697.682	27545
697.703	27852
697.744	28366
697.786	28958
697.801	29058
697.828	29109
697.869	29112
697.911	29053
697.921	28998
697.952	28624
697.994	27923
698.035	27236
698.040	27083
698.077	27601
698.118	28171
698.160	28654
698.160	28582
698.201	28489
698.243	28318
698.279	28074
698.284	28222
698.325	28938
698.367	29685
698.399	30145
698.408	30198
698.449	30137
698.491	30023
698.518	29894
698.532	29980
698.573	30014
698.614	30037
698.638	29971
698.656	29845
698.697	29401
698.738	28923
698.757	28632
698.779	28910
698.820	29292
698.862	29683
698.877	29753
698.903	29997
698.944	30259
698.985	30523
698.996	30520
699.026	30325
699.067	29946
699.116	29419
699.235	28812
699.354	29041
699.474	29452
699.593	29593
699.713	28432
699.832	29044
699.951	28539
700.070	28598
700.190	26808
700.309	27550
700.428	27712
700.547	27123
700.667	25886
700.786	29062
700.905	25801
701.024	27551
701.143	25760
701.262	27026
701.381	26331
701.500	26983
701.619	27411
701.738	27018
701.857	25775
701.976	25704
702.095	25251
702.214	27020
702.333	25445
702.452	25953
702.571	26034
702.690	26603
702.809	25704
702.928	25614
703.047	24828
703.165	24750
703.284	25572
703.403	25865
703.522	26368
703.640	25942
703.759	28576
703.878	30888
703.997	24972
704.115	24662
704.234	25121
704.353	25652
704.471	23460
704.590	24516
704.708	25041
704.827	25572
704.946	26491
705.064	28601
705.183	28262
705.301	34633
705.420	48461
705.538	65913
705.656	113135
705.775	304543
705.893	1162224
706.012	1198740
706.130	123198
706.249	54063
706.367	39907
706.485	37491
706.604	31204
706.722	32597
706.840	39843
706.958	59843
707.077	38788
707.195	28304
707.313	25947
707.431	25353
707.549	24863
707.668	24225
707.786	25640
707.904	23791
708.022	24380
708.140	24400
708.258	22846
708.376	23963
708.494	23077
708.612	27062
708.730	34297
708.848	35472
708.966	41875
709.084	34856
709.202	27929
709.320	27453
709.438	26458
709.556	26176
709.674	25489
709.791	25790
709.909	24912
710.027	26034
710.145	24709
710.263	26401
710.380	25631
710.498	24791
710.616	24727
710.733	24629
710.851	24985
710.969	26896
711.086	25099
711.204	25963
711.322	26394
711.439	31482
711.557	37277
711.674	54040
711.792	108981
711.909	369485
712.027	509000
712.144	60342
712.262	32908
712.379	30365
712.497	37714
712.614	39884
712.732	33915
712.849	30458
712.966	30399
713.084	33199
713.201	28638
713.318	30609
713.436	29784
713.553	29928
713.670	30596
713.787	33241
713.905	31132
714.022	30006
714.139	30108
714.256	38661
714.373	52287
714.490	90567
714.608	250910
714.725	979158
714.842	784955
714.959	80846
715.076	45354
715.193	42463
715.310	46330
715.427	32543
715.544	26005
715.661	26387
715.778	25848
715.895	26555
716.011	26903
716.128	25149
716.245	24373
716.362	25672
716.479	25596
716.596	24355
716.713	23689
716.829	23414
716.946	22169
717.063	20942
717.180	20459
717.296	20762
717.413	21490
717.530	20209
717.646	19958
717.763	20751
717.880	19892
717.996	19908
718.113	19546
718.229	19648
718.346	18665
718.462	19555
718.579	21624
718.695	27300
718.812	25142
718.928	24894
719.045	22201
719.161	23583
719.277	29945
719.394	69415
719.510	122386
719.626	38622
719.743	32089
719.859	44230
719.975	84302
720.092	339311
720.208	651938
720.324	70066
720.440	28299
720.557	25883
720.673	28333
720.789	36565
720.905	59065
721.021	24880
721.137	19786
721.253	20388
721.369	19471
721.486	20861
721.602	23663
721.718	17050
721.834	15707
721.950	16315
722.066	15979
722.181	17928
722.297	18446
722.413	17281
722.529	21278
722.645	26683
722.761	43558
722.877	65707
722.993	36002
723.108	27856
723.224	21633
723.340	18637
723.456	16222
723.571	16832
723.687	14811
723.803	15144
723.918	14537
724.034	15820
724.150	16257
724.265	17754
724.381	26670
724.497	29385
724.612	14859
724.728	15352
724.843	14657
724.959	16863
725.074	25160
725.190	25764
725.305	14933
725.421	15038
725.536	14731
725.651	14441
725.767	14430
725.882	14008
725.997	14062
726.113	15214
726.228	13202
726.343	14155
726.459	13555
726.574	15084
726.689	13911
726.804	14364
726.920	14792
727.035	15889
727.150	15423
727.265	16137
727.380	19072
727.495	24663
727.610	37684
727.725	72432
727.841	221614
727.956	830713
728.071	384065
728.186	44235
728.301	24184
728.416	20498
728.531	17435
728.645	14897
728.760	14704
728.875	14126
728.990	13137
729.105	13527
729.220	12730
729.335	13624
729.449	12200
729.564	11803
729.679	12043
729.794	13080
729.908	12937
730.023	11967
730.138	11051
730.253	12355
730.367	11037
730.482	12528
730.596	11833
730.711	14354
730.826	17293
730.940	20394
731.055	12818
731.169	12378
731.284	11658
731.398	12572
731.513	14096
731.627	14262
731.742	16836
731.856	18294
731.970	19297
732.085	24982
732.199	38041
732.313	68481
732.428	183348
732.542	488491
732.656	225405
732.771	46803
732.885	25710
732.999	21836
733.113	19688
733.227	18038
733.342	16939
733.456	16626
733.570	14030
733.684	15322
733.798	15164
733.912	14491
734.026	13538
734.140	14425
734.254	14580
734.368	19593
734.482	19313
734.596	13255
734.710	12809
734.824	12871
734.938	11964
735.052	12285
735.166	13280
735.280	12976
735.393	12329
735.507	13292
735.621	14247
735.735	21583
735.849	15777
735.962	14263
736.076	12564
736.190	12938
736.303	14796
736.417	17320
736.531	11088
736.644	12502
736.758	11945
736.872	12392
736.985	10926
737.099	11438
737.212	10900
737.326	12579
737.439	14223
737.553	17159
737.666	13885
737.780	12505
737.893	11452
738.007	11159
738.120	11115
738.233	11185
738.347	12317
738.460	12073
738.573	12801
738.687	14582
738.800	15637
738.913	22421
739.026	40220
739.140	131973
739.253	163303
739.366	28855
739.479	15214
739.592	13070
739.705	11170
739.818	12098
739.932	11213
740.045	11318
740.158	10166
740.271	11743
740.384	11015
740.497	11107
740.610	11394
740.723	10328
740.836	11744
740.949	12531
741.062	12976
741.174	11600
741.287	10464
741.400	12373
741.513	12776
741.626	25021
741.739	32828
741.851	11572
741.964	10443
742.077	10642
742.189	9931
742.302	10983
742.415	9315
742.527	9057
742.640	8940
742.753	9065
742.865	9417
742.978	9492
743.090	9423
743.203	10068
743.316	9571
743.428	9086
743.541	8288
743.653	9127
743.766	9399
743.878	9300
743.990	10190
744.103	12274
744.215	9047
744.327	9073
744.440	10278
744.552	12459
744.664	9149
744.777	9749
744.889	8065
745.001	9841
745.113	9659
745.226	8963
745.338	9696
745.450	10889
745.562	11070
745.674	12932
745.786	19683
745.898	39426
746.010	47168
746.122	23367
746.234	14863
746.347	11907
746.459	10163
746.570	9168
746.682	9675
746.794	10460
746.906	8178
747.018	8997
747.130	8378
747.242	8816
747.354	9296
747.466	10701
747.577	9990
747.689	10773
747.801	9373
747.913	8047
748.024	9211
748.136	9309
748.248	10032
748.359	11813
748.471	15570
748.583	32377
748.694	123109
748.806	183600
748.918	20746
749.029	10888
749.141	10568
749.252	9982
749.364	9764
749.475	11957
749.587	9542
749.698	8479
749.809	8345
749.921	8258
750.032	7970
750.144	7996
750.255	7222
750.366	8280
750.478	8544
750.589	8335
750.700	7757
750.811	8521
750.923	8811
751.034	11708
751.145	11018
751.256	7935
751.367	7463
751.479	7614
751.590	6660
751.701	7649
751.812	6650
751.923	8562
752.034	7238
752.145	8042
752.256	8212
752.367	8995
752.478	7471
752.589	9166
752.700	7850
752.811	8275
752.922	7456
753.032	7380
753.143	7835
753.254	7124
753.365	8438
753.476	8598
753.586	7659
753.697	7599
753.808	7879
753.919	7231
754.029	7391
754.140	7691
754.251	8092
754.361	8179
754.472	7323
754.582	7579
754.693	7354
754.804	8772
754.914	7517
755.025	7759
755.135	7275
755.246	7367
755.356	6684
755.466	7569
755.577	6882
755.687	7767
755.798	6332
755.908	7048
756.018	7327
756.129	7198
756.239	7663
756.349	8391
756.460	8334
756.570	9361
756.680	8157
756.790	7927
756.900	7618
757.011	7986
757.121	7319
757.231	8240
757.341	7986
757.451	8210
757.561	7715
757.671	8873
757.781	7737
757.891	8309
758.001	8231
758.111	8488
758.221	8573
758.331	9093
758.441	9072
758.551	10627
758.661	9021
758.771	9921
758.880	8856
758.990	9423
759.100	9580
759.210	9820
759.320	9937
759.429	11310
759.539	10550
759.649	10979
759.758	11962
759.868	13124
759.978	11211
760.087	13134
760.197	13295
760.307	14155
760.416	12586
760.526	12068
760.635	12184
760.745	14277
760.854	16740
760.964	30951
761.073	28014
761.182	15088
761.292	13547
761.401	13525
761.511	12061
761.620	12095
761.729	11374
761.839	11893
761.948	11948
762.057	12361
762.166	13270
762.276	12189
762.385	14348
762.494	12899
762.603	12997
762.712	13827
762.822	13900
762.931	15232
763.040	13835
763.149	15316
763.258	15364
763.367	17104
763.476	19793
763.585	26653
763.694	34292
763.803	28834
763.912	25563
764.021	27235
764.130	32847
764.238	54777
764.347	53929
764.456	37164
764.565	32023
764.674	33332
764.783	33485
764.891	38324
765.000	41930
765.109	46950
765.217	52695
765.326	62898
765.435	74142
765.543	90341
765.652	110990
765.761	150228
765.869	202757
765.978	295028
766.086	455134
766.195	740818
766.303	1117474
766.412	966290
766.520	981857
766.629	980415
766.737	607330
766.846	387908
766.954	276740
767.062	282468
767.171	445855
767.279	172026
767.387	92930
767.496	74678
767.604	63111
767.712	55749
767.820	49326
767.928	46743
768.037	41346
768.145	40493
768.253	38622
768.361	36185
768.469	36472
768.577	37286
768.685	39506
768.793	42451
768.901	46249
769.009	54678
769.117	65866
769.225	84812
769.333	117549
769.441	180843
769.549	305415
769.657	584051
769.765	967342
769.873	866144
769.981	850603
770.088	462134
770.196	250782
770.304	161431
770.412	115501
770.519	88596
770.627	71945
770.735	57406
770.842	46859
770.950	42233
771.058	35693
771.165	34262
771.273	29897
771.380	28819
771.488	26959
771.595	25390
771.703	22461
771.810	22510
771.918	20041
772.025	21689
772.133	20337
772.240	18704
772.348	18856
772.455	18637
772.562	16286
772.670	16675
772.777	15977
772.884	16451
772.991	15194
773.099	15358
773.206	12863
773.313	14983
773.420	12941
773.528	12998
773.635	12606
773.742	13573
773.849	12577
773.956	12864
774.063	11606
774.170	11336
774.277	12523
774.384	11605
774.491	10815
774.598	11782
774.705	11543
774.812	13265
774.919	12610
775.026	13818
775.133	14474
775.239	11614
775.346	10629
775.453	9870
775.560	9840
775.667	10484
775.773	8913
775.880	11242
775.987	9321
776.093	10457
776.200	9483
776.307	8933
776.413	8483
776.520	10058
776.627	11033
776.733	10014
776.840	6983
776.946	12036
777.053	9422
777.159	10403
777.266	7950
777.372	11706
777.478	10761
777.585	11683
777.691	14001
777.798	21251
777.904	58818
778.010	181156
778.117	46909
778.223	11585
778.329	10169
778.435	9181
778.542	8633
778.648	7849
778.754	6598
778.860	7808
778.966	8144
779.072	8458
779.178	7041
779.284	7496
779.391	7164
779.497	7849
779.603	11392
779.708	12957
779.815	25090
779.920	83712
780.026	138333
780.132	20897
780.238	8921
780.344	8182
780.450	9142
780.556	7560
780.661	6513
780.767	7215
780.873	5982
780.979	7307
781.085	6555
781.190	6844
781.296	6955
781.402	6437
781.507	6397
781.613	6337
781.719	6200
781.824	6921
781.930	6360
782.035	6696
782.141	5759
782.246	6393
782.352	5414
782.457	6416
782.563	5397
782.668	6652
782.773	5809
782.879	6194
782.984	6829
783.090	7438
783.195	8058
783.300	7669
783.405	5588
783.511	6679
783.616	7100
783.721	8477
783.826	10059
783.932	12031
784.037	8439
784.142	6627
784.247	5775
784.352	6877
784.457	5304
784.562	6340
784.667	5536
784.772	5096
784.877	4980
784.982	6241
785.087	5519
785.192	6570
785.297	5553
785.402	6010
785.507	4804
785.611	5979
785.716	4992
785.821	5332
785.926	5419
786.031	5764
786.135	4994
786.240	5652
786.345	4466
786.450	5559
786.554	5222
786.659	5357
786.763	4229
786.868	6158
786.973	5667
787.077	5385
787.182	4876
787.286	5290
787.391	5289
787.495	4727
787.600	4726
787.704	6282
787.809	6386
787.913	5945
788.017	5440
788.122	5543
788.226	6320
788.330	3727
788.435	4980
788.539	5466
788.643	5248
788.747	4420
788.852	5630
788.956	4928
789.060	5508
789.164	5627
789.268	4424
789.372	5671
789.476	5180
789.580	4904
789.684	3694
789.788	5918
789.892	5138
789.996	6744
790.100	6333
790.204	9824
790.308	14530
790.412	35294
790.516	108611
790.620	80372
790.724	17083
790.828	11393
790.931	13549
791.035	42377
791.139	58314
791.242	9359
791.346	5600
791.450	5360
791.554	4542
791.657	4596
791.761	6035
791.864	6207
791.968	5189
792.072	5599
792.175	4282
792.279	4863
792.382	4309
792.486	5305
792.589	4892
792.693	5522
792.796	3321
792.899	5721
793.003	5427
793.106	3629
793.209	4259
793.313	5839
793.416	3215
793.519	6139
793.623	5537
793.726	5783
793.829	4427
793.932	5331
794.035	3467
794.138	6682
794.242	5699
794.345	6135
794.448	7553
794.551	13367
794.654	44128
794.757	75854
794.860	12869
794.963	5978
795.066	3720
795.169	5650
795.272	3821
795.375	5055
795.477	3456
795.580	4901
795.683	3150
795.786	4669
795.889	3394
795.991	5603
796.094	5948
796.197	3691
796.300	5340
796.402	4794
796.505	4098
796.608	4021
796.710	4321
796.813	4991
796.915	4201
797.018	5440
797.120	4036
797.223	3013
797.326	5320
797.428	3630
797.530	3563
797.633	5430
797.735	5570
797.838	6339
797.940	5805
798.042	3862
798.145	4255
798.247	5494
798.349	2873
798.452	4922
798.554	3317
798.656	3545
798.758	5405
798.860	5100
798.962	2789
799.065	3862
799.167	2850
799.269	5948
799.371	4907
799.473	6225
799.575	4914
799.677	4691
799.779	6154
799.881	4645
799.983	4878
800.085	4117
800.187	3933
800.289	3047
800.390	3746
800.492	3360
800.594	4411
800.696	3908
800.798	4387
800.899	3597
801.001	2823
801.103	3690
801.205	3980
801.306	4826
801.408	2082
801.509	4080
801.611	4097
801.713	4502
801.814	3058
801.916	3505
802.017	3067
802.119	3484
802.220	3049
802.322	2352
802.423	5766
802.525	2974
802.626	2913
802.727	4992
802.829	4564
802.930	2295
803.031	4217
803.133	3617
803.234	3643
803.335	3264
803.436	2343
803.538	3542
803.639	1562
803.740	4355
803.841	3013
803.942	3325
804.043	3274
804.144	2659
804.245	3279
804.346	2863
804.447	2816
804.548	3960
804.649	5116
804.750	4012
804.851	2693
804.952	3585
805.053	3390
805.154	1929
805.255	3749
805.355	2858
805.456	2814
805.557	3584
805.658	1612
805.758	4310
805.859	3242
805.960	3563
806.061	2663
806.161	3078
806.262	3117
806.362	2811
806.463	2688
806.564	4300
806.664	2513
806.765	3854
806.865	3149
806.966	2937
807.066	3031
807.166	4130
807.267	3048
807.367	2593
807.468	3130
807.568	2095
807.668	3821
807.769	4334
807.869	2498
807.969	3197
808.069	2990
808.170	3346
808.270	2507
808.370	3657
808.470	2640
808.570	2903
808.670	3128
808.770	3646
808.870	2322
808.970	3087
809.070	1773
809.170	2443
809.271	3075
809.370	3220
809.470	3941
809.570	2591
809.670	2132
809.770	2260
809.870	2898
809.970	2709
810.070	2781
810.169	2927
810.269	1154
810.369	3357
810.469	2032
810.568	2868
810.668	2508
810.768	3595
810.867	2593
810.967	2665
811.066	2923
811.166	2962
811.265	3313
811.365	2070
811.464	2810
811.564	3808
811.663	3724
811.763	2865
811.862	4006
811.962	4930
812.061	3465
812.160	3682
812.260	2825
812.359	3766
812.458	4575
812.557	11467
812.657	14559
812.756	7167
812.855	2661
812.954	2450
813.053	2901
813.153	2734
813.252	2376
813.351	3506
813.450	2754
813.549	2410
813.648	3344
813.747	2738
813.846	3268
813.945	2716
814.044	3236
814.143	4035
814.242	3210
814.341	3099
814.439	3289
814.538	3640
814.637	3237
814.736	4125
814.835	4869
814.933	3639
815.032	4376
815.131	5506
815.229	5252
815.328	6816
815.427	4650
815.525	5634
815.624	5542
815.722	5341
815.821	7190
815.919	7071
816.018	5936
816.116	7573
816.215	5968
816.313	6996
816.412	7214
816.510	6786
816.609	8716
816.707	7965
816.805	6894
816.904	7655
817.002	7611
817.100	9579
817.198	9663
817.296	9346
817.395	9147
817.493	10255
817.591	9760
817.689	12593
817.787	13884
817.885	20828
817.983	32784
818.081	62378
818.179	138431
818.277	329858
818.375	274407
818.473	84547
818.571	36491
818.669	27159
818.767	21920
818.865	22988
818.963	25068
819.061	35346
819.158	56754
819.256	116956
819.354	258406
819.452	514418
819.549	345644
819.647	113613
819.745	50060
819.842	31645
819.940	23251
820.038	18005
820.135	14591
820.233	14685
820.330	11009
820.428	10449
820.525	10907
820.623	10143
820.720	9317
820.818	14091
820.915	24357
821.012	38148
821.110	14871
821.207	10413
821.304	6706
821.402	7303
821.499	7134
821.596	8017
821.693	6812
821.791	7406
821.888	6780
821.985	8026
822.082	5832
822.179	6334
822.276	6192
822.373	6661
822.470	5708
822.567	7009
822.664	4980
822.761	6417
822.858	5374
822.955	5553
823.052	4602
823.149	5056
823.246	5150
823.343	4923
823.440	5092
823.536	4885
823.633	4373
823.730	5178
823.827	5279
823.923	4959
824.020	6193
824.117	5751
824.213	4056
824.310	5215
824.407	4746
824.503	5494
824.600	4404
824.696	4056
824.793	5751
824.889	4874
824.986	4567
825.082	4192
825.179	4725
825.275	5441
825.371	4911
825.468	5044
825.564	3052
825.660	5600
825.757	5400
825.853	5297
825.949	4320
826.045	4707
826.142	4101
826.238	4995
826.334	5061
826.430	4685
826.526	4511
826.622	3445
826.718	3929
826.814	3837
826.910	4959
827.006	4001
827.102	3279
827.198	5686
827.294	3799
827.390	5637
827.486	4189
827.582	2880
827.678	2687
827.774	4696
827.869	1832
827.965	4304
828.061	3220
828.157	3566
828.252	3768
828.348	5208
828.444	4826
828.539	4365
828.635	3302
828.731	3679
828.826	2530
828.922	5031
829.017	4646
829.113	5215
829.208	2996
829.304	3972
829.399	5824
829.495	4201
829.590	3913
829.685	3472
829.781	3234
829.876	3660
829.971	2988
830.066	3050
830.162	3288
830.257	3485
830.352	2486
830.447	4999
830.543	3952
830.638	3014
830.733	4590
830.828	3792
830.923	3905
831.018	4178
831.113	3741
831.208	3100
831.303	3245
831.398	3475
831.493	2733
831.588	4738
831.683	3179
831.778	4369
831.873	3305
831.967	4004
832.062	4064
832.157	3343
832.252	3872
832.346	3056
832.441	5084
832.536	4552
832.631	6543
832.725	5419
832.820	2197
832.914	3009
833.009	2249
833.104	3139
833.198	3157
833.293	2934
833.387	3447
833.482	3655
833.576	2137
833.670	4392
833.765	3660
833.859	3467
833.954	4065
834.048	3428
834.142	3467
834.237	3539
834.331	3072
834.425	3327
834.519	1431
834.613	2941
834.708	1873
834.802	3464
834.896	2151
834.990	3487
835.084	3248
835.178	2767
835.272	2664
835.366	3178
835.460	2678
835.554	2505
835.648	2601
835.742	2810
835.836	2747
835.930	1961
836.024	2765
836.117	3401
836.211	2714
836.305	3463
836.399	3786
836.493	1767
836.586	3484
836.680	1694
836.774	1654
836.867	3186
836.961	2142
837.055	2131
837.148	1878
837.242	2377
837.335	1855
837.429	2513
837.522	2429
837.616	2156
837.709	4099
837.803	4265
837.896	3144
837.989	3399
838.083	3227
838.176	4559
838.269	3341
838.363	2901
838.456	1529
838.549	3352
838.642	3289
838.735	5795
838.829	3177
838.922	2273
839.015	1940
839.108	1956
839.201	2430
839.294	2914
839.387	2656
839.480	2012
839.573	2542
839.666	3538
839.759	1946
839.852	1309
839.945	1802
840.038	2339
840.131	1592
840.223	1968
840.316	2184
840.409	1949
840.502	1522
840.594	3298
840.687	770
840.780	1685
840.873	1305
840.965	2429
841.058	2507
841.150	5452
841.243	2605
841.336	2101
841.428	1820
841.521	1197
841.613	2618
841.706	2495
841.798	1616
841.890	1530
841.983	1062
842.075	2606
842.167	1101
842.260	1863
842.352	2197
842.444	4032
842.537	4866
842.629	6853
842.721	2561
842.813	1454
842.905	1001
842.997	2524
843.090	2102
843.182	3030
843.274	4542
843.366	10065
843.458	18048
843.550	10767
843.642	2229
843.734	2354
843.826	2469
843.918	2837
844.009	2301
844.101	1217
844.193	937
844.285	2060
844.377	1619
844.469	2414
844.560	897
844.652	1829
844.744	2333
844.835	2389
844.927	1764
845.019	2626
845.110	2256
845.202	1884
845.293	1978
845.385	1136
845.476	1662
845.568	2564
845.659	1790
845.751	2993
845.842	1634
845.934	2441
846.025	1503
846.116	1973
846.208	1206
846.299	1430
846.390	1206
846.482	1474
846.573	1987
846.664	2987
846.755	2385
846.846	2827
846.937	575
847.029	1244
847.120	1657
847.211	1565
847.302	2530
847.393	321
847.484	1710
847.575	2161
847.666	1132
847.757	1668
847.847	1460
847.938	2744
848.029	1392
848.120	1550
848.211	781
848.302	1320
848.392	1405
848.483	2653
848.574	1003
848.664	1556
848.755	1747
848.846	2129
848.936	1818
849.027	2754
849.118	2156
849.208	2743
849.299	4534
849.389	5839
849.480	10221
849.570	21162
849.661	40513
849.751	64065
849.841	20375
849.932	5117
850.022	1786
850.112	2805
850.203	2417
850.293	2523
850.383	2313
850.474	1619
850.564	1191
850.654	2590
850.744	2280
850.834	2289
850.924	916
851.014	2232
851.104	2871
851.194	2574
851.284	3426
851.374	3868
851.464	2398
851.554	3063
851.644	2410
851.734	4843
851.824	2621
851.914	3637
852.004	5815
852.094	5109
852.183	2716
852.273	2966
852.363	2030
852.452	2683
852.542	2202
852.632	2044
852.721	1861
852.811	2235
852.901	2150
852.990	2645
853.080	2712
853.169	3233
853.259	2756
853.348	3274
853.438	3460
853.527	6254
853.617	7486
853.706	13794
853.795	23514
853.885	51664
853.974	93498
854.063	172289
854.152	235569
854.242	92840
854.331	22789
854.420	10402
854.509	7128
854.598	6649
854.687	5382
854.777	6050
854.866	3654
854.955	3733
855.044	3149
855.133	4424
855.222	4287
855.311	5139
855.400	6163
855.488	9403
855.577	14834
855.666	31567
855.755	55576
855.844	100113
855.933	129828
856.021	40718
856.110	8255
856.199	4413
856.288	3542
856.376	3748
856.465	2546
856.554	4061
856.642	3462
856.731	5035
856.819	4777
856.908	4332
856.996	2583
857.085	2697
857.173	2604
857.262	2175
857.350	2223
857.438	1593
857.527	1867
857.615	1935
857.703	2281
857.792	3074
857.880	1685
857.968	2329
858.056	2142
858.145	4034
858.233	1416
858.321	1774
858.409	2435
858.497	2330
858.585	384
858.673	2118
858.761	826
858.849	863
858.937	516
859.025	2495
859.113	1766
859.201	2025
859.289	1766
859.377	1240
859.465	1474
859.552	2655
859.640	2158
859.728	2406
859.816	2392
859.903	2281
859.991	840
860.079	2148
860.166	2141
860.254	2629
860.342	2321
860.429	2165
860.517	1110
860.604	2752
860.692	1804
860.779	1646
860.867	974
860.954	1460
861.042	1933
861.129	2544
861.216	1711
861.304	2675
861.391	1643
861.478	2698
861.565	1296
861.653	2543
861.740	2035
861.827	2514
861.914	2550
862.001	2711
862.089	2336
862.176	2352
862.263	2335
862.350	2911
862.437	1213
862.524	1966
862.611	1391
862.698	3279
862.785	2628
862.871	2785
862.958	2457
863.045	2871
863.132	1747
863.219	2395
863.306	1293
863.392	3174
863.479	2369
863.566	2775
863.652	2821
863.739	2145
863.826	1755
863.912	3283
863.999	2032
864.086	3067
864.172	2792
864.259	3826
864.345	2115
864.432	3112
864.518	2624
864.604	3215
864.691	1378
864.777	2905
864.863	2858
864.950	3834
865.036	3582
865.122	7581
865.209	7428
865.295	8176
865.381	7286
865.467	6511
865.553	6297
865.639	10027
865.726	15266
865.812	29429
865.898	50255
865.984	76051
866.070	137627
866.156	136119
866.242	38660
866.328	12799
866.414	7370
866.499	7477
866.585	6450
866.671	5176
866.757	5325
866.843	5815
866.928	4441
867.014	4378
867.100	4080
867.186	4829
867.271	3931
867.357	5228
867.442	5145
867.528	4550
867.614	3447
867.699	4297
867.785	4334
867.870	3840
867.956	3350
868.041	4379
868.127	3525
868.212	4041
868.297	3345
868.383	4340
868.468	3413
868.553	5013
868.639	5290
868.724	7244
868.809	5991
868.894	4050
868.979	2923
869.065	4003
869.150	2587
869.235	3361
869.320	2858
869.405	3318
869.490	2659
869.575	2981
869.660	2962
869.745	3978
869.830	2895
869.915	2594
870.000	2705
870.085	4068
870.169	2926
870.254	3178
870.339	1832
870.424	2885
870.509	2326
870.593	3300
870.678	3198
870.763	3327
870.847	2837
870.932	2617
871.016	2999
871.101	3427
871.186	2599
871.270	3562
871.355	2038
871.439	2920
871.523	2692
871.608	2878
871.692	2630
871.777	3851
871.861	3411
871.945	1894
872.030	2832
872.114	2460
872.198	1192
872.282	2306
872.367	2132
872.451	2035
872.535	2391
872.619	2076
872.703	2831
872.787	3292
872.871	2584
872.955	2315
873.039	1676
873.123	2846
873.207	1471
873.291	2086
873.375	2060
873.459	2981
873.543	1456
873.627	1556
873.711	2051
873.794	3165
873.878	2289
873.962	1460
874.045	1724
874.129	1961
874.137	1937
874.213	1693
874.245	2246
874.296	3145
874.352	2001
874.380	1442
874.460	2126
874.464	2154
874.547	1161
874.568	1528
874.631	2601
874.676	2294
874.714	2061
874.784	2567
874.798	2662
874.881	3458
874.892	3259
874.965	1886
874.999	1629
875.048	1264
875.107	1425
875.131	1515
875.215	1333
875.215	1334
875.298	2161
875.323	2052
875.381	1750
875.430	1964
875.465	2148
875.538	1553
875.548	1468
875.631	1512
875.646	1382
875.714	743
875.753	1540
875.798	2464
875.861	2341
875.881	2296
875.964	1752
875.968	1769
876.047	2126
876.076	2087
876.130	1995
876.183	1491
876.213	1217
876.291	2149
876.296	2211
876.379	938
876.398	1118
876.462	1720
876.506	1506
876.545	1293
876.613	1802
876.628	1911
876.711	1389
876.721	1501
876.794	2544
876.828	2136
876.877	1390
876.935	1604
876.960	1732
877.043	1385
877.043	1389
877.125	2208
877.150	2119
877.208	1935
877.258	2256
877.291	2346
877.365	1506
877.374	1447
877.456	2162
877.472	2110
877.539	1840
877.579	2287
877.622	2648
877.687	1878
877.704	1704
877.787	1713
877.794	1697
877.869	1480
877.901	1854
877.952	2400
878.008	1708
878.034	1407
878.115	1438
878.117	1440
878.199	1463
878.222	1609
878.282	1899
878.329	1682
878.364	1470
878.437	1645
878.447	1704
878.529	1149
878.544	1264
878.611	1543
878.651	1361
878.694	1254
878.758	1076
878.776	999
878.858	1539
878.865	1534
878.941	1556
878.972	1426
879.023	1076
879.078	1547
879.105	1919
879.185	1759
879.187	1744
879.269	1349
879.292	1273
879.351	1238
879.399	1295
879.433	1430
879.506	1820
879.516	1813
879.598	1509
879.613	1413
879.680	1187
879.720	1671
879.762	2297
879.827	1686
879.844	1420
879.926	1053
879.933	1070
880.007	1700
880.040	1743
880.089	1373
880.147	1486
880.171	1776
880.253	3182
880.254	3200
880.335	5154
880.360	5360
880.417	5921
880.467	8677
880.499	10408
880.574	11249
880.580	11283
880.662	3612
880.680	3119
880.744	1152
880.787	465
880.825	46
880.893	426
880.907	507
880.989	730
881.000	748
881.070	767
881.106	737
881.152	489
881.213	80
881.233	92
881.315	751
881.319	762
881.396	593
881.426	482
881.478	297
881.532	603
881.559	809
881.639	464
881.641	455
881.722	958
881.745	931
881.803	715
881.852	931
881.885	1066
881.958	706
881.966	674
882.047	902
882.064	775
882.129	324
882.171	710
882.210	1075
882.277	1013
882.291	960
882.372	1133
882.383	1090
882.454	1174
882.489	1103
882.535	653
882.596	707
882.616	797
882.697	622
882.702	609
882.778	730
882.808	974
882.859	1069
882.914	688
882.940	517
883.020	312
883.021	311
883.102	224
883.127	425
883.183	823
883.233	462
883.264	233
883.339	253
883.345	273
883.426	157
883.445	372
883.507	890
883.551	694
883.587	372
883.657	163
883.668	229
883.749	418
883.763	459
883.830	392
883.869	479
883.910	425
883.975	265
883.991	288
884.072	220
884.081	257
884.152	584
884.187	493
884.233	348
884.292	546
884.314	470
884.394	-49
884.398	-67
884.475	296
884.504	351
884.555	122
884.610	53
884.636	121
884.716	32
884.716	30
884.797	224
884.821	131
884.877	483
884.927	903
884.958	684
885.033	-73
885.038	-83
885.118	3
885.139	52
885.199	-37
885.244	-140
885.279	72
885.350	310
885.359	268
885.439	313
885.456	197
885.520	124
885.561	460
885.600	609
885.667	626
885.680	674
885.760	1044
885.773	1089
885.840	835
885.878	1049
885.920	1557
885.984	1385
886.000	1168
886.080	195
886.089	118
886.160	17
886.195	171
886.240	227
886.300	-7
886.320	7
886.400	269
886.406	273
886.480	-389
886.511	-456
886.560	-62
886.616	87
886.640	125
886.720	330
886.722	336
886.800	-289
886.827	-422
886.879	50
886.932	274
886.959	277
887.038	814
887.039	807
887.119	-200
887.143	-366
887.198	-110
887.248	141
887.278	192
887.354	97
887.358	91
887.437	65
887.459	101
887.517	390
887.564	521
887.596	283
887.669	-176
887.676	-177
887.755	-134
887.774	-137
887.835	140
887.880	385
887.914	339
887.985	192
887.994	208
888.073	383
888.090	432
888.153	416
888.195	351
888.232	251
888.300	143
888.311	119
888.391	-88
888.405	-112
888.470	191
888.510	342
888.549	342
888.615	478
888.628	506
888.708	526
888.720	545
888.787	218
888.825	-25
888.866	-341
888.930	-668
888.945	-619
889.024	-485
889.035	-450
889.103	41
889.140	294
889.182	135
889.245	-72
889.261	-119
889.340	-348
889.349	-364
889.419	-187
889.454	-112
889.498	-384
889.559	-711
889.577	-568
889.656	83
889.664	157
889.735	329
889.768	413
889.814	340
889.873	258
889.978	-462
890.083	517
890.187	516
890.292	-132
890.397	-826
890.501	-26
890.606	112
890.710	452
890.815	-436
890.919	-874
891.024	-571
891.128	-31
891.233	137
891.337	-183
891.442	842
891.546	202
891.650	-155
891.755	277
891.859	837
891.963	653
892.068	-689
892.172	-382
892.276	-37
892.380	110
892.484	179
892.589	-566
892.693	360
892.797	-336
892.901	-511
893.005	-606
893.109	75
893.213	54
893.317	-36
893.421	-275
893.525	-630
893.629	-264
893.733	56
893.837	-519
893.941	-453
894.045	761
894.148	-56
894.252	-512
894.356	67
894.460	119
894.564	-277
894.667	-289
894.771	18
894.875	-393
894.978	-379
895.082	-841
895.186	448
895.289	-50
895.393	212
895.496	-41
895.600	-213
895.703	590
895.807	453
895.910	-620
896.014	208
896.117	-615
896.221	174
896.324	-709
896.427	-796
896.531	-871
896.634	39
896.737	-415
896.840	-668
896.944	-260
897.047	-180
897.150	-248
897.253	-691
897.356	-155
897.460	-1166
897.563	-895
897.666	452
897.769	-843
897.872	-992
897.975	-594
898.078	103
898.181	-651
898.284	-99
898.387	-280
898.490	-527
898.593	67
898.695	-552
898.798	-121
898.901	-803
899.004	-1075
899.107	-338
899.209	-763
899.312	-396
899.415	-434
899.518	-956
899.620	-721
899.723	-355
899.826	348
899.928	226
900.031	-319
900.133	-398
900.236	-358
900.338	-217
900.441	-665
900.543	-1602
900.646	-411
900.748	-359
900.851	-116
900.953	-229
901.055	196
901.158	-795
901.260	1
901.362	-1234
901.465	-1092
901.567	-626
901.669	-206
901.771	-120
901.873	-729
901.976	-422
902.078	-270
902.180	134
902.282	-968
902.384	-131
902.486	-14
902.588	-225
902.690	-979
902.792	-237
902.894	378
902.996	-537
903.098	-812
903.200	-171
903.302	303
903.404	-148
903.505	-860
903.607	-703
903.709	-451
903.811	56
903.913	-746
904.014	-655
904.116	-597
904.218	-731
904.319	16
904.421	1016
904.523	-756
904.624	102
904.726	-954
904.827	-742
904.929	-924
905.030	-738
905.132	-201
905.233	411
905.335	-575
905.436	-1064
905.537	-624
905.639	-507
905.740	-1369
905.841	-31
905.943	-215
906.044	-579
906.145	-911
906.247	-725
906.348	159
906.449	-916
906.550	-1123
906.651	-770
906.752	-561
906.854	-733
906.955	-972
907.056	-729
907.157	-784
907.258	-9
907.359	-1329
907.460	-1050
907.561	-543
907.662	-322
907.762	-1131
907.863	-1027
907.964	-23
908.065	236
908.166	-784
908.267	107
908.367	-1368
908.468	-165
908.569	-1240
908.670	-514
908.770	-840
908.871	-394
908.971	-621
909.072	-699
909.173	-1146
909.273	-485
909.374	-657
909.474	-624
909.575	-596
909.675	-665
909.776	-1214
909.876	-636
909.977	-1875
910.077	-217
910.177	-779
910.278	-888
910.378	-345
910.478	-449
910.579	-628
910.679	-670
910.779	-257
910.879	-179
910.980	-949
911.080	-1089
911.180	-1499
911.280	-158
911.380	-1630
911.480	-165
911.580	-886
911.680	-809
911.780	-573
911.880	-321
911.980	-1434
912.080	-499
912.180	-1394
912.280	-938
912.380	-343
912.480	-480
912.580	-724
912.679	-685
912.779	448
912.879	-774
912.979	-856
913.078	-810
913.178	-1051
913.278	-1303
913.377	-994
913.477	-1166
913.577	-419
913.676	147
913.776	-464
913.875	-396
913.975	-1116
914.074	-1420
914.174	-989
914.273	-1109
914.373	295
914.472	-297
914.572	-1162
914.671	-75
914.770	100
914.870	-911
914.969	-858
915.068	-437
915.167	-277
915.267	-749
915.366	-833
915.465	-306
915.564	-716
915.663	-1320
915.763	-854
915.862	-772
915.961	-1220
916.060	-1198
916.159	-1305
916.258	-657
916.357	-1377
916.456	-188
916.555	-465
916.654	-1017
916.752	-161
916.851	-475
916.950	-1023
917.049	-1216
917.148	-741
917.247	-708
917.345	-986
917.444	-1372
917.543	-414
917.642	-598
917.740	-509
917.839	-1306
917.937	-796
918.036	-119
918.135	-254
918.233	-769
918.332	-777
918.430	-786
918.529	-1271
918.627	-248
918.726	-392
918.824	-467
918.923	-1285
919.021	-1201
919.119	-1308
919.218	-1048
919.316	-1094
919.414	-918
919.512	-682
919.611	-620
919.709	-216
919.807	-667
919.905	-813
920.003	-257
920.102	-1056
920.200	-865
920.298	-1046
920.396	-986
920.494	-484
920.592	-679
920.690	-402
920.788	-456
920.886	-646
920.984	-1061
921.082	-1125
921.180	-538
921.277	-909
921.375	-238
921.473	-493
921.571	-459
921.669	-1362
921.766	-469
921.864	690
921.962	1238
922.060	-1109
922.157	-664
922.255	-941
922.352	-635
922.450	-441
922.548	-383
922.645	-877
922.743	-160
922.840	492
922.938	881
923.035	355
923.133	1262
923.230	-79
923.327	711
923.425	848
923.522	832
923.619	-187
923.717	149
923.814	-62
923.911	-95
924.008	123
924.106	59
924.203	508
924.300	457
924.397	-1157
924.494	597
924.591	-99
924.688	811
924.786	80
924.883	-344
924.979	-211
925.077	613
925.173	-457
925.270	471
925.367	120
925.464	631
925.561	-36
925.658	910
925.755	-76
925.852	194
925.948	152
926.045	499
926.142	-278
926.239	118
926.335	-831
926.432	449
926.529	120
926.625	-70
926.722	386
926.818	-175
926.915	-37
927.011	-24
927.108	-278
927.204	-326
927.301	-173
927.397	-13
927.494	205
927.590	-15
927.687	325
927.783	189
927.879	-325
927.976	-269
928.072	-338
928.168	278
928.264	-586
928.361	-359
928.457	-294
928.553	-374
928.649	776
928.745	142
928.841	-201
928.937	80
929.033	-23
929.129	539
929.225	-57
929.321	216
929.417	299
929.513	-334
929.609	-87
929.705	-935
929.801	80
929.897	-653
929.993	196
930.089	1043
930.184	-227
930.280	-138
930.376	17
930.471	-536
930.567	-292
930.663	289
930.758	-295
930.854	297
930.950	-551
931.045	427
931.141	-449
931.236	-117
931.332	-81
931.427	-644
931.523	-242
931.618	514
931.714	-385
931.809	243
931.905	-242
932.000	-813
932.095	-785
932.191	-272
932.286	38
932.381	-495
932.476	-512
932.572	80
932.667	-1228
932.762	-195
932.857	-727
932.952	-18
933.047	-626
933.142	-277
933.237	-596
933.332	-399
933.427	32
933.522	-508
933.617	-903
933.712	-764
933.807	-433
933.902	-90
933.997	570
934.092	-507
934.187	-1144
934.282	-467
934.376	-21
934.471	-1115
934.566	-476
934.661	-181
934.755	-135
934.850	-478
934.945	-271
935.039	-327
935.134	-415
935.228	-747
935.323	98
935.417	-24
935.512	-1453
935.606	-1499
935.701	-132
935.795	-59
935.890	-771
935.984	-180
936.079	-468
936.173	-27
936.267	-354
936.362	-800
936.456	-328
936.550	-300
936.644	-467
936.738	-99
936.833	378
936.927	3485
937.021	4710
937.115	971
937.209	-1055
937.303	257
937.397	-839
937.491	-842
937.585	-474
937.679	-284
937.773	-964
937.867	-319
937.961	-638
938.055	-253
938.149	-69
938.243	-939
938.337	-854
938.430	-1121
938.524	-1133
938.618	-285
938.712	383
938.805	-554
938.899	-288
938.993	-693
939.086	-457
939.180	116
939.274	-566
939.367	-302
939.461	-982
939.554	-226
939.648	-595
939.741	-170
939.835	-212
939.928	-540
940.022	-438
940.115	-730
940.208	-584
940.302	-262
940.395	231
940.488	-1207
940.582	-94
940.675	-506
940.768	-198
940.861	-480
940.954	233
941.048	-763
941.141	-763
941.234	-779
941.327	-1111
941.420	380
941.513	-1312
941.606	-511
941.699	-775
941.792	-259
941.885	-566
941.978	-590
942.071	-280
942.164	-1441
942.257	-50
942.349	-63
942.442	-899
942.535	-512
942.628	-26
942.721	-408
942.813	-2079
942.906	403
942.999	-1007
943.091	-902
943.184	-719
943.277	-933
943.369	-52
943.462	-1276
943.554	-77
943.647	-1087
943.739	-479
943.832	-662
943.924	-1121
944.017	-326
944.109	-1209
944.201	-640
944.294	-1054
944.386	-870
944.478	-1116
944.571	-861
944.663	275
944.755	-1074
944.847	-1121
944.940	-584
945.032	-1115
945.124	-970
945.216	-816
945.308	-311
945.400	-248
945.492	-578
945.584	280
945.676	-564
945.768	-489
945.860	-948
945.952	-646
946.044	-36
946.136	-1317
946.228	-318
946.320	-1194
946.412	-896
946.503	-1030
946.595	-262
946.687	-2007
946.779	-1065
946.870	-926
946.962	-1438
947.054	-93
947.145	-96
947.237	-1060
947.329	-699
947.420	-914
947.512	-783
947.603	-1071
947.695	-467
947.786	-1341
947.878	-909
947.969	-350
948.061	-880
948.152	-945
948.243	-767
948.335	-872
948.426	-652
948.517	-932
948.609	-1085
948.700	-215
948.791	-914
948.882	-980
948.973	-1028
949.065	-1156
949.156	-871
949.247	-1502
949.338	-1249
949.429	-792
949.520	-104
949.611	-1436
949.702	-736
949.793	-756
949.884	-1141
949.975	-337
950.066	-1562
950.157	-732
950.247	-698
950.338	-1608
950.429	-1284
950.520	-833
950.611	-1146
950.701	217
950.792	-1049
950.883	-351
950.973	-778
951.064	-510
951.155	-942
951.245	150
951.336	-68
951.427	-1869
951.517	303
951.608	-205
951.698	-1295
951.788	-876
951.879	-912
951.969	-1797
952.060	-567
952.150	-853
952.240	190
952.331	-1778
952.421	143
952.511	-1073
952.602	-479
952.692	-307
952.782	-1007
952.872	-1257
952.962	-1142
953.052	-663
953.143	-1078
953.233	-666
953.323	-791
953.413	-905
953.503	-836
953.593	-1227
953.683	-737
953.773	-2045
953.863	-880
953.953	-988
954.042	462
954.132	-1779
954.222	-78
954.312	-623
954.402	-731
954.492	-155
954.581	-1130
954.671	-1232
954.761	-997
954.850	352
954.940	-1108
955.030	-858
955.119	-700
955.209	-152
955.298	-1223
955.388	-951
955.477	459
955.567	-1864
955.656	-571
955.746	-653
955.835	-698
955.925	-1769
956.014	-142
956.103	-997
956.193	-47
956.282	-1041
956.371	-345
956.461	-753
956.550	-1758
956.639	-1019
956.728	-1775
956.817	-740
956.906	-549
956.995	-375
957.085	-1099
957.174	-1298
957.263	-404
957.352	-381
957.441	-1170
957.530	-1045
957.619	-255
957.708	-1328
957.796	-941
957.885	-244
957.974	-560
958.063	-1277
958.152	-1883
958.241	-701
958.329	-969
958.418	-404
958.507	-2202
958.596	-276
958.684	-1245
958.773	-478
958.861	-1371
958.950	-490
959.039	-740
959.127	-883
959.216	-1376
959.304	-1384
959.393	-1053
959.481	-1189
959.570	-899
959.658	-1688
959.746	-963
959.835	-865
959.923	-721
960.011	-1526
960.100	-386
960.188	-711
960.276	-983
960.365	-725
960.453	-1310
960.541	-1661
960.629	-734
960.717	-474
960.805	-640
960.893	665
960.981	-2151
961.069	400
961.158	-1783
961.245	98
961.333	-479
961.421	-909
961.509	-444
961.597	-357
961.685	-229
961.773	-1080
961.861	-1020
961.949	-913
962.036	-1096
962.124	-634
962.212	-474
962.299	-1753
962.387	-1244
962.475	-856
962.562	-1792
962.650	-346
962.738	-900
962.825	-2045
962.913	-1520
963.000	-1420
963.088	-681
963.175	-1293
963.263	-810
963.350	-1226
963.438	-889
963.525	-1346
963.612	-787
963.700	-1518
963.787	896
963.874	-1258
963.962	-561
964.049	-898
964.136	-1844
964.223	-1463
964.310	1
964.398	-812
964.485	-1036
964.572	-1238
964.659	-639
964.746	-339
964.833	-801
964.920	-466
965.007	-619
965.094	-1471
965.181	-917
965.268	-1505
965.355	-1361
965.441	-710
965.528	-1430
965.615	-957
965.702	-873
965.789	-1867
965.875	-1370
965.962	-1054
966.049	-1903
966.136	-558
966.222	-1230
966.309	-918
966.395	-976
966.482	109
966.569	-948
966.655	-1319
966.742	-964
966.828	-63
966.915	-813
967.001	-1350
967.087	-1162
967.174	-1360
967.260	-909
967.347	-1533
967.433	-1132
967.519	-462
967.605	-1306
967.692	-2291
967.778	-936
967.864	-893
967.950	-1373
968.036	-2040
968.123	-1291
968.209	-1073
968.295	-1607
968.381	221
968.467	-1433
968.553	-1897
968.639	-126
968.725	-2171
968.811	-871
968.897	-1190
968.983	-972
969.069	-1585
969.154	-1166
969.240	-583
969.326	-1887
969.412	-923
969.497	-1672
969.583	-1471
969.669	-887
969.755	-663
969.840	-1163
969.926	-394
970.012	-1133
970.097	-1098
970.183	-224
970.268	-1130
970.354	-791
970.439	-1874
970.525	-470
970.610	-1608
970.696	-489
970.781	-1234
970.866	-1714
970.952	-484
971.037	-2129
971.122	-1409
971.208	-921
971.293	-1253
971.378	-2304
971.463	-1276
971.549	-763
971.634	-1061
971.719	-1783
971.804	-811
971.889	-613
971.974	-687
972.059	-1081
972.144	-1033
972.229	-1414
972.314	-1386
972.399	-179
972.484	-2273
972.569	-828
972.654	-2068
972.739	-25
972.824	-2565
972.908	-1622
972.993	-861
973.078	-1796
973.163	-1524
973.247	-896
973.332	-2633
973.417	-423
973.501	-2015
973.586	-1440
973.671	-2080
973.755	-853
973.840	-1352
973.924	-1051
974.009	-814
974.093	-1922
974.178	-193
974.262	-1871
974.346	-1837
974.431	-637
974.515	-1917
974.600	-265
974.684	-453
974.768	-1357
974.852	-1080
974.937	-2012
975.021	-568
975.105	-1022
975.189	-883
975.273	-624
975.358	-1417
975.442	-2204
975.526	-549
975.610	-2345
975.694	-1954
975.778	-870
975.862	-681
975.946	-2891
976.030	-420
976.114	-1248
976.198	-1231
976.281	-1467
976.365	-1674
976.449	-981
976.533	-1246
976.617	-2417
976.700	-1437
976.784	-926
976.868	-2615
976.951	-1321
977.035	-1645
977.119	-757
977.202	-1861
977.286	-820
977.369	-2061
977.453	-797
977.536	-604
977.620	-1636
977.703	-830
977.787	-1932
977.870	-1146
977.953	-28
978.037	-2904
978.120	-360
978.203	-1562
978.287	-1269
978.370	-1619
978.453	-1552
978.536	-1440
978.620	-1093
978.703	-1620
978.786	-1293
978.869	-2083
978.952	-2247
979.035	-560
979.118	-1076
979.201	-1636
979.284	-1039
979.367	-2370
979.450	-880
979.533	-2105
979.616	-1421
979.699	-1646
979.782	-801
979.865	-1390
979.948	-1317
980.030	-2612
980.113	-1860
980.196	-2259
980.279	-1509
980.361	-1459
980.444	-1481
980.526	-644
980.609	-1198
980.692	-1506
980.774	-1366
980.857	-2777
980.939	-394
981.022	-1373
981.104	-1176
981.187	-1574
981.269	-1543
981.352	-932
981.434	-2770
981.516	-1576
981.599	-557
981.681	-1263
981.763	-1416
981.846	-1401
981.928	-2057
982.010	-1958
982.092	-1156
982.174	-979
982.256	-1035
982.339	-1677
982.421	-1260
982.503	-1465
982.585	-2463
982.667	-1477
982.749	-931
982.831	-807
982.913	-1956
982.995	-382
983.077	-1981
983.158	-940
983.240	-2331
983.322	-1707
983.404	-882
983.486	-2231
983.568	-425
983.649	-1834
983.731	-1239
983.813	-1154
983.894	-1042
983.976	-2362
984.058	-1826
984.139	-285
984.221	-2806
984.302	-1418
984.384	-1529
984.465	-2149
984.547	-1647
984.628	-2286
984.710	-914
984.791	-1631
984.872	-1357
984.954	-1914
985.035	-688
985.116	-1884
985.198	-1749
985.279	-652
985.360	-1359
985.441	-1734
985.522	-1203
985.604	-1685
985.685	-3633
985.766	-1047
985.847	-1075
985.928	-1683
986.009	-1701
986.090	-1134
986.171	-1229
986.252	-2605
986.333	-1082
986.414	-2155
986.495	-1176
986.576	-1830
986.656	-1034
986.737	-1340
986.818	-1556
986.899	-2881
986.980	-1726
987.060	-1500
987.141	-1874
987.222	-1789
987.302	-1640
987.383	-1554
987.464	-1238
987.544	-728
987.625	-2091
987.705	-1098
987.786	-1621
987.866	-1195
987.947	-1427
988.027	-1234
988.108	-2089
988.188	-1452
988.268	-1402
988.349	-1150
988.429	-1556
988.509	-1026
988.589	-1419
988.670	-2661
988.750	-717
988.830	-1574
988.910	-1414
988.990	-1295
989.070	-1549
989.151	-1944
989.231	-2074
989.311	-1250
989.391	-1378
989.471	-1416
989.551	-2052
989.631	-2892
989.711	142
989.791	-1773
989.870	-2277
989.950	-597
990.030	-2193
990.110	-1329
990.190	-2023
990.269	-2638
990.349	-1612
990.429	-1939
990.509	-900
990.588	-2399
990.668	-1400
990.747	-1548
990.827	-1148
990.907	-1338
990.986	-1302
991.066	-2087
991.145	-1799
991.225	-1054
991.304	-1901
991.383	-1384
991.463	-1977
991.542	-1013
991.622	-2162
991.701	-1969
991.780	-2157
991.859	-1628
991.939	-1741
992.018	-1461
992.097	-1532
992.176	-1234
992.256	-2405
992.335	-2305
992.414	-932
992.493	-1874
992.572	-1260
992.651	-122
992.730	-1531
992.809	-1797
992.888	-2446
992.967	-2248
993.046	-1099
993.125	-1977
993.203	-2178
993.282	-1696
993.361	-947
993.440	-1212
993.519	-2329
993.597	-1444
993.676	-2391
993.755	-1672
993.834	-1549
993.912	-2479
993.991	-623
994.069	-2587
994.148	-2451
994.226	-2243
994.305	-1646
994.384	-1254
994.462	-1370
994.540	-2149
994.619	-1939
994.697	-1151
994.776	-1969
994.854	-1411
994.932	-1901
995.011	-2155
995.089	-1651
995.167	-1804
995.245	-1276
995.324	-2353
995.402	-1226
995.480	-2463
995.558	-1272
995.636	-2386
995.714	-2076
995.792	-1804
995.870	-1861
995.948	-1640
996.026	-1162
996.104	-2919
996.182	-962
996.260	-3255
996.338	-1654
996.416	-2659
996.494	-1719
996.572	-1440
996.649	-1935
996.727	-2860
996.805	-1483
996.883	-3061
996.960	-1628
997.038	-1032
997.116	-989
997.193	-2421
997.271	-1878
997.348	-2250
997.426	-1146
997.504	-2664
997.581	-1278
997.658	-810
997.736	-1979
997.813	-1898
997.891	-715
997.968	-1905
998.046	-1350
998.123	-1575
998.200	-1087
998.277	-2298
998.355	-1135
998.432	-2943
998.509	-1954
998.586	-1290
998.663	-1243
998.741	-1947
998.818	-1731
998.895	-2077
998.972	-983
999.049	-2271
999.126	-2266
999.203	-1948
999.280	-2353
999.357	-2338
999.434	-1184
999.511	-1942
999.587	-696
999.664	-2270
999.741	-1757
999.818	-1022
999.895	-2397
999.971	-2802
1000.048	-1909
1000.125	-978
1000.202	-2069
1000.278	-1679
1000.355	-1719
1000.431	-1749
1000.508	-2114
1000.584	-1696
1000.661	-2095
1000.738	-2220
1000.814	-1912
1000.890	-779
1000.967	-2145
1001.043	-1848
1001.120	-1981
1001.196	-1157
1001.272	-2727
1001.349	-1356
1001.425	-1350
1001.501	-1648
1001.577	-2512
1001.654	-1341
1001.730	-1424
1001.806	-975
1001.882	-2698
1001.958	-1494
1002.034	-1246
1002.110	-1744
1002.186	-2674
1002.262	-2305
1002.338	-2359
1002.414	-1518
1002.490	-927
1002.566	-2728
1002.642	-1546
1002.718	-102
1002.794	-1773
1002.870	-1968
1002.945	-1646
1003.021	-1927
1003.097	-1044
1003.173	-1551
1003.248	-2321
1003.324	-2131
1003.400	-1847
1003.475	-2271
1003.551	-2200
1003.626	-1654
1003.702	-1902
1003.777	-1552
1003.853	-2107
1003.928	-3085
1004.004	-2394
1004.079	-1526
1004.155	-2185
1004.230	-2891
1004.305	-1143
1004.381	-2421
1004.456	-2196
1004.531	-1542
1004.607	-1331
1004.682	-1892
1004.757	-1499
1004.832	-2243
1004.907	-2131
1004.982	-739
1005.057	-1843
1005.133	-1562
1005.208	-1472
1005.283	-2269
1005.358	-1408
1005.433	-3026
1005.508	-2050
1005.583	-2239
1005.657	-955
1005.732	-1393
1005.807	-2151
1005.882	-2147
1005.957	-1700
1006.032	-1738
1006.106	-2138
1006.181	-2167
1006.256	-1691
1006.331	-2418
1006.405	-2478
1006.480	-2548
1006.554	-1716
1006.629	-2250
1006.704	-2765
1006.778	-2221
1006.853	-1578
1006.927	-2626
1007.002	-2247
1007.076	-1608
1007.150	-1830
1007.225	-1261
1007.299	-2154
1007.373	-2613
1007.448	-1273
1007.522	-1254
1007.596	-1990
1007.671	-2149
1007.745	-1700
1007.819	-2385
1007.893	-2168
1007.967	-1838
1008.041	-2314
1008.115	-1873
1008.190	-2533
1008.264	-1540
1008.338	-2196
1008.412	-2249
1008.486	-1275
1008.560	-1963
1008.633	-3091
1008.707	-1738
1008.781	-811
1008.855	-2196
1008.929	-2769
1009.003	-2713
1009.076	-1107
1009.150	-2008
1009.224	-1858
1009.298	-2176
1009.371	-3219
1009.445	-1851
1009.519	-2018
1009.592	-2654
1009.666	-1768
1009.739	-1819
1009.813	-2340
1009.886	-1578
1009.960	-2536
1010.033	-1738
1010.107	-1498
1010.180	-2821
1010.253	-2273
1010.327	-2147
1010.400	-1885
1010.473	-2427
1010.547	-968
1010.620	-2380
1010.693	-1860
1010.766	-1811
1010.840	-848
1010.913	-1657
1010.986	-2760
1011.059	-2221
1011.132	-1897
1011.205	-913
1011.278	-2554
1011.351	-2309
1011.424	-1495
1011.497	-2170
1011.570	-2248
1011.643	-2204
1011.716	-2103
1011.789	-2001
1011.862	-1112
1011.934	-1467
1012.007	-2433
1012.080	-2658
1012.153	-1668
1012.225	-497
1012.298	-3138
1012.371	-2215
1012.443	-1725
1012.516	-2757
1012.588	-1368
1012.661	-2029
1012.733	-3403
1012.806	-2143
1012.879	-2576
1012.951	-1950
1013.023	-2289
1013.096	-2170
1013.168	-2348
1013.241	-1481
1013.313	-1532
1013.385	-2683
1013.458	-1539
1013.530	-1858
1013.602	-2543
1013.674	-1918
1013.746	-2344
1013.819	-2868
1013.891	-1901
1013.963	-2801
1014.035	-2165
1014.107	-1617
1014.179	-726
1014.251	-2906
1014.323	-1691
1014.395	-2205
1014.467	-2278
1014.539	-2289
1014.611	-2929
1014.683	-2392
1014.754	-2443
1014.826	-3300
1014.898	-1937
1014.970	-2589
1015.042	-1297
1015.113	-2124
1015.185	-2509
1015.257	-3073
1015.328	-2337
1015.400	-2985
1015.471	-1982
1015.543	-3461
1015.615	-2116
1015.686	-2478
1015.757	-2178
1015.829	-2245
1015.901	-2713
1015.972	-1951
1016.043	-1931
1016.115	-2248
1016.186	-2191
1016.257	-3056
1016.328	-2235
1016.400	-1959
1016.471	-3038
1016.542	-1888
1016.613	-1966
1016.685	-2547
1016.756	-2439
1016.827	-2486
1016.898	-2694
1016.969	-2118
1017.040	-2710
1017.111	-3036
1017.182	-1872
1017.253	-2150
1017.324	-2034
1017.395	-1443
1017.466	-2240
1017.537	-2075
1017.608	-2755
1017.678	-2819
1017.749	-2221
1017.820	-2411
1017.891	-2672
1017.961	-3356
1018.032	-2475
1018.103	-2305
1018.173	-2430
1018.244	-1885
1018.315	-2082
1018.385	-2102
1018.456	-2460
1018.526	-2849
1018.597	-2873
1018.667	-2254
1018.738	-2187
1018.808	-3168
1018.878	-2231
1018.949	-1679
1019.019	-2059
1019.089	-2023
1019.160	-2517
1019.230	-2417
1019.300	-1889
1019.371	-2602
1019.441	-1866
1019.511	-2265
1019.581	-2019
1019.651	-2043
1019.721	-2455
1019.791	-3008
1019.861	-2632
1019.931	-2178
1020.001	-2526
1020.071	-2755
1020.141	-2476
1020.211	-2634
1020.281	-2791
1020.351	-2727
1020.421	-1678
1020.491	-1306
1020.560	-3378
1020.630	-2644
1020.700	-2129
1020.770	-2136
1020.839	-3163
1020.909	-2985
1020.979	-2482
1021.048	-2684
1021.118	-2414
1021.187	-3261
1021.257	-1745
1021.326	-1847
1021.396	-3500
1021.465	-1729
1021.535	-1987
1021.604	-3319
1021.674	-2255
1021.743	-2608
1021.812	-1811
1021.882	-2513
1021.951	-2439
1022.020	-2445
1022.089	-2072
1022.159	-2704
1022.228	-2590
1022.297	-2270
1022.366	-2176
1022.435	-2836
1022.504	-2807
1022.573	-3523
1022.642	-2006
1022.711	-2597
1022.781	-2630
1022.849	-2457
1022.918	-3106
1022.987	-2390
1023.056	-2767
1023.125	-2195
1023.194	-2147
1023.263	-2297
1023.331	-1583
1023.400	-3116
1023.469	-2586
1023.538	-2830
1023.606	-2254
1023.675	-1991
1023.744	-2920
1023.812	-2558
1023.881	-1403
1023.949	-3430
1024.018	-2464
1024.086	-2723
1024.155	-2541
1024.223	-2660
1024.292	-2558
1024.360	-2431
1024.429	-2604
1024.497	-3380
1024.565	-2251
1024.634	-1965
1024.702	-2336
1024.770	-1948
1024.838	-2393
1024.907	-2763
1024.975	-3980
1025.043	-2475
1025.111	-3243
1025.179	-1919
1025.247	-2441
1025.315	-2980
1025.383	-2209
1025.451	-3028
1025.519	-2563
1025.587	-2592
1025.655	-2608
1025.723	-2050
1025.791	-2816
1025.859	-2586
1025.927	-2161
1025.995	-3250
1026.062	-1855
1026.130	-3037
1026.198	-2699
1026.266	-2685
1026.333	-2077
1026.401	-2403
1026.469	-2283
1026.536	-3100
1026.604	-2991
1026.671	-3023
1026.739	-2231
1026.806	-1973
1026.874	-1875
1026.941	-2493
1027.009	-2572
1027.076	-3813
1027.144	-1777
1027.211	-3165
1027.278	-2965
1027.345	-1834
1027.413	-2962
1027.480	-2656
1027.547	-2734
1027.614	-2502
1027.682	-2774
1027.749	-2642
1027.816	-2457
1027.883	-3034
1027.950	-2337
1028.017	-2517
1028.084	-2107
1028.151	-3444
1028.218	-2250
1028.285	-3318
1028.352	-1829
1028.419	-2476
1028.486	-2136
1028.553	-1978
1028.619	-1483
1028.686	-2897
1028.753	-2593
1028.820	-2773
1028.886	-2960
1028.953	-2119
1029.020	-2753
1029.086	-2954
1029.153	-2267
1029.220	-2210
1029.286	-2786
1029.353	-2316
1029.419	-2618
1029.486	-2052
1029.552	-3356
1029.619	-3285
1029.685	-3238
1029.751	-2779
1029.818	-2630
1029.884	-2634
1029.951	-1731
1030.017	-3821
1030.083	-3244
1030.149	-2449
1030.216	-3592
1030.282	-2474
1030.348	-2752
1030.414	-2752
1030.480	-2527
1030.546	-2866
1030.612	-1901
1030.678	-3083
1030.744	-1749
1030.810	-3087
1030.876	-1471
1030.942	-2942
1031.008	-1725
1031.074	-2557
1031.140	-1941
1031.206	-2515
1031.272	-2762
1031.337	-2984
1031.403	-2019
1031.469	-2921
1031.534	-2199
1031.600	-2996
1031.666	-2058
1031.731	-2900
1031.797	-2876
1031.863	-3046
1031.928	-3260
1031.994	-2750
1032.059	-2408
1032.125	-2706
1032.190	-2680
1032.256	-3392
1032.321	-2635
1032.386	-2139
1032.452	-2041
1032.517	-2120
1032.582	-2736
1032.647	-2310
1032.713	-3024
1032.778	-2289
1032.843	-1985
1032.908	-3359
1032.974	-1998
1033.039	-2725
1033.104	-2482
1033.169	-3377
1033.234	-2133
1033.299	-2432
1033.364	-2253
1033.429	-2776
1033.494	-1411
1033.559	-2942
1033.624	-2917
1033.688	-2558
1033.753	-3490
1033.818	-2911
1033.883	-2198
1033.948	-2263
1034.013	-2188
1034.077	-2363
1034.142	-1161
1034.207	-2611
1034.271	-2436
1034.336	-1321
1034.400	-1710
1034.465	-3164
1034.530	-2582
1034.594	-2451
1034.658	-2607
1034.723	-2482
1034.787	-2739
1034.852	-2841
1034.916	-2320
1034.981	-2229
1035.045	-2160
1035.109	-3029
1035.173	-2025
1035.238	-3154
1035.302	-2501
1035.366	-3099
1035.430	-2170
1035.495	-2867
1035.559	-2585
1035.623	-3661
1035.687	-2428
1035.751	-2192
1035.815	-2872
1035.879	-2428
1035.943	-2422
1036.007	-2755
1036.071	-2552
1036.135	-2410
1036.198	-2537
1036.262	-2776
1036.326	-2233
1036.390	-3116
1036.454	-2258
1036.517	-2463
1036.581	-2741
1036.645	-3052
1036.709	-2437
1036.772	-2618
1036.836	-2819
1036.900	-2860
1036.963	-2247
1037.026	-2121
1037.090	-2094
1037.154	-2587
1037.217	-2356
1037.280	-2434
1037.344	-2397
1037.407	-2601
1037.471	-2341
1037.534	-3016
1037.597	-2203
1037.661	-1862
1037.724	-2740
1037.787	-2575
1037.850	-2263
1037.913	-2404
1037.977	-1830
1038.040	-2242
1038.103	-1949
1038.166	-2535
1038.229	-1862
1038.292	-2413
1038.355	-2544
1038.418	-2452
1038.481	-2025
1038.544	-2428
1038.607	-1952
1038.670	-3878
1038.732	-2231
1038.795	-2437
1038.858	-2060
1038.921	-2779
1038.984	-2961
1039.046	-2657
1039.109	-3045
1039.172	-2682
1039.234	-2672
1039.297	-3040
1039.360	-2500
1039.422	-2919
1039.485	-2604
1039.547	-2633
1039.610	-2595
1039.672	-2952
1039.734	-2478
1039.797	-2706
1039.859	-2713
1039.922	-2908
1039.984	-2697
1040.046	-2821
1040.109	-2524
1040.171	-2489
1040.233	-2223
1040.295	-2850
1040.358	-2681
1040.420	-2921
1040.482	-2333
1040.544	-3211
1040.606	-3082
1040.668	-2559
1040.730	-2575
1040.792	-2327
1040.854	-2539
1040.916	-2311
1040.978	-2823
1041.040	-1644
1041.102	-2128
1041.164	-2947
1041.225	-2416
1041.287	-3372
1041.349	-2140
1041.411	-3418
1041.472	-2941
1041.534	-2318
1041.596	-2455
1041.657	-2896
1041.719	-2857
1041.781	-2264
1041.842	-2918
1041.904	-2716
1041.965	-2228
1042.027	-2162
1042.088	-2579
1042.150	-2875
1042.211	-1861
1042.272	-2196
1042.334	-2517
1042.395	-2707
1042.456	-2424
1042.518	-2916
1042.579	-1553
1042.640	-2466
1042.701	-2268
1042.763	-2784
1042.824	-2672
1042.885	-3182
1042.946	-2132
1043.007	-2651
1043.068	-2334
1043.129	-2379
1043.190	-2727
1043.251	-2349
1043.312	-2941
1043.373	-2120
1043.434	-2000
1043.495	-2827
1043.556	-1960
1043.616	-2337
1043.677	-2407
1043.738	-2014
1043.799	-3647
1043.859	-1225
1043.920	-2889
1043.981	-2268
1044.041	-2075
1044.102	-2353
1044.162	-1757
1044.223	-3468
1044.284	-3083
1044.344	-2411
1044.405	-2567
1044.465	-2531
1044.525	-2881
1044.586	-1617
1044.646	-2149
1044.707	-2057
1044.767	-2014
1044.827	-2614
1044.887	-2517
1044.948	-2025
1045.008	-1735
1045.068	-3262
1045.128	-2873
1045.188	-2490
1045.249	-1882
1045.309	-1949
1045.369	-2081
1045.429	-2636
1045.489	-2600
1045.549	-2285
1045.609	-1705
1045.669	-2864
1045.729	-2384
1045.789	-3008
1045.848	-2059
1045.908	-2830
1045.968	-1287
1046.028	-2420
1046.088	-2490
1046.147	-1761
1046.207	-1681
1046.267	-2309
1046.326	-1888
1046.386	-2379
1046.446	-2265
1046.505	-1021
1046.565	-1141
1046.624	-1516
1046.684	-1610
1046.743	-1434
1046.803	-754
1046.862	-300
1046.922	0
