'Start Wavelength	183.907
'End Wavelength	1046.922
'Gate Delay	5.000
'Gate Width (ms)	1.050
'Laser Output Level	0.000
'X Position	0.000
'Y Position	0.000
'Z Position	0.000
'Grid Point Number	1.000
'Shot Number	100.000
183.907	636.000
183.977	45.000
184.047	684
184.116	162
184.186	652
184.256	-230
184.325	-147
184.395	-1160
184.465	350
184.534	289
184.604	-347
184.674	463
184.743	275
184.813	546
184.883	-259
184.952	232
185.022	233
185.092	756
185.161	-367
185.231	285
185.301	461
185.370	1246
185.440	-373
185.509	-200
185.579	1204
185.649	-103
185.718	785
185.788	591
185.857	43
185.927	-135
185.996	944
186.066	75
186.136	859
186.205	-172
186.275	560
186.344	-104
186.414	-140
186.483	-60
186.553	971
186.622	314
186.692	-43
186.761	-111
186.831	443
186.900	244
186.970	606
187.039	450
187.109	1208
187.178	613
187.248	435
187.317	270
187.387	-146
187.456	-313
187.526	789
187.595	995
187.664	-32
187.734	-911
187.803	783
187.873	768
187.942	382
188.012	81
188.081	461
188.150	917
188.220	-383
188.289	-259
188.358	591
188.428	158
188.497	-365
188.567	500
188.636	-520
188.705	258
188.775	439
188.844	-731
188.913	1407
188.983	-33
189.052	137
189.121	70
189.191	-43
189.260	-47
189.329	332
189.399	-427
189.468	433
189.537	-417
189.606	301
189.676	-82
189.745	338
189.814	703
189.883	10
189.953	-500
190.022	184
190.091	-174
190.161	520
190.230	204
190.299	-405
190.368	152
190.437	-59
190.507	515
190.576	348
190.645	394
190.714	4
190.783	-17
190.853	500
190.922	175
190.991	-110
191.060	190
191.129	186
191.198	472
191.268	-53
191.337	-331
191.406	1054
191.475	-49
191.544	373
191.613	387
191.682	-656
191.752	249
191.821	-229
191.890	321
191.959	183
192.028	-1
192.097	536
192.166	-120
192.235	-163
192.304	674
192.373	42
192.442	230
192.511	173
192.580	191
192.650	143
192.719	-491
192.788	729
192.857	454
192.926	328
192.995	-107
193.064	218
193.133	158
193.202	675
193.271	87
193.340	246
193.409	388
193.478	14
193.547	119
193.615	-599
193.684	-70
193.753	-392
193.822	503
193.891	414
193.960	196
194.029	143
194.098	12
194.167	-251
194.236	615
194.305	304
194.374	-680
194.443	845
194.512	41
194.580	-198
194.649	7
194.718	392
194.787	538
194.856	-310
194.925	466
194.994	425
195.062	-392
195.131	599
195.200	-5
195.269	-311
195.338	739
195.407	1122
195.475	-323
195.544	432
195.613	-589
195.682	575
195.751	-241
195.819	-572
195.888	110
195.957	1228
196.026	-134
196.094	826
196.163	-261
196.232	269
196.301	203
196.369	193
196.438	181
196.507	57
196.576	-271
196.644	61
196.713	-547
196.782	175
196.850	25
196.919	769
196.988	-27
197.056	89
197.125	62
197.194	218
197.262	76
197.331	407
197.400	312
197.468	25
197.537	89
197.606	448
197.674	634
197.743	331
197.812	-596
197.880	-170
197.949	-293
198.017	718
198.086	-3
198.155	-394
198.223	513
198.292	550
198.360	-723
198.429	-250
198.497	697
198.566	378
198.635	-98
198.703	935
198.772	638
198.840	-7
198.909	-897
198.977	49
199.046	-543
199.114	-2
199.183	-170
199.251	694
199.320	-463
199.388	320
199.457	-131
199.525	-826
199.594	-48
199.662	-343
199.731	144
199.799	-261
199.867	916
199.936	-309
200.004	372
200.073	443
200.141	-517
200.210	32
200.278	129
200.346	835
200.415	-515
200.483	353
200.552	29
200.620	423
200.688	-410
200.757	-59
200.825	358
200.893	42
200.962	-26
201.030	469
201.098	-337
201.167	842
201.235	117
201.303	-237
201.372	518
201.440	221
201.508	-124
201.577	21
201.645	-77
201.713	512
201.781	-235
201.850	1044
201.918	388
201.986	410
202.055	605
202.123	248
202.191	222
202.259	58
202.327	-360
202.396	-574
202.464	-550
202.532	-117
202.600	-34
202.669	478
202.737	-59
202.805	-22
202.873	-511
202.941	854
203.009	652
203.078	175
203.146	501
203.214	-124
203.282	-193
203.350	-173
203.418	-415
203.487	299
203.555	488
203.623	-146
203.691	-411
203.759	437
203.827	-81
203.895	-190
203.963	-285
204.031	-463
204.099	-585
204.168	364
204.236	899
204.304	-152
204.372	-50
204.440	437
204.508	117
204.576	-852
204.644	260
204.712	252
204.780	229
204.848	260
204.916	-582
204.984	-266
205.052	-170
205.120	205
205.188	-137
205.256	-245
205.324	-126
205.392	301
205.460	365
205.528	-212
205.596	-408
205.664	-87
205.732	-319
205.799	693
205.867	423
205.935	-264
206.003	564
206.071	-298
206.139	-240
206.207	989
206.275	474
206.343	556
206.411	-231
206.478	193
206.546	-35
206.614	661
206.682	-766
206.750	-233
206.818	484
206.885	-24
206.953	-1011
207.021	422
207.089	178
207.157	4
207.225	-58
207.292	-353
207.360	7
207.428	-609
207.496	-422
207.563	-449
207.631	-237
207.699	-837
207.767	45
207.834	-120
207.902	-229
207.970	-165
208.038	-590
208.105	68
208.173	-144
208.241	182
208.309	590
208.376	630
208.444	-519
208.512	-358
208.579	-933
208.647	513
208.715	-183
208.782	-301
208.850	18
208.918	-155
208.985	-342
209.053	110
209.120	83
209.188	45
209.256	-305
209.323	-683
209.391	-853
209.459	414
209.526	-53
209.594	-255
209.661	-166
209.729	-248
209.796	-923
209.864	-584
209.932	-1460
209.999	1424
210.067	-216
210.134	-366
210.202	-782
210.269	160
210.337	1214
210.404	-378
210.472	-994
210.539	514
210.607	-665
210.674	-135
210.742	-208
210.809	-1148
210.877	-423
210.944	-235
211.012	-487
211.079	1662
211.146	19
211.214	-393
211.281	417
211.349	376
211.416	-29
211.484	427
211.551	109
211.618	248
211.686	-377
211.753	-452
211.821	-53
211.888	136
211.955	-95
212.023	282
212.090	-1330
212.157	-51
212.225	-503
212.292	-159
212.359	-139
212.427	607
212.494	372
212.561	91
212.629	-789
212.696	-898
212.763	-388
212.831	-1001
212.898	727
212.965	-732
213.032	-240
213.100	-283
213.167	-523
213.234	517
213.301	-250
213.369	255
213.436	202
213.503	-613
213.570	-39
213.638	-16
213.705	-72
213.772	-1027
213.839	13
213.906	-222
213.973	22
214.041	-314
214.108	-207
214.175	38
214.242	552
214.309	-54
214.376	-1018
214.444	-588
214.511	-514
214.578	-234
214.645	350
214.712	-235
214.779	-1246
214.846	-216
214.913	120
214.980	571
215.048	-589
215.115	438
215.182	-60
215.249	22
215.316	-1528
215.383	1006
215.450	-806
215.517	-453
215.584	-166
215.651	118
215.718	-681
215.785	277
215.852	-861
215.919	68
215.986	531
216.053	-662
216.120	-783
216.187	-393
216.254	77
216.321	-392
216.388	194
216.455	-75
216.522	98
216.589	-240
216.656	-468
216.722	-371
216.789	47
216.856	224
216.923	-311
216.990	-35
217.057	-135
217.124	-160
217.191	-745
217.258	347
217.324	-782
217.391	-179
217.458	-375
217.525	-157
217.592	-60
217.659	-1228
217.725	730
217.792	147
217.859	28
217.926	-310
217.993	-93
218.059	966
218.126	-96
218.193	-517
218.260	-622
218.327	-718
218.393	-679
218.460	-218
218.527	-1074
218.594	-33
218.660	-591
218.727	452
218.794	-821
218.860	656
218.927	-1005
218.994	-1005
219.061	-568
219.127	83
219.194	-908
219.261	-199
219.327	-903
219.394	-76
219.461	-651
219.527	56
219.594	195
219.661	-354
219.727	-1757
219.794	586
219.860	-843
219.927	272
219.994	211
220.060	50
220.127	162
220.193	870
220.260	-291
220.326	-899
220.393	-488
220.460	-332
220.526	-441
220.593	-376
220.659	1304
220.726	63
220.792	159
220.859	-392
220.925	-335
220.992	-109
221.058	732
221.125	-85
221.191	-40
221.258	-899
221.324	-106
221.391	-699
221.457	-926
221.524	13
221.590	-485
221.657	351
221.723	-998
221.789	-143
221.856	57
221.922	-941
221.989	435
222.055	-210
222.121	-1351
222.188	2354
222.254	-392
222.321	-1014
222.387	-799
222.453	566
222.520	-203
222.586	-330
222.652	300
222.719	-819
222.785	-228
222.851	-353
222.918	-1046
222.984	-385
223.050	-601
223.116	-1571
223.183	804
223.249	-694
223.315	-859
223.382	279
223.448	-175
223.514	-785
223.580	-1115
223.647	-1111
223.713	-1135
223.779	-527
223.845	-526
223.911	-202
223.978	-738
224.044	295
224.110	-609
224.176	244
224.242	-205
224.309	-1095
224.375	-436
224.441	-513
224.507	-475
224.573	-975
224.639	-62
224.705	-633
224.772	-733
224.838	-333
224.904	-568
224.970	-524
225.036	-379
225.102	-876
225.168	401
225.234	590
225.300	188
225.366	139
225.432	-350
225.499	-161
225.565	-200
225.631	-734
225.697	-739
225.763	52
225.829	-275
225.895	-158
225.961	91
226.027	-531
226.093	-756
226.159	884
226.225	63
226.291	369
226.357	-716
226.423	-935
226.489	-151
226.554	68
226.620	-542
226.686	-503
226.752	87
226.818	-276
226.884	-117
226.950	347
227.016	-310
227.082	-488
227.148	-695
227.214	-192
227.279	-614
227.345	-457
227.411	204
227.477	144
227.543	665
227.609	1245
227.674	1169
227.740	451
227.806	531
227.872	-178
227.938	-593
228.003	-494
228.069	-496
228.135	-726
228.201	-452
228.267	-174
228.332	-383
228.398	-1554
228.464	491
228.530	-835
228.595	-47
228.661	-1010
228.727	-881
228.792	408
228.858	-609
228.924	-1912
228.990	603
229.055	-1785
229.121	60
229.187	-544
229.252	-563
229.318	-357
229.384	-777
229.449	-1031
229.515	-2055
229.581	-1007
229.646	727
229.712	-436
229.777	-1164
229.843	-890
229.909	-250
229.974	-54
230.040	-522
230.105	-483
230.171	-1101
230.236	-205
230.302	-134
230.368	-815
230.433	-1388
230.499	-504
230.564	121
230.630	-1047
230.695	-855
230.761	407
230.826	-2398
230.892	-294
230.957	-1881
231.023	-602
231.088	-323
231.154	-327
231.219	-450
231.284	-687
231.350	-263
231.415	-846
231.481	-295
231.546	-607
231.612	6
231.677	-987
231.742	-1834
231.808	370
231.873	-708
231.939	-1920
232.004	247
232.069	609
232.135	-1038
232.200	-1236
232.265	166
232.331	-271
232.396	-627
232.461	-408
232.527	-826
232.592	-1560
232.657	-897
232.723	-438
232.788	-939
232.853	114
232.918	-947
232.984	-1620
233.049	-861
233.114	-1096
233.179	-520
233.245	-150
233.310	-956
233.375	-1508
233.440	-244
233.506	-503
233.571	-1503
233.636	-807
233.701	-1292
233.766	37
233.832	390
233.897	-682
233.962	-1840
234.027	521
234.092	-560
234.157	-248
234.222	-824
234.288	-487
234.353	-1246
234.418	163
234.483	-872
234.548	-9
234.613	-629
234.678	217
234.743	-1835
234.808	420
234.873	-1779
234.938	579
235.004	-36
235.069	-837
235.134	-1740
235.199	248
235.264	-530
235.329	-1384
235.394	-168
235.459	-135
235.524	-979
235.589	-2
235.654	-556
235.719	-1951
235.784	-365
235.849	-589
235.913	-900
235.978	-729
236.043	-1207
236.108	-501
236.173	-1335
236.238	575
236.303	-935
236.368	-1558
236.433	-41
236.498	-1490
236.563	-562
236.627	-946
236.692	642
236.757	-162
236.822	-77
236.887	-1643
236.952	158
237.017	-2286
237.081	-266
237.146	-990
237.211	-90
237.276	-213
237.341	1020
237.405	-724
237.470	-359
237.535	-797
237.600	-107
237.664	-28
237.729	-1801
237.794	-1339
237.859	59
237.923	-741
237.988	-307
238.053	-155
238.118	-933
238.182	-118
238.247	572
238.312	-1445
238.376	-229
238.441	-1603
238.506	390
238.570	-932
238.635	393
238.700	119
238.764	-1063
238.829	-192
238.893	-1689
238.958	381
239.023	-760
239.087	-661
239.152	-1013
239.216	-762
239.281	206
239.346	-102
239.410	-941
239.475	-462
239.539	-157
239.604	-1103
239.668	-212
239.733	84
239.797	1230
239.862	3451
239.926	1908
239.991	1509
240.055	619
240.120	-573
240.184	-228
240.249	-1461
240.313	-51
240.378	-492
240.442	-497
240.507	224
240.571	-433
240.635	-1690
240.700	-504
240.764	-569
240.829	-14
240.893	-1340
240.957	534
241.022	-90
241.086	365
241.151	-1565
241.215	-1292
241.279	143
241.344	-1403
241.408	171
241.472	-1213
241.537	747
241.601	-244
241.665	-1882
241.730	-1009
241.794	148
241.858	-1269
241.922	-809
241.987	-398
242.051	-537
242.115	-1791
242.179	136
242.244	-1185
242.308	-356
242.372	-446
242.436	-822
242.501	-360
242.565	-2003
242.629	-645
242.693	74
242.757	-1779
242.822	-1199
242.886	173
242.950	606
243.014	-1116
243.078	-599
243.142	-1093
243.206	-828
243.271	212
243.335	-1192
243.399	-389
243.463	-466
243.527	647
243.591	-420
243.655	-407
243.719	-1319
243.783	137
243.847	-887
243.911	-421
243.975	-2049
244.040	-1980
244.104	1126
244.168	-877
244.232	-1408
244.296	-920
244.360	-359
244.424	-1268
244.488	-486
244.552	-1042
244.615	-2102
244.679	-200
244.743	-459
244.807	-1324
244.871	-788
244.935	-224
244.999	-1617
245.063	-678
245.127	274
245.191	-310
245.255	-784
245.319	-419
245.383	-1470
245.446	684
245.510	-1219
245.574	-717
245.638	-708
245.702	-2399
245.766	-510
245.829	149
245.893	-1514
245.957	-1214
246.021	206
246.085	-681
246.149	-671
246.212	-589
246.276	-1356
246.340	-1162
246.404	-481
246.467	67
246.531	-2056
246.595	302
246.659	592
246.722	-1742
246.786	458
246.850	-547
246.913	-192
246.977	-1444
247.041	-640
247.104	-677
247.168	-345
247.232	-198
247.295	-543
247.359	375
247.423	-1247
247.486	-492
247.550	473
247.614	-1386
247.677	-707
247.741	-388
247.804	-868
247.868	862
247.932	-1436
247.995	210
248.059	-991
248.122	-507
248.186	-16
248.249	-836
248.313	976
248.376	1625
248.440	-743
248.503	-1750
248.567	1213
248.630	-1405
248.694	-502
248.757	177
248.821	943
248.884	-44
248.948	-1074
249.011	618
249.075	731
249.138	686
249.202	292
249.265	-784
249.328	-226
249.392	-2165
249.455	35
249.519	-920
249.582	-140
249.645	-810
249.709	-569
249.772	-794
249.835	-347
249.899	-673
249.962	108
250.025	-553
250.089	-664
250.152	427
250.215	-602
250.279	-1589
250.342	-273
250.405	-258
250.468	-1471
250.532	-399
250.595	336
250.658	-852
250.721	1724
250.785	-546
250.848	205
250.911	-1369
250.974	-691
251.038	-972
251.101	101
251.164	-655
251.227	-79
251.290	-1597
251.354	-108
251.417	651
251.480	1087
251.543	576
251.606	2749
251.669	832
251.732	468
251.795	-331
251.859	-60
251.922	287
251.985	270
252.048	262
252.111	-131
252.174	-1727
252.237	37
252.300	106
252.363	297
252.426	2830
252.489	-368
252.552	-65
252.615	-1067
252.678	761
252.741	271
252.804	-563
252.867	2284
252.930	963
252.993	-432
253.056	668
253.119	-260
253.182	-1193
253.245	-372
253.308	-460
253.371	-885
253.434	-1075
253.497	-706
253.559	180
253.622	-969
253.685	-492
253.748	-414
253.811	-644
253.874	168
253.937	-1313
254.000	-947
254.062	-442
254.125	-296
254.188	1317
254.251	-659
254.314	-1063
254.376	419
254.439	-361
254.502	-295
254.565	-1296
254.628	1152
254.690	-861
254.753	-1102
254.816	-284
254.878	-462
254.941	146
255.004	-178
255.067	-279
255.129	-934
255.192	-96
255.255	-1102
255.317	94
255.380	-741
255.443	-1129
255.505	-505
255.568	-1127
255.631	-735
255.693	-590
255.756	-620
255.819	969
255.881	-768
255.944	-756
256.006	-1593
256.069	-959
256.132	-762
256.194	-1137
256.257	-383
256.319	-837
256.382	-686
256.444	-44
256.507	-248
256.569	-1147
256.632	-519
256.694	-1283
256.757	341
256.819	1338
256.882	-871
256.944	-613
257.007	-292
257.069	-1448
257.132	-269
257.194	297
257.257	-1120
257.319	-1415
257.381	-1480
257.444	674
257.506	630
257.569	793
257.631	414
257.693	-408
257.756	-619
257.818	-2242
257.880	-617
257.943	364
258.005	-1079
258.067	-368
258.130	-194
258.192	-430
258.254	-420
258.317	-1463
258.379	-682
258.441	-524
258.503	-338
258.566	-536
258.628	90
258.690	-1219
258.753	239
258.815	-123
258.877	-869
258.939	-650
259.001	722
259.064	-871
259.126	-1230
259.188	-837
259.250	-203
259.312	-568
259.375	-1109
259.437	-1058
259.499	-54
259.561	-1134
259.623	4
259.685	-656
259.747	-472
259.809	51
259.872	-401
259.934	-527
259.996	-190
260.058	4
260.120	-1317
260.182	-644
260.244	-36
260.306	-508
260.368	25
260.430	-1095
260.492	-68
260.554	64
260.616	-658
260.678	-287
260.740	-272
260.802	-1670
260.864	-478
260.926	-1414
260.988	222
261.050	-963
261.112	-1168
261.174	822
261.236	-769
261.298	-670
261.359	-1249
261.421	400
261.483	-1366
261.545	-1
261.607	-898
261.669	-186
261.731	-623
261.793	-32
261.854	-1676
261.916	-140
261.978	-663
262.040	-28
262.102	224
262.164	-1057
262.225	39
262.287	-201
262.349	-1606
262.411	-976
262.472	514
262.534	-1185
262.596	-448
262.658	-191
262.719	-1587
262.781	226
262.843	-1368
262.904	-479
262.966	58
263.028	415
263.090	362
263.151	25
263.213	172
263.275	-752
263.336	-73
263.398	121
263.459	-1406
263.521	-477
263.583	259
263.644	-96
263.706	-921
263.767	-740
263.829	-253
263.891	-194
263.952	-764
264.014	-330
264.075	-936
264.137	-147
264.198	389
264.260	-1191
264.321	-414
264.383	-1022
264.444	3
264.506	-906
264.567	-567
264.629	261
264.690	-1930
264.752	-1186
264.813	14
264.875	-1503
264.936	-376
264.998	-761
265.059	-48
265.120	-664
265.182	-881
265.243	-368
265.305	-1066
265.366	-510
265.427	-522
265.489	212
265.550	-913
265.611	-882
265.673	-1147
265.734	-222
265.795	-86
265.857	-1075
265.918	-1315
265.979	-89
266.040	-248
266.102	-72
266.163	129
266.224	-668
266.286	-412
266.347	-1328
266.408	-227
266.469	147
266.530	-656
266.592	-537
266.653	-372
266.714	-916
266.775	-320
266.836	-415
266.898	-677
266.959	-657
267.020	-447
267.081	12
267.142	-886
267.203	-437
267.264	-935
267.326	708
267.387	-927
267.448	-1280
267.509	-72
267.570	-243
267.631	-296
267.692	-942
267.753	175
267.814	-1776
267.875	76
267.936	-381
267.997	-953
268.058	-993
268.119	-1935
268.180	-1200
268.241	-863
268.302	-256
268.363	-1254
268.424	-662
268.485	-431
268.546	-1325
268.607	-1309
268.668	-977
268.729	-1034
268.790	-928
268.851	-370
268.912	-975
268.972	-814
269.033	-861
269.094	-876
269.155	-319
269.216	-1388
269.277	-747
269.338	-925
269.398	-762
269.459	-666
269.520	-428
269.581	-106
269.642	-708
269.702	-1118
269.763	-422
269.824	-681
269.885	-924
269.945	127
270.006	-517
270.067	-481
270.128	-1366
270.188	-1303
270.249	-1336
270.310	-1036
270.370	-288
270.431	-961
270.492	-1394
270.553	-335
270.613	-664
270.674	-238
270.734	-1453
270.795	-381
270.856	-1136
270.916	-976
270.977	-1255
271.038	-604
271.098	-833
271.159	-1279
271.219	-533
271.280	-525
271.340	-403
271.401	-1251
271.462	-546
271.522	-458
271.583	-1018
271.643	-538
271.704	-1550
271.764	-695
271.825	-167
271.885	623
271.946	498
272.006	-558
272.066	855
272.127	491
272.187	1101
272.248	39
272.308	-787
272.369	426
272.429	6
272.489	-72
272.550	-304
272.610	254
272.671	-1221
272.731	-80
272.791	-914
272.852	-1459
272.912	-60
272.972	-1038
273.033	7
273.093	-705
273.153	-548
273.214	-325
273.274	-116
273.334	127
273.394	141
273.455	485
273.515	368
273.575	204
273.635	69
273.696	991
273.756	1614
273.816	357
273.876	-265
273.936	154
273.997	80
274.057	-176
274.117	-467
274.177	370
274.237	581
274.297	360
274.358	-11
274.418	-229
274.478	-43
274.538	148
274.598	-1002
274.658	123
274.718	277
274.778	-207
274.838	-1138
274.898	-489
274.958	1025
275.018	375
275.078	715
275.138	254
275.198	9
275.258	-820
275.318	-998
275.378	-809
275.438	-478
275.498	-790
275.558	-478
275.618	581
275.678	-810
275.738	-294
275.798	114
275.858	-463
275.918	-1384
275.978	-1012
276.038	-772
276.098	-785
276.157	206
276.217	368
276.277	115
276.337	-313
276.397	-283
276.457	-459
276.517	277
276.576	-297
276.636	-297
276.696	-834
276.756	-479
276.815	-872
276.875	-308
276.935	-915
276.995	-989
277.055	-106
277.114	-544
277.174	-509
277.234	-47
277.293	-510
277.353	302
277.413	-287
277.472	417
277.532	-632
277.592	203
277.651	2643
277.711	5344
277.771	1292
277.830	5653
277.890	5578
277.950	3781
278.009	11635
278.069	5007
278.128	4491
278.188	5753
278.248	3058
278.307	6942
278.367	4550
278.426	1016
278.486	610
278.545	-54
278.605	232
278.664	-362
278.724	78
278.783	188
278.843	2064
278.902	193
278.962	674
279.021	1079
279.081	2805
279.140	2459
279.199	1540
279.259	1494
279.318	2754
279.378	3312
279.437	4836
279.496	13229
279.556	57831
279.615	40992
279.675	12555
279.734	5541
279.793	5900
279.853	6955
279.912	3688
279.971	2553
280.031	2932
280.090	3063
280.149	5366
280.208	7630
280.268	40264
280.327	36298
280.386	9374
280.445	4630
280.505	2161
280.564	1712
280.623	891
280.682	1031
280.742	1166
280.801	316
280.860	99
280.919	253
280.978	384
281.037	261
281.097	-66
281.156	391
281.215	753
281.274	150
281.333	777
281.392	-214
281.451	245
281.510	175
281.569	-791
281.628	-433
281.688	-384
281.747	-349
281.806	-35
281.865	-425
281.924	205
281.983	-533
282.042	338
282.101	-270
282.160	344
282.219	-328
282.278	-218
282.337	339
282.396	19
282.454	128
282.513	-466
282.572	491
282.631	-142
282.690	-942
282.749	-713
282.808	-157
282.867	139
282.926	-269
282.985	-3
283.043	-475
283.102	-520
283.161	-360
283.220	594
283.279	593
283.338	721
283.396	-692
283.455	249
283.514	275
283.573	120
283.631	598
283.690	-125
283.749	-347
283.808	151
283.866	553
283.925	-312
283.984	441
284.043	-128
284.101	666
284.160	589
284.219	1387
284.277	2072
284.336	1095
284.395	1971
284.453	2366
284.512	2037
284.570	3040
284.629	2981
284.688	3309
284.746	4438
284.805	5955
284.863	7132
284.922	9386
284.981	11498
285.039	16708
285.098	22719
285.156	27265
285.215	29329
285.273	24803
285.332	26125
285.390	23839
285.449	18312
285.507	14776
285.566	10326
285.624	8197
285.683	6480
285.741	4985
285.799	4528
285.858	3450
285.916	2919
285.975	1557
286.033	2306
286.091	1865
286.150	1603
286.208	1419
286.267	577
286.325	855
286.383	585
286.442	504
286.500	685
286.558	299
286.616	684
286.675	197
286.733	317
286.791	178
286.850	845
286.908	-372
286.966	182
287.024	22
287.083	469
287.141	-217
287.199	458
287.257	344
287.315	770
287.374	-557
287.432	-990
287.490	42
287.548	-246
287.606	347
287.664	150
287.723	-74
287.781	-1208
287.839	-219
287.897	76
287.955	-137
288.013	-488
288.071	-3
288.129	1054
288.187	5678
288.245	1510
288.303	508
288.361	71
288.419	116
288.477	-694
288.535	-34
288.593	-459
288.651	-1352
288.709	-1470
288.767	-617
288.825	-1001
288.883	-388
288.941	-284
288.999	-801
289.057	-411
289.115	-270
289.173	-54
289.231	118
289.289	-449
289.346	-348
289.404	-691
289.462	47
289.520	-733
289.578	-755
289.636	-223
289.694	-317
289.751	-176
289.809	-952
289.867	-355
289.925	289
289.983	-684
290.040	-691
290.098	-85
290.156	-885
290.214	-267
290.271	-1327
290.329	-99
290.387	-513
290.444	-459
290.502	-490
290.560	-345
290.617	-995
290.675	-1355
290.733	-521
290.790	-211
290.848	-591
290.906	248
290.963	-527
291.021	-571
291.078	-958
291.136	-742
291.194	-596
291.251	334
291.309	-63
291.366	534
291.424	-1212
291.481	-746
291.539	-927
291.596	-280
291.654	-731
291.711	18
291.769	-622
291.826	62
291.884	-551
291.941	-833
291.999	39
292.056	-1156
292.114	-857
292.171	-285
292.228	-167
292.286	-146
292.343	-191
292.401	-259
292.458	-448
292.515	-820
292.573	-86
292.630	-684
292.687	-511
292.745	-917
292.802	-1010
292.859	124
292.917	414
292.974	-69
293.031	-137
293.089	-743
293.146	-944
293.203	-645
293.260	-510
293.318	-443
293.375	-369
293.432	-436
293.489	-502
293.546	-303
293.604	-569
293.661	-18
293.718	1323
293.775	339
293.832	246
293.889	-318
293.947	364
294.004	-209
294.061	-691
294.118	-223
294.175	54
294.232	1467
294.289	270
294.346	-1171
294.403	-738
294.460	-832
294.517	-1498
294.574	-581
294.631	-1239
294.688	-938
294.745	-1278
294.802	276
294.859	92
294.916	-676
294.973	-957
295.030	-874
295.087	-933
295.144	-157
295.201	-242
295.258	-909
295.315	-1056
295.372	507
295.429	42
295.486	-632
295.542	-1156
295.599	-473
295.656	-1152
295.713	-970
295.770	-348
295.827	-35
295.883	-724
295.940	-764
295.997	-1470
296.054	-1657
296.111	-647
296.167	-406
296.224	-874
296.281	-842
296.338	-1024
296.394	-242
296.451	-953
296.508	-902
296.564	-292
296.621	-349
296.678	654
296.734	1590
296.791	-44
296.848	-355
296.904	-1079
296.961	594
297.018	-262
297.074	-25
297.131	-155
297.187	-248
297.244	-1148
297.301	583
297.357	2470
297.414	-548
297.470	-162
297.527	-207
297.583	-1241
297.640	-1034
297.696	-1020
297.753	-458
297.809	-909
297.866	-870
297.922	-1519
297.979	-1414
298.035	-662
298.092	-911
298.148	-338
298.204	-32
298.261	-1322
298.317	-694
298.374	456
298.430	104
298.486	-678
298.543	-698
298.599	-1209
298.656	-392
298.712	-1312
298.768	-621
298.824	-1084
298.881	-520
298.937	-868
298.993	-1097
299.050	-1536
299.106	-616
299.162	-680
299.218	-153
299.275	-1025
299.331	-770
299.387	-471
299.443	1418
299.500	4172
299.556	2516
299.612	999
299.668	468
299.724	2417
299.780	2724
299.837	1152
299.893	434
299.949	1635
300.005	3534
300.061	2005
300.117	5302
300.173	2010
300.229	675
300.285	-533
300.341	408
300.397	-520
300.453	-323
300.510	-178
300.566	-154
300.622	-117
300.678	4517
300.734	6713
300.790	2541
300.845	2402
300.901	2858
300.957	3930
301.013	1721
301.069	-161
301.125	199
301.181	-1220
301.237	-940
301.293	-1382
301.349	143
301.405	-703
301.461	-926
301.516	-1078
301.572	-388
301.628	-1640
301.684	-266
301.740	-1213
301.796	-116
301.851	-605
301.907	-863
301.963	-218
302.019	-286
302.074	2672
302.130	3149
302.186	736
302.242	561
302.297	-808
302.353	-1423
302.409	-128
302.464	-435
302.520	-1030
302.576	-595
302.631	142
302.687	-332
302.743	-954
302.798	-35
302.854	-899
302.910	-406
302.965	-170
303.021	-934
303.076	-1024
303.132	-556
303.187	-825
303.243	-753
303.299	-540
303.354	-1031
303.410	-979
303.465	365
303.521	-1218
303.576	-727
303.632	-410
303.687	-341
303.743	392
303.798	621
303.853	-688
303.909	-16
303.964	-1744
304.020	-599
304.075	-870
304.130	-526
304.186	-336
304.241	675
304.297	-927
304.352	-1022
304.358	-957
304.407	-429
304.449	-720
304.463	-816
304.518	-515
304.539	-464
304.573	-406
304.629	-1259
304.630	-1249
304.684	-768
304.720	-120
304.739	174
304.794	924
304.811	720
304.850	257
304.902	-655
304.905	-718
304.960	-188
304.992	-427
305.015	-582
305.071	-863
305.083	-887
305.126	-999
305.173	-624
305.181	-550
305.236	-169
305.264	-233
305.292	-364
305.347	-774
305.354	-830
305.402	-984
305.445	-326
305.457	-195
305.512	-473
305.535	-471
305.567	-378
305.622	-341
305.626	-360
305.678	-587
305.716	124
305.733	370
305.788	608
305.807	491
305.843	426
305.897	870
305.898	871
305.953	1262
305.988	417
306.008	47
306.063	-212
306.078	-424
306.118	-1079
306.168	-424
306.173	-358
306.228	-935
306.259	-549
306.283	-205
306.338	-518
306.349	-500
306.393	-550
306.440	-382
306.448	-319
306.503	-137
306.530	-197
306.558	-282
306.613	-494
306.620	-441
306.668	130
306.711	619
306.723	625
306.778	372
306.801	170
306.833	79
306.888	-344
306.892	-320
306.943	-48
306.982	-279
306.997	-334
307.052	-199
307.072	-255
307.107	-353
307.162	-119
307.163	-124
307.217	-188
307.253	-136
307.272	-218
307.327	-363
307.343	-292
307.381	98
307.434	-57
307.436	-59
307.491	107
307.524	503
307.546	711
307.600	478
307.614	450
307.655	251
307.704	277
307.710	285
307.765	79
307.795	-70
307.819	-35
307.874	748
307.885	705
307.929	669
307.975	806
307.984	791
308.038	1232
308.065	1210
308.093	2143
308.148	4189
308.156	4720
308.202	7297
308.246	9256
308.257	8958
308.312	4788
308.336	3055
308.366	2418
308.421	1788
308.426	1792
308.475	2022
308.517	1750
308.530	1594
308.585	1237
308.607	1089
308.639	1472
308.694	2109
308.697	2143
308.748	2357
308.787	2369
308.803	2403
308.857	2518
308.877	2610
308.912	2949
308.967	3669
308.967	3669
309.021	6554
309.058	8503
309.076	9405
309.130	13206
309.148	14144
309.185	19020
309.238	26405
309.239	26555
309.293	32189
309.328	33805
309.348	31036
309.402	20776
309.418	17876
309.457	14788
309.508	11744
309.511	11843
309.566	13660
309.598	15116
309.620	18952
309.674	29641
309.688	32533
309.729	31814
309.778	27775
309.783	27155
309.837	18730
309.868	13973
309.892	12366
309.946	9369
309.959	8631
310.001	6993
310.049	5625
310.055	5543
310.109	4440
310.139	3905
310.163	3252
310.218	2036
310.229	1791
310.272	2314
310.319	2674
310.326	2568
310.381	1759
310.409	1373
310.435	1481
310.489	1802
310.499	1823
310.543	1418
310.589	1073
310.598	1077
310.652	1045
310.679	1023
310.706	1162
310.760	1438
310.769	1465
310.814	1622
310.859	1814
310.868	1829
310.923	1778
310.948	1719
310.977	1780
311.031	1990
311.038	2007
311.085	1350
311.128	653
311.139	819
311.193	1718
311.218	2101
311.247	1998
311.301	1786
311.308	1760
311.356	1905
311.398	1939
311.410	1872
311.464	1593
311.488	1377
311.518	1060
311.572	618
311.578	560
311.626	647
311.668	737
311.680	880
311.734	1491
311.758	1753
311.788	1704
311.842	1572
311.847	1552
311.896	1618
311.937	1672
311.950	1596
312.004	1220
312.027	1056
312.058	1360
312.112	1891
312.117	1936
312.165	1666
312.207	1421
312.297	1729
312.386	1078
312.476	1584
312.566	1929
312.656	1849
312.745	2083
312.835	2285
312.925	1387
313.015	1695
313.104	2057
313.194	2320
313.284	1358
313.374	1471
313.463	2500
313.553	2351
313.643	2237
313.732	2568
313.822	2409
313.912	2365
314.001	3000
314.091	3471
314.180	2585
314.270	3772
314.360	2432
314.449	2615
314.539	2876
314.628	2107
314.718	2179
314.808	3362
314.897	2534
314.987	3606
315.076	3270
315.166	3609
315.255	3749
315.345	4016
315.434	2656
315.524	3619
315.613	3726
315.703	4820
315.792	9738
315.881	26966
315.971	9392
316.060	4298
316.150	2932
316.239	2718
316.328	2881
316.418	3408
316.507	3068
316.597	3447
316.686	4286
316.775	3324
316.865	2847
316.954	3835
317.043	2758
317.133	3033
317.222	2691
317.311	2188
317.400	1169
317.490	3416
317.579	3044
317.668	4272
317.757	4983
317.847	15986
317.936	39944
318.025	14820
318.114	11954
318.203	6402
318.293	3413
318.382	5770
318.471	5106
318.560	4900
318.649	4280
318.738	2906
318.828	2856
318.917	2959
319.006	1534
319.095	2062
319.184	2298
319.273	2966
319.362	2726
319.451	2475
319.540	1766
319.629	2771
319.718	1801
319.807	2654
319.896	1614
319.985	3203
320.074	2726
320.163	2724
320.252	2161
320.341	3238
320.430	1662
320.519	2143
320.608	3092
320.697	3720
320.786	3326
320.875	4481
320.964	4676
321.053	5358
321.142	4943
321.230	6920
321.319	6420
321.408	6807
321.497	6940
321.586	6145
321.675	4096
321.764	5474
321.852	5041
321.941	5040
322.030	4608
322.119	5098
322.207	7850
322.296	7342
322.385	7928
322.474	9386
322.562	10274
322.651	7954
322.740	5079
322.829	6003
322.917	4390
323.006	3818
323.095	3536
323.183	3190
323.272	2912
323.361	3666
323.449	4298
323.538	3605
323.626	2537
323.715	3250
323.804	2110
323.892	1858
323.981	2368
324.069	3477
324.158	2494
324.246	2446
324.335	2800
324.424	2604
324.512	2074
324.601	2412
324.689	2361
324.778	2401
324.866	2372
324.954	2829
325.043	1875
325.131	1744
325.220	2564
325.308	2142
325.397	2872
325.485	2613
325.574	1471
325.662	1592
325.750	1481
325.839	2819
325.927	1874
326.015	1929
326.104	1340
326.192	2324
326.280	1813
326.369	2344
326.457	1658
326.545	1934
326.634	2301
326.722	2513
326.810	2062
326.898	3076
326.987	3128
327.075	1374
327.163	2813
327.251	2221
327.340	2310
327.428	3807
327.516	3705
327.604	2540
327.692	3016
327.781	2148
327.869	1830
327.957	1742
328.045	1817
328.133	2096
328.221	1752
328.309	2534
328.397	1854
328.485	3157
328.574	3637
328.662	6125
328.750	3058
328.838	2423
328.926	2153
329.014	2686
329.102	1857
329.190	2481
329.278	2030
329.366	2036
329.454	1912
329.542	2304
329.630	1429
329.718	2637
329.806	1608
329.893	2280
329.981	1855
330.069	2016
330.157	2146
330.245	3311
330.333	2214
330.421	2197
330.509	1763
330.597	2597
330.684	1575
330.772	2276
330.860	1356
330.948	1924
331.036	2022
331.123	1788
331.211	1664
331.299	2173
331.387	611
331.475	2280
331.562	1509
331.650	2185
331.738	1782
331.825	2627
331.913	1238
332.001	2086
332.089	1208
332.176	1704
332.264	1874
332.352	2091
332.439	2436
332.527	2053
332.614	1352
332.702	2643
332.790	1901
332.877	2719
332.965	6212
333.052	5712
333.140	6720
333.228	16773
333.315	6321
333.403	2996
333.490	3216
333.578	6516
333.665	22364
333.753	10948
333.840	3325
333.928	4538
334.015	3877
334.103	5264
334.190	5906
334.278	8007
334.365	10920
334.452	11845
334.540	7535
334.627	7323
334.715	9556
334.802	13217
334.889	19449
334.977	25907
335.064	16825
335.151	9013
335.239	6147
335.326	5724
335.413	4663
335.501	5415
335.588	6642
335.675	6738
335.762	8041
335.850	10992
335.937	15043
336.024	23669
336.111	34398
336.199	33624
336.286	16172
336.373	9631
336.460	7018
336.547	5413
336.635	4533
336.722	4408
336.809	3756
336.896	3753
336.983	2550
337.070	3396
337.157	3222
337.245	3431
337.332	3140
337.419	3450
337.506	2836
337.593	3137
337.680	2198
337.767	2902
337.854	2423
337.941	2870
338.028	2198
338.115	2135
338.202	2549
338.289	3143
338.376	2182
338.463	2371
338.550	2110
338.637	2796
338.724	1903
338.811	2368
338.898	3262
338.984	2744
339.071	1231
339.158	1967
339.245	2480
339.332	2462
339.419	2113
339.506	2705
339.593	1314
339.679	3162
339.766	2484
339.853	2300
339.940	2400
340.027	2526
340.113	1873
340.200	1829
340.287	2123
340.374	2408
340.460	1791
340.547	1718
340.634	1580
340.720	2524
340.807	2004
340.894	2585
340.980	1281
341.067	2225
341.154	2216
341.240	2681
341.327	3322
341.414	2825
341.500	1100
341.587	2433
341.674	1997
341.760	2804
341.847	2564
341.933	2240
342.020	1547
342.106	1877
342.193	2065
342.279	2269
342.366	1708
342.452	2359
342.539	2126
342.625	2747
342.712	2290
342.798	2827
342.885	1361
342.971	1645
343.058	1701
343.144	1882
343.230	1991
343.317	2555
343.403	1993
343.490	2287
343.576	1452
343.662	1838
343.749	1455
343.835	1723
343.921	2245
344.008	7531
344.094	12537
344.180	3582
344.267	1765
344.353	3852
344.439	3767
344.525	2057
344.612	1705
344.698	1663
344.784	600
344.870	2469
344.957	1634
345.043	2503
345.129	1214
345.215	2718
345.301	1603
345.387	2088
345.474	1967
345.560	1239
345.646	908
345.732	2211
345.818	1895
345.904	1846
345.990	1790
346.076	1453
346.162	914
346.249	1989
346.335	1981
346.421	2298
346.507	1949
346.593	4438
346.679	2023
346.765	3210
346.851	3691
346.937	2453
347.023	3647
347.108	2624
347.194	1352
347.280	2228
347.366	3065
347.452	8822
347.538	10858
347.624	7180
347.710	4050
347.796	2690
347.882	2113
347.967	2004
348.053	1766
348.139	2681
348.225	2086
348.311	1820
348.397	1868
348.482	2215
348.568	2199
348.654	4217
348.740	10757
348.825	10624
348.911	5557
348.997	5167
349.083	6435
349.168	2945
349.254	1703
349.340	2608
349.425	1858
349.511	2325
349.597	1434
349.682	2254
349.768	3791
349.854	2518
349.939	2090
350.025	2224
350.110	1892
350.196	2096
350.282	2015
350.367	2975
350.453	1347
350.538	1957
350.624	1124
350.709	2399
350.795	894
350.880	2468
350.966	2811
351.051	2116
351.137	1814
351.222	2679
351.308	1959
351.393	3814
351.479	2054
351.564	1618
351.649	2470
351.735	2556
351.820	1238
351.906	2169
351.991	1122
352.076	2944
352.162	3213
352.247	1835
352.332	1349
352.418	1612
352.503	1767
352.588	4252
352.673	3165
352.759	2068
352.844	1876
352.929	2172
353.014	1366
353.100	2276
353.185	1797
353.270	1580
353.355	1823
353.441	2435
353.526	1996
353.611	2856
353.696	816
353.781	2589
353.866	818
353.952	2058
354.037	1518
354.122	3437
354.207	1987
354.292	2845
354.377	2112
354.462	2549
354.547	1797
354.632	2287
354.717	1250
354.802	1303
354.887	1464
354.972	2066
355.057	2017
355.142	1452
355.227	2179
355.312	2816
355.397	1518
355.482	2615
355.567	1091
355.652	3649
355.737	1812
355.822	4734
355.907	2943
355.991	3245
356.076	1237
356.161	2665
356.246	1927
356.331	2782
356.416	1630
356.501	8755
356.585	5731
356.670	2390
356.755	3801
356.840	2800
356.924	5368
357.009	13266
357.094	6107
357.179	2267
357.263	2352
357.348	3292
357.433	2695
357.517	3207
357.602	1677
357.687	2239
357.771	3126
357.856	2071
357.941	2997
358.025	5576
358.110	16158
358.195	7237
358.279	2735
358.364	2242
358.448	3479
358.533	6224
358.617	4278
358.702	4435
358.787	2912
358.871	2343
358.956	2207
359.040	2211
359.125	2258
359.209	2715
359.294	2854
359.378	4673
359.462	3249
359.547	3008
359.631	2043
359.716	2386
359.800	1624
359.885	3846
359.969	1931
360.053	3328
360.138	1899
360.222	2040
360.306	1972
360.391	2443
360.475	2642
360.559	3076
360.644	3472
360.728	1863
360.812	5422
360.896	9805
360.981	3003
361.065	2892
361.149	3157
361.233	3297
361.318	1764
361.402	3560
361.486	3142
361.570	3403
361.654	3286
361.739	3439
361.823	6839
361.907	12108
361.991	5109
362.075	5329
362.159	6124
362.243	14468
362.327	27306
362.411	42356
362.495	16147
362.580	9299
362.664	8208
362.748	9355
362.832	15392
362.916	28264
363.000	69620
363.084	90620
363.168	39912
363.252	14671
363.336	9325
363.420	6829
363.503	5618
363.587	5441
363.671	5852
363.755	5276
363.839	7778
363.923	6658
364.007	8678
364.091	11677
364.175	15763
364.258	36436
364.342	75185
364.426	122391
364.510	67484
364.594	25052
364.677	12959
364.761	13018
364.845	10633
364.929	5808
365.013	4312
365.096	4329
365.180	3003
365.264	3601
365.347	3415
365.431	4050
365.515	1715
365.598	2896
365.682	4353
365.766	2226
365.849	2214
365.933	2849
366.017	3899
366.100	3550
366.184	3012
366.267	4184
366.351	3588
366.435	2497
366.518	1810
366.602	3584
366.685	3587
366.769	2549
366.852	2770
366.936	2988
367.019	3467
367.103	2861
367.186	3604
367.270	3337
367.353	2412
367.436	5173
367.520	3133
367.603	3603
367.687	2582
367.770	3608
367.853	3401
367.937	5272
368.020	5077
368.104	2959
368.187	3884
368.270	3733
368.353	2620
368.437	2768
368.520	2650
368.603	2963
368.687	3636
368.770	4811
368.853	3044
368.936	2609
369.020	2290
369.103	2796
369.186	1981
369.269	2323
369.352	2996
369.436	2883
369.519	2897
369.602	1641
369.685	4362
369.768	2342
369.851	2713
369.934	2826
370.018	2510
370.101	2736
370.184	4247
370.267	3300
370.350	2295
370.433	4137
370.516	8668
370.599	19699
370.682	7987
370.765	5983
370.848	5815
370.931	6646
371.014	5200
371.097	2537
371.180	4728
371.263	4460
371.346	2100
371.429	4675
371.511	3395
371.594	3559
371.677	4288
371.760	5352
371.843	5244
371.926	11519
372.009	17645
372.091	12520
372.174	7325
372.257	10762
372.340	6900
372.423	7366
372.505	8004
372.588	5439
372.671	6390
372.754	6845
372.836	5243
372.919	4918
373.002	5314
373.085	4620
373.167	6157
373.250	6113
373.332	7269
373.415	12375
373.498	18365
373.580	11777
373.663	26909
373.746	27101
373.828	7185
373.911	5302
373.993	4288
374.076	4063
374.159	3542
374.241	4109
374.324	5624
374.406	5505
374.489	7268
374.571	16095
374.654	6104
374.736	5590
374.819	10129
374.901	15191
374.983	13495
375.066	5955
375.148	4679
375.231	5086
375.313	5170
375.395	4820
375.478	3834
375.560	4900
375.643	4252
375.725	5655
375.807	10761
375.890	9636
375.972	3428
376.054	4467
376.136	2939
376.219	4265
376.301	5691
376.383	8357
376.465	5189
376.548	3664
376.630	3708
376.712	8509
376.794	4389
376.877	2680
376.959	1850
377.041	3021
377.123	1769
377.205	2447
377.287	1888
377.369	3790
377.452	2632
377.534	3615
377.616	2933
377.698	2580
377.780	1853
377.862	2456
377.944	4407
378.026	2223
378.108	3270
378.190	2862
378.272	3426
378.354	3117
378.436	2115
378.518	2590
378.600	2255
378.682	3608
378.764	4167
378.846	4380
378.928	2529
379.010	1889
379.091	3327
379.173	3199
379.255	1923
379.337	3023
379.419	2871
379.501	6736
379.583	3550
379.664	2747
379.746	1663
379.828	5644
379.910	4310
379.991	5993
380.073	2253
380.155	2787
380.237	2453
380.318	3472
380.400	2732
380.482	4129
380.564	3549
380.645	4113
380.727	2953
380.809	4502
380.890	2939
380.972	2452
381.053	3740
381.135	4374
381.217	2552
381.298	5787
381.380	3925
381.461	4842
381.543	7901
381.624	10026
381.706	4533
381.787	5198
381.869	5473
381.951	7313
382.032	14984
382.113	13381
382.195	4821
382.276	8590
382.358	7433
382.439	12423
382.521	14996
382.602	21549
382.684	17846
382.765	29027
382.846	64606
382.928	120263
383.009	77526
383.090	69357
383.172	138631
383.253	159486
383.334	72774
383.416	38409
383.497	31493
383.578	36757
383.659	61901
383.741	132038
383.822	192418
383.903	120556
383.984	48734
384.066	32608
384.147	20020
384.228	15594
384.309	11432
384.390	11250
384.471	9343
384.553	8949
384.634	7447
384.715	9029
384.796	7657
384.877	8103
384.958	9388
385.039	8374
385.120	6207
385.201	7156
385.282	6069
385.363	8783
385.444	9126
385.525	10127
385.606	10983
385.687	11191
385.768	7282
385.849	6524
385.930	11704
386.011	16324
386.092	7306
386.173	7196
386.254	5473
386.335	7003
386.416	5491
386.496	6184
386.577	6308
386.658	6122
386.739	4433
386.820	6239
386.901	4156
386.981	6516
387.062	6271
387.143	6874
387.224	9026
387.304	10290
387.385	8810
387.466	7501
387.547	8373
387.627	8789
387.708	9407
387.789	11716
387.869	10938
387.950	8294
388.031	6047
388.111	4033
388.192	6055
388.273	7545
388.353	5591
388.434	4395
388.514	5229
388.595	9565
388.676	8902
388.756	5639
388.837	5852
388.917	5224
388.998	1574
389.078	5135
389.159	4076
389.239	3317
389.320	5099
389.400	2819
389.480	4754
389.561	5147
389.641	5771
389.722	4417
389.802	2625
389.883	4961
389.963	7223
390.043	4986
390.124	2770
390.204	4020
390.284	4986
390.365	4006
390.445	4199
390.525	4452
390.605	5379
390.686	2992
390.766	3925
390.846	5095
390.927	3560
391.007	3405
391.087	4452
391.167	3249
391.247	3005
391.328	5342
391.408	4190
391.488	4325
391.568	2740
391.648	4352
391.728	5228
391.808	6091
391.888	4585
391.969	6683
392.049	6984
392.129	7156
392.209	6901
392.289	10568
392.369	7915
392.449	9283
392.529	9301
392.609	11728
392.689	11928
392.769	15854
392.849	17863
392.929	23571
393.009	30312
393.089	43814
393.169	74295
393.248	142724
393.328	243910
393.408	232762
393.488	130479
393.568	69377
393.648	39419
393.728	27181
393.807	18411
393.887	16783
393.967	13142
394.047	10460
394.127	8197
394.206	8934
394.286	10361
394.366	27865
394.446	28643
394.525	9203
394.605	5819
394.685	6789
394.764	7650
394.844	11311
394.924	13606
395.003	7800
395.083	5660
395.163	5319
395.242	4697
395.322	5399
395.402	3247
395.481	6306
395.561	5050
395.640	17784
395.720	34557
395.799	18877
395.879	6958
395.958	8018
396.038	11327
396.117	36356
396.197	38999
396.276	15298
396.356	11812
396.435	14140
396.515	19669
396.594	29526
396.673	57195
396.753	130098
396.832	220327
396.912	167895
396.991	72669
397.070	37011
397.150	21136
397.229	20261
397.308	30335
397.388	52625
397.467	26093
397.546	10899
397.625	5572
397.705	8511
397.784	6104
397.863	5490
397.942	4803
398.022	4263
398.101	3364
398.180	5329
398.259	3733
398.338	5076
398.417	2495
398.497	3221
398.576	4389
398.655	2050
398.734	3493
398.813	3116
398.892	3059
398.971	3418
399.050	2000
399.129	2297
399.208	2352
399.287	3526
399.366	1755
399.445	2438
399.524	2161
399.603	600
399.682	2830
399.761	3305
399.840	2832
399.919	3370
399.998	2638
400.077	1718
400.156	1448
400.235	3878
400.313	547
400.392	739
400.471	2858
400.550	3821
400.629	1183
400.708	2637
400.786	1216
400.865	1638
400.944	1176
401.023	3748
401.102	888
401.180	1872
401.259	1877
401.338	1743
401.416	2362
401.495	1296
401.574	2492
401.652	1104
401.731	1909
401.810	812
401.888	1474
401.967	1084
402.046	1453
402.124	2393
402.203	-60
402.281	2122
402.360	676
402.438	1921
402.517	163
402.596	1669
402.674	1033
402.753	2298
402.831	1846
402.910	2614
402.988	2065
403.066	5447
403.145	4196
403.223	3887
403.302	3625
403.380	5594
403.459	4031
403.537	2618
403.615	884
403.694	685
403.772	3157
403.850	1795
403.929	734
404.007	1305
404.085	2557
404.164	2175
404.242	1075
404.320	3659
404.398	3838
404.477	3991
404.555	8327
404.633	7551
404.711	3943
404.789	2867
404.868	1310
404.946	702
405.024	1748
405.102	1740
405.180	534
405.258	257
405.336	2116
405.415	1184
405.493	699
405.571	2033
405.649	905
405.727	1902
405.805	3086
405.883	2387
405.961	1834
406.039	322
406.117	-293
406.195	1966
406.273	136
406.351	6273
406.429	4102
406.507	836
406.585	685
406.663	1253
406.740	1619
406.818	222
406.896	470
406.974	2251
407.052	32
407.130	4198
407.208	4692
407.285	2743
407.363	199
407.441	1533
407.519	779
407.596	1538
407.674	2350
407.752	7290
407.830	6628
407.907	2494
407.985	-790
408.063	598
408.141	116
408.218	1740
408.296	568
408.373	1231
408.451	1447
408.529	1955
408.606	1621
408.684	2240
408.762	2088
408.839	2552
408.917	2037
408.994	3141
409.072	2213
409.149	3405
409.227	6506
409.304	9861
409.382	10409
409.459	12869
409.537	15776
409.614	14124
409.692	10316
409.769	11378
409.846	15536
409.924	19224
410.001	12994
410.079	10955
410.156	8187
410.233	5731
410.311	4480
410.388	4711
410.465	3017
410.543	2851
410.620	3859
410.697	4005
410.775	2425
410.852	2868
410.929	4431
411.006	4760
411.083	2580
411.161	2613
411.238	3189
411.315	3853
411.392	3031
411.469	3214
411.547	2664
411.624	496
411.701	1286
411.778	1525
411.855	1489
411.932	2099
412.009	903
412.086	2042
412.163	1382
412.240	1325
412.317	2154
412.394	1320
412.471	1588
412.548	1191
412.625	1134
412.702	899
412.779	636
412.856	2160
412.933	927
413.010	2265
413.087	976
413.164	853
413.241	2725
413.318	1233
413.395	1524
413.471	1369
413.548	1709
413.625	2027
413.702	462
413.779	1581
413.855	837
413.932	832
414.009	382
414.086	1288
414.162	655
414.239	1507
414.316	754
414.393	3939
414.469	-103
414.546	1772
414.623	876
414.699	1331
414.776	818
414.853	516
414.929	504
415.006	759
415.082	565
415.159	1440
415.236	518
415.312	1739
415.389	645
415.465	604
415.542	-96
415.618	48
415.695	1119
415.771	921
415.848	-67
415.924	967
416.000	418
416.077	1454
416.153	-510
416.230	348
416.306	749
416.383	866
416.459	1860
416.535	14
416.612	-205
416.688	855
416.764	423
416.841	536
416.917	537
416.993	868
417.069	589
417.146	416
417.222	667
417.298	-3
417.374	119
417.451	1749
417.527	673
417.603	264
417.679	569
417.755	307
417.831	-527
417.908	760
417.984	263
418.060	166
418.136	318
418.212	1493
418.288	1109
418.364	987
418.440	-419
418.516	837
418.592	1082
418.668	943
418.744	397
418.820	1501
418.896	831
418.972	634
419.048	709
419.124	2306
419.200	-530
419.276	1637
419.352	-40
419.428	840
419.504	519
419.579	1267
419.655	496
419.731	1059
419.807	1116
419.883	1010
419.959	1445
420.034	2171
420.110	1862
420.186	1448
420.262	2093
420.337	2118
420.413	2306
420.489	2363
420.565	2784
420.640	3093
420.716	2764
420.792	1955
420.867	4284
420.943	3848
421.019	4096
421.094	3906
421.170	4248
421.245	4967
421.321	4904
421.397	5528
421.472	8809
421.548	10000
421.623	10120
421.699	9697
421.774	10682
421.850	10857
421.925	14080
422.001	17686
422.076	21548
422.152	25952
422.227	33938
422.302	47521
422.378	65637
422.453	94193
422.529	126477
422.604	127606
422.679	97179
422.755	122262
422.830	128578
422.905	98469
422.981	68976
423.056	52178
423.131	39846
423.207	29582
423.282	23576
423.357	20064
423.432	16470
423.508	14829
423.583	12213
423.658	10696
423.733	9127
423.808	9140
423.883	9164
423.959	8549
424.034	8869
424.109	9767
424.184	6720
424.259	6119
424.334	4870
424.409	4785
424.484	4104
424.559	3988
424.634	2928
424.709	3552
424.784	2693
424.859	2972
424.934	2200
425.009	3592
425.084	3134
425.159	2779
425.234	2833
425.309	2410
425.384	2252
425.459	1127
425.534	1940
425.609	1592
425.683	1297
425.758	2177
425.833	1845
425.908	2824
425.983	1783
426.058	3359
426.132	1717
426.207	1956
426.282	2015
426.357	760
426.431	721
426.506	2142
426.581	724
426.655	1307
426.730	1014
426.805	321
426.879	1503
426.954	1040
427.029	539
427.103	2508
427.178	4150
427.253	2214
427.327	480
427.402	1607
427.476	251
427.551	1037
427.625	808
427.700	1420
427.774	259
427.849	1225
427.923	1048
427.998	1633
428.072	1311
428.147	5673
428.221	20012
428.296	57496
428.370	31752
428.444	5607
428.519	1714
428.593	1938
428.667	2010
428.742	3231
428.816	8384
428.890	35575
428.965	50116
429.039	14665
429.113	1787
429.188	1857
429.262	439
429.336	1703
429.410	1416
429.485	1663
429.559	1550
429.633	1176
429.707	2090
429.781	6923
429.855	33963
429.930	46295
430.004	13465
430.078	8175
430.152	25304
430.226	75770
430.300	70635
430.374	18569
430.448	6552
430.522	3251
430.596	2613
430.670	12791
430.744	44184
430.818	47051
430.892	8994
430.966	2496
431.040	1111
431.114	-232
431.188	373
431.262	458
431.336	691
431.410	1679
431.484	-403
431.557	961
431.631	1360
431.705	4230
431.779	16109
431.853	54947
431.927	35502
432.000	5833
432.074	1946
432.148	758
432.222	242
432.295	1073
432.369	141
432.443	-150
432.516	787
432.590	4138
432.664	504
432.737	-712
432.811	-239
432.885	165
432.958	675
433.032	90
433.106	-385
433.179	426
433.253	-421
433.326	-659
433.400	-468
433.473	11
433.547	-782
433.620	12
433.694	-339
433.767	186
433.841	-445
433.914	685
433.988	289
434.061	1238
434.134	-130
434.208	-7
434.281	-798
434.355	-71
434.428	219
434.501	-29
434.575	-931
434.648	-191
434.721	-1112
434.795	427
434.868	-563
434.941	726
435.014	578
435.088	754
435.161	811
435.234	2882
435.307	2038
435.381	2662
435.454	4431
435.527	7860
435.600	8197
435.673	6977
435.746	4375
435.819	2850
435.892	1932
435.966	2025
436.039	618
436.112	1415
436.185	18
436.258	200
436.331	-123
436.404	-214
436.477	62
436.550	1134
436.623	663
436.696	147
436.769	173
436.842	650
436.915	266
436.987	-257
437.060	-263
437.133	-472
437.206	-671
437.279	824
437.352	-13
437.425	-391
437.498	-379
437.570	182
437.643	-820
437.716	-415
437.789	-779
437.861	-264
437.934	-708
438.007	-258
438.080	-670
438.152	-19
438.225	199
438.298	2599
438.370	6253
438.443	2901
438.516	87
438.588	-544
438.661	-795
438.734	314
438.806	-476
438.879	299
438.951	-403
439.024	612
439.096	-1131
439.169	69
439.241	-929
439.314	-494
439.386	-755
439.459	-252
439.531	-247
439.604	129
439.676	-124
439.749	-603
439.821	-475
439.893	-271
439.966	-672
440.038	-634
440.110	-374
440.183	-351
440.255	-834
440.327	863
440.400	252
440.472	2814
440.544	1177
440.617	466
440.689	820
440.761	210
440.833	-139
440.905	761
440.978	-218
441.050	99
441.122	-43
441.194	-536
441.266	-386
441.338	232
441.411	492
441.483	1579
441.555	1745
441.627	323
441.699	153
441.771	-105
441.843	-320
441.915	297
441.987	401
442.059	936
442.131	466
442.203	1908
442.275	2060
442.347	5141
442.419	11487
442.491	47615
442.563	87416
442.635	37518
442.706	7380
442.778	3626
442.850	2335
442.922	2959
442.994	2056
443.066	2179
443.137	3209
443.209	5493
443.281	8434
443.353	17654
443.425	54673
443.496	126860
443.568	129462
443.640	58698
443.711	15437
443.783	6691
443.855	4194
443.926	2255
443.998	1793
444.070	2257
444.141	1127
444.213	1269
444.285	1831
444.356	400
444.428	1683
444.499	1421
444.571	826
444.642	1378
444.714	1638
444.785	825
444.857	1227
444.928	2405
445.000	2326
445.071	3910
445.143	4638
445.214	7323
445.285	13627
445.357	35291
445.428	92644
445.500	143424
445.571	124938
445.642	86405
445.714	31480
445.785	11942
445.856	4694
445.928	4075
445.999	2414
446.070	1962
446.141	1732
446.213	1833
446.284	715
446.355	621
446.426	551
446.497	755
446.569	-275
446.640	365
446.711	485
446.782	833
446.853	-163
446.924	653
446.995	-883
447.066	167
447.138	-697
447.209	715
447.280	-846
447.351	216
447.422	-1457
447.493	-793
447.564	-408
447.635	-78
447.706	-867
447.777	-573
447.847	-945
447.918	-1215
447.989	-892
448.060	-568
448.131	-790
448.202	52
448.273	-496
448.344	-34
448.414	-848
448.485	-1234
448.556	-356
448.627	-418
448.698	-310
448.768	-742
448.839	-1563
448.910	-349
448.981	-536
449.051	-551
449.122	-982
449.193	-581
449.263	-1096
449.334	-463
449.405	-573
449.475	22
449.546	-487
449.616	401
449.687	-635
449.758	-84
449.828	-568
449.899	-178
449.969	-1232
450.040	114
450.110	-852
450.181	-116
450.251	-986
450.322	-520
450.392	-481
450.463	-75
450.533	-982
450.604	-212
450.674	-987
450.744	367
450.815	-1021
450.885	175
450.955	672
451.026	-824
451.096	-486
451.166	-108
451.237	203
451.307	831
451.377	-189
451.447	-621
451.518	-140
451.588	-58
451.658	-348
451.728	-490
451.799	-940
451.869	-80
451.939	-659
452.009	-513
452.079	-938
452.149	-437
452.219	-1152
452.289	407
452.360	-1157
452.430	142
452.500	413
452.570	1433
452.640	6475
452.710	16704
452.780	16315
452.850	8697
452.920	2785
452.990	2328
453.060	865
453.129	-637
453.199	-61
453.269	520
453.339	64
453.409	-388
453.479	181
453.549	261
453.619	-1524
453.688	-390
453.758	-1103
453.828	-583
453.898	-650
453.968	-1030
454.037	-202
454.087	-3
454.107	74
454.168	-1319
454.177	-1530
454.247	-837
454.249	-822
454.316	-717
454.330	-738
454.386	-850
454.411	-1064
454.456	-1505
454.492	-1120
454.525	-766
454.574	-133
454.595	134
454.655	-664
454.665	-809
454.734	-1383
454.736	-1347
454.804	-332
454.817	-390
454.873	-667
454.898	-614
454.943	-527
454.979	-708
455.013	-889
455.060	-541
455.082	-421
455.141	-238
455.152	-207
455.221	-496
455.222	-488
455.291	-657
455.303	-580
455.360	-181
455.384	-211
455.430	-445
455.465	-508
455.499	-576
455.546	-499
455.569	-429
455.627	185
455.638	287
455.707	-522
455.708	-509
455.777	84
455.789	-13
455.846	-485
455.869	-425
455.916	-355
455.950	-501
455.985	-666
456.031	-631
456.054	-599
456.112	-109
456.124	-29
456.193	180
456.193	173
456.262	80
456.274	147
456.332	454
456.355	158
456.401	-343
456.436	-315
456.470	-442
456.516	-124
456.540	69
456.597	8
456.609	-30
456.678	343
456.678	338
456.747	718
456.759	580
456.817	-86
456.840	54
456.886	130
456.920	11
456.955	26
457.001	649
457.024	875
457.082	143
457.093	-5
457.162	655
457.163	663
457.232	-361
457.243	-336
457.301	68
457.324	310
457.370	753
457.405	1093
457.439	1394
457.485	980
457.508	768
457.566	1272
457.577	1417
457.646	2699
457.647	2716
457.715	5202
457.727	5953
457.784	10461
457.808	15786
457.853	23505
457.889	27301
457.922	28979
457.969	19279
457.991	17250
458.050	18007
458.060	18223
458.129	35312
458.130	35736
458.198	43457
458.211	39112
458.267	21614
458.292	15680
458.336	8885
458.372	7606
458.405	8847
458.453	12949
458.474	15606
458.533	30850
458.543	32361
458.611	58179
458.614	58234
458.680	42217
458.694	34799
458.749	15182
458.775	11083
458.818	5619
458.855	4181
458.887	3149
458.936	2319
458.955	2057
459.016	1522
459.024	1490
459.093	1849
459.097	1852
459.162	1450
459.177	1484
459.230	1529
459.257	1265
459.299	1131
459.338	1461
459.368	1515
459.418	1228
459.437	1142
459.499	689
459.505	670
459.574	1023
459.579	1060
459.643	822
459.659	740
459.711	1165
459.740	1524
459.780	1501
459.820	1217
459.849	1162
459.900	657
459.917	540
459.981	1025
459.986	1061
460.054	1407
460.061	1440
460.123	1422
460.141	1398
460.191	1540
460.222	1618
460.260	1488
460.302	1142
460.328	1113
460.382	956
460.397	906
460.462	1659
460.465	1702
460.534	2698
460.543	2732
460.602	5025
460.623	6197
460.671	9381
460.703	13143
460.739	13233
460.783	10597
460.808	9323
460.864	3073
460.876	2360
460.944	1831
460.945	1818
461.013	1798
461.024	1641
461.081	1143
461.104	1291
461.150	1308
461.184	1208
461.218	1283
461.264	1436
461.286	1426
461.345	924
461.355	878
461.423	1322
461.425	1314
461.491	834
461.505	956
461.559	1474
461.585	1335
461.628	1312
461.665	1778
461.696	2059
461.745	1826
461.764	1675
461.825	1641
461.832	1662
461.901	1902
461.905	1941
461.969	1642
461.985	1353
462.037	1833
462.065	2358
462.105	1978
462.145	1300
462.173	1269
462.225	1690
462.241	1672
462.305	951
462.310	954
462.378	1589
462.385	1644
462.446	1719
462.465	1809
462.514	1663
462.545	1362
462.582	1477
462.625	1912
462.650	1854
462.705	1044
462.718	974
462.785	1264
462.786	1267
462.854	1198
462.865	1207
462.922	934
462.945	784
462.990	1199
463.025	1521
463.058	1607
463.104	1746
463.126	1783
463.184	2134
463.194	2216
463.262	2087
463.264	2102
463.330	2285
463.344	2230
463.398	1988
463.424	2013
463.466	1566
463.504	976
463.533	1435
463.583	2396
463.601	2317
463.663	1667
463.669	1611
463.737	1396
463.743	1334
463.805	1578
463.823	1827
463.873	2172
463.903	2102
463.940	1909
463.982	1848
464.008	2038
464.062	2346
464.076	2250
464.142	1756
464.144	1743
464.211	1288
464.221	1194
464.279	1030
464.301	997
464.347	1627
464.381	2200
464.414	1990
464.461	1473
464.482	1429
464.540	1328
464.550	1376
464.617	1767
464.620	1779
464.685	2267
464.699	2333
464.753	1896
464.779	1743
464.820	2057
464.859	2181
464.888	1707
464.938	1216
464.956	1631
465.018	2724
465.023	2688
465.091	2222
465.098	2188
465.158	2197
465.177	2137
465.226	2094
465.257	2172
465.293	2336
465.336	2481
465.361	2444
465.416	2208
465.428	2192
465.495	2151
465.496	2153
465.563	1648
465.575	1579
465.631	2499
465.654	2931
465.698	2470
465.734	1997
465.765	2077
465.813	2139
465.833	2172
465.893	2390
465.900	2421
465.968	2454
465.972	2464
466.035	1803
466.052	1573
466.102	2181
466.131	2583
466.170	2331
466.210	2003
466.237	1922
466.290	1778
466.304	1889
466.369	2314
466.372	2303
466.439	1887
466.449	1816
466.506	2351
466.528	2563
466.573	2708
466.607	2761
466.641	2676
466.687	2636
466.708	2717
466.766	2818
466.775	2737
466.842	2162
466.845	2130
466.909	1956
466.925	1921
466.977	2292
467.004	2459
467.044	2427
467.083	2434
467.111	2556
467.163	2727
467.178	2727
467.242	2733
467.245	2724
467.312	2460
467.321	2425
467.379	2346
467.400	2307
467.446	2351
467.480	2379
467.559	2765
467.638	2300
467.717	2773
467.796	2958
467.875	2523
467.955	2338
468.034	3063
468.113	3950
468.192	4449
468.271	5528
468.350	6021
468.429	8967
468.508	10313
468.588	6634
468.667	4182
468.746	3956
468.825	3406
468.904	3490
468.983	2788
469.062	2506
469.141	3239
469.220	3009
469.299	2383
469.378	1193
469.456	3253
469.535	3452
469.614	1860
469.693	2400
469.772	2732
469.851	3148
469.930	2592
470.009	2980
470.088	3054
470.166	3691
470.245	6134
470.324	7868
470.403	5536
470.482	4236
470.560	3181
470.639	2063
470.718	2589
470.797	2875
470.875	2402
470.954	2028
471.033	3622
471.111	2581
471.190	2575
471.269	2514
471.347	2862
471.426	2936
471.505	2489
471.583	2635
471.662	2505
471.740	2273
471.819	3177
471.898	2884
471.976	2749
472.055	2621
472.133	2462
472.212	2973
472.290	2736
472.369	2758
472.447	2624
472.526	2449
472.604	3056
472.683	2680
472.761	2596
472.839	2508
472.918	3712
472.996	2753
473.075	3484
473.153	2420
473.231	2952
473.310	3872
473.388	2586
473.466	3057
473.545	2999
473.623	2192
473.701	3299
473.780	4001
473.858	623
473.936	4903
474.014	2842
474.093	3483
474.171	3244
474.249	3848
474.327	2999
474.405	2571
474.484	2898
474.562	2687
474.640	2183
474.718	2238
474.796	3321
474.874	2769
474.952	2392
475.030	2469
475.108	2173
475.187	3228
475.265	2922
475.343	3213
475.421	3287
475.499	2777
475.577	2714
475.655	2943
475.733	3786
475.811	2851
475.889	2382
475.966	2861
476.044	2011
476.122	2710
476.200	2649
476.278	2801
476.356	2257
476.434	3469
476.512	3795
476.590	2679
476.667	3447
476.745	2795
476.823	3449
476.901	3639
476.979	2534
477.056	3215
477.134	2864
477.212	2060
477.290	2838
477.367	2349
477.445	2798
477.523	2734
477.601	2424
477.678	3312
477.756	2359
477.834	2761
477.911	3183
477.989	2509
478.066	2954
478.144	2331
478.222	2815
478.299	2303
478.377	2863
478.454	3645
478.532	3217
478.609	2835
478.687	3004
478.764	2279
478.842	2664
478.919	2919
478.997	3764
479.074	2914
479.152	3169
479.229	2823
479.307	2008
479.384	3253
479.461	3126
479.539	2550
479.616	2852
479.694	2275
479.771	2434
479.848	2281
479.926	1163
480.003	3686
480.080	2757
480.157	3303
480.235	3185
480.312	3139
480.389	2898
480.467	2597
480.544	2350
480.621	3540
480.698	2752
480.775	2519
480.853	2281
480.930	3264
481.007	2495
481.084	2087
481.161	3546
481.238	2429
481.315	2920
481.392	3044
481.470	1877
481.547	2858
481.624	2617
481.701	3039
481.778	2227
481.855	2731
481.932	3556
482.009	3017
482.086	3828
482.163	4129
482.240	4294
482.317	4323
482.393	2598
482.470	2650
482.547	3266
482.624	3221
482.701	2285
482.778	2219
482.855	3125
482.932	2839
483.009	2684
483.085	3561
483.162	4243
483.239	4471
483.316	3694
483.393	4131
483.469	4084
483.546	3263
483.623	2904
483.699	3197
483.776	2752
483.853	2332
483.930	2764
484.006	2316
484.083	4904
484.160	3747
484.236	4546
484.313	3130
484.389	2728
484.466	4096
484.543	4241
484.619	4697
484.696	7336
484.772	4837
484.849	3287
484.925	3082
485.002	4028
485.078	3249
485.155	2240
485.231	3646
485.308	2540
485.384	2456
485.461	3024
485.537	2059
485.614	3854
485.690	3729
485.766	3795
485.843	2498
485.919	2653
485.995	2813
486.072	3186
486.148	3357
486.224	2680
486.301	2444
486.377	3285
486.453	2163
486.530	3421
486.606	3575
486.682	3930
486.758	4271
486.835	3085
486.911	2505
486.987	4142
487.063	3963
487.139	4493
487.215	4274
487.292	5537
487.368	5030
487.444	6377
487.520	8863
487.596	11049
487.672	30317
487.748	92323
487.824	135237
487.900	47082
487.976	12783
488.052	7615
488.128	5886
488.204	3604
488.280	4475
488.356	3844
488.432	3593
488.508	4055
488.584	2830
488.660	3786
488.736	3375
488.812	2429
488.888	3499
488.964	3025
489.039	3080
489.115	4528
489.191	3603
489.267	2876
489.343	2395
489.418	2115
489.494	3425
489.570	970
489.646	4125
489.722	3765
489.797	2073
489.873	3208
489.949	3489
490.024	3045
490.100	2268
490.176	3493
490.251	3581
490.327	4274
490.403	3409
490.478	3372
490.554	2928
490.629	3027
490.705	2374
490.781	3952
490.856	2301
490.932	3377
491.007	2288
491.083	2303
491.158	2538
491.234	3006
491.309	3905
491.385	2629
491.460	2372
491.536	3380
491.611	3209
491.686	3327
491.762	2389
491.837	3663
491.913	3189
491.988	4105
492.063	3469
492.139	3024
492.214	2615
492.289	3069
492.365	1873
492.440	2793
492.515	2489
492.590	2482
492.666	2687
492.741	3103
492.816	3236
492.891	2569
492.967	2471
493.042	3332
493.117	2633
493.192	3480
493.267	3163
493.342	3532
493.418	3982
493.493	2727
493.568	3031
493.643	3493
493.718	3699
493.793	2990
493.868	3051
493.943	3487
494.018	3300
494.093	1405
494.168	3759
494.243	3300
494.318	3873
494.393	4725
494.468	3053
494.543	3209
494.618	2887
494.693	3825
494.768	2865
494.842	3590
494.917	3622
494.992	3022
495.067	3845
495.142	2921
495.217	2808
495.292	3640
495.366	2933
495.441	2688
495.516	3811
495.591	3533
495.665	4157
495.740	6237
495.815	4547
495.890	3599
495.964	1969
496.039	5731
496.114	3824
496.188	4061
496.263	4823
496.338	3797
496.412	2173
496.487	3252
496.561	3210
496.636	3504
496.710	4280
496.785	3478
496.860	2999
496.934	2746
497.009	4063
497.083	2781
497.158	3788
497.232	4345
497.307	4228
497.381	4587
497.455	4861
497.530	3967
497.604	3309
497.679	3299
497.753	3688
497.827	3179
497.902	2201
497.976	3724
498.050	3715
498.125	4956
498.199	4398
498.273	3762
498.348	4301
498.422	5503
498.496	4672
498.570	5993
498.645	3704
498.719	1499
498.793	2715
498.867	2997
498.941	3022
499.016	2470
499.090	3395
499.164	3364
499.238	3913
499.312	4541
499.386	4018
499.460	3939
499.534	5165
499.609	6555
499.683	3879
499.757	3204
499.831	2725
499.905	3108
499.979	2368
500.053	2966
500.127	3077
500.201	2997
500.275	4690
500.349	3694
500.422	4179
500.496	4738
500.570	6008
500.644	7798
500.718	6565
500.792	2921
500.866	3254
500.940	2153
501.013	2097
501.087	2131
501.161	2871
501.235	1186
501.309	3235
501.382	1806
501.456	2663
501.530	2200
501.603	1407
501.677	1614
501.751	620
501.825	3672
501.898	2273
501.972	2194
502.046	1777
502.119	1117
502.193	2325
502.266	1460
502.340	2532
502.413	2154
502.487	2177
502.561	957
502.634	2769
502.708	2428
502.781	2573
502.855	3884
502.928	803
503.002	2140
503.075	1714
503.149	3090
503.222	2090
503.295	1942
503.369	2199
503.442	2742
503.516	2854
503.589	3647
503.662	2928
503.736	4187
503.809	5326
503.882	5400
503.956	8606
504.029	17750
504.102	55492
504.175	83484
504.249	31054
504.322	12120
504.395	5537
504.468	4534
504.542	2970
504.615	2312
504.688	2893
504.761	1034
504.834	3681
504.907	2419
504.980	2012
505.053	2127
505.127	95
505.200	4695
505.273	1545
505.346	1594
505.419	1078
505.492	2997
505.565	1054
505.638	2133
505.711	1011
505.784	1709
505.857	809
505.930	3741
506.003	508
506.076	3113
506.149	1675
506.221	128
506.294	2704
506.367	-203
506.440	1134
506.513	2523
506.586	1485
506.659	791
506.731	1963
506.804	730
506.877	1517
506.950	1678
507.022	2638
507.095	709
507.168	1433
507.241	2804
507.313	253
507.386	972
507.459	2579
507.531	881
507.604	1154
507.677	1359
507.749	223
507.822	2851
507.894	1072
507.967	2563
508.040	1645
508.112	2512
508.185	2235
508.257	834
508.330	2891
508.402	664
508.475	775
508.547	1576
508.620	1415
508.692	1189
508.765	1252
508.837	1389
508.909	2159
508.982	794
509.054	2062
509.127	1139
509.199	923
509.271	545
509.344	1605
509.416	2094
509.488	2014
509.560	2239
509.633	1103
509.705	1705
509.777	1797
509.849	2034
509.922	846
509.994	1660
510.066	2262
510.138	744
510.210	3662
510.283	531
510.355	2533
510.427	2471
510.499	2347
510.571	1661
510.643	946
510.715	3059
510.787	200
510.859	2158
510.931	1377
511.003	1966
511.076	2686
511.148	475
511.219	990
511.291	1708
511.363	1789
511.435	1202
511.507	992
511.579	2428
511.651	2253
511.723	1593
511.795	961
511.867	1818
511.939	2234
512.010	710
512.082	1977
512.154	595
512.226	2050
512.298	3155
512.369	1408
512.441	1809
512.513	2061
512.585	763
512.656	2545
512.728	1573
512.800	1343
512.871	2397
512.943	3255
513.015	659
513.086	2181
513.158	1996
513.230	122
513.301	846
513.373	1842
513.444	2302
513.516	2084
513.588	1176
513.659	1146
513.731	866
513.802	681
513.874	3129
513.945	1656
514.016	622
514.088	2413
514.159	-24
514.231	2221
514.302	1675
514.374	2633
514.445	-427
514.516	3693
514.588	1335
514.659	1733
514.730	648
514.802	2256
514.873	-674
514.944	4067
515.016	2447
515.087	1523
515.158	1333
515.229	2983
515.301	1069
515.372	2698
515.443	424
515.514	1965
515.585	774
515.656	2579
515.728	2167
515.799	526
515.870	2549
515.941	2338
516.012	1355
516.083	3257
516.154	1529
516.225	3193
516.296	4996
516.367	3750
516.438	4090
516.509	5142
516.580	10398
516.651	37226
516.722	112529
516.793	51193
516.864	9329
516.935	7828
517.006	9956
517.077	12439
517.148	30113
517.219	133870
517.289	192313
517.360	35151
517.431	9815
517.502	4726
517.573	5640
517.643	4667
517.714	3878
517.785	4773
517.856	5174
517.926	8146
517.997	7998
518.068	9793
518.138	16379
518.209	23955
518.280	90854
518.350	270976
518.421	123080
518.492	24170
518.562	13352
518.633	13641
518.703	15864
518.774	41065
518.845	104045
518.915	101163
518.986	29052
519.056	12258
519.127	8170
519.197	5703
519.268	3369
519.338	4554
519.408	2894
519.479	3409
519.549	2400
519.620	3686
519.690	2160
519.760	2240
519.831	1256
519.901	1880
519.971	2910
520.042	1637
520.112	1529
520.182	2846
520.253	2453
520.323	2086
520.393	1167
520.463	4020
520.534	-622
520.604	3750
520.674	3042
520.744	1240
520.814	346
520.885	2349
520.955	2222
521.025	1395
521.095	1085
521.165	2169
521.235	1516
521.305	953
521.375	2205
521.445	2985
521.515	669
521.585	2402
521.655	284
521.725	2375
521.795	2619
521.865	-810
521.935	3476
522.005	984
522.075	963
522.145	2806
522.215	399
522.285	983
522.355	1185
522.424	1364
522.494	1199
522.564	1410
522.634	1459
522.704	3532
522.774	2010
522.843	2351
522.913	1557
522.983	522
523.053	891
523.122	2722
523.192	1560
523.262	1533
523.331	694
523.401	2531
523.471	2032
523.540	2454
523.610	1278
523.680	2575
523.749	2266
523.819	2497
523.888	1318
523.958	2022
524.027	2089
524.097	2402
524.166	2014
524.236	560
524.305	3667
524.375	1073
524.444	378
524.514	3803
524.583	1181
524.653	1058
524.722	3703
524.791	-41
524.861	3721
524.930	1092
524.999	1936
525.069	3111
525.138	2150
525.207	2282
525.277	3129
525.346	3356
525.415	3510
525.484	3199
525.554	2731
525.623	4055
525.692	5637
525.761	5806
525.830	8172
525.900	9810
525.969	16649
526.038	32541
526.107	66861
526.176	189421
526.245	152573
526.314	45485
526.383	92468
526.452	127976
526.522	175710
526.591	164763
526.660	28303
526.729	14887
526.797	17617
526.867	22837
526.935	73311
527.004	254511
527.073	167324
527.142	24646
527.211	9869
527.280	7434
527.349	5270
527.418	3540
527.487	5048
527.555	2294
527.624	2978
527.693	2037
527.762	4073
527.831	1761
527.899	3044
527.968	2680
528.037	1100
528.106	2494
528.174	2652
528.243	2688
528.312	2779
528.380	1611
528.449	1597
528.518	3929
528.586	1312
528.655	3718
528.723	2669
528.792	1891
528.861	1525
528.929	1446
528.998	2941
529.066	2583
529.135	2933
529.203	2126
529.272	1248
529.340	3656
529.409	3648
529.477	1888
529.545	1632
529.614	4683
529.682	953
529.751	2773
529.819	5524
529.887	2798
529.956	2052
530.024	4171
530.092	2510
530.161	4194
530.229	2707
530.297	2598
530.365	3454
530.434	3754
530.502	2227
530.570	4579
530.638	1760
530.707	2454
530.775	4912
530.843	3090
530.911	2847
530.979	2823
531.047	3195
531.115	4222
531.183	2464
531.252	3930
531.320	2826
531.388	2570
531.456	3952
531.524	1994
531.592	5175
531.660	5597
531.728	3813
531.796	1859
531.864	3645
531.932	3132
532.000	2736
532.067	3514
532.135	4569
532.203	4790
532.271	3622
532.339	5553
532.407	5430
532.475	4740
532.542	4280
532.610	5638
532.678	3342
532.746	6288
532.814	8099
532.881	5003
532.949	4199
533.017	4627
533.084	4688
533.152	3540
533.220	3942
533.287	3109
533.355	3569
533.423	4808
533.490	3176
533.558	4774
533.625	4184
533.693	3933
533.761	4963
533.828	5465
533.896	3375
533.963	4921
534.031	5928
534.098	6733
534.166	7903
534.233	6841
534.300	9312
534.368	8308
534.435	7166
534.503	8893
534.570	8404
534.637	7814
534.705	9284
534.772	11956
534.840	20566
534.907	84855
534.974	107610
535.041	17648
535.109	9339
535.176	7870
535.243	8616
535.310	7910
535.378	7077
535.445	7381
535.512	7078
535.579	7135
535.646	6455
535.714	7638
535.781	8236
535.848	8224
535.915	8182
535.982	6938
536.049	6869
536.116	8689
536.183	7002
536.250	7037
536.317	7023
536.384	8076
536.451	9123
536.518	8155
536.585	6327
536.652	9621
536.719	9787
536.786	6966
536.853	7022
536.920	8972
536.987	6933
537.053	6929
537.120	10475
537.187	10195
537.254	8916
537.321	7984
537.388	10253
537.454	7929
537.521	8462
537.588	7686
537.654	9351
537.721	8345
537.788	10023
537.855	8069
537.921	8909
537.988	8053
538.055	9154
538.121	8007
538.188	7271
538.254	8312
538.321	8058
538.388	8620
538.454	9974
538.521	10838
538.587	8958
538.654	9047
538.720	8500
538.787	9094
538.853	8841
538.920	8638
538.986	7215
539.053	7226
539.119	8065
539.185	7612
539.252	9518
539.318	8935
539.385	11499
539.451	8423
539.517	8952
539.583	10057
539.650	8341
539.716	8533
539.782	8558
539.849	6786
539.915	9131
539.981	8659
540.047	8331
540.114	8504
540.180	9775
540.246	7787
540.312	9293
540.378	9167
540.444	9846
540.510	10056
540.576	10318
540.643	8346
540.709	8441
540.775	9171
540.841	8560
540.907	8262
540.973	8760
541.039	7779
541.105	9081
541.171	10004
541.237	10008
541.303	9974
541.369	11545
541.435	10138
541.500	9274
541.566	7586
541.632	8875
541.698	7955
541.764	9522
541.830	10121
541.896	8966
541.961	9094
542.027	8698
542.093	9333
542.159	10072
542.224	8022
542.290	10071
542.356	9136
542.421	9094
542.487	9064
542.553	8080
542.618	8985
542.684	8638
542.750	8598
542.815	9340
542.881	8425
542.947	9925
543.012	10262
543.078	9700
543.143	8360
543.209	9637
543.274	7697
543.340	8730
543.405	9155
543.471	9388
543.536	9432
543.602	9547
543.667	7591
543.732	10547
543.798	8197
543.863	10183
543.928	9014
543.994	8593
544.059	9740
544.124	11367
544.190	10401
544.255	10884
544.320	10580
544.386	9424
544.451	10691
544.516	10738
544.581	10152
544.646	10952
544.712	12436
544.777	11111
544.842	10849
544.907	10578
544.972	11435
545.037	10301
545.102	11422
545.168	12346
545.233	12565
545.298	12375
545.363	11464
545.428	13949
545.493	13662
545.558	12928
545.623	12971
545.688	12855
545.753	12846
545.818	14422
545.883	15088
545.947	15589
546.012	15903
546.077	15688
546.142	18139
546.207	17750
546.272	18680
546.337	18243
546.401	20811
546.466	22127
546.531	21969
546.596	23984
546.661	25695
546.725	27118
546.790	28105
546.855	30413
546.919	33270
546.984	37559
547.049	39877
547.113	45752
547.178	50087
547.243	57164
547.307	67686
547.372	74046
547.436	73884
547.501	77769
547.565	85425
547.630	76206
547.695	74227
547.759	73865
547.823	76814
547.888	76808
547.952	80597
548.017	83054
548.081	84993
548.146	83118
548.210	84736
548.274	93865
548.339	91929
548.403	83803
548.468	77629
548.532	77537
548.596	80271
548.660	80810
548.725	89091
548.789	93834
548.853	94255
548.917	88776
548.982	84828
549.046	77259
549.110	70833
549.174	73843
549.238	85041
549.303	93408
549.367	96487
549.431	90069
549.495	85960
549.559	86554
549.623	99131
549.687	108075
549.751	104914
549.815	126888
549.879	128831
549.943	123387
550.007	129965
550.071	127356
550.135	116545
550.199	110298
550.263	110038
550.327	104012
550.391	106485
550.455	117179
550.519	123820
550.582	130668
550.646	146255
550.710	147516
550.774	144899
550.838	148117
550.901	152161
550.965	158828
551.029	163107
551.093	171598
551.156	177763
551.220	184772
551.284	191955
551.347	168994
551.411	156766
551.475	153308
551.538	161679
551.602	154460
551.666	146141
551.729	139750
551.793	137166
551.856	135736
551.920	133043
551.983	133938
552.047	131201
552.110	132745
552.174	133878
552.237	138703
552.301	130076
552.364	124462
552.428	120701
552.491	125290
552.554	125960
552.618	126858
552.681	130734
552.745	125800
552.808	135257
552.871	142960
552.934	136910
552.998	128743
553.061	125896
553.124	122024
553.187	122975
553.251	125808
553.314	126260
553.377	126857
553.440	134168
553.503	136851
553.567	138605
553.630	140435
553.693	139150
553.756	140421
553.819	140205
553.882	137171
553.945	137095
554.008	136966
554.071	139197
554.134	140873
554.197	132940
554.260	134759
554.323	134491
554.386	133645
554.449	139201
554.512	139241
554.575	130953
554.638	135095
554.701	131975
554.764	130777
554.827	128163
554.889	123958
554.952	118277
555.015	114852
555.078	115272
555.141	117253
555.203	114405
555.266	114250
555.329	113913
555.391	110956
555.454	109293
555.517	103295
555.580	98467
555.642	97763
555.705	94237
555.768	94394
555.830	92301
555.893	88165
555.955	86663
556.018	82419
556.080	83809
556.143	84279
556.206	82889
556.268	79882
556.330	79721
556.393	76836
556.455	74419
556.518	72845
556.580	70834
556.643	67165
556.705	66473
556.767	66314
556.830	64750
556.892	62599
556.955	62278
557.017	60005
557.079	59689
557.142	57910
557.204	56835
557.266	54907
557.328	51752
557.391	49513
557.453	49639
557.515	48377
557.577	47503
557.639	48204
557.701	47907
557.764	45852
557.826	45718
557.888	45533
557.950	46879
558.012	48583
558.074	54987
558.136	89617
558.198	172196
558.260	80699
558.322	45183
558.384	43614
558.446	44359
558.508	46823
558.570	48697
558.632	52419
558.694	63475
558.756	93317
558.818	209749
558.880	394938
558.942	186935
559.003	179632
559.065	97861
559.127	48068
559.189	46577
559.251	49831
559.312	62966
559.374	123342
559.436	299675
559.498	167585
559.559	52182
559.621	44553
559.683	49809
559.744	69053
559.806	173259
559.868	239161
559.929	69294
559.991	47903
560.052	67211
560.114	160523
560.176	110155
560.237	98002
560.299	148583
560.360	42498
560.422	24530
560.483	22472
560.545	21294
560.606	20669
560.667	19965
560.729	19524
560.790	19401
560.852	18450
560.913	17817
560.974	17809
561.036	17105
561.097	17790
561.158	17761
561.220	16927
561.281	16860
561.342	16001
561.403	16317
561.465	16028
561.526	15799
561.587	16686
561.648	14257
561.709	14636
561.771	15419
561.832	15282
561.893	14093
561.954	13824
562.015	14366
562.076	14051
562.137	13471
562.198	12758
562.259	14680
562.320	13385
562.381	13560
562.442	13264
562.503	12495
562.564	13689
562.625	12781
562.686	12421
562.747	12371
562.808	12261
562.869	12567
562.930	12678
562.991	11958
563.051	11620
563.112	11374
563.173	11206
563.234	11064
563.294	11202
563.355	11523
563.416	11095
563.477	10742
563.537	11303
563.598	11274
563.659	10749
563.720	10701
563.780	10351
563.841	10695
563.901	10986
563.962	11150
564.023	10475
564.083	10939
564.144	10265
564.204	10139
564.265	10130
564.325	9412
564.386	10548
564.446	10649
564.507	10209
564.567	9619
564.628	10773
564.688	9722
564.749	9850
564.809	10177
564.869	9813
564.930	9720
564.990	10604
565.050	9601
565.111	10032
565.171	9401
565.231	9272
565.292	10366
565.352	9581
565.412	10950
565.472	9624
565.532	9931
565.593	9840
565.653	9978
565.713	9904
565.773	10430
565.833	9286
565.893	10158
565.953	9155
566.013	9778
566.074	9162
566.134	9723
566.194	8706
566.254	8853
566.314	9710
566.374	8743
566.434	9797
566.494	9094
566.554	8646
566.614	9495
566.673	9327
566.733	9051
566.793	9999
566.853	9519
566.913	9987
566.973	9021
567.033	9458
567.092	10085
567.152	9855
567.212	9557
567.272	9188
567.331	10095
567.391	10603
567.451	10757
567.511	10793
567.570	10392
567.630	10788
567.690	9818
567.749	9525
567.809	9683
567.868	9540
567.928	9531
567.988	9968
568.047	10250
568.107	9591
568.166	10005
568.226	9657
568.285	9747
568.345	9468
568.404	10241
568.464	9993
568.523	9390
568.582	9294
568.642	9879
568.701	9325
568.761	9822
568.820	9029
568.879	10050
568.939	10110
568.998	9738
569.057	9256
569.116	9852
569.176	9011
569.235	9399
569.294	10426
569.353	8763
569.413	9823
569.472	8728
569.531	8768
569.590	9179
569.649	9734
569.708	9015
569.767	9261
569.827	9407
569.886	8690
569.945	9097
570.004	9296
570.063	9523
570.122	9881
570.181	9610
570.240	9783
570.299	10198
570.358	9337
570.417	10249
570.475	9756
570.534	11332
570.593	10423
570.652	10593
570.711	10051
570.770	9591
570.829	10450
570.887	10167
570.946	10561
571.005	9954
571.064	10273
571.122	10896
571.181	9736
571.240	10165
571.299	9622
571.357	9580
571.416	8835
571.475	9117
571.533	9741
571.592	10012
571.650	10626
571.709	10909
571.768	11967
571.826	11506
571.885	11655
571.943	10822
572.002	10070
572.060	9499
572.119	10072
572.177	10989
572.236	10455
572.294	10131
572.352	10587
572.411	10012
572.469	10503
572.528	9781
572.586	9595
572.644	9987
572.703	10833
572.761	9574
572.819	8824
572.877	8852
572.936	9114
572.994	8201
573.052	9796
573.110	8465
573.169	9691
573.227	10276
573.285	9855
573.343	8921
573.401	9209
573.459	9636
573.517	9031
573.576	9008
573.634	9299
573.692	8852
573.750	9255
573.808	9043
573.866	8848
573.924	8533
573.982	9251
574.040	8914
574.098	8456
574.155	9646
574.213	8525
574.271	8526
574.329	9297
574.387	7974
574.445	7319
574.503	8049
574.560	7569
574.618	8397
574.676	7032
574.734	7568
574.792	7899
574.849	7484
574.907	7236
574.965	6288
575.022	6056
575.080	6171
575.138	6743
575.195	6693
575.253	6413
575.311	5541
575.368	6782
575.426	5776
575.483	7526
575.541	7163
575.598	7028
575.656	5998
575.713	6372
575.771	6497
575.828	6034
575.886	6207
575.943	6546
576.001	4822
576.058	5451
576.115	5569
576.173	6825
576.230	6300
576.287	6983
576.345	6482
576.402	6610
576.459	6260
576.517	5839
576.574	6361
576.631	5458
576.688	5306
576.746	5326
576.803	6892
576.860	4789
576.917	6287
576.974	6082
577.031	6500
577.089	5855
577.146	5518
577.203	5694
577.260	6429
577.317	6197
577.374	6390
577.431	5608
577.488	4942
577.545	5191
577.602	5860
577.659	6207
577.716	5858
577.773	5812
577.830	5266
577.886	6515
577.943	6182
578.000	5650
578.057	6105
578.114	6360
578.171	6276
578.227	6345
578.284	4980
578.341	6389
578.398	5387
578.454	6339
578.511	5167
578.568	6352
578.625	5579
578.681	6054
578.738	6004
578.794	6582
578.851	6367
578.908	6052
578.964	6286
579.021	6017
579.077	5260
579.134	6668
579.190	5769
579.247	6059
579.303	5475
579.360	5601
579.416	5243
579.473	5427
579.529	5613
579.586	5860
579.642	5811
579.698	5934
579.755	6379
579.811	6218
579.867	6493
579.924	6388
579.980	5979
580.036	5872
580.093	5542
580.149	6621
580.205	7021
580.261	6951
580.317	6091
580.374	7203
580.430	6919
580.486	6788
580.542	7074
580.598	6125
580.619	6346
580.654	6731
580.692	7066
580.710	7238
580.765	7045
580.767	7041
580.823	7371
580.838	7257
580.879	6944
580.911	7363
580.935	7677
580.984	6854
580.991	6741
581.047	7219
581.057	7261
581.103	7455
581.130	7057
581.159	6611
581.203	6797
581.215	6859
581.270	7544
581.276	7406
581.326	6050
581.349	6244
581.382	6548
581.422	7223
581.438	7485
581.494	6066
581.494	6073
581.550	6688
581.567	6829
581.606	7037
581.640	7106
581.661	7171
581.713	7442
581.717	7465
581.773	7709
581.786	7529
581.829	6881
581.859	7190
581.885	7475
581.932	7532
581.940	7543
581.996	7555
582.004	7529
582.052	7195
582.077	6969
582.107	6775
582.150	7789
582.163	8096
582.219	6374
582.223	6414
582.274	6878
582.296	7074
582.330	7364
582.368	7380
582.386	7428
582.441	7948
582.441	7946
582.497	7584
582.514	7542
582.552	7635
582.587	7475
582.608	7341
582.659	8016
582.663	8066
582.719	7874
582.732	7873
582.774	7933
582.805	7698
582.830	7460
582.877	8184
582.885	8307
582.941	8507
582.950	8373
582.996	7726
583.023	7979
583.052	8320
583.095	8426
583.107	8435
583.162	9147
583.168	9088
583.218	8313
583.240	8290
583.273	8422
583.313	8248
583.328	8153
583.384	8203
583.385	8202
583.439	8173
583.458	8121
583.494	8013
583.531	8142
583.549	8243
583.603	8452
583.605	8460
583.660	9041
583.676	8811
583.715	8284
583.748	8971
583.770	9363
583.820	8645
583.825	8590
583.881	9308
583.893	9209
583.936	8762
583.965	8938
583.991	9184
584.038	9484
584.046	9514
584.101	9041
584.110	8944
584.156	8557
584.183	9310
584.211	10129
584.255	10206
584.266	10274
584.321	10350
584.328	10355
584.376	10267
584.400	10397
584.431	10654
584.472	10330
584.486	10174
584.541	11233
584.545	11211
584.596	10981
584.617	11172
584.651	11865
584.689	11731
584.706	11524
584.761	12225
584.762	12221
584.816	12981
584.834	13045
584.871	13305
584.906	13819
584.926	14010
584.978	14506
584.980	14560
585.035	15573
585.051	16034
585.090	17173
585.123	17711
585.145	18237
585.195	19914
585.200	20162
585.254	22691
585.267	23477
585.309	26226
585.340	28336
585.364	30396
585.412	35128
585.419	36138
585.473	45777
585.484	47871
585.528	61244
585.556	74074
585.583	103626
585.628	162823
585.637	185605
585.692	357056
585.700	383672
585.747	448784
585.772	410280
585.801	282772
585.845	121886
585.856	103487
585.910	53824
585.917	48565
585.965	38067
585.989	33540
586.019	30593
586.061	26740
586.074	26147
586.128	24828
586.133	24629
586.183	23514
586.205	23166
586.237	23030
586.277	22643
586.292	22571
586.346	22587
586.349	22547
586.401	22802
586.421	22645
586.455	22335
586.493	22633
586.509	22920
586.564	22972
586.565	22948
586.618	24910
586.637	25615
586.672	28168
586.709	31170
586.727	32472
586.781	35692
586.781	35744
586.835	29459
586.853	27917
586.889	26473
586.925	24900
586.944	24759
586.996	24805
586.998	24852
587.052	24798
587.068	24616
587.106	24647
587.140	24749
587.161	25061
587.212	26073
587.215	26140
587.269	25868
587.284	25788
587.323	26334
587.356	27117
587.377	27540
587.427	27525
587.431	27657
587.485	29277
587.499	29565
587.539	29778
587.571	30181
587.593	31075
587.643	32529
587.648	32660
587.702	32938
587.715	32956
587.755	33480
587.786	33913
587.810	33946
587.858	33515
587.864	33633
587.917	34433
587.930	34483
587.971	34811
588.001	34809
588.025	34995
588.073	35285
588.079	35403
588.133	35781
588.145	35813
588.187	36189
588.217	36014
588.241	36240
588.288	36968
588.295	37194
588.348	38298
588.360	38395
588.402	38873
588.431	39172
588.456	39901
588.503	40993
588.510	41421
588.564	44425
588.575	44857
588.617	46826
588.646	48694
588.671	50430
588.718	53007
588.725	54078
588.778	62756
588.789	64763
588.832	91917
588.861	112476
588.886	159412
588.932	256533
588.939	264972
588.993	322382
589.004	322978
589.047	183986
589.075	100779
589.100	82084
589.147	55514
589.154	54906
589.207	49993
589.218	48978
589.261	50703
589.290	51722
589.314	53314
589.361	56808
589.368	58547
589.421	72784
589.433	76134
589.475	123214
589.504	158200
589.528	204484
589.576	300051
589.582	290166
589.635	158936
589.647	131941
589.689	82529
589.718	52289
589.742	50454
589.790	46259
589.795	46182
589.849	44860
589.861	44443
589.902	44510
589.932	44111
589.955	43901
590.004	43223
590.009	43372
590.062	43861
590.075	43796
590.115	43465
590.146	43148
590.168	43223
590.218	42705
590.222	42897
590.275	43907
590.289	44061
590.328	45790
590.360	46916
590.381	46829
590.431	45994
590.435	46241
590.488	48350
590.503	48717
590.541	48836
590.574	48740
590.594	49561
590.645	51385
590.647	51613
590.700	53155
590.716	53472
590.753	55229
590.787	56680
590.806	57244
590.859	58030
590.859	58223
590.912	58810
590.930	58872
590.965	59211
591.001	59180
591.018	59155
591.071	58307
591.072	58113
591.124	58459
591.143	58349
591.177	58618
591.214	58526
591.230	59493
591.283	62178
591.285	62070
591.336	61678
591.356	61383
591.389	61309
591.427	60617
591.442	60758
591.495	60612
591.498	60402
591.547	61632
591.569	61902
591.600	62946
591.640	63783
591.653	64069
591.706	64386
591.711	64213
591.759	65746
591.782	66194
591.811	67945
591.853	69903
591.864	70184
591.917	70362
591.924	70154
591.969	70875
591.995	70890
592.022	71123
592.066	70960
592.075	71597
592.127	73995
592.137	74191
592.180	74972
592.208	75084
592.233	76639
592.279	78771
592.285	79208
592.338	80677
592.350	80726
592.390	81528
592.421	81645
592.443	82151
592.491	82409
592.495	82857
592.548	85136
592.562	85470
592.600	85797
592.633	85535
592.653	86040
592.704	86097
592.705	86636
592.775	88744
592.846	91403
592.916	91619
592.987	91999
593.058	94742
593.128	93984
593.199	97116
593.270	96725
593.341	97871
593.411	102923
593.482	106058
593.553	108685
593.623	109473
593.694	111748
593.764	115414
593.835	112771
593.906	114904
593.976	114985
594.047	119394
594.117	124711
594.188	128057
594.258	127296
594.329	126353
594.399	132741
594.470	135762
594.540	138572
594.611	142451
594.681	140360
594.751	140135
594.822	146556
594.892	150883
594.963	156760
595.033	162189
595.103	165619
595.174	166166
595.244	170057
595.314	176467
595.384	180087
595.455	183582
595.525	191280
595.595	198613
595.665	197192
595.736	195938
595.806	196065
595.876	199642
595.946	201037
596.016	208430
596.087	215348
596.157	216106
596.227	217975
596.297	229283
596.367	243408
596.437	258295
596.507	256354
596.577	256057
596.647	264559
596.717	275996
596.787	280765
596.857	279144
596.927	281078
596.997	280713
597.067	286616
597.137	290112
597.207	293085
597.277	294462
597.347	282827
597.417	273476
597.487	273174
597.557	282689
597.626	288615
597.696	291429
597.766	288272
597.836	271341
597.906	261021
597.975	256936
598.045	260484
598.115	272631
598.185	291849
598.254	323182
598.324	346659
598.394	353463
598.464	343177
598.533	337522
598.603	313557
598.672	305158
598.742	313471
598.812	312084
598.881	321342
598.951	321355
599.020	325933
599.090	337096
599.159	342188
599.229	327501
599.299	323284
599.368	332126
599.437	326417
599.507	299200
599.576	290892
599.646	285872
599.715	284506
599.785	282702
599.854	273053
599.924	269312
599.993	268332
600.062	277431
600.132	281007
600.201	299777
600.270	345574
600.340	362359
600.409	352593
600.478	351306
600.547	358322
600.617	320842
600.686	261104
600.755	237104
600.824	225367
600.894	218960
600.963	221877
601.032	218134
601.101	209121
601.170	201683
601.239	193839
601.308	195166
601.378	196902
601.447	196236
601.516	197791
601.585	198002
601.654	202134
601.723	201447
601.792	209652
601.861	214616
601.930	222573
601.999	224950
602.068	223086
602.137	225295
602.206	229627
602.275	233044
602.343	234442
602.412	235826
602.481	238788
602.550	241629
602.619	246822
602.688	249500
602.756	251380
602.825	254953
602.894	259060
602.963	265373
603.032	270060
603.100	269466
603.169	270673
603.238	274102
603.307	273213
603.375	275330
603.444	283061
603.513	287616
603.581	287787
603.650	292814
603.719	287494
603.787	296570
603.856	303406
603.924	312769
603.993	322467
604.061	333995
604.130	347029
604.198	352596
604.267	358604
604.335	363315
604.404	369347
604.472	373349
604.541	377850
604.609	380806
604.678	381473
604.746	384124
604.815	396228
604.883	401027
604.951	400102
605.020	406879
605.088	413796
605.156	423081
605.225	429773
605.293	429423
605.361	429899
605.429	433795
605.498	442254
605.566	452707
605.634	472295
605.702	488631
605.771	501708
605.839	503486
605.907	494070
605.975	475683
606.043	470314
606.111	470715
606.180	471373
606.248	465462
606.316	461913
606.384	459960
606.452	462037
606.520	475731
606.588	494276
606.656	494321
606.724	484105
606.792	458797
606.860	418917
606.928	387686
606.996	370462
607.064	366040
607.132	372405
607.200	396353
607.267	410266
607.335	417841
607.403	423780
607.471	410429
607.539	399519
607.607	400235
607.674	352941
607.742	352240
607.810	351361
607.878	351399
607.946	360602
608.013	376172
608.081	382011
608.149	385428
608.216	400729
608.284	414641
608.352	411583
608.419	408547
608.487	397550
608.555	393215
608.622	404084
608.690	429691
608.757	467959
608.825	476570
608.893	465164
608.960	440963
609.028	424135
609.095	423593
609.163	422211
609.230	379283
609.298	350225
609.365	371858
609.432	397865
609.500	430787
609.567	487265
609.635	547080
609.702	570004
609.769	540104
609.837	424652
609.904	374678
609.971	382048
610.039	403940
610.106	462298
610.173	664545
610.241	1070254
610.308	759533
610.375	454910
610.442	410668
610.509	391822
610.577	393269
610.644	399863
610.711	411262
610.778	422967
610.845	439957
610.912	459453
610.980	477642
611.047	477008
611.114	467801
611.181	458510
611.248	458185
611.315	480839
611.382	491000
611.449	507543
611.516	512956
611.583	505747
611.650	512773
611.717	514598
611.784	520110
611.851	535170
611.918	546745
611.984	595991
612.051	698809
612.118	963087
612.185	1422178
612.252	1134479
612.319	715814
612.386	640694
612.452	593041
612.519	570098
612.586	560832
612.653	570039
612.719	588063
612.786	567061
612.853	533654
612.919	525691
612.986	532993
613.053	505948
613.120	481764
613.186	463941
613.253	468327
613.319	466662
613.386	470927
613.453	477990
613.519	478931
613.586	469542
613.652	478867
613.719	471603
613.785	481474
613.852	483849
613.918	480872
613.985	487277
614.051	504000
614.118	493957
614.184	477219
614.250	482566
614.317	492829
614.383	489625
614.449	497244
614.516	492929
614.582	492513
614.648	486371
614.715	483131
614.781	472723
614.847	475196
614.914	472972
614.980	464073
615.046	463664
615.112	478571
615.179	478073
615.245	486138
615.311	475057
615.377	480851
615.443	486498
615.509	491885
615.575	501894
615.642	499662
615.708	506905
615.774	526520
615.840	542091
615.906	554058
615.972	607515
616.038	746492
616.104	1076204
616.170	1513325
616.236	1343021
616.302	857760
616.368	744968
616.434	610104
616.500	571621
616.565	606203
616.631	699495
616.697	621174
616.763	623011
616.829	787530
616.895	1111847
616.961	1048820
617.026	659976
617.092	536254
617.158	509651
617.224	500316
617.289	469890
617.355	450755
617.421	448848
617.487	447275
617.552	427393
617.618	426067
617.684	428918
617.749	427643
617.815	414159
617.880	406593
617.946	407309
618.012	414861
618.077	422230
618.143	406245
618.208	409229
618.274	436297
618.339	435890
618.405	370059
618.470	372461
618.536	369929
618.601	365162
618.667	342106
618.732	327981
618.798	325092
618.863	326943
618.928	323225
618.994	327063
619.059	323081
619.124	324022
619.190	323976
619.255	322839
619.320	323903
619.386	323829
619.451	322970
619.516	314924
619.581	316864
619.647	329031
619.712	327731
619.777	314952
619.842	317138
619.907	323489
619.972	327487
620.038	323316
620.103	317713
620.168	318329
620.233	324142
620.298	326662
620.363	329474
620.428	337526
620.493	343848
620.558	346136
620.623	352121
620.688	351261
620.753	349437
620.818	354610
620.883	354701
620.948	353850
621.013	349247
621.078	343786
621.143	348785
621.207	352839
621.272	345983
621.337	337383
621.402	334957
621.467	331753
621.532	330532
621.596	334065
621.661	324886
621.726	323970
621.791	325417
621.855	327793
621.920	324456
621.985	328541
622.049	334489
622.114	334988
622.179	339497
622.243	344264
622.308	356338
622.373	365120
622.437	357583
622.502	341184
622.566	339683
622.631	337743
622.695	345043
622.760	340003
622.824	342134
622.889	344087
622.953	344051
623.018	360753
623.082	363567
623.147	359497
623.211	353890
623.276	352820
623.340	341294
623.404	336801
623.469	334974
623.533	336645
623.597	329244
623.662	329122
623.726	307472
623.790	294172
623.854	287999
623.919	290783
623.983	296089
624.047	296361
624.111	303047
624.176	304583
624.240	305487
624.304	314035
624.368	306334
624.432	305722
624.496	311940
624.560	325725
624.625	326273
624.689	323570
624.753	340799
624.817	323682
624.881	318630
624.945	289544
625.009	283851
625.073	287673
625.137	295961
625.201	303629
625.265	304443
625.329	292854
625.393	296557
625.456	299391
625.520	307476
625.584	308255
625.648	316370
625.712	322545
625.776	319041
625.839	301178
625.903	261417
625.967	248094
626.031	261769
626.095	301871
626.158	281452
626.222	227602
626.286	216816
626.349	209796
626.413	195875
626.477	195912
626.540	199589
626.604	195837
626.668	192970
626.731	190510
626.795	191806
626.858	189501
626.922	187400
626.986	184069
627.049	186887
627.113	191658
627.176	185998
627.240	181077
627.303	181404
627.366	177674
627.430	180393
627.493	178935
627.557	175110
627.620	178550
627.684	185795
627.747	183331
627.810	169731
627.874	154205
627.937	148901
628.000	152481
628.064	147386
628.127	134214
628.190	133857
628.253	130362
628.317	126246
628.380	119782
628.443	116182
628.506	115015
628.569	112327
628.632	106459
628.696	105932
628.759	105941
628.822	100918
628.885	99430
628.948	97404
629.011	95452
629.074	95048
629.137	90346
629.200	89291
629.263	89733
629.326	86890
629.389	87793
629.452	86167
629.515	82234
629.578	82644
629.641	84987
629.704	83730
629.767	80902
629.830	80268
629.892	78084
629.955	77081
630.018	79820
630.081	78013
630.144	78201
630.207	76373
630.269	77991
630.332	74037
630.395	73939
630.458	71808
630.520	69115
630.583	71571
630.646	71640
630.708	72844
630.771	72841
630.834	76978
630.896	73639
630.959	73845
631.021	72673
631.084	72650
631.146	72895
631.209	72269
631.272	71751
631.334	74197
631.397	73307
631.459	73901
631.522	75517
631.584	77061
631.646	80223
631.709	81416
631.771	80841
631.834	78607
631.896	75053
631.958	73166
632.021	71295
632.083	69241
632.145	69527
632.208	67204
632.270	68018
632.332	67168
632.395	66800
632.457	67617
632.519	65749
632.581	67558
632.643	65520
632.706	66846
632.768	64269
632.830	65662
632.892	68209
632.954	67270
633.016	68877
633.078	68525
633.141	66941
633.203	66142
633.265	66858
633.327	66745
633.389	67247
633.451	68058
633.513	66674
633.575	68351
633.637	66780
633.698	69917
633.760	72935
633.822	74847
633.884	74336
633.946	76506
634.008	75496
634.070	78097
634.132	80912
634.193	86076
634.255	89812
634.317	91829
634.379	90322
634.441	83260
634.502	77582
634.564	72207
634.626	69426
634.687	67508
634.749	64594
634.811	66894
634.873	63184
634.934	64568
634.996	65135
635.057	64459
635.119	65459
635.181	66787
635.242	66896
635.304	64713
635.365	69632
635.427	65403
635.488	65035
635.550	65368
635.611	66912
635.673	64935
635.734	68863
635.796	70492
635.857	76580
635.918	79787
635.980	86661
636.041	88554
636.102	92980
636.164	93916
636.225	89151
636.286	80028
636.348	74250
636.409	69253
636.470	67170
636.531	65282
636.593	63158
636.654	63280
636.715	60940
636.776	61271
636.838	58431
636.899	59470
636.960	58020
637.021	58330
637.082	56200
637.143	56556
637.204	54768
637.265	54994
637.326	57028
637.387	58818
637.448	54890
637.509	55945
637.570	55774
637.631	56216
637.692	54283
637.753	53372
637.814	53229
637.875	54104
637.936	54422
637.997	52994
638.058	52049
638.119	53573
638.179	53518
638.240	53126
638.301	53484
638.362	52013
638.423	50073
638.483	51192
638.544	48093
638.605	50348
638.666	49757
638.726	50702
638.787	51589
638.848	50335
638.908	48553
638.969	48570
639.030	46957
639.090	47254
639.151	48280
639.211	49283
639.272	49265
639.332	49417
639.393	50442
639.453	52441
639.514	52403
639.574	48635
639.635	44882
639.695	46947
639.756	44986
639.816	45178
639.877	44831
639.937	45863
639.997	46638
640.058	45005
640.118	45716
640.178	46598
640.239	44508
640.299	45047
640.359	46289
640.420	48171
640.480	51463
640.540	56428
640.600	55350
640.661	51485
640.721	49210
640.781	50478
640.841	46401
640.901	47083
640.961	45756
641.021	47680
641.082	49102
641.142	45276
641.202	45951
641.262	42369
641.322	45751
641.382	43216
641.442	44376
641.502	43966
641.562	43956
641.622	44501
641.682	47044
641.742	50001
641.802	48043
641.861	44293
641.921	41942
641.981	40978
642.041	41221
642.101	40952
642.161	39345
642.221	40483
642.280	40689
642.340	40993
642.400	39554
642.460	42780
642.519	41532
642.579	42111
642.639	42750
642.698	40897
642.758	44432
642.818	43285
642.877	41629
642.937	42593
642.997	43243
643.056	41999
643.116	41199
643.175	43593
643.235	43146
643.294	44695
643.354	45299
643.414	47618
643.473	52874
643.532	57140
643.592	68546
643.651	92590
643.711	139156
643.770	240769
643.830	495988
643.889	774549
643.948	291469
644.008	98485
644.067	66866
644.126	53987
644.186	48809
644.245	46209
644.304	41121
644.363	44864
644.423	38783
644.482	41382
644.541	43486
644.600	42516
644.659	49767
644.719	56236
644.778	74924
644.837	114295
644.896	210293
644.955	408126
645.014	150627
645.073	58691
645.132	46857
645.191	45957
645.250	44067
645.309	45177
645.368	48798
645.427	60052
645.486	93831
645.545	143917
645.604	53675
645.663	42513
645.722	40245
645.781	41911
645.840	45243
645.898	50271
645.957	63816
646.016	83276
646.075	130051
646.134	227586
646.192	510054
646.251	617568
646.310	169115
646.369	74070
646.427	63444
646.486	50308
646.545	43383
646.603	39822
646.662	38220
646.721	37447
646.779	35845
646.838	37839
646.896	42406
646.955	52328
647.014	74815
647.072	128352
647.131	303033
647.189	145702
647.248	41878
647.306	35433
647.365	33541
647.423	31082
647.481	32045
647.540	29703
647.598	30680
647.657	31458
647.715	29893
647.773	29113
647.832	28874
647.890	27200
647.948	26241
648.007	26838
648.065	25184
648.123	26329
648.181	27102
648.240	26145
648.298	24485
648.356	25372
648.414	25416
648.472	23955
648.531	23911
648.589	23264
648.647	23096
648.705	24016
648.763	24385
648.821	25370
648.879	23747
648.937	26349
648.995	29117
649.053	34299
649.111	45017
649.169	64097
649.227	104743
649.285	206296
649.343	479441
649.401	234630
649.459	53739
649.516	36019
649.574	28583
649.632	30030
649.690	31768
649.748	37854
649.806	50788
649.863	88652
649.921	229874
649.979	143205
650.037	31678
650.094	22614
650.152	22160
650.210	20136
650.268	20690
650.325	19280
650.383	18237
650.440	17028
650.498	16737
650.556	17053
650.613	16841
650.671	18205
650.728	17570
650.786	18904
650.843	24268
650.901	18805
650.958	16462
651.016	16015
651.073	15307
651.131	15308
651.188	13851
651.246	14587
651.303	14819
651.360	14472
651.418	15106
651.475	14520
651.532	13339
651.590	14574
651.647	13566
651.704	13184
651.762	13092
651.819	14004
651.876	12654
651.933	12640
651.990	12978
652.048	10939
652.105	12154
652.162	13267
652.219	12521
652.276	12761
652.333	12121
652.390	10814
652.448	12243
652.505	12250
652.562	12178
652.619	11957
652.676	11872
652.733	13075
652.790	11348
652.847	11002
652.904	11489
652.961	9979
653.017	11027
653.074	12636
653.131	11515
653.188	10916
653.245	11525
653.302	10803
653.359	10245
653.415	12169
653.472	10969
653.529	11323
653.586	10401
653.642	10359
653.699	11079
653.756	9889
653.813	10827
653.869	10994
653.926	10463
653.983	9621
654.039	11364
654.096	10710
654.152	10985
654.209	9523
654.266	11034
654.322	9737
654.379	10237
654.435	10047
654.492	9856
654.548	10308
654.605	8930
654.661	10826
654.717	8901
654.774	10888
654.830	10907
654.887	10974
654.943	9823
655.000	9960
655.056	10189
655.112	10207
655.168	8759
655.225	9420
655.281	10265
655.337	10923
655.394	9865
655.450	9335
655.506	9935
655.562	8750
655.618	10249
655.675	8007
655.731	9680
655.787	8901
655.843	10730
655.899	9388
655.955	10298
656.011	9924
656.067	9706
656.123	9799
656.179	10038
656.235	10897
656.291	8818
656.347	11310
656.403	9212
656.459	10445
656.515	9733
656.571	9840
656.627	9354
656.683	9288
656.739	9849
656.795	9585
656.850	9803
656.906	10350
656.962	10561
657.018	10064
657.074	12118
657.129	17448
657.185	24768
657.241	52474
657.297	27677
657.352	11737
657.408	9539
657.464	9377
657.519	8950
657.575	8000
657.630	8508
657.686	8761
657.742	8360
657.797	8028
657.853	8820
657.908	9489
657.964	8022
658.019	8953
658.075	8214
658.130	8747
658.186	6957
658.241	8951
658.297	7075
658.352	7771
658.407	8051
658.463	6866
658.518	7924
658.573	8121
658.629	7310
658.684	7436
658.739	8068
658.795	7249
658.850	7728
658.905	7075
658.960	7163
659.016	7056
659.071	6568
659.126	7823
659.181	7191
659.236	8169
659.291	8128
659.346	7729
659.401	7765
659.457	8521
659.512	6343
659.567	7796
659.622	7409
659.677	6991
659.732	6672
659.787	8252
659.842	7299
659.897	6516
659.952	6526
660.007	7227
660.061	7455
660.116	6463
660.171	6199
660.226	7010
660.281	7460
660.336	6874
660.391	6994
660.445	6223
660.500	7488
660.555	6600
660.610	6381
660.664	7447
660.719	6655
660.774	7813
660.828	7297
660.883	7356
660.938	7417
660.992	5721
661.047	7347
661.101	6696
661.156	6025
661.211	6194
661.265	6110
661.320	6905
661.374	6611
661.429	6947
661.483	7376
661.538	6087
661.592	6549
661.647	7269
661.701	6537
661.755	6802
661.810	5341
661.864	6049
661.919	5370
661.973	6658
662.027	5995
662.081	5733
662.136	6265
662.190	6350
662.244	6228
662.299	6029
662.353	6073
662.407	5683
662.461	6933
662.515	6830
662.569	5450
662.624	6603
662.678	6262
662.732	5922
662.786	6315
662.840	5475
662.894	6003
662.948	6347
663.002	5765
663.056	5942
663.110	5783
663.164	6575
663.218	7071
663.272	6375
663.326	6604
663.380	5133
663.434	6522
663.488	6140
663.542	6580
663.595	6645
663.649	5687
663.703	6221
663.757	6242
663.811	6598
663.864	5887
663.918	5258
663.972	5613
664.026	6225
664.079	5974
664.133	7438
664.187	6345
664.240	6509
664.294	5967
664.348	6344
664.401	5878
664.455	5714
664.508	6444
664.562	6112
664.615	5358
664.669	5974
664.722	6384
664.776	5399
664.829	6194
664.883	5991
664.936	5638
664.990	5927
665.043	6237
665.097	5892
665.150	7182
665.203	6338
665.257	6109
665.310	7183
665.363	7245
665.417	6705
665.470	6672
665.523	6567
665.576	6810
665.630	6261
665.683	7281
665.736	7244
665.789	6121
665.842	6850
665.895	5813
665.949	6671
666.002	6447
666.055	7009
666.108	7072
666.161	6127
666.214	7365
666.267	7218
666.320	7116
666.373	7125
666.426	6654
666.479	6673
666.532	5748
666.585	6758
666.638	7038
666.691	6870
666.744	7476
666.796	6947
666.849	7291
666.902	7712
666.955	7103
667.008	7001
667.060	6190
667.113	6970
667.166	7308
667.219	7806
667.271	7554
667.324	7262
667.377	7241
667.430	7304
667.482	6986
667.535	7040
667.587	6823
667.640	7101
667.693	6340
667.745	7686
667.798	7024
667.850	7210
667.903	7643
667.955	7453
668.008	7148
668.060	6564
668.113	7183
668.165	6732
668.218	6241
668.270	6563
668.322	7122
668.375	6904
668.427	7311
668.479	6650
668.532	7416
668.584	6052
668.636	7095
668.689	6773
668.741	6752
668.793	5639
668.845	6877
668.898	7167
668.950	6650
669.002	6718
669.054	6392
669.106	6473
669.158	6107
669.211	6757
669.263	5971
669.315	7148
669.367	6030
669.419	5480
669.471	6255
669.523	5719
669.575	6269
669.627	5760
669.679	5283
669.731	6313
669.783	6062
669.835	6035
669.886	6603
669.938	6056
669.990	5985
670.042	5759
670.094	6312
670.146	6415
670.197	6972
670.249	6085
670.301	5344
670.353	6817
670.404	7089
670.456	7055
670.508	7218
670.560	11129
670.611	13928
670.663	19425
670.715	43466
670.766	59705
670.818	16283
670.869	7884
670.921	7533
670.972	7470
671.024	5975
671.075	6610
671.127	6427
671.178	6590
671.230	6613
671.281	7684
671.333	9242
671.384	9581
671.436	11646
671.487	17783
671.538	24185
671.590	36849
671.641	58464
671.692	104384
671.744	183918
671.795	125563
671.846	48010
671.897	24613
671.949	16199
672.000	13080
672.051	9571
672.102	8163
672.153	6934
672.204	7419
672.256	6734
672.307	6571
672.358	5428
672.409	5223
672.460	5119
672.511	4784
672.562	4597
672.613	4749
672.664	4601
672.715	5029
672.766	4136
672.817	4283
672.868	4340
672.919	4429
672.970	3907
673.021	3329
673.071	4001
673.122	4552
673.173	3287
673.224	4230
673.275	3399
673.326	4114
673.376	3868
673.427	3647
673.478	4252
673.528	4895
673.579	4375
673.630	4848
673.680	5473
673.731	4360
673.782	3430
673.832	4710
673.883	4288
673.934	4160
673.984	3994
674.035	3841
674.085	4297
674.136	4041
674.186	3759
674.237	3415
674.287	3157
674.338	3917
674.388	3856
674.438	4363
674.489	3819
674.539	4510
674.589	4873
674.640	4763
674.690	4951
674.740	4220
674.791	4853
674.841	4151
674.891	3093
674.942	2975
674.992	3121
675.042	3944
675.092	2885
675.142	2845
675.193	3320
675.243	2833
675.293	3059
675.343	4100
675.393	3475
675.443	3704
675.493	3558
675.543	2934
675.593	2761
675.643	3880
675.693	3389
675.743	3936
675.793	2750
675.843	2585
675.893	3361
675.943	3518
675.993	2828
676.043	3564
676.093	3013
676.142	2741
676.192	3081
676.242	2872
676.292	3083
676.341	2386
676.391	2401
676.441	2394
676.491	2665
676.540	2625
676.590	2713
676.640	3559
676.689	1828
676.739	2106
676.789	2576
676.838	2567
676.888	2463
676.937	2404
676.987	2470
677.037	2368
677.086	1360
677.136	2857
677.185	1910
677.235	2449
677.284	1862
677.333	3023
677.383	1801
677.432	2239
677.482	2416
677.531	2719
677.580	1742
677.630	1806
677.679	1788
677.728	2710
677.778	2758
677.827	2181
677.876	2482
677.925	1777
677.975	3158
678.024	3478
678.073	2778
678.122	2041
678.171	2753
678.220	2655
678.269	3039
678.319	4205
678.368	3778
678.417	3249
678.466	2843
678.515	2821
678.564	1822
678.613	2234
678.662	1276
678.711	2074
678.760	2074
678.809	1994
678.857	2853
678.906	2151
678.955	1845
679.004	2783
679.053	1368
679.102	1812
679.151	1910
679.199	2105
679.248	1246
679.297	1993
679.346	2079
679.394	1138
679.443	2240
679.492	1994
679.540	2275
679.589	1859
679.638	1888
679.686	2631
679.735	3076
679.784	2728
679.832	3049
679.881	2982
679.929	1678
679.978	2329
680.026	1934
680.075	2216
680.123	1480
680.172	1769
680.220	1716
680.268	2569
680.317	1153
680.365	1071
680.414	1203
680.462	2148
680.510	2298
680.559	2485
680.607	1670
680.655	1851
680.703	1503
680.752	2442
680.800	1402
680.848	1518
680.896	1629
680.945	1392
680.993	1749
681.041	1166
681.089	1919
681.137	1866
681.185	2198
681.233	1859
681.258	1711
681.281	1541
681.329	746
681.377	966
681.380	1040
681.425	1825
681.473	1657
681.502	1622
681.521	1536
681.569	3047
681.617	2315
681.624	2321
681.665	2098
681.713	2748
681.745	2907
681.761	2936
681.809	2305
681.857	2522
681.867	2560
681.904	2554
681.952	3032
681.989	3091
682.000	3066
682.048	2706
682.096	2605
682.111	2658
682.143	2668
682.191	2825
682.233	2988
682.239	2978
682.286	3019
682.334	3587
682.354	3578
682.382	3528
682.430	3775
682.476	3331
682.477	3291
682.525	3488
682.572	3163
682.598	2879
682.620	2596
682.667	3693
682.715	3044
682.720	3126
682.763	3542
682.810	3452
682.841	4081
682.857	4378
682.905	3330
682.952	3304
682.963	3378
683.000	3516
683.047	3563
683.085	4527
683.095	4752
683.142	5100
683.190	4291
683.206	4201
683.237	3946
683.284	4585
683.328	4627
683.332	4608
683.379	3920
683.426	4483
683.449	4451
683.473	4411
683.521	3385
683.568	5054
683.571	5099
683.615	5222
683.662	4741
683.693	4651
683.709	4585
683.757	3789
683.804	4667
683.814	4640
683.851	4463
683.898	4768
683.936	5146
683.945	5239
683.992	5391
684.039	4751
684.057	5127
684.086	5543
684.133	5689
684.179	4436
684.180	4377
684.227	5189
684.274	5727
684.300	5733
684.321	5751
684.368	4949
684.415	5474
684.422	5491
684.462	5561
684.509	5395
684.543	6477
684.556	6808
684.603	6688
684.649	5910
684.665	5815
684.696	5565
684.743	6049
684.786	6078
684.790	6060
684.837	6215
684.883	6521
684.908	6389
684.930	6284
684.977	7106
685.023	6569
685.029	6619
685.070	6684
685.117	7338
685.150	6776
685.164	6600
685.210	6663
685.257	7455
685.272	7372
685.303	7098
685.350	7990
685.393	7243
685.396	7163
685.443	6802
685.490	6826
685.514	6865
685.536	6932
685.583	6987
685.629	6251
685.636	6307
685.675	6670
685.722	6728
685.757	7048
685.768	7108
685.815	7589
685.861	7265
685.878	7172
685.908	7077
685.954	7309
686.000	7284
686.000	7276
686.047	8147
686.093	7890
686.121	8063
686.139	8105
686.185	8036
686.232	7831
686.242	7837
686.278	7892
686.324	8195
686.363	8254
686.370	8262
686.416	8522
686.463	8906
686.484	8691
686.509	8380
686.555	7908
686.601	8217
686.606	8244
686.647	8573
686.693	8645
686.727	8369
686.739	8218
686.785	8665
686.831	8235
686.848	8274
686.877	8399
686.923	8238
686.969	8321
686.969	8322
687.015	8671
687.061	9299
687.090	9422
687.107	9311
687.153	9840
687.199	8734
687.211	8843
687.245	9256
687.291	8786
687.332	8713
687.336	8722
687.382	9119
687.428	9576
687.453	9460
687.474	9228
687.520	9665
687.565	9288
687.574	9191
687.611	9291
687.657	10335
687.695	10945
687.702	11000
687.748	10647
687.794	10849
687.816	10720
687.839	10456
687.885	10312
687.931	10249
687.937	10228
687.976	10308
688.022	10737
688.058	10424
688.067	10352
688.113	10061
688.158	10078
688.179	10171
688.204	10348
688.249	10345
688.295	10681
688.300	10688
688.340	10747
688.386	10779
688.421	10820
688.431	10865
688.477	10756
688.522	11161
688.542	11167
688.567	11325
688.613	11753
688.658	12248
688.663	12284
688.703	12157
688.749	12112
688.784	12251
688.794	12333
688.839	11841
688.884	11802
688.905	11697
688.930	11452
688.975	11532
689.020	11470
689.026	11353
689.065	10906
689.110	11131
689.146	11289
689.155	11344
689.201	10998
689.246	11634
689.267	11594
689.291	11581
689.336	12168
689.381	11429
689.388	11476
689.426	11849
689.471	12070
689.509	12047
689.516	12050
689.561	12057
689.606	12037
689.630	12274
689.651	12443
689.696	11595
689.741	12134
689.750	12077
689.785	12209
689.830	12436
689.871	12554
689.875	12536
689.920	12548
689.965	12578
689.992	12220
690.010	12109
690.054	12229
690.099	11934
690.112	12059
690.144	12431
690.189	11898
690.233	12012
690.233	12030
690.278	12034
690.323	12223
690.354	12406
690.367	12531
690.412	12708
690.457	12769
690.474	12798
690.501	12666
690.546	12655
690.590	12471
690.595	12392
690.635	12122
690.680	11826
690.716	12079
690.724	12152
690.769	12250
690.813	12604
690.836	12462
690.857	12793
690.902	13468
690.946	15003
690.957	15035
690.991	15089
691.035	16316
691.077	16573
691.080	16551
691.124	16157
691.168	15576
691.198	15197
691.213	15023
691.257	14553
691.301	13765
691.318	13494
691.346	13323
691.390	12762
691.434	12723
691.439	12644
691.478	12722
691.522	13549
691.559	13417
691.567	13412
691.611	13692
691.655	14273
691.680	14225
691.699	14151
691.743	14523
691.787	14495
691.800	14503
691.831	14489
691.875	14273
691.919	13977
691.921	13940
691.964	13797
692.008	14210
692.041	14005
692.052	13998
692.096	14272
692.139	14556
692.162	14551
692.183	14503
692.227	14443
692.271	14233
692.282	14182
692.315	13971
692.359	13668
692.402	13046
692.403	13072
692.447	13321
692.490	14084
692.523	14108
692.534	14124
692.578	13967
692.622	13982
692.643	14006
692.666	14148
692.709	14529
692.753	14295
692.763	14366
692.797	14449
692.840	14029
692.884	14134
692.884	14167
692.928	13953
692.971	14280
693.004	14437
693.015	14496
693.059	14375
693.102	14576
693.124	14681
693.146	14822
693.189	14351
693.233	14683
693.245	14656
693.276	14881
693.320	14987
693.363	15200
693.365	15183
693.407	15244
693.450	14838
693.485	14870
693.493	15020
693.537	15206
693.580	15565
693.605	15899
693.624	16228
693.667	16769
693.710	17019
693.725	17196
693.753	18535
693.797	20151
693.840	22502
693.845	22621
693.883	20912
693.926	19615
693.966	18202
693.970	18165
694.013	17331
694.056	16499
694.086	15915
694.099	15843
694.142	15395
694.185	15163
694.206	15008
694.229	15324
694.272	15761
694.315	16280
694.326	16315
694.358	16292
694.401	16162
694.444	16711
694.446	16678
694.487	16787
694.530	16656
694.566	16743
694.573	16746
694.616	16316
694.659	16298
694.686	16154
694.702	16323
694.745	16479
694.787	16729
694.806	16756
694.830	16740
694.873	16887
694.916	16853
694.926	16835
694.959	17270
695.002	17644
695.044	18062
695.046	18043
695.087	18054
695.130	17826
695.166	17631
695.172	17698
695.215	17975
695.258	18052
695.286	18125
695.301	18370
695.343	19165
695.386	19845
695.406	19993
695.428	20741
695.471	22328
695.514	23974
695.526	24391
695.556	25629
695.599	27238
695.641	28773
695.646	28882
695.684	27469
695.726	25624
695.766	24089
695.769	24101
695.811	23164
695.854	22527
695.886	21931
695.896	22126
695.938	22742
695.981	23097
696.005	23496
696.023	24296
696.065	25684
696.108	27342
696.125	27967
696.150	28202
696.192	28215
696.235	28462
696.245	28451
696.277	28886
696.319	29285
696.361	29640
696.365	29614
696.404	29336
696.446	28789
696.485	28251
696.488	28309
696.530	28092
696.572	28097
696.604	27879
696.614	27833
696.656	27347
696.698	26973
696.724	26689
696.740	27123
696.783	27970
696.825	28898
696.844	29242
696.867	29269
696.909	29061
696.951	28954
696.964	28885
696.992	29326
697.034	29817
697.076	30212
697.083	30190
697.118	30837
697.160	31811
697.202	32563
697.203	32507
697.244	32097
697.286	31426
697.323	30812
697.327	30943
697.369	31441
697.411	31966
697.442	32260
697.453	32287
697.494	32064
697.536	31815
697.562	31618
697.578	31843
697.620	32201
697.661	32479
697.682	32599
697.703	33208
697.744	34199
697.786	35230
697.801	35487
697.828	35265
697.869	34771
697.911	34376
697.921	34161
697.952	34178
697.994	34186
698.035	34173
698.040	34076
698.077	33964
698.118	33796
698.160	33687
698.160	33601
698.201	35280
698.243	36918
698.279	38235
698.284	38368
698.325	38767
698.367	39108
698.399	39257
698.408	39507
698.449	40214
698.491	40948
698.518	41292
698.532	41360
698.573	41321
698.614	41233
698.638	41070
698.656	41139
698.697	41087
698.738	41015
698.757	40885
698.779	40737
698.820	40240
698.862	39737
698.877	39457
698.903	39665
698.944	39818
698.985	39978
698.996	39920
699.026	40093
699.067	40187
699.116	40196
699.235	41583
699.354	39830
699.474	36517
699.593	35850
699.713	36447
699.832	38636
699.951	39880
700.070	38423
700.190	36114
700.309	33854
700.428	34377
700.547	32914
700.667	33887
700.786	34475
700.905	32077
701.024	32557
701.143	31276
701.262	34611
701.381	33748
701.500	34515
701.619	33404
701.738	33980
701.857	33411
701.976	31540
702.095	33052
702.214	34421
702.333	31834
702.452	34253
702.571	35287
702.690	34552
702.809	33867
702.928	30934
703.047	30191
703.165	31384
703.284	30136
703.403	30660
703.522	30124
703.640	29400
703.759	28982
703.878	27836
703.997	29126
704.115	29111
704.234	29122
704.353	29842
704.471	26689
704.590	28320
704.708	26901
704.827	26838
704.946	26231
705.064	27455
705.183	25983
705.301	27074
705.420	25283
705.538	25475
705.656	23536
705.775	23385
705.893	25195
706.012	24251
706.130	24473
706.249	25360
706.367	22735
706.485	23820
706.604	22855
706.722	22915
706.840	24853
706.958	25278
707.077	22443
707.195	21948
707.313	22966
707.431	21759
707.549	22044
707.668	19986
707.786	24154
707.904	22501
708.022	23391
708.140	21748
708.258	20133
708.376	22548
708.494	20307
708.612	22301
708.730	22037
708.848	20605
708.966	21295
709.084	20521
709.202	21690
709.320	19662
709.438	20160
709.556	20209
709.674	17903
709.791	19017
709.909	18231
710.027	18448
710.145	17587
710.263	18902
710.380	18720
710.498	17267
710.616	18420
710.733	17260
710.851	17953
710.969	17769
711.086	17590
711.204	17894
711.322	17906
711.439	17536
711.557	16513
711.674	17030
711.792	17024
711.909	16361
712.027	15874
712.144	15679
712.262	17288
712.379	16945
712.497	16481
712.614	15551
712.732	16803
712.849	15795
712.966	16467
713.084	17452
713.201	14821
713.318	15440
713.436	17295
713.553	15707
713.670	17245
713.787	16965
713.905	15268
714.022	15876
714.139	17646
714.256	18978
714.373	27539
714.490	49046
714.608	124839
714.725	460905
714.842	361374
714.959	46133
715.076	22411
715.193	19155
715.310	17867
715.427	14174
715.544	15811
715.661	16367
715.778	14919
715.895	14503
716.011	14284
716.128	14330
716.245	14466
716.362	13970
716.479	12142
716.596	13445
716.713	13006
716.829	13556
716.946	12936
717.063	12678
717.180	12000
717.296	12454
717.413	12589
717.530	12008
717.646	11741
717.763	11605
717.880	11957
717.996	11493
718.113	11339
718.229	10712
718.346	11234
718.462	10640
718.579	11988
718.695	10877
718.812	11772
718.928	10802
719.045	11221
719.161	11001
719.277	12211
719.394	12548
719.510	12350
719.626	13146
719.743	14625
719.859	22848
719.975	46658
720.092	180476
720.208	317522
720.324	39542
720.440	15472
720.557	12678
720.673	12011
720.789	11369
720.905	10494
721.021	11447
721.137	11709
721.253	9909
721.369	9661
721.486	10830
721.602	9239
721.718	9761
721.834	9656
721.950	9785
722.066	9234
722.181	9565
722.297	8870
722.413	10060
722.529	9987
722.645	9225
722.761	9993
722.877	8668
722.993	10643
723.108	12046
723.224	10822
723.340	8719
723.456	9429
723.571	8710
723.687	7923
723.803	9579
723.918	8833
724.034	8269
724.150	9401
724.265	8378
724.381	8621
724.497	8034
724.612	9110
724.728	8423
724.843	7040
724.959	7828
725.074	9609
725.190	8987
725.305	9254
725.421	8155
725.536	8163
725.651	9083
725.767	9227
725.882	8816
725.997	7850
726.113	9008
726.228	8265
726.343	7916
726.459	8804
726.574	8286
726.689	8569
726.804	8757
726.920	8393
727.035	8639
727.150	8291
727.265	7764
727.380	7385
727.495	8210
727.610	7911
727.725	7319
727.841	8693
727.956	7220
728.071	8271
728.186	6635
728.301	7273
728.416	8771
728.531	7938
728.645	7387
728.760	7830
728.875	7764
728.990	7443
729.105	7905
729.220	7676
729.335	7595
729.449	7408
729.564	6970
729.679	7059
729.794	8623
729.908	8101
730.023	7617
730.138	8300
730.253	7412
730.367	8344
730.482	7825
730.596	7689
730.711	8888
730.826	13226
730.940	11670
731.055	10976
731.169	10360
731.284	11076
731.398	10452
731.513	11549
731.627	12589
731.742	16227
731.856	19098
731.970	18540
732.085	22682
732.199	30433
732.313	51165
732.428	130894
732.542	344546
732.656	172722
732.771	41809
732.885	26492
732.999	25929
733.113	28002
733.227	27564
733.342	26472
733.456	25773
733.570	24819
733.684	23958
733.798	22399
733.912	22650
734.026	22656
734.140	23635
734.254	22034
734.368	22043
734.482	22312
734.596	22653
734.710	20594
734.824	21167
734.938	20409
735.052	21195
735.166	21710
735.280	21451
735.393	19989
735.507	19841
735.621	20220
735.735	19272
735.849	19988
735.962	18813
736.076	20444
736.190	18682
736.303	18811
736.417	19323
736.531	18207
736.644	18560
736.758	18955
736.872	18315
736.985	18286
737.099	16809
737.212	17712
737.326	16341
737.439	18083
737.553	16201
737.666	17830
737.780	15988
737.893	18261
738.007	17309
738.120	17726
738.233	15197
738.347	16590
738.460	15393
738.573	18195
738.687	15134
738.800	16535
738.913	17667
739.026	16002
739.140	15171
739.253	16039
739.366	15034
739.479	15749
739.592	15846
739.705	14490
739.818	17497
739.932	13575
740.045	15807
740.158	14178
740.271	14899
740.384	14193
740.497	14245
740.610	15409
740.723	14000
740.836	14352
740.949	14893
741.062	15535
741.174	13366
741.287	14535
741.400	14094
741.513	13311
741.626	13518
741.739	12751
741.851	13758
741.964	13987
742.077	12825
742.189	11697
742.302	13558
742.415	12098
742.527	12839
742.640	12180
742.753	11356
742.865	12873
742.978	11625
743.090	12115
743.203	13557
743.316	11680
743.428	11904
743.541	12138
743.653	10778
743.766	12507
743.878	11739
743.990	10106
744.103	11927
744.215	12442
744.327	10309
744.440	14112
744.552	10922
744.664	10570
744.777	11991
744.889	10598
745.001	10462
745.113	12313
745.226	9604
745.338	11221
745.450	12521
745.562	10468
745.674	10010
745.786	12204
745.898	10397
746.010	10254
746.122	11008
746.234	11036
746.347	10981
746.459	11315
746.570	9174
746.682	11604
746.794	13599
746.906	9114
747.018	10396
747.130	10886
747.242	9205
747.354	10461
747.466	10338
747.577	8963
747.689	8934
747.801	9890
747.913	9514
748.024	9837
748.136	9121
748.248	8688
748.359	9061
748.471	10075
748.583	8468
748.694	8112
748.806	9561
748.918	9378
749.029	8318
749.141	8696
749.252	8656
749.364	7509
749.475	7896
749.587	7432
749.698	8443
749.809	9522
749.921	8040
750.032	8597
750.144	8241
750.255	8213
750.366	9029
750.478	7854
750.589	8513
750.700	7557
750.811	9340
750.923	8149
751.034	7352
751.145	8684
751.256	8026
751.367	8037
751.479	8142
751.590	7570
751.701	7610
751.812	6770
751.923	7644
752.034	10341
752.145	7750
752.256	8301
752.367	7228
752.478	8097
752.589	7797
752.700	7390
752.811	6796
752.922	7250
753.032	7910
753.143	8355
753.254	6262
753.365	9591
753.476	7127
753.586	7601
753.697	7247
753.808	7954
753.919	6904
754.029	6575
754.140	6951
754.251	7209
754.361	6918
754.472	7954
754.582	5876
754.693	7132
754.804	8065
754.914	6998
755.025	6042
755.135	7625
755.246	7133
755.356	6152
755.466	6504
755.577	6712
755.687	6336
755.798	6608
755.908	6448
756.018	6568
756.129	7156
756.239	6480
756.349	7167
756.460	6371
756.570	6809
756.680	7198
756.790	7153
756.900	7382
757.011	6263
757.121	6057
757.231	6053
757.341	6023
757.451	6410
757.561	5301
757.671	5705
757.781	7015
757.891	6105
758.001	5584
758.111	7116
758.221	6405
758.331	6864
758.441	6083
758.551	6576
758.661	6669
758.771	6319
758.880	7014
758.990	5483
759.100	5652
759.210	6130
759.320	6580
759.429	6085
759.539	7095
759.649	6213
759.758	8517
759.868	8209
759.978	7855
760.087	8352
760.197	8290
760.307	8532
760.416	8126
760.526	7091
760.635	7777
760.745	8528
760.854	9568
760.964	9197
761.073	9592
761.182	9220
761.292	7941
761.401	6974
761.511	6466
761.620	5388
761.729	6694
761.839	6349
761.948	5168
762.057	5497
762.166	6145
762.276	4656
762.385	6145
762.494	5983
762.603	5682
762.712	5647
762.822	6161
762.931	5247
763.040	5058
763.149	5340
763.258	5170
763.367	5444
763.476	5705
763.585	5370
763.694	5089
763.803	4778
763.912	6339
764.021	5879
764.130	5699
764.238	6347
764.347	6011
764.456	7019
764.565	7113
764.674	6530
764.783	5947
764.891	5776
765.000	6927
765.109	6140
765.217	6831
765.326	8339
765.435	8976
765.543	9791
765.652	10652
765.761	12694
765.869	16520
765.978	24078
766.086	42306
766.195	79233
766.303	188912
766.412	369344
766.520	280454
766.629	118862
766.737	50817
766.846	29578
766.954	20171
767.062	17071
767.171	12049
767.279	11351
767.387	9562
767.496	8385
767.604	8244
767.712	7346
767.820	7579
767.928	6168
768.037	5682
768.145	6632
768.253	5676
768.361	5350
768.469	6719
768.577	5403
768.685	7365
768.793	6990
768.901	7118
769.009	7386
769.117	7322
769.225	10078
769.333	12720
769.441	19102
769.549	33492
769.657	74654
769.765	205276
769.873	293160
769.981	130064
770.088	40826
770.196	21847
770.304	16500
770.412	12799
770.519	11183
770.627	10617
770.735	9348
770.842	9558
770.950	8673
771.058	9032
771.165	9783
771.273	11474
771.380	11249
771.488	16715
771.595	17014
771.703	14589
771.810	13220
771.918	14129
772.025	17164
772.133	19787
772.240	17898
772.348	21439
772.455	20576
772.562	17454
772.670	16544
772.777	18102
772.884	18020
772.991	15790
773.099	18481
773.206	16390
773.313	16650
773.420	16589
773.528	15647
773.635	16012
773.742	18087
773.849	16067
773.956	16904
774.063	15735
774.170	16205
774.277	16538
774.384	14969
774.491	14574
774.598	15061
774.705	14206
774.812	15863
774.919	15377
775.026	14061
775.133	14613
775.239	14004
775.346	14179
775.453	14271
775.560	13651
775.667	14188
775.773	13319
775.880	13111
775.987	13275
776.093	14030
776.200	15549
776.307	10612
776.413	12001
776.520	15398
776.627	12673
776.733	11572
776.840	10976
776.946	17551
777.053	14570
777.159	14701
777.266	12367
777.372	13855
777.478	15363
777.585	13087
777.691	10695
777.798	13160
777.904	11118
778.010	11125
778.117	12085
778.223	10870
778.329	11380
778.435	10517
778.542	13545
778.648	10963
778.754	10430
778.860	11795
778.966	10450
779.072	10723
779.178	11013
779.284	8696
779.391	10479
779.497	11357
779.603	12267
779.708	9447
779.815	10517
779.920	15112
780.026	15855
780.132	11341
780.238	10778
780.344	8788
780.450	12704
780.556	8800
780.661	9064
780.767	11554
780.873	7740
780.979	9541
781.085	10576
781.190	9034
781.296	9546
781.402	9845
781.507	9475
781.613	6720
781.719	8643
781.824	10212
781.930	8812
782.035	9552
782.141	10899
782.246	7263
782.352	8145
782.457	8924
782.563	9193
782.668	8843
782.773	7490
782.879	7064
782.984	8285
783.090	8734
783.195	8633
783.300	9195
783.405	8369
783.511	6846
783.616	7094
783.721	8897
783.826	7782
783.932	7302
784.037	7723
784.142	8089
784.247	7537
784.352	8175
784.457	5994
784.562	7631
784.667	7610
784.772	5625
784.877	5237
784.982	9198
785.087	8031
785.192	7177
785.297	6305
785.402	7586
785.507	7138
785.611	7618
785.716	4952
785.821	6833
785.926	7174
786.031	6826
786.135	6279
786.240	7024
786.345	5275
786.450	5801
786.554	6472
786.659	5958
786.763	5512
786.868	6942
786.973	7398
787.077	5633
787.182	5071
787.286	7396
787.391	7395
787.495	4316
787.600	4762
787.704	6171
787.809	7406
787.913	6761
788.017	7357
788.122	7423
788.226	5597
788.330	4560
788.435	6723
788.539	7010
788.643	5578
788.747	4044
788.852	6267
788.956	5221
789.060	6684
789.164	5942
789.268	4585
789.372	7037
789.476	5246
789.580	4072
789.684	4189
789.788	6615
789.892	5995
789.996	5080
790.100	4413
790.204	6705
790.308	7817
790.412	4375
790.516	4513
790.620	4299
790.724	7127
790.828	4783
790.931	2477
791.035	6093
791.139	4614
791.242	4871
791.346	5951
791.450	5273
791.554	5183
791.657	2743
791.761	4781
791.864	5561
791.968	5599
792.072	6341
792.175	3966
792.279	4291
792.382	4399
792.486	4334
792.589	4380
792.693	4806
792.796	3607
792.899	5208
793.003	5347
793.106	3984
793.209	4267
793.313	3976
793.416	2386
793.519	4320
793.623	6243
793.726	4059
793.829	3385
793.932	3040
794.035	2675
794.138	5956
794.242	6717
794.345	2768
794.448	3406
794.551	2540
794.654	6743
794.757	6908
794.860	4138
794.963	5139
795.066	2830
795.169	5276
795.272	3834
795.375	4937
795.477	2882
795.580	3153
795.683	3201
795.786	4493
795.889	2738
795.991	3897
796.094	5006
796.197	2785
796.300	4999
796.402	4701
796.505	2320
796.608	2453
796.710	4637
796.813	4727
796.915	4708
797.018	4644
797.120	4229
797.223	2980
797.326	5435
797.428	3460
797.530	2590
797.633	3433
797.735	4407
797.838	3727
797.940	5423
798.042	3967
798.145	3156
798.247	3808
798.349	1878
798.452	4651
798.554	3547
798.656	3201
798.758	5034
798.860	3678
798.962	2655
799.065	2821
799.167	1988
799.269	3459
799.371	4899
799.473	5258
799.575	3952
799.677	2861
799.779	3347
799.881	1744
799.983	3660
800.085	2471
800.187	2997
800.289	1332
800.390	2132
800.492	4629
800.594	5028
800.696	1751
800.798	3010
800.899	2257
801.001	2824
801.103	2603
801.205	3873
801.306	3421
801.408	2255
801.509	3164
801.611	3925
801.713	3434
801.814	2452
801.916	1944
802.017	1832
802.119	2044
802.220	3202
802.322	1626
802.423	3952
802.525	1570
802.626	2532
802.727	3428
802.829	3565
802.930	-307
803.031	4050
803.133	2555
803.234	3456
803.335	2971
803.436	1819
803.538	2803
803.639	1855
803.740	3299
803.841	2631
803.942	3553
804.043	3429
804.144	2085
804.245	2499
804.346	2218
804.447	2367
804.548	1860
804.649	3379
804.750	2278
804.851	1247
804.952	2346
805.053	3220
805.154	1707
805.255	3781
805.355	2500
805.456	2528
805.557	1531
805.658	1451
805.758	2757
805.859	2847
805.960	2996
806.061	1873
806.161	2438
806.262	2135
806.362	1800
806.463	2035
806.564	3741
806.664	2945
806.765	1749
806.865	2886
806.966	1661
807.066	1208
807.166	3453
807.267	3057
807.367	1574
807.468	2838
807.568	784
807.668	2510
807.769	3102
807.869	1726
807.969	2501
808.069	1955
808.170	1785
808.270	1757
808.370	2281
808.470	2276
808.570	1015
808.670	1964
808.770	2592
808.870	1662
808.970	1760
809.070	1630
809.170	194
809.271	3282
809.370	1699
809.470	2841
809.570	1014
809.670	1798
809.770	2191
809.870	2995
809.970	2244
810.070	1733
810.169	2563
810.269	976
810.369	3213
810.469	1669
810.568	2022
810.668	1834
810.768	1632
810.867	1990
810.967	1392
811.066	1590
811.166	2148
811.265	2677
811.365	1020
811.464	1299
811.564	2097
811.663	3028
811.763	1544
811.862	2406
811.962	2818
812.061	1514
812.160	1558
812.260	1909
812.359	2166
812.458	2065
812.557	2308
812.657	1505
812.756	2614
812.855	1864
812.954	2025
813.053	2277
813.153	3506
813.252	1813
813.351	2294
813.450	2880
813.549	2078
813.648	2214
813.747	2174
813.846	2759
813.945	2163
814.044	3322
814.143	2482
814.242	3183
814.341	1894
814.439	2204
814.538	3106
814.637	2406
814.736	3791
814.835	2912
814.933	2753
815.032	5173
815.131	5692
815.229	11966
815.328	15564
815.427	11193
815.525	9467
815.624	10869
815.722	9645
815.821	11277
815.919	10648
816.018	9616
816.116	10527
816.215	10221
816.313	11529
816.412	13375
816.510	13532
816.609	15433
816.707	14765
816.805	13257
816.904	13057
817.002	12467
817.100	13477
817.198	14859
817.296	11786
817.395	12512
817.493	12561
817.591	11790
817.689	12053
817.787	12244
817.885	11338
817.983	10513
818.081	12803
818.179	12798
818.277	17276
818.375	13872
818.473	11341
818.571	11307
818.669	11931
818.767	12463
818.865	10776
818.963	10138
819.061	11552
819.158	11043
819.256	13214
819.354	13127
819.452	18649
819.549	13714
819.647	12562
819.745	8969
819.842	9333
819.940	10980
820.038	9850
820.135	8675
820.233	11363
820.330	10049
820.428	9173
820.525	11288
820.623	9273
820.720	8878
820.818	9759
820.915	10603
821.012	9845
821.110	8400
821.207	10413
821.304	8034
821.402	9506
821.499	11034
821.596	8948
821.693	9755
821.791	9967
821.888	9997
821.985	9873
822.082	7919
822.179	10169
822.276	10165
822.373	6937
822.470	7742
822.567	9674
822.664	7232
822.761	8330
822.858	8928
822.955	7831
823.052	7327
823.149	8463
823.246	9646
823.343	6232
823.440	6972
823.536	8970
823.633	8748
823.730	7208
823.827	8508
823.923	7987
824.020	7072
824.117	8760
824.213	8807
824.310	6746
824.407	5667
824.503	7988
824.600	7546
824.696	5795
824.793	9304
824.889	7798
824.986	6395
825.082	5147
825.179	6614
825.275	8501
825.371	9122
825.468	5737
825.564	4118
825.660	8444
825.757	8857
825.853	7204
825.949	4553
826.045	5641
826.142	7181
826.238	6768
826.334	7905
826.430	5970
826.526	4990
826.622	4783
826.718	7447
826.814	8770
826.910	7099
827.006	4100
827.102	4331
827.198	6679
827.294	7803
827.390	6972
827.486	4644
827.582	3117
827.678	4836
827.774	8028
827.869	4259
827.965	5186
828.061	3924
828.157	7690
828.252	6208
828.348	4869
828.444	5341
828.539	4681
828.635	6281
828.731	6320
828.826	4320
828.922	5092
829.017	7039
829.113	6555
829.208	4138
829.304	4798
829.399	8348
829.495	5765
829.590	5290
829.685	5928
829.781	6781
829.876	5678
829.971	2425
830.066	2858
830.162	5053
830.257	7769
830.352	4261
830.447	3767
830.543	3344
830.638	4655
830.733	6347
830.828	4267
830.923	5260
831.018	5447
831.113	6096
831.208	3647
831.303	2023
831.398	2793
831.493	5318
831.588	7087
831.683	3573
831.778	3518
831.873	3647
831.967	5814
832.062	5894
832.157	3389
832.252	4426
832.346	3748
832.441	5344
832.536	4652
832.631	5430
832.725	3544
832.820	4347
832.914	4251
833.009	2792
833.104	2484
833.198	3302
833.293	4581
833.387	5253
833.482	4261
833.576	3720
833.670	3984
833.765	3491
833.859	4726
833.954	5089
834.048	5023
834.142	3749
834.237	2854
834.331	3453
834.425	4762
834.519	3894
834.613	3648
834.708	3535
834.802	2764
834.896	3876
834.990	3789
835.084	2743
835.178	1725
835.272	3592
835.366	5255
835.460	5314
835.554	2913
835.648	2190
835.742	1657
835.836	3241
835.930	2378
836.024	4296
836.117	3640
836.211	3720
836.305	2683
836.399	3141
836.493	2059
836.586	4823
836.680	3449
836.774	1694
836.867	2924
836.961	2011
837.055	1850
837.148	1934
837.242	3223
837.335	3034
837.429	2208
837.522	1720
837.616	2497
837.709	3226
837.803	2373
837.896	4475
837.989	3398
838.083	2218
838.176	1687
838.269	889
838.363	2193
838.456	2630
838.549	3429
838.642	1433
838.735	2648
838.829	3462
838.922	2237
839.015	2875
839.108	1530
839.201	2903
839.294	3086
839.387	2043
839.480	1006
839.573	1414
839.666	1247
839.759	2617
839.852	1805
839.945	3815
840.038	2042
840.131	1568
840.223	1922
840.316	3344
840.409	2845
840.502	2856
840.594	3328
840.687	943
840.780	1008
840.873	1052
840.965	1028
841.058	2970
841.150	3180
841.243	957
841.336	2339
841.428	2154
841.521	1967
841.613	1399
841.706	1470
841.798	1940
841.890	1985
841.983	1235
842.075	1579
842.167	2108
842.260	2675
842.352	2669
842.444	1489
842.537	1387
842.629	1158
842.721	1369
842.813	1758
842.905	1107
842.997	919
843.090	1889
843.182	1622
843.274	-2
843.366	1761
843.458	2953
843.550	3376
843.642	2683
843.734	2022
843.826	800
843.918	1232
844.009	2250
844.101	2561
844.193	2338
844.285	2448
844.377	3127
844.469	2319
844.560	1009
844.652	1307
844.744	1075
844.835	1677
844.927	2618
845.019	1794
845.110	1652
845.202	2525
845.293	1276
845.385	1282
845.476	1270
845.568	2160
845.659	973
845.751	1973
845.842	1793
845.934	1407
846.025	1923
846.116	1955
846.208	1593
846.299	472
846.390	1495
846.482	1461
846.573	1732
846.664	1072
846.755	1567
846.846	1952
846.937	592
847.029	601
847.120	1280
847.211	1391
847.302	2929
847.393	1090
847.484	1940
847.575	1192
847.666	466
847.757	1231
847.847	1572
847.938	2076
848.029	1673
848.120	1218
848.211	1045
848.302	349
848.392	1479
848.483	1964
848.574	1577
848.664	1563
848.755	1185
848.846	1070
848.936	1315
849.027	1540
849.118	1615
849.208	1149
849.299	1699
849.389	4482
849.480	7012
849.570	11321
849.661	23463
849.751	35517
849.841	12575
849.932	2370
850.022	1257
850.112	1884
850.203	2220
850.293	1094
850.383	1112
850.474	629
850.564	1621
850.654	1432
850.744	1044
850.834	1501
850.924	1367
851.014	2387
851.104	2076
851.194	518
851.284	782
851.374	579
851.464	600
851.554	626
851.644	1628
851.734	2103
851.824	1015
851.914	469
852.004	1511
852.094	1121
852.183	667
852.273	1549
852.363	1047
852.452	1499
852.542	1142
852.632	852
852.721	1324
852.811	1218
852.901	1784
852.990	2249
853.080	2238
853.169	1257
853.259	1502
853.348	1745
853.438	3009
853.527	2950
853.617	4468
853.706	7589
853.795	12880
853.885	26393
853.974	45311
854.063	79644
854.152	99497
854.242	40910
854.331	11817
854.420	5804
854.509	4438
854.598	4171
854.687	3552
854.777	3266
854.866	1791
854.955	1789
855.044	1477
855.133	2325
855.222	1108
855.311	1387
855.400	2011
855.488	300
855.577	946
855.666	308
855.755	1721
855.844	691
855.933	-143
856.021	768
856.110	1991
856.199	489
856.288	448
856.376	449
856.465	353
856.554	1230
856.642	473
856.731	1198
856.819	2175
856.908	1161
856.996	1356
857.085	488
857.173	568
857.262	200
857.350	1585
857.438	134
857.527	1688
857.615	1101
857.703	1668
857.792	1297
857.880	-164
857.968	439
858.056	473
858.145	1216
858.233	1269
858.321	738
858.409	1103
858.497	1822
858.585	439
858.673	735
858.761	-454
858.849	722
858.937	319
859.025	1039
859.113	1054
859.201	1342
859.289	1204
859.377	730
859.465	333
859.552	204
859.640	151
859.728	153
859.816	542
859.903	1123
859.991	341
860.079	810
860.166	927
860.254	51
860.342	1456
860.429	195
860.517	622
860.604	1612
860.692	591
860.779	-39
860.867	1185
860.954	365
861.042	1429
861.129	1745
861.216	1196
861.304	1094
861.391	1750
861.478	908
861.565	1342
861.653	2068
861.740	111
861.827	214
861.914	401
862.001	884
862.089	1813
862.176	1142
862.263	-81
862.350	1430
862.437	1396
862.524	1308
862.611	1861
862.698	1633
862.785	1626
862.871	2392
862.958	2075
863.045	1776
863.132	1524
863.219	347
863.306	862
863.392	1344
863.479	1137
863.566	1456
863.652	1738
863.739	974
863.826	2340
863.912	1709
863.999	1362
864.086	1273
864.172	1814
864.259	2351
864.345	2837
864.432	1593
864.518	1734
864.604	2623
864.691	1991
864.777	2381
864.863	4197
864.950	6002
865.036	8347
865.122	15060
865.209	14987
865.295	13562
865.381	12183
865.467	11822
865.553	12707
865.639	12417
865.726	15767
865.812	22825
865.898	33737
865.984	45257
866.070	72074
866.156	67117
866.242	27645
866.328	14853
866.414	12550
866.499	11556
866.585	11057
866.671	10653
866.757	11143
866.843	9799
866.928	9609
867.014	9843
867.100	9994
867.186	9953
867.271	8944
867.357	9817
867.442	9058
867.528	9432
867.614	9166
867.699	9484
867.785	9899
867.870	9190
867.956	9844
868.041	9688
868.127	8829
868.212	8949
868.297	8662
868.383	8837
868.468	8933
868.553	9981
868.639	9670
868.724	8526
868.809	8957
868.894	8762
868.979	7962
869.065	8566
869.150	7114
869.235	8057
869.320	7650
869.405	7802
869.490	8564
869.575	8236
869.660	6894
869.745	9098
869.830	8785
869.915	7063
870.000	7602
870.085	6841
870.169	9875
870.254	8376
870.339	5083
870.424	6257
870.509	8174
870.593	9317
870.678	8287
870.763	6832
870.847	6883
870.932	7647
871.016	8107
871.101	5157
871.186	7711
871.270	8820
871.355	5470
871.439	5464
871.523	8475
871.608	5956
871.692	5954
871.777	8045
871.861	7235
871.945	6188
872.030	7553
872.114	6704
872.198	6529
872.282	6304
872.367	5791
872.451	5746
872.535	6727
872.619	7142
872.703	5785
872.787	7318
872.871	6284
872.955	4232
873.039	4639
873.123	6973
873.207	7966
873.291	3893
873.375	5826
873.459	6828
873.543	6315
873.627	6244
873.711	5140
873.794	7336
873.878	5721
873.962	4693
874.045	5076
874.129	4979
874.137	5066
874.213	5933
874.245	5762
874.296	5488
874.352	5248
874.380	5138
874.460	4717
874.464	4702
874.547	5178
874.568	5109
874.631	4905
874.676	5009
874.714	5094
874.784	6062
874.798	6254
874.881	5386
874.892	5185
874.965	3847
874.999	4725
875.048	5912
875.107	5290
875.131	5038
875.215	4036
875.215	4034
875.298	2723
875.323	3320
875.381	4748
875.430	5439
875.465	5928
875.538	4903
875.548	4754
875.631	3615
875.646	3527
875.714	3182
875.753	3615
875.798	4109
875.861	4812
875.881	5020
875.964	4371
875.968	4301
876.047	3127
876.076	3531
876.130	4231
876.183	4475
876.213	4652
876.291	5148
876.296	5172
876.379	4667
876.398	4494
876.462	3902
876.506	3269
876.545	2790
876.613	3084
876.628	3129
876.711	3967
876.721	4012
876.794	4490
876.828	4456
876.877	4234
876.935	3056
876.960	2593
877.043	3377
877.043	3383
877.125	4669
877.150	4658
877.208	4684
877.258	3641
877.291	2830
877.365	2579
877.374	2562
877.456	3418
877.472	3228
877.539	2475
877.579	3123
877.622	3840
877.687	3948
877.704	3933
877.787	3932
877.794	3945
877.869	4258
877.901	3966
877.952	3180
878.008	2223
878.034	1948
878.115	2451
878.117	2457
878.199	2952
878.222	2978
878.282	3221
878.329	3784
878.364	4076
878.437	3902
878.447	3882
878.529	2931
878.544	2894
878.611	2489
878.651	2587
878.694	2938
878.758	3353
878.776	3466
878.858	3489
878.865	3446
878.941	2560
878.972	2372
879.023	2201
879.078	2959
879.105	3346
879.185	3675
879.187	3680
879.269	3920
879.292	3909
879.351	3620
879.399	2567
879.433	1928
879.506	2810
879.516	2927
879.598	3163
879.613	3112
879.680	2715
879.720	2758
879.762	3086
879.827	3490
879.844	3436
879.926	2974
879.933	3004
880.007	3725
880.040	3426
880.089	2860
880.147	3155
880.171	3376
880.253	5198
880.254	5204
880.335	5335
880.360	5917
880.417	7479
880.467	9048
880.499	10022
880.574	10298
880.580	10198
880.662	5365
880.680	4647
880.744	2667
880.787	2770
880.825	2895
880.893	2762
880.907	2754
880.989	2069
881.000	2165
881.070	3111
881.106	3096
881.152	2643
881.213	1991
881.233	1947
881.315	2295
881.319	2338
881.396	2556
881.426	2190
881.478	1924
881.532	3031
881.559	3445
881.639	2578
881.641	2557
881.722	2387
881.745	2384
881.803	2474
881.852	2569
881.885	2480
881.958	1742
881.966	1698
882.047	2081
882.064	2207
882.129	2451
882.171	2021
882.210	1623
882.277	1643
882.291	1721
882.372	2609
882.383	2710
882.454	3281
882.489	3093
882.535	2803
882.596	2694
882.616	2626
882.697	1872
882.702	1901
882.778	2200
882.808	2040
882.859	1818
882.914	1552
882.940	1467
883.020	2248
883.021	2257
883.102	2870
883.127	3054
883.183	3243
883.233	2872
883.264	2541
883.339	2145
883.345	2092
883.426	983
883.445	1055
883.507	1726
883.551	1952
883.587	2116
883.657	2380
883.668	2461
883.749	2484
883.763	2488
883.830	1636
883.869	1351
883.910	1444
883.975	1563
883.991	1649
884.072	2387
884.081	2430
884.152	2781
884.187	3009
884.233	3021
884.292	2507
884.314	2196
884.394	945
884.398	930
884.475	1063
884.504	1040
884.555	1156
884.610	1055
884.636	1312
884.716	3041
884.716	3045
884.797	2640
884.821	2676
884.877	2721
884.927	2274
884.958	1886
885.033	1500
885.038	1508
885.118	1237
885.139	1385
885.199	1571
885.244	1394
885.279	1745
885.350	2695
885.359	2755
885.439	3426
885.456	3328
885.520	2264
885.561	1940
885.600	1667
885.667	1289
885.680	1421
885.760	2253
885.773	2337
885.840	1294
885.878	855
885.920	1080
885.984	1460
886.000	1519
886.080	1618
886.089	1631
886.160	1867
886.195	1994
886.240	2062
886.300	2020
886.320	2027
886.400	2311
886.406	2318
886.480	1467
886.511	1055
886.560	1277
886.616	1732
886.640	1804
886.720	1933
886.722	1938
886.800	1717
886.827	1557
886.879	1601
886.932	1824
886.959	2128
887.038	2774
887.039	2767
887.119	1943
887.143	1776
887.198	2032
887.248	2177
887.278	2056
887.354	1566
887.358	1584
887.437	2133
887.459	2290
887.517	2185
887.564	1957
887.596	1772
887.669	1487
887.676	1474
887.755	1345
887.774	1305
887.835	1070
887.880	954
887.914	1238
887.985	1666
887.994	1741
888.073	2551
888.090	2687
888.153	2235
888.195	1913
888.232	1683
888.300	1378
888.311	1418
888.391	1677
888.405	1704
888.470	1708
888.510	1769
888.549	1474
888.615	1046
888.628	1212
888.708	2106
888.720	2246
888.787	1395
888.825	903
888.866	943
888.930	1066
888.945	1123
889.024	1489
889.035	1527
889.103	1457
889.140	1445
889.182	1778
889.245	2268
889.261	2146
889.340	1575
889.349	1509
889.419	1236
889.454	1091
889.498	1242
889.559	1476
889.577	1369
889.656	913
889.664	874
889.735	1490
889.768	1789
889.814	1877
889.873	1990
889.978	1954
890.083	1845
890.187	2178
890.292	1004
890.397	1431
890.501	1796
890.606	1207
890.710	1509
890.815	2453
890.919	1324
891.024	1624
891.128	890
891.233	1230
891.337	2531
891.442	2237
891.546	1254
891.650	1937
891.755	1156
891.859	2415
891.963	2055
892.068	2362
892.172	1168
892.276	692
892.380	470
892.484	2254
892.589	1713
892.693	1308
892.797	169
892.901	1121
893.005	1163
893.109	1325
893.213	2530
893.317	1719
893.421	302
893.525	1062
893.629	602
893.733	2103
893.837	1145
893.941	1264
894.045	90
894.148	1071
894.252	511
894.356	2108
894.460	2870
894.564	915
894.667	605
894.771	870
894.875	572
894.978	1962
895.082	1264
895.186	2066
895.289	878
895.393	1786
895.496	1880
895.600	1364
895.703	-256
895.807	846
895.910	580
896.014	1775
896.117	-284
896.221	2476
896.324	644
896.427	372
896.531	230
896.634	1324
896.737	1074
896.840	1330
896.944	918
897.047	1748
897.150	944
897.253	95
897.356	707
897.460	98
897.563	693
897.666	2616
897.769	1573
897.872	914
897.975	245
898.078	1126
898.181	253
898.284	507
898.387	1509
898.490	1184
898.593	1016
898.695	1054
898.798	287
898.901	1138
899.004	759
899.107	958
899.209	295
899.312	1594
899.415	931
899.518	749
899.620	822
899.723	1056
899.826	1301
899.928	1199
900.031	442
900.133	2333
900.236	808
900.338	1275
900.441	790
900.543	1560
900.646	906
900.748	667
900.851	614
900.953	1191
901.055	594
901.158	538
901.260	202
901.362	487
901.465	842
901.567	1173
901.669	1034
901.771	402
901.873	795
901.976	889
902.078	403
902.180	739
902.282	409
902.384	1298
902.486	1342
902.588	1337
902.690	412
902.792	546
902.894	306
902.996	1369
903.098	1667
903.200	1331
903.302	346
903.404	638
903.505	358
903.607	739
903.709	1697
903.811	1357
903.913	654
904.014	896
904.116	203
904.218	933
904.319	786
904.421	2206
904.523	885
904.624	1141
904.726	854
904.827	552
904.929	705
905.030	612
905.132	1562
905.233	365
905.335	842
905.436	689
905.537	660
905.639	1043
905.740	946
905.841	1085
905.943	-182
906.044	1087
906.145	208
906.247	29
906.348	339
906.449	1535
906.550	757
906.651	1459
906.752	31
906.854	1425
906.955	475
907.056	257
907.157	1375
907.258	1498
907.359	199
907.460	712
907.561	207
907.662	623
907.762	1226
907.863	909
907.964	428
908.065	1063
908.166	470
908.267	579
908.367	180
908.468	-37
908.569	801
908.670	1103
908.770	901
908.871	1956
908.971	1089
909.072	680
909.173	319
909.273	528
909.374	1605
909.474	1153
909.575	585
909.675	247
909.776	852
909.876	590
909.977	581
910.077	800
910.177	920
910.278	831
910.378	-122
910.478	525
910.579	1478
910.679	503
910.779	17
910.879	573
910.980	1069
911.080	1363
911.180	-147
911.280	687
911.380	230
911.480	431
911.580	522
911.680	952
911.780	892
911.880	1124
911.980	164
912.080	1611
912.180	439
912.280	968
912.380	311
912.480	780
912.580	203
912.679	603
912.779	1752
912.879	1685
912.979	269
913.078	1063
913.178	85
913.278	646
913.377	119
913.477	1108
913.577	624
913.676	1432
913.776	720
913.875	732
913.975	-100
914.074	560
914.174	971
914.273	253
914.373	1530
914.472	724
914.572	-205
914.671	1111
914.770	890
914.870	488
914.969	317
915.068	680
915.167	1005
915.267	245
915.366	283
915.465	609
915.564	881
915.663	797
915.763	633
915.862	1125
915.961	521
916.060	1144
916.159	1057
916.258	698
916.357	238
916.456	729
916.555	575
916.654	979
916.752	533
916.851	1423
916.950	1037
917.049	-101
917.148	697
917.247	956
917.345	458
917.444	564
917.543	80
917.642	442
917.740	1061
917.839	1438
917.937	1189
918.036	1928
918.135	1103
918.233	991
918.332	713
918.430	207
918.529	671
918.627	404
918.726	1596
918.824	793
918.923	137
919.021	910
919.119	451
919.218	920
919.316	1407
919.414	1471
919.512	490
919.611	671
919.709	897
919.807	1986
919.905	908
920.003	1504
920.102	676
920.200	1351
920.298	524
920.396	768
920.494	510
920.592	424
920.690	1287
920.788	911
920.886	1102
920.984	1686
921.082	650
921.180	2676
921.277	1575
921.375	2105
921.473	2732
921.571	2868
921.669	2575
921.766	3138
921.864	1507
921.962	2618
922.060	2738
922.157	3277
922.255	2393
922.352	2955
922.450	3205
922.548	2778
922.645	2838
922.743	4324
922.840	7794
922.938	8919
923.035	7929
923.133	7275
923.230	8550
923.327	11010
923.425	8620
923.522	9629
923.619	8085
923.717	8375
923.814	7383
923.911	8204
924.008	7734
924.106	7139
924.203	5807
924.300	8492
924.397	6516
924.494	8025
924.591	7035
924.688	6977
924.786	7200
924.883	7079
924.979	6813
925.077	6701
925.173	6962
925.270	7045
925.367	6516
925.464	8461
925.561	7812
925.658	7409
925.755	5298
925.852	7309
925.948	5871
926.045	7229
926.142	7000
926.239	6388
926.335	5774
926.432	7208
926.529	7860
926.625	8206
926.722	6466
926.818	6645
926.915	6786
927.011	6592
927.108	6097
927.204	5929
927.301	5892
927.397	6966
927.494	6694
927.590	4459
927.687	5964
927.783	7859
927.879	6310
927.976	5505
928.072	4791
928.168	5639
928.264	5950
928.361	5717
928.457	5996
928.553	5812
928.649	5277
928.745	6156
928.841	5557
928.937	5903
929.033	5243
929.129	5834
929.225	6283
929.321	5865
929.417	4543
929.513	6065
929.609	4422
929.705	4423
929.801	6357
929.897	4489
929.993	4356
930.089	5651
930.184	4761
930.280	5403
930.376	6198
930.471	4776
930.567	3902
930.663	5064
930.758	4371
930.854	5008
930.950	4770
931.045	3600
931.141	4922
931.236	6279
931.332	4219
931.427	4644
931.523	5934
931.618	5108
931.714	3056
931.809	4574
931.905	4799
932.000	3233
932.095	3106
932.191	6308
932.286	5757
932.381	4161
932.476	3576
932.572	4785
932.667	3600
932.762	4150
932.857	4660
932.952	6374
933.047	4251
933.142	3127
933.237	4603
933.332	5093
933.427	4040
933.522	4404
933.617	2948
933.712	3539
933.807	4395
933.902	5228
933.997	4700
934.092	4009
934.187	3657
934.282	4581
934.376	4081
934.471	4519
934.566	3215
934.661	3530
934.755	4004
934.850	5150
934.945	3232
935.039	3696
935.134	3038
935.228	4545
935.323	5526
935.417	3590
935.512	1586
935.606	2363
935.701	3934
935.795	4075
935.890	3146
935.984	3556
936.079	2612
936.173	4264
936.267	2960
936.362	3081
936.456	4013
936.550	4838
936.644	3767
936.738	1633
936.833	2522
936.927	2207
937.021	2837
937.115	4044
937.209	3569
937.303	4045
937.397	2409
937.491	3144
937.585	3798
937.679	3909
937.773	2083
937.867	2993
937.961	2738
938.055	3944
938.149	3288
938.243	2146
938.337	1927
938.430	2737
938.524	4014
938.618	3312
938.712	3005
938.805	2626
938.899	3871
938.993	3588
939.086	2009
939.180	1694
939.274	2893
939.367	4004
939.461	2838
939.554	2941
939.648	2322
939.741	2760
939.835	2814
939.928	3781
940.022	2938
940.115	1897
940.208	3038
940.302	4324
940.395	3400
940.488	1377
940.582	2115
940.675	1643
940.768	1729
940.861	3066
940.954	3782
941.048	1655
941.141	1292
941.234	1847
941.327	2404
941.420	2785
941.513	2475
941.606	2032
941.699	1763
941.792	3090
941.885	2152
941.978	3005
942.071	2013
942.164	1319
942.257	986
942.349	2596
942.442	2776
942.535	1445
942.628	1694
942.721	3021
942.813	1261
942.906	3549
942.999	1830
943.091	1796
943.184	1949
943.277	1271
943.369	1274
943.462	1671
943.554	1659
943.647	1634
943.739	3097
943.832	3379
943.924	895
944.017	1732
944.109	686
944.201	1863
944.294	1898
944.386	1937
944.478	1242
944.571	1373
944.663	921
944.755	2669
944.847	2241
944.940	2523
945.032	712
945.124	1651
945.216	2419
945.308	2373
945.400	2141
945.492	1662
945.584	2053
945.676	2694
945.768	1309
945.860	2794
945.952	2074
946.044	1555
946.136	1008
946.228	2094
946.320	1089
946.412	2077
946.503	1980
946.595	3453
946.687	555
946.779	1061
946.870	939
946.962	1038
947.054	1750
947.145	2672
947.237	1333
947.329	1011
947.420	1803
947.512	1003
947.603	759
947.695	1323
947.786	988
947.878	719
947.969	1925
948.061	1544
948.152	1497
948.243	1346
948.335	1087
948.426	1441
948.517	1367
948.609	1778
948.700	701
948.791	1173
948.882	495
948.973	1141
949.065	1548
949.156	1473
949.247	606
949.338	843
949.429	934
949.520	1122
949.611	997
949.702	1700
949.793	1438
949.884	2350
949.975	1403
950.066	652
950.157	283
950.247	459
950.338	1146
950.429	970
950.520	1298
950.611	1477
950.701	1471
950.792	1300
950.883	1242
950.973	1804
951.064	984
951.155	738
951.245	838
951.336	2215
951.427	1314
951.517	2776
951.608	1835
951.698	1376
951.788	159
951.879	75
951.969	376
952.060	974
952.150	1160
952.240	2138
952.331	145
952.421	2479
952.511	-218
952.602	1055
952.692	290
952.782	1330
952.872	1038
952.962	2311
953.052	925
953.143	86
953.233	809
953.323	717
953.413	397
953.503	2016
953.593	1635
953.683	1448
953.773	650
953.863	320
953.953	49
954.042	1043
954.132	536
954.222	1728
954.312	922
954.402	1049
954.492	277
954.581	840
954.671	158
954.761	654
954.850	1258
954.940	161
955.030	64
955.119	466
955.209	643
955.298	1136
955.388	998
955.477	1441
955.567	13
955.656	1265
955.746	1639
955.835	643
955.925	588
956.014	1407
956.103	1897
956.193	2065
956.282	1490
956.371	1149
956.461	504
956.550	920
956.639	672
956.728	219
956.817	905
956.906	1439
956.995	1181
957.085	538
957.174	1187
957.263	1500
957.352	213
957.441	1554
957.530	324
957.619	841
957.708	407
957.796	882
957.885	734
957.974	528
958.063	413
958.152	-481
958.241	142
958.329	634
958.418	336
958.507	714
958.596	1422
958.684	-151
958.773	748
958.861	755
958.950	187
959.039	811
959.127	-47
959.216	1465
959.304	810
959.393	197
959.481	637
959.570	-38
959.658	-256
959.746	920
959.835	422
959.923	321
960.011	298
960.100	1041
960.188	1647
960.276	881
960.365	554
960.453	502
960.541	-303
960.629	531
960.717	225
960.805	243
960.893	1187
960.981	937
961.069	1263
961.158	680
961.245	1910
961.333	1698
961.421	-247
961.509	1778
961.597	1282
961.685	1059
961.773	511
961.861	869
961.949	1203
962.036	319
962.124	707
962.212	1317
962.299	-488
962.387	623
962.475	273
962.562	-369
962.650	1070
962.738	1014
962.825	221
962.913	50
963.000	717
963.088	457
963.175	518
963.263	387
963.350	234
963.438	40
963.525	231
963.612	1386
963.700	36
963.787	2009
963.874	327
963.962	310
964.049	291
964.136	586
964.223	48
964.310	584
964.398	289
964.485	261
964.572	606
964.659	595
964.746	623
964.833	-8
964.920	428
965.007	846
965.094	85
965.181	802
965.268	1304
965.355	932
965.441	989
965.528	-202
965.615	883
965.702	1286
965.789	214
965.875	1002
965.962	753
966.049	387
966.136	747
966.222	825
966.309	1020
966.395	747
966.482	721
966.569	768
966.655	495
966.742	-14
966.828	644
966.915	907
967.001	298
967.087	-422
967.174	97
967.260	705
967.347	366
967.433	-30
967.519	556
967.605	723
967.692	253
967.778	1331
967.864	-22
967.950	1007
968.036	290
968.123	1136
968.209	578
968.295	-994
968.381	1287
968.467	436
968.553	-131
968.639	977
968.725	-145
968.811	510
968.897	417
968.983	1352
969.069	1
969.154	1019
969.240	281
969.326	-261
969.412	-8
969.497	-11
969.583	-558
969.669	1547
969.755	146
969.840	170
969.926	2214
970.012	1632
970.097	2550
970.183	990
970.268	714
970.354	930
970.439	-588
970.525	978
970.610	22
970.696	2201
970.781	1153
970.866	35
970.952	796
971.037	312
971.122	454
971.208	706
971.293	-560
971.378	-490
971.463	-56
971.549	1779
971.634	192
971.719	916
971.804	314
971.889	114
971.974	-125
972.059	920
972.144	473
972.229	1544
972.314	545
972.399	646
972.484	-65
972.569	1359
972.654	-676
972.739	1283
972.824	-896
972.908	-5
972.993	198
973.078	1224
973.163	273
973.247	1160
973.332	-1181
973.417	871
973.501	-85
973.586	960
973.671	32
973.755	406
973.840	-124
973.924	1610
974.009	976
974.093	721
974.178	1296
974.262	567
974.346	-426
974.431	1030
974.515	1007
974.600	868
974.684	858
974.768	433
974.852	1598
974.937	228
975.021	1197
975.105	1070
975.189	-240
975.273	318
975.358	-642
975.442	125
975.526	522
975.610	-595
975.694	-535
975.778	1484
975.862	837
975.946	-965
976.030	1997
976.114	257
976.198	452
976.281	728
976.365	877
976.449	78
976.533	1067
976.617	-158
976.700	-359
976.784	320
976.868	435
976.951	520
977.035	-297
977.119	651
977.202	-275
977.286	1423
977.369	1127
977.453	2445
977.536	1319
977.620	520
977.703	1319
977.787	492
977.870	1340
977.953	1254
978.037	-574
978.120	1799
978.203	61
978.287	424
978.370	602
978.453	261
978.536	-362
978.620	1969
978.703	734
978.786	625
978.869	-102
978.952	-960
979.035	1642
979.118	834
979.201	-685
979.284	1264
979.367	633
979.450	1259
979.533	-501
979.616	841
979.699	59
979.782	795
979.865	-157
979.948	-111
980.030	-166
980.113	1150
980.196	-810
980.279	308
980.361	537
980.444	387
980.526	1336
980.609	1599
980.692	1486
980.774	996
980.857	-1098
980.939	1624
981.022	-140
981.104	1030
981.187	142
981.269	1402
981.352	304
981.434	240
981.516	303
981.599	2298
981.681	367
981.763	600
981.846	498
981.928	947
982.010	418
982.092	82
982.174	916
982.256	1105
982.339	599
982.421	486
982.503	940
982.585	-894
982.667	328
982.749	-388
982.831	187
982.913	262
982.995	731
983.077	700
983.158	2509
983.240	344
983.322	1536
983.404	2976
983.486	1110
983.568	1855
983.649	251
983.731	1456
983.813	481
983.894	1434
983.976	478
984.058	1203
984.139	664
984.221	60
984.302	1108
984.384	1097
984.465	623
984.547	1832
984.628	-282
984.710	1590
984.791	1116
984.872	879
984.954	396
985.035	891
985.116	349
985.198	381
985.279	1947
985.360	297
985.441	-426
985.522	1406
985.604	605
985.685	-551
985.766	1939
985.847	1462
985.928	475
986.009	1184
986.090	-182
986.171	1029
986.252	586
986.333	1124
986.414	254
986.495	1439
986.576	819
986.656	1469
986.737	411
986.818	1413
986.899	727
986.980	811
987.060	1159
987.141	936
987.222	1318
987.302	1333
987.383	949
987.464	1799
987.544	1466
987.625	869
987.705	1623
987.786	2261
987.866	989
987.947	792
988.027	1249
988.108	1430
988.188	1300
988.268	1517
988.349	1276
988.429	1841
988.509	1751
988.589	2044
988.670	-399
988.750	2748
988.830	745
988.910	1811
988.990	358
989.070	688
989.151	896
989.231	675
989.311	710
989.391	256
989.471	1111
989.551	1345
989.631	361
989.711	1235
989.791	45
989.870	237
989.950	1783
990.030	834
990.110	875
990.190	941
990.269	301
990.349	1260
990.429	921
990.509	781
990.588	-364
990.668	940
990.747	231
990.827	321
990.907	722
990.986	1229
991.066	273
991.145	580
991.225	569
991.304	617
991.383	568
991.463	106
991.542	739
991.622	598
991.701	-337
991.780	433
991.859	-381
991.939	370
992.018	868
992.097	635
992.176	225
992.256	536
992.335	279
992.414	1343
992.493	-195
992.572	421
992.651	1447
992.730	362
992.809	745
992.888	-70
992.967	237
993.046	100
993.125	-1009
993.203	437
993.282	701
993.361	552
993.440	708
993.519	-38
993.597	132
993.676	-81
993.755	1362
993.834	552
993.912	-840
993.991	734
994.069	-67
994.148	506
994.226	280
994.305	-316
994.384	753
994.462	949
994.540	277
994.619	-485
994.697	-428
994.776	623
994.854	652
994.932	202
995.011	-1040
995.089	-195
995.167	-926
995.245	5
995.324	-749
995.402	403
995.480	-217
995.558	244
995.636	-1070
995.714	-858
995.792	866
995.870	-388
995.948	-823
996.026	877
996.104	-1078
996.182	-1
996.260	-1370
996.338	372
996.416	-762
996.494	394
996.572	582
996.649	-1050
996.727	-1332
996.805	117
996.883	-907
996.960	-489
997.038	443
997.116	147
997.193	-709
997.271	117
997.348	-1152
997.426	-117
997.504	-255
997.581	198
997.658	-262
997.736	-433
997.813	-1217
997.891	388
997.968	-892
998.046	-320
998.123	-682
998.200	130
998.277	-467
998.355	548
998.432	-1617
998.509	-319
998.586	-62
998.663	31
998.741	-1481
998.818	-752
998.895	-1513
998.972	176
999.049	-846
999.126	-852
999.203	425
999.280	-608
999.357	-294
999.434	-752
999.511	-528
999.587	346
999.664	-860
999.741	-739
999.818	-363
999.895	-84
999.971	-688
1000.048	-442
1000.125	-66
1000.202	-248
1000.278	-597
1000.355	-282
1000.431	-1259
1000.508	-976
1000.584	-1353
1000.661	-151
1000.738	-1487
1000.814	-185
1000.890	-506
1000.967	-350
1001.043	-623
1001.120	-1171
1001.196	-729
1001.272	-1144
1001.349	-551
1001.425	-187
1001.501	-944
1001.577	-1452
1001.654	-1024
1001.730	-903
1001.806	-841
1001.882	-662
1001.958	-918
1002.034	-592
1002.110	-1082
1002.186	-1337
1002.262	-1516
1002.338	-476
1002.414	-174
1002.490	-478
1002.566	-1682
1002.642	-989
1002.718	-301
1002.794	-583
1002.870	-1662
1002.945	-1455
1003.021	-921
1003.097	-906
1003.173	-217
1003.248	-1389
1003.324	-742
1003.400	-813
1003.475	-1382
1003.551	-296
1003.626	-800
1003.702	-363
1003.777	-935
1003.853	-887
1003.928	-643
1004.004	-1346
1004.079	-360
1004.155	212
1004.230	-1949
1004.305	-81
1004.381	-1540
1004.456	-583
1004.531	-1286
1004.607	-746
1004.682	-927
1004.757	-888
1004.832	-1577
1004.907	-1476
1004.982	-1053
1005.057	-470
1005.133	-1002
1005.208	-1126
1005.283	-1642
1005.358	325
1005.433	-1780
1005.508	-717
1005.583	-1867
1005.657	-437
1005.732	-1032
1005.807	-965
1005.882	-1062
1005.957	-1103
1006.032	-1215
1006.106	-1458
1006.181	-1412
1006.256	-150
1006.331	-2019
1006.405	-1392
1006.480	-1866
1006.554	-1009
1006.629	-1480
1006.704	-567
1006.778	-1667
1006.853	-289
1006.927	-1847
1007.002	-1343
1007.076	-1125
1007.150	-1155
1007.225	-609
1007.299	-759
1007.373	-1774
1007.448	-414
1007.522	-558
1007.596	-1719
1007.671	-1479
1007.745	-318
1007.819	-2048
1007.893	-1279
1007.967	-898
1008.041	-1110
1008.115	-707
1008.190	-1274
1008.264	15
1008.338	-2165
1008.412	-1105
1008.486	-435
1008.560	-1073
1008.633	-1030
1008.707	-1893
1008.781	-292
1008.855	-1461
1008.929	-1212
1009.003	-1536
1009.076	-1197
1009.150	-1948
1009.224	-631
1009.298	-1390
1009.371	-1984
1009.445	-1088
1009.519	-1280
1009.592	-1443
1009.666	-1644
1009.739	-853
1009.813	-2022
1009.886	162
1009.960	-1838
1010.033	-1122
1010.107	-720
1010.180	-1647
1010.253	-1397
1010.327	-1989
1010.400	-787
1010.473	-1718
1010.547	255
1010.620	-1859
1010.693	-602
1010.766	-1635
1010.840	-1263
1010.913	-668
1010.986	-1932
1011.059	-1152
1011.132	-2010
1011.205	-930
1011.278	-1634
1011.351	-1702
1011.424	-1215
1011.497	-2795
1011.570	-1495
1011.643	-1601
1011.716	-1004
1011.789	-2198
1011.862	-1029
1011.934	-1722
1012.007	-1846
1012.080	-1266
1012.153	-756
1012.225	-1627
1012.298	-1322
1012.371	-2109
1012.443	-1082
1012.516	-2331
1012.588	-603
1012.661	-1266
1012.733	-1564
1012.806	-1401
1012.879	-2022
1012.951	-713
1013.023	-1343
1013.096	-736
1013.168	-1149
1013.241	-747
1013.313	-1617
1013.385	-2446
1013.458	-1946
1013.530	-909
1013.602	-1398
1013.674	-1762
1013.746	-1954
1013.819	-1584
1013.891	-474
1013.963	-1970
1014.035	-1439
1014.107	-1648
1014.179	-416
1014.251	-1643
1014.323	-1719
1014.395	-1867
1014.467	-1510
1014.539	-1642
1014.611	-1670
1014.683	-1805
1014.754	-466
1014.826	-2545
1014.898	-1393
1014.970	-2474
1015.042	-283
1015.113	-1403
1015.185	-1614
1015.257	-3047
1015.328	-751
1015.400	-1297
1015.471	-1098
1015.543	-1971
1015.615	-931
1015.686	-2313
1015.757	-1904
1015.829	-1439
1015.901	-1289
1015.972	-1656
1016.043	-857
1016.115	-1322
1016.186	-1115
1016.257	-2004
1016.328	-1064
1016.400	-1830
1016.471	-1526
1016.542	-1763
1016.613	-1272
1016.685	-1283
1016.756	-1564
1016.827	-1679
1016.898	-908
1016.969	-1314
1017.040	-1725
1017.111	-2121
1017.182	-1640
1017.253	-1254
1017.324	-1463
1017.395	-2703
1017.466	-932
1017.537	-1789
1017.608	-1628
1017.678	-1604
1017.749	-1113
1017.820	-2032
1017.891	-2592
1017.961	-2424
1018.032	-2428
1018.103	-1946
1018.173	-1762
1018.244	-2442
1018.315	-1433
1018.385	-2174
1018.456	-2111
1018.526	-2987
1018.597	-1842
1018.667	-1602
1018.738	-1554
1018.808	-2032
1018.878	-1732
1018.949	-1792
1019.019	-1548
1019.089	-2085
1019.160	-1191
1019.230	-2241
1019.300	-706
1019.371	-3067
1019.441	-1206
1019.511	-2326
1019.581	-1556
1019.651	-2755
1019.721	-898
1019.791	-1867
1019.861	-1637
1019.931	-1379
1020.001	-1513
1020.071	-1779
1020.141	-1854
1020.211	-1836
1020.281	-1555
1020.351	-2073
1020.421	-1948
1020.491	-1723
1020.560	-1554
1020.630	-2420
1020.700	-1825
1020.770	-2434
1020.839	-1655
1020.909	-1929
1020.979	-1681
1021.048	-2285
1021.118	-1745
1021.187	-2040
1021.257	-1520
1021.326	-1406
1021.396	-1150
1021.465	-1570
1021.535	-2186
1021.604	-2321
1021.674	-1867
1021.743	-1286
1021.812	-1584
1021.882	-2770
1021.951	-1022
1022.020	-2271
1022.089	-691
1022.159	-2167
1022.228	-1794
1022.297	-1763
1022.366	-1707
1022.435	-1337
1022.504	-1195
1022.573	-1637
1022.642	-1538
1022.711	-1378
1022.781	-2155
1022.849	-1804
1022.918	-2208
1022.987	-1875
1023.056	-2092
1023.125	-2694
1023.194	-2221
1023.263	-2285
1023.331	-857
1023.400	-1548
1023.469	-2154
1023.538	-1350
1023.606	-2135
1023.675	-2250
1023.744	-1463
1023.812	-2149
1023.881	-2106
1023.949	-1828
1024.018	-826
1024.086	-1647
1024.155	-1349
1024.223	-2852
1024.292	-1980
1024.360	-2333
1024.429	-1834
1024.497	-2663
1024.565	-1116
1024.634	-2041
1024.702	-862
1024.770	-2018
1024.838	-1639
1024.907	-2154
1024.975	-1935
1025.043	-1482
1025.111	-2113
1025.179	-2019
1025.247	-1443
1025.315	-2393
1025.383	-1108
1025.451	-2238
1025.519	-1543
1025.587	-1908
1025.655	-2193
1025.723	-2667
1025.791	-1095
1025.859	-2771
1025.927	-1378
1025.995	-2716
1026.062	-2357
1026.130	-1844
1026.198	-2173
1026.266	-1957
1026.333	-1354
1026.401	-1845
1026.469	-1873
1026.536	-1730
1026.604	-773
1026.671	-2155
1026.739	-1959
1026.806	-2405
1026.874	-1445
1026.941	-1146
1027.009	-2050
1027.076	-2141
1027.144	-1137
1027.211	-2829
1027.278	-2187
1027.345	-1747
1027.413	-891
1027.480	-2138
1027.547	-1406
1027.614	-2517
1027.682	-2001
1027.749	-2617
1027.816	-1160
1027.883	-1061
1027.950	-1700
1028.017	-2073
1028.084	-1354
1028.151	-2369
1028.218	-1803
1028.285	-1703
1028.352	-2034
1028.419	-1684
1028.486	-1187
1028.553	-1875
1028.619	-1125
1028.686	-1738
1028.753	-1980
1028.820	-2219
1028.886	-1308
1028.953	-2024
1029.020	-1023
1029.086	-1757
1029.153	-1177
1029.220	-2254
1029.286	-1673
1029.353	-1693
1029.419	-1351
1029.486	-2068
1029.552	-2529
1029.619	-1864
1029.685	-1360
1029.751	-1942
1029.818	-845
1029.884	-1436
1029.951	-1366
1030.017	-2408
1030.083	-1373
1030.149	-1430
1030.216	-2009
1030.282	-2471
1030.348	-1532
1030.414	-2217
1030.480	-1378
1030.546	-1864
1030.612	-1481
1030.678	-1966
1030.744	-1332
1030.810	-2165
1030.876	-957
1030.942	-2260
1031.008	-1138
1031.074	-2210
1031.140	-2690
1031.206	-1062
1031.272	-1853
1031.337	-1949
1031.403	-1278
1031.469	-1958
1031.534	-1681
1031.600	-1701
1031.666	-1707
1031.731	-2337
1031.797	-1564
1031.863	-2395
1031.928	-2135
1031.994	-1971
1032.059	-1584
1032.125	-1721
1032.190	-1554
1032.256	-2317
1032.321	-2323
1032.386	-1683
1032.452	-1245
1032.517	-2244
1032.582	-2420
1032.647	-2005
1032.713	-1881
1032.778	-1202
1032.843	-1326
1032.908	-2044
1032.974	-832
1033.039	-3030
1033.104	-2235
1033.169	-2679
1033.234	-1581
1033.299	-1945
1033.364	-1666
1033.429	-2426
1033.494	-683
1033.559	-1895
1033.624	-2103
1033.688	-1682
1033.753	-1540
1033.818	-1692
1033.883	-2378
1033.948	-2010
1034.013	-1675
1034.077	-929
1034.142	-661
1034.207	-1225
1034.271	-377
1034.336	-362
1034.400	-1036
1034.465	-2593
1034.530	-1691
1034.594	-1948
1034.658	-2389
1034.723	-1485
1034.787	-1355
1034.852	-1888
1034.916	-1724
1034.981	-2246
1035.045	-2209
1035.109	-2382
1035.173	-1717
1035.238	-1840
1035.302	-1394
1035.366	-2385
1035.430	-1953
1035.495	-1822
1035.559	-1773
1035.623	-2647
1035.687	-1466
1035.751	-2204
1035.815	-2209
1035.879	-2233
1035.943	-2435
1036.007	-2613
1036.071	-1186
1036.135	-2801
1036.198	-1831
1036.262	-2286
1036.326	-1335
1036.390	-2612
1036.454	-2087
1036.517	-2037
1036.581	-1811
1036.645	-1944
1036.709	-2038
1036.772	-2295
1036.836	-2279
1036.900	-2139
1036.963	-2194
1037.026	-2551
1037.090	-2118
1037.154	-2744
1037.217	-1990
1037.280	-2042
1037.344	-2591
1037.407	-2097
1037.471	-2031
1037.534	-2219
1037.597	-1660
1037.661	-1419
1037.724	-1552
1037.787	-2080
1037.850	-1757
1037.913	-2127
1037.977	-1459
1038.040	-2028
1038.103	-2081
1038.166	-2569
1038.229	-1395
1038.292	-2926
1038.355	-2073
1038.418	-2291
1038.481	-1553
1038.544	-2635
1038.607	-1599
1038.670	-2577
1038.732	-1569
1038.795	-2242
1038.858	-1807
1038.921	-2291
1038.984	-2055
1039.046	-1923
1039.109	-1887
1039.172	-2119
1039.234	-1520
1039.297	-2204
1039.360	-1507
1039.422	-3118
1039.485	-1854
1039.547	-2481
1039.610	-2087
1039.672	-2198
1039.734	-1136
1039.797	-1893
1039.859	-1673
1039.922	-3017
1039.984	-1490
1040.046	-1717
1040.109	-2260
1040.171	-2536
1040.233	-1644
1040.295	-1671
1040.358	-1895
1040.420	-1879
1040.482	-2370
1040.544	-1999
1040.606	-1751
1040.668	-3250
1040.730	-1780
1040.792	-2657
1040.854	-1906
1040.916	-3443
1040.978	-2587
1041.040	-1139
1041.102	-1597
1041.164	-2797
1041.225	-2405
1041.287	-2274
1041.349	-1871
1041.411	-1711
1041.472	-1943
1041.534	-2411
1041.596	-2507
1041.657	-2662
1041.719	-1625
1041.781	-2998
1041.842	-1941
1041.904	-3271
1041.965	-1710
1042.027	-2313
1042.088	-2659
1042.150	-2025
1042.211	-1728
1042.272	-1380
1042.334	-2716
1042.395	-1688
1042.456	-2774
1042.518	-1511
1042.579	-1656
1042.640	-2384
1042.701	-1028
1042.763	-2483
1042.824	-2715
1042.885	-2643
1042.946	-2058
1043.007	-2494
1043.068	-2440
1043.129	-2798
1043.190	-2737
1043.251	-2361
1043.312	-2818
1043.373	-2823
1043.434	-1640
1043.495	-2752
1043.556	-1277
1043.616	-2386
1043.677	-2137
1043.738	-2903
1043.799	-1472
1043.859	-2536
1043.920	-2128
1043.981	-2003
1044.041	-1907
1044.102	-2704
1044.162	-1941
1044.223	-2856
1044.284	-2763
1044.344	-2048
1044.405	-2349
1044.465	-1453
1044.525	-2643
1044.586	-2180
1044.646	-1928
1044.707	-1795
1044.767	-1743
1044.827	-2689
1044.887	-2502
1044.948	-2349
1045.008	-2319
1045.068	-2739
1045.128	-1972
1045.188	-3066
1045.249	-1347
1045.309	-3244
1045.369	-2353
1045.429	-3323
1045.489	-1730
1045.549	-1792
1045.609	-2445
1045.669	-2558
1045.729	-2129
1045.789	-2755
1045.848	-1183
1045.908	-1866
1045.968	-1495
1046.028	-2065
1046.088	-1573
1046.147	-2118
1046.207	-369
1046.267	-2491
1046.326	-1296
1046.386	-2374
1046.446	-1593
1046.505	-2010
1046.565	-1942
1046.624	-1509
1046.684	-1287
1046.743	-1503
1046.803	-1008
1046.862	-1686
1046.922	0
