'Start Wavelength	183.907
'End Wavelength	1046.922
'Gate Delay	5.000
'Gate Width (ms)	1.050
'Laser Output Level	0.000
'X Position	0.000
'Y Position	0.000
'Z Position	0.000
'Grid Point Number	1.000
'Shot Number	100.000
183.907	908.000
183.977	110.000
184.047	757
184.116	634
184.186	598
184.256	-107
184.325	183
184.395	-629
184.465	190
184.534	-123
184.604	-509
184.674	455
184.743	562
184.813	763
184.883	137
184.952	164
185.022	927
185.092	39
185.161	74
185.231	801
185.301	750
185.370	1186
185.440	245
185.509	-58
185.579	219
185.649	371
185.718	3
185.788	717
185.857	-320
185.927	-434
185.996	670
186.066	57
186.136	-373
186.205	-86
186.275	-74
186.344	-459
186.414	401
186.483	-359
186.553	1097
186.622	437
186.692	-459
186.761	-161
186.831	134
186.900	115
186.970	77
187.039	307
187.109	630
187.178	579
187.248	264
187.317	99
187.387	-626
187.456	718
187.526	182
187.595	-386
187.664	-180
187.734	117
187.803	520
187.873	353
187.942	-388
188.012	230
188.081	257
188.150	495
188.220	-73
188.289	227
188.358	-134
188.428	657
188.497	-17
188.567	560
188.636	-172
188.705	571
188.775	-94
188.844	-760
188.913	658
188.983	679
189.052	190
189.121	-349
189.191	-149
189.260	22
189.329	479
189.399	-610
189.468	442
189.537	179
189.606	987
189.676	-390
189.745	354
189.814	41
189.883	-56
189.953	411
190.022	-47
190.091	-227
190.161	-242
190.230	39
190.299	241
190.368	-703
190.437	22
190.507	-180
190.576	-333
190.645	-422
190.714	349
190.783	-77
190.853	665
190.922	268
190.991	-157
191.060	329
191.129	-1094
191.198	593
191.268	-46
191.337	249
191.406	521
191.475	-106
191.544	-423
191.613	-62
191.682	-62
191.752	289
191.821	-81
191.890	442
191.959	224
192.028	-10
192.097	155
192.166	325
192.235	-702
192.304	783
192.373	-698
192.442	-44
192.511	139
192.580	-131
192.650	-111
192.719	373
192.788	694
192.857	448
192.926	-525
192.995	93
193.064	-227
193.133	-716
193.202	873
193.271	-181
193.340	372
193.409	-441
193.478	314
193.547	84
193.615	478
193.684	88
193.753	421
193.822	625
193.891	-152
193.960	-383
194.029	253
194.098	-408
194.167	-770
194.236	-47
194.305	194
194.374	68
194.443	11
194.512	310
194.580	-16
194.649	554
194.718	223
194.787	491
194.856	-113
194.925	433
194.994	-782
195.062	255
195.131	94
195.200	407
195.269	-132
195.338	-174
195.407	131
195.475	-289
195.544	95
195.613	67
195.682	318
195.751	129
195.819	531
195.888	561
195.957	759
196.026	-307
196.094	539
196.163	-440
196.232	846
196.301	-330
196.369	-280
196.438	383
196.507	184
196.576	-831
196.644	-102
196.713	768
196.782	482
196.850	1077
196.919	-1
196.988	-510
197.056	-92
197.125	67
197.194	-936
197.262	-103
197.331	193
197.400	-314
197.468	-383
197.537	-275
197.606	-567
197.674	1440
197.743	26
197.812	-858
197.880	23
197.949	552
198.017	-155
198.086	-126
198.155	-168
198.223	229
198.292	-402
198.360	-604
198.429	-182
198.497	181
198.566	-260
198.635	547
198.703	173
198.772	258
198.840	381
198.909	117
198.977	-3
199.046	913
199.114	30
199.183	134
199.251	128
199.320	-296
199.388	-158
199.457	181
199.525	-16
199.594	-270
199.662	-357
199.731	-535
199.799	163
199.867	259
199.936	-180
200.004	392
200.073	325
200.141	356
200.210	39
200.278	-475
200.346	49
200.415	853
200.483	-632
200.552	311
200.620	562
200.688	302
200.757	212
200.825	289
200.893	-839
200.962	194
201.030	-379
201.098	-455
201.167	-219
201.235	-316
201.303	-84
201.372	797
201.440	324
201.508	78
201.577	409
201.645	-543
201.713	-926
201.781	-235
201.850	552
201.918	-125
201.986	214
202.055	-11
202.123	-186
202.191	601
202.259	-380
202.327	-92
202.396	-258
202.464	-367
202.532	93
202.600	655
202.669	350
202.737	-42
202.805	116
202.873	1173
202.941	-579
203.009	693
203.078	-325
203.146	48
203.214	-533
203.282	-335
203.350	620
203.418	-938
203.487	352
203.555	-204
203.623	46
203.691	150
203.759	-266
203.827	545
203.895	668
203.963	-322
204.031	-508
204.099	238
204.168	-222
204.236	622
204.304	-44
204.372	-82
204.440	-326
204.508	-666
204.576	165
204.644	364
204.712	-819
204.780	261
204.848	393
204.916	226
204.984	-946
205.052	265
205.120	-327
205.188	-951
205.256	-231
205.324	-236
205.392	-323
205.460	-101
205.528	-224
205.596	133
205.664	275
205.732	149
205.799	-261
205.867	-121
205.935	-913
206.003	713
206.071	-428
206.139	-485
206.207	296
206.275	-547
206.343	-58
206.411	-666
206.478	50
206.546	-119
206.614	-548
206.682	-784
206.750	-293
206.818	342
206.885	901
206.953	-1471
207.021	733
207.089	-287
207.157	-225
207.225	122
207.292	-167
207.360	-1159
207.428	243
207.496	385
207.563	-292
207.631	181
207.699	-650
207.767	-646
207.834	-276
207.902	-353
207.970	-670
208.038	-632
208.105	-293
208.173	-885
208.241	-667
208.309	-399
208.376	462
208.444	-135
208.512	-870
208.579	-1287
208.647	363
208.715	116
208.782	-517
208.850	649
208.918	84
208.985	-237
209.053	-734
209.120	-543
209.188	-944
209.256	-967
209.323	-1046
209.391	-576
209.459	583
209.526	-439
209.594	-481
209.661	314
209.729	430
209.796	-459
209.864	-194
209.932	-1137
209.999	1458
210.067	-292
210.134	-653
210.202	-471
210.269	-539
210.337	451
210.404	-805
210.472	333
210.539	426
210.607	-914
210.674	-144
210.742	292
210.809	-54
210.877	17
210.944	459
211.012	-946
211.079	744
211.146	-780
211.214	604
211.281	-109
211.349	-83
211.416	-194
211.484	-178
211.551	-757
211.618	-851
211.686	-48
211.753	-576
211.821	205
211.888	-535
211.955	-713
212.023	-588
212.090	-816
212.157	-642
212.225	-841
212.292	117
212.359	108
212.427	192
212.494	-743
212.561	-480
212.629	-1148
212.696	-367
212.763	-680
212.831	-454
212.898	587
212.965	-458
213.032	-401
213.100	-90
213.167	-829
213.234	-598
213.301	259
213.369	-358
213.436	-1318
213.503	-1072
213.570	-68
213.638	-642
213.705	-764
213.772	-582
213.839	-473
213.906	154
213.973	-263
214.041	-851
214.108	-295
214.175	-289
214.242	43
214.309	-477
214.376	-491
214.444	-593
214.511	-78
214.578	-690
214.645	-624
214.712	484
214.779	-158
214.846	-944
214.913	-281
214.980	-76
215.048	-33
215.115	865
215.182	97
215.249	-641
215.316	-180
215.383	259
215.450	-1108
215.517	-985
215.584	-460
215.651	125
215.718	-149
215.785	441
215.852	-295
215.919	13
215.986	-508
216.053	-42
216.120	-402
216.187	-343
216.254	-1089
216.321	-307
216.388	-376
216.455	-443
216.522	-148
216.589	-451
216.656	4
216.722	-675
216.789	-832
216.856	1
216.923	-298
216.990	468
217.057	-318
217.124	-350
217.191	-1277
217.258	-316
217.324	-1645
217.391	-203
217.458	-616
217.525	-376
217.592	16
217.659	-1702
217.725	210
217.792	-570
217.859	274
217.926	-1075
217.993	-340
218.059	466
218.126	-592
218.193	-730
218.260	-392
218.327	-1066
218.393	-774
218.460	-883
218.527	-566
218.594	-819
218.660	-654
218.727	395
218.794	-532
218.860	623
218.927	-491
218.994	100
219.061	-972
219.127	197
219.194	-1617
219.261	-487
219.327	-503
219.394	328
219.461	-1453
219.527	-629
219.594	-168
219.661	-567
219.727	-861
219.794	-457
219.860	-763
219.927	344
219.994	21
220.060	384
220.127	1448
220.193	560
220.260	-400
220.326	-312
220.393	287
220.460	-719
220.526	-874
220.593	-907
220.659	486
220.726	-898
220.792	189
220.859	-580
220.925	-137
220.992	-265
221.058	-391
221.125	253
221.191	-421
221.258	-700
221.324	77
221.391	-676
221.457	-805
221.524	-462
221.590	-77
221.657	390
221.723	71
221.789	189
221.856	302
221.922	-216
221.989	475
222.055	-57
222.121	-1694
222.188	1601
222.254	-475
222.321	-423
222.387	-332
222.453	-93
222.520	-772
222.586	-1451
222.652	-239
222.719	-1302
222.785	-33
222.851	-210
222.918	-1186
222.984	-900
223.050	-528
223.116	-1798
223.183	454
223.249	-1325
223.315	-1017
223.382	-652
223.448	-441
223.514	-860
223.580	-327
223.647	-1035
223.713	-1465
223.779	-686
223.845	-876
223.911	-615
223.978	-630
224.044	-318
224.110	-887
224.176	-719
224.242	-839
224.309	-1900
224.375	-55
224.441	-876
224.507	-485
224.573	-1449
224.639	-747
224.705	-1134
224.772	-474
224.838	-845
224.904	375
224.970	-456
225.036	-716
225.102	-1789
225.168	-18
225.234	-418
225.300	56
225.366	217
225.432	-249
225.499	-1229
225.565	-417
225.631	-704
225.697	-1754
225.763	-928
225.829	-467
225.895	68
225.961	-482
226.027	-905
226.093	-1438
226.159	32
226.225	-218
226.291	-983
226.357	-564
226.423	-1011
226.489	-764
226.554	-457
226.620	-1191
226.686	-409
226.752	-890
226.818	-1700
226.884	-208
226.950	36
227.016	-625
227.082	-400
227.148	-1176
227.214	-172
227.279	-1076
227.345	-1117
227.411	-139
227.477	427
227.543	1937
227.609	2557
227.674	782
227.740	-664
227.806	-111
227.872	-726
227.938	-108
228.003	-824
228.069	-1243
228.135	-786
228.201	-286
228.267	-1510
228.332	-884
228.398	-2063
228.464	-748
228.530	-1371
228.595	-823
228.661	-1472
228.727	-1701
228.792	164
228.858	-1326
228.924	-2362
228.990	369
229.055	-2357
229.121	-618
229.187	-620
229.252	-1235
229.318	-1613
229.384	-861
229.449	-862
229.515	-2446
229.581	-1675
229.646	997
229.712	-1174
229.777	-1105
229.843	-964
229.909	-379
229.974	-192
230.040	-893
230.105	-393
230.171	-1057
230.236	30
230.302	-1361
230.368	-892
230.433	-2410
230.499	-68
230.564	-121
230.630	-1798
230.695	-625
230.761	-582
230.826	-2228
230.892	450
230.957	-1768
231.023	-1641
231.088	-768
231.154	-437
231.219	-113
231.284	-2044
231.350	-106
231.415	-1796
231.481	-190
231.546	-1235
231.612	-790
231.677	-856
231.742	-2275
231.808	-144
231.873	-2003
231.939	-1980
232.004	-96
232.069	-607
232.135	-1326
232.200	-1288
232.265	197
232.331	-1352
232.396	-571
232.461	-880
232.527	-937
232.592	-1712
232.657	-841
232.723	-401
232.788	-656
232.853	-668
232.918	-1189
232.984	-1576
233.049	-1063
233.114	-1383
233.179	-693
233.245	-709
233.310	-614
233.375	-1968
233.440	-779
233.506	-1175
233.571	-1365
233.636	-383
233.701	-1133
233.766	-1327
233.832	-972
233.897	-1130
233.962	-2346
234.027	122
234.092	-346
234.157	-1361
234.222	-1027
234.288	-1920
234.353	-391
234.418	-391
234.483	112
234.548	-687
234.613	-1186
234.678	-1
234.743	-1370
234.808	320
234.873	-2301
234.938	678
235.004	-418
235.069	-1335
235.134	-2161
235.199	-1019
235.264	-1382
235.329	-1392
235.394	-610
235.459	-319
235.524	-1545
235.589	-488
235.654	-904
235.719	-2341
235.784	77
235.849	-1119
235.913	-655
235.978	-1479
236.043	-916
236.108	-552
236.173	-1928
236.238	-523
236.303	-2041
236.368	-1593
236.433	-301
236.498	-875
236.563	-1030
236.627	-926
236.692	246
236.757	-604
236.822	-620
236.887	-2182
236.952	12
237.017	-2113
237.081	60
237.146	-2287
237.211	-132
237.276	-622
237.341	377
237.405	-755
237.470	-1386
237.535	-370
237.600	-1020
237.664	-324
237.729	-2262
237.794	-1728
237.859	-507
237.923	-549
237.988	-1536
238.053	-696
238.118	-2074
238.182	-1119
238.247	1261
238.312	-2213
238.376	-393
238.441	-3066
238.506	-647
238.570	-1636
238.635	108
238.700	-1287
238.764	-1265
238.829	-704
238.893	-2037
238.958	-686
239.023	-880
239.087	-1549
239.152	-957
239.216	-1285
239.281	-634
239.346	-852
239.410	-967
239.475	-1144
239.539	-1370
239.604	-2214
239.668	126
239.733	-522
239.797	1737
239.862	5876
239.926	3241
239.991	1560
240.055	-137
240.120	-1419
240.184	-608
240.249	-1769
240.313	-1151
240.378	-1088
240.442	-709
240.507	-1095
240.571	-732
240.635	-1534
240.700	-770
240.764	-1540
240.829	-1261
240.893	-1689
240.957	-719
241.022	-996
241.086	-753
241.151	-2245
241.215	-1632
241.279	379
241.344	-1896
241.408	-914
241.472	-1164
241.537	-385
241.601	-831
241.665	-2813
241.730	-2001
241.794	-97
241.858	-1541
241.922	-1247
241.987	-1297
242.051	-1958
242.115	-2122
242.179	-1539
242.244	-1446
242.308	-308
242.372	-958
242.436	-1872
242.501	-1349
242.565	-1851
242.629	-901
242.693	-1093
242.757	-2516
242.822	-1111
242.886	-1522
242.950	-678
243.014	-1886
243.078	-746
243.142	-1221
243.206	-2503
243.271	-517
243.335	-1811
243.399	-399
243.463	-856
243.527	3762
243.591	-907
243.655	-1281
243.719	-1821
243.783	-500
243.847	-969
243.911	-970
243.975	-2070
244.040	-2260
244.104	-293
244.168	-1348
244.232	-2181
244.296	-1532
244.360	-997
244.424	-1824
244.488	-655
244.552	-390
244.615	-2086
244.679	-1108
244.743	-1575
244.807	-2613
244.871	-920
244.935	-1044
244.999	-3115
245.063	-1652
245.127	-678
245.191	-782
245.255	-1109
245.319	-1622
245.383	-3147
245.446	-548
245.510	-1262
245.574	-1389
245.638	-1376
245.702	-2686
245.766	-398
245.829	-230
245.893	-1780
245.957	-2188
246.021	-635
246.085	-1728
246.149	-1772
246.212	280
246.276	-1601
246.340	-1142
246.404	-1385
246.467	-383
246.531	-3499
246.595	30
246.659	-682
246.722	-2815
246.786	-1408
246.850	-1334
246.913	-1385
246.977	-2013
247.041	-1237
247.104	-1113
247.168	-1006
247.232	-1573
247.295	-699
247.359	-667
247.423	-918
247.486	-1453
247.550	231
247.614	-1690
247.677	-992
247.741	-1477
247.804	-1330
247.868	-235
247.932	-1940
247.995	1030
248.059	-1318
248.122	-2941
248.186	-241
248.249	-1105
248.313	813
248.376	1634
248.440	-718
248.503	-2715
248.567	-404
248.630	-939
248.694	-1621
248.757	-338
248.821	912
248.884	769
248.948	-1137
249.011	29
249.075	830
249.138	1537
249.202	-833
249.265	-1794
249.328	168
249.392	-2173
249.455	-1092
249.519	-1810
249.582	-748
249.645	-700
249.709	-1181
249.772	-1702
249.835	-1586
249.899	-1457
249.962	-677
250.025	-1782
250.089	-445
250.152	401
250.215	-630
250.279	-1495
250.342	-636
250.405	-1328
250.468	-1462
250.532	-739
250.595	-1601
250.658	875
250.721	7874
250.785	741
250.848	105
250.911	-1253
250.974	-266
251.038	-1295
251.101	88
251.164	-891
251.227	-777
251.290	-1485
251.354	-262
251.417	3409
251.480	5303
251.543	1419
251.606	9227
251.669	8083
251.732	1354
251.795	411
251.859	1018
251.922	5062
251.985	3114
252.048	2
252.111	-686
252.174	-2007
252.237	-327
252.300	1988
252.363	1360
252.426	10015
252.489	624
252.552	-90
252.615	-1887
252.678	466
252.741	1196
252.804	1223
252.867	8643
252.930	3084
252.993	-41
253.056	-419
253.119	-1400
253.182	-1111
253.245	-1094
253.308	-693
253.371	-1288
253.434	-1081
253.497	-365
253.559	356
253.622	-990
253.685	-1831
253.748	-1766
253.811	-1669
253.874	-1125
253.937	-1551
254.000	-1383
254.062	-1219
254.125	-159
254.188	139
254.251	-1126
254.314	-661
254.376	-1715
254.439	-1089
254.502	-843
254.565	-643
254.628	316
254.690	-1260
254.753	-1810
254.816	-2358
254.878	-1253
254.941	-639
255.004	-374
255.067	-1153
255.129	-1589
255.192	-1434
255.255	-2237
255.317	-1968
255.380	-1201
255.443	-1889
255.505	-1923
255.568	-1961
255.631	-992
255.693	-1333
255.756	-2167
255.819	-706
255.881	-1189
255.944	-1273
256.006	-1668
256.069	-1376
256.132	-2104
256.194	-1251
256.257	-1092
256.319	-942
256.382	-1905
256.444	-487
256.507	207
256.569	-1363
256.632	-1699
256.694	-1508
256.757	-784
256.819	-161
256.882	-2120
256.944	-1847
257.007	138
257.069	-1675
257.132	-1123
257.194	-641
257.257	-913
257.319	-2007
257.381	-2313
257.444	-576
257.506	-1216
257.569	64
257.631	-623
257.693	-1369
257.756	-1273
257.818	-1404
257.880	-1852
257.943	-1183
258.005	-1911
258.067	-2248
258.130	-1138
258.192	-1633
258.254	-1875
258.317	-1908
258.379	-1252
258.441	-1270
258.503	-983
258.566	-804
258.628	301
258.690	-2511
258.753	-757
258.815	-1364
258.877	-1376
258.939	-1682
259.001	-900
259.064	-788
259.126	-1854
259.188	-1942
259.250	-1136
259.312	-2069
259.375	-1848
259.437	-1335
259.499	-508
259.561	-1275
259.623	-1160
259.685	-1821
259.747	-1438
259.809	-312
259.872	-866
259.934	341
259.996	164
260.058	-1081
260.120	-1664
260.182	-844
260.244	-1192
260.306	-1414
260.368	-691
260.430	-2091
260.492	-893
260.554	-1251
260.616	-2417
260.678	-726
260.740	-1095
260.802	-1624
260.864	-1312
260.926	-2144
260.988	-1170
261.050	-1898
261.112	-2800
261.174	149
261.236	-766
261.298	-1764
261.359	-855
261.421	-238
261.483	-1590
261.545	-73
261.607	-2314
261.669	-869
261.731	-1344
261.793	-1044
261.854	-1388
261.916	-991
261.978	-1709
262.040	-1422
262.102	-1103
262.164	-1970
262.225	-1249
262.287	-790
262.349	-2049
262.411	-1347
262.472	-663
262.534	-2532
262.596	-1073
262.658	-1833
262.719	-1601
262.781	-545
262.843	-1703
262.904	-1187
262.966	-859
263.028	-1130
263.090	-282
263.151	1755
263.213	-284
263.275	-1560
263.336	-1108
263.398	-313
263.459	-1637
263.521	-1552
263.583	-1172
263.644	-1174
263.706	-1610
263.767	-2115
263.829	-1510
263.891	-1194
263.952	-2245
264.014	-2173
264.075	-1584
264.137	-1137
264.198	-959
264.260	-1955
264.321	-1891
264.383	-1660
264.444	-998
264.506	-2255
264.567	-1815
264.629	-853
264.690	-2974
264.752	-1480
264.813	-2260
264.875	-2145
264.936	-710
264.998	-1320
265.059	-1501
265.120	-1224
265.182	-1771
265.243	-501
265.305	-1707
265.366	-434
265.427	-1229
265.489	-1139
265.550	-2969
265.611	-1470
265.673	-931
265.734	-1226
265.795	-1870
265.857	-2637
265.918	-1944
265.979	-1178
266.040	-466
266.102	-1700
266.163	-1220
266.224	-1656
266.286	-1279
266.347	-1897
266.408	-1525
266.469	-935
266.530	-1620
266.592	-1259
266.653	-1220
266.714	-1120
266.775	-1579
266.836	-1155
266.898	-1682
266.959	-1602
267.020	-1087
267.081	-256
267.142	-1283
267.203	-1531
267.264	-1493
267.326	-639
267.387	-1192
267.448	-1029
267.509	-971
267.570	-1155
267.631	-2420
267.692	-2368
267.753	-1336
267.814	-2123
267.875	-1074
267.936	265
267.997	-1564
268.058	-1573
268.119	-1571
268.180	-1362
268.241	-2189
268.302	-980
268.363	-1523
268.424	-1779
268.485	-1696
268.546	-1101
268.607	-1808
268.668	-641
268.729	-1388
268.790	-1773
268.851	-1627
268.912	-1078
268.972	-1858
269.033	-1726
269.094	-1934
269.155	-1740
269.216	-1569
269.277	-1552
269.338	-1312
269.398	-522
269.459	-1541
269.520	-2055
269.581	-2001
269.642	-1450
269.702	-1802
269.763	-1855
269.824	-1671
269.885	-1961
269.945	-1334
270.006	-1142
270.067	-2466
270.128	-1810
270.188	-1919
270.249	-2631
270.310	-2004
270.370	-1570
270.431	-2389
270.492	-2433
270.553	-1356
270.613	-1265
270.674	-1333
270.734	-1740
270.795	-2148
270.856	-636
270.916	-2128
270.977	-1224
271.038	-1502
271.098	-2025
271.159	-1604
271.219	-1170
271.280	-1014
271.340	-1608
271.401	-2270
271.462	-1115
271.522	-1934
271.583	-1570
271.643	-1371
271.704	-1562
271.764	-1033
271.825	-1162
271.885	771
271.946	2389
272.006	-207
272.066	-615
272.127	1854
272.187	2290
272.248	299
272.308	-489
272.369	1135
272.429	-476
272.489	-1521
272.550	-663
272.610	-664
272.671	-1175
272.731	-1611
272.791	-510
272.852	-1299
272.912	-621
272.972	-633
273.033	-683
273.093	-1202
273.153	56
273.214	-826
273.274	-953
273.334	-162
273.394	1875
273.455	480
273.515	510
273.575	1677
273.635	-360
273.696	1358
273.756	2792
273.816	1221
273.876	695
273.936	9
273.997	-359
274.057	-889
274.117	-1293
274.177	-307
274.237	249
274.297	1634
274.358	-385
274.418	196
274.478	338
274.538	-1316
274.598	-1764
274.658	-1505
274.718	-348
274.778	-646
274.838	-1263
274.898	-1023
274.958	-391
275.018	607
275.078	330
275.138	-976
275.198	-1510
275.258	-1134
275.318	-743
275.378	-1947
275.438	-915
275.498	-1249
275.558	-743
275.618	640
275.678	-891
275.738	-514
275.798	-1033
275.858	-1196
275.918	-903
275.978	-1150
276.038	-843
276.098	-1975
276.157	-889
276.217	280
276.277	-162
276.337	-1313
276.397	-1618
276.457	-1306
276.517	-1384
276.576	-651
276.636	-2118
276.696	-620
276.756	-1128
276.815	-1141
276.875	-1009
276.935	-218
276.995	-835
277.055	-1224
277.114	-554
277.174	-1620
277.234	-846
277.293	-1890
277.353	-896
277.413	-967
277.472	-590
277.532	-960
277.592	624
277.651	4475
277.711	14115
277.771	3399
277.830	12720
277.890	12384
277.950	6711
278.009	23973
278.069	10610
278.128	8386
278.188	15912
278.248	5185
278.307	14395
278.367	9766
278.426	1283
278.486	474
278.545	-39
278.605	-81
278.664	-33
278.724	-742
278.783	541
278.843	1973
278.902	-200
278.962	-394
279.021	614
279.081	2748
279.140	1772
279.199	910
279.259	1263
279.318	1562
279.378	3941
279.437	5650
279.496	16592
279.556	56574
279.615	55106
279.675	16479
279.734	7479
279.793	7200
279.853	8966
279.912	4289
279.971	2728
280.031	2022
280.090	3407
280.149	6277
280.208	7853
280.268	38154
280.327	47996
280.386	11999
280.445	4529
280.505	2183
280.564	1808
280.623	1079
280.682	828
280.742	1090
280.801	147
280.860	-120
280.919	-481
280.978	-136
281.037	-346
281.097	-487
281.156	1244
281.215	-123
281.274	-599
281.333	1255
281.392	-45
281.451	-884
281.510	-722
281.569	-926
281.628	-78
281.688	-341
281.747	-58
281.806	-1270
281.865	-368
281.924	-1409
281.983	-306
282.042	-1715
282.101	-777
282.160	-667
282.219	-1220
282.278	-1098
282.337	-955
282.396	-145
282.454	-1297
282.513	-540
282.572	119
282.631	-132
282.690	-317
282.749	-670
282.808	-32
282.867	-464
282.926	63
282.985	-310
283.043	-573
283.102	-433
283.161	-1062
283.220	354
283.279	861
283.338	-514
283.396	-1029
283.455	378
283.514	-108
283.573	30
283.631	-321
283.690	252
283.749	-8
283.808	-46
283.866	1211
283.925	-58
283.984	988
284.043	670
284.101	1145
284.160	884
284.219	1142
284.277	1583
284.336	1778
284.395	3231
284.453	3613
284.512	2870
284.570	3461
284.629	4949
284.688	6238
284.746	8426
284.805	10259
284.863	14662
284.922	18316
284.981	22011
285.039	29593
285.098	42094
285.156	55030
285.215	45609
285.273	39739
285.332	54592
285.390	48578
285.449	35337
285.507	25601
285.566	18125
285.624	14633
285.683	12026
285.741	8931
285.799	7309
285.858	5725
285.916	4415
285.975	3423
286.033	3022
286.091	2479
286.150	1979
286.208	2115
286.267	1557
286.325	1116
286.383	1115
286.442	746
286.500	397
286.558	334
286.616	-131
286.675	752
286.733	635
286.791	-88
286.850	84
286.908	37
286.966	196
287.024	-661
287.083	-229
287.141	-440
287.199	-139
287.257	439
287.315	-124
287.374	-31
287.432	587
287.490	-182
287.548	-621
287.606	-650
287.664	69
287.723	-546
287.781	-594
287.839	-662
287.897	-498
287.955	-56
288.013	172
288.071	926
288.129	5291
288.187	25607
288.245	10135
288.303	1410
288.361	333
288.419	143
288.477	-41
288.535	-571
288.593	-933
288.651	-209
288.709	-1163
288.767	-931
288.825	-1611
288.883	-988
288.941	-1144
288.999	-1786
289.057	-939
289.115	-1462
289.173	-1103
289.231	-927
289.289	-719
289.346	-939
289.404	-848
289.462	-918
289.520	-830
289.578	-562
289.636	-1463
289.694	-1075
289.751	-1494
289.809	-1375
289.867	-741
289.925	-839
289.983	-833
290.040	-1219
290.098	-575
290.156	-1400
290.214	-1066
290.271	-912
290.329	-116
290.387	-1155
290.444	-1368
290.502	-1183
290.560	-580
290.617	-895
290.675	-1236
290.733	-1524
290.790	-1378
290.848	-177
290.906	-1626
290.963	-594
291.021	-1145
291.078	-899
291.136	-891
291.194	-1076
291.251	-331
291.309	-863
291.366	-1231
291.424	-1442
291.481	-622
291.539	-858
291.596	-419
291.654	-430
291.711	-1137
291.769	-1790
291.826	-282
291.884	-944
291.941	-1748
291.999	-937
292.056	-1300
292.114	-1838
292.171	-897
292.228	-665
292.286	-597
292.343	-1468
292.401	-800
292.458	-736
292.515	-1127
292.573	-127
292.630	-1244
292.687	-1010
292.745	-612
292.802	-1422
292.859	-578
292.917	773
292.974	-422
293.031	-488
293.089	-785
293.146	-1090
293.203	-1021
293.260	-1554
293.318	-867
293.375	-1803
293.432	-1135
293.489	-1164
293.546	-1598
293.604	-454
293.661	1052
293.718	3788
293.775	1182
293.832	76
293.889	941
293.947	1144
294.004	-260
294.061	-819
294.118	-641
294.175	912
294.232	1851
294.289	859
294.346	-475
294.403	-671
294.460	-976
294.517	-682
294.574	-534
294.631	-489
294.688	-1260
294.745	-368
294.802	1360
294.859	620
294.916	-1017
294.973	-1119
295.030	-1805
295.087	-1409
295.144	-680
295.201	-1011
295.258	-1503
295.315	-1783
295.372	-584
295.429	939
295.486	359
295.542	-1007
295.599	-814
295.656	-1295
295.713	-590
295.770	530
295.827	-756
295.883	-826
295.940	-1595
295.997	-1603
296.054	-826
296.111	-1445
296.167	-818
296.224	-1844
296.281	-1810
296.338	-1369
296.394	-2552
296.451	-701
296.508	-893
296.564	-12
296.621	-918
296.678	1309
296.734	2939
296.791	-446
296.848	-882
296.904	-1289
296.961	-240
297.018	23
297.074	46
297.131	-863
297.187	-1320
297.244	-1062
297.301	1099
297.357	4959
297.414	694
297.470	-653
297.527	-1048
297.583	-998
297.640	-1017
297.696	-1166
297.753	-1525
297.809	-1275
297.866	-2200
297.922	-977
297.979	-1120
298.035	-1045
298.092	-1450
298.148	-71
298.204	-203
298.261	-732
298.317	-720
298.374	2446
298.430	1538
298.486	-725
298.543	-921
298.599	-1814
298.656	-1399
298.712	-1693
298.768	-380
298.824	-355
298.881	-1381
298.937	-1495
298.993	-1508
299.050	-709
299.106	-577
299.162	-1241
299.218	-610
299.275	-1200
299.331	-870
299.387	-198
299.443	2083
299.500	9233
299.556	6574
299.612	1434
299.668	1113
299.724	5714
299.780	9158
299.837	1397
299.893	1121
299.949	5189
300.005	8701
300.061	5799
300.117	10937
300.173	4860
300.229	696
300.285	-477
300.341	559
300.397	-280
300.453	-24
300.510	-730
300.566	264
300.622	1377
300.678	9292
300.734	16272
300.790	6547
300.845	4514
300.901	4329
300.957	9679
301.013	4095
301.069	445
301.125	256
301.181	-672
301.237	-173
301.293	-631
301.349	-1133
301.405	-1836
301.461	-1130
301.516	-1253
301.572	-804
301.628	-883
301.684	-1048
301.740	-574
301.796	325
301.851	-90
301.907	-181
301.963	-349
302.019	527
302.074	7227
302.130	9114
302.186	4043
302.242	754
302.297	-369
302.353	-686
302.409	-668
302.464	-741
302.520	-876
302.576	486
302.631	2322
302.687	-648
302.743	-1343
302.798	-1507
302.854	-1258
302.910	-1580
302.965	-1759
303.021	-1363
303.076	-1115
303.132	-302
303.187	-843
303.243	-700
303.299	-1005
303.354	-1004
303.410	-877
303.465	-1448
303.521	-898
303.576	-2124
303.632	-815
303.687	-677
303.743	631
303.798	1587
303.853	-664
303.909	-813
303.964	-392
304.020	-902
304.075	-877
304.130	-942
304.186	-1117
304.241	346
304.297	-540
304.352	-2600
304.358	-2456
304.407	-1296
304.449	-986
304.463	-882
304.518	-2004
304.539	-1399
304.573	-446
304.629	-703
304.630	-710
304.684	-1031
304.720	-186
304.739	228
304.794	2642
304.811	1939
304.850	242
304.902	-226
304.905	-253
304.960	-855
304.992	-1023
305.015	-1164
305.071	-476
305.083	-569
305.126	-893
305.173	-1218
305.181	-1265
305.236	-1324
305.264	-802
305.292	-269
305.347	-213
305.354	-239
305.402	-453
305.445	-815
305.457	-919
305.512	-672
305.535	-645
305.567	-634
305.622	-557
305.626	-539
305.678	50
305.716	492
305.733	571
305.788	1644
305.807	1360
305.843	1097
305.897	1447
305.898	1444
305.953	2628
305.988	1555
306.008	1018
306.063	-502
306.078	-630
306.118	-768
306.168	-570
306.173	-566
306.228	-385
306.259	-314
306.283	-220
306.338	-504
306.349	-515
306.393	-532
306.440	-707
306.448	-750
306.503	185
306.530	155
306.558	272
306.613	69
306.620	83
306.668	193
306.711	874
306.723	967
306.778	795
306.801	667
306.833	588
306.888	162
306.892	133
306.943	-108
306.982	-13
306.997	48
307.052	-171
307.072	-193
307.107	-134
307.162	308
307.163	303
307.217	-77
307.253	-84
307.272	23
307.327	346
307.343	179
307.381	-114
307.434	226
307.436	242
307.491	-12
307.524	422
307.546	699
307.600	1008
307.614	899
307.655	389
307.704	336
307.710	378
307.765	163
307.795	423
307.819	688
307.874	598
307.885	639
307.929	638
307.975	1097
307.984	1200
308.038	1515
308.065	1389
308.093	2659
308.148	6264
308.156	7049
308.202	10842
308.246	13623
308.257	13073
308.312	5807
308.336	3420
308.366	2910
308.421	2377
308.426	2271
308.475	1711
308.517	2330
308.530	2476
308.585	2228
308.607	1945
308.639	1707
308.694	2241
308.697	2248
308.748	2595
308.787	2815
308.803	2910
308.857	3375
308.877	3301
308.912	3758
308.967	5229
308.967	5238
309.021	9364
309.058	12891
309.076	14788
309.130	21518
309.148	23130
309.185	31017
309.238	42968
309.239	43219
309.293	54413
309.328	58180
309.348	52730
309.402	31563
309.418	25737
309.457	20583
309.508	15137
309.511	15320
309.566	20222
309.598	24066
309.620	32200
309.674	55464
309.688	61634
309.729	57714
309.778	45374
309.783	44054
309.837	26558
309.868	17329
309.892	14841
309.946	10668
309.959	9897
310.001	8812
310.049	7576
310.055	7339
310.109	5390
310.139	4162
310.163	3438
310.218	2242
310.229	2031
310.272	2412
310.319	2449
310.326	2340
310.381	1694
310.409	1493
310.435	1551
310.489	1552
310.499	1533
310.543	1721
310.589	2053
310.598	2055
310.652	1849
310.679	1814
310.706	1807
310.760	1511
310.769	1458
310.814	1695
310.859	2106
310.868	2079
310.923	1619
310.948	1452
310.977	1505
311.031	1463
311.038	1480
311.085	1558
311.128	1400
311.139	1460
311.193	1854
311.218	1949
311.247	1940
311.301	2066
311.308	2051
311.356	1450
311.398	970
311.410	1006
311.464	1160
311.488	1172
311.518	1504
311.572	2163
311.578	2214
311.626	1861
311.668	1577
311.680	1638
311.734	1857
311.758	1958
311.788	1937
311.842	1835
311.847	1819
311.896	2071
311.937	2223
311.950	2159
312.004	1859
312.027	1717
312.058	1708
312.112	1683
312.117	1673
312.165	1975
312.207	2218
312.297	1481
312.386	1464
312.476	1375
312.566	1761
312.656	1427
312.745	1774
312.835	1972
312.925	2226
313.015	1252
313.104	2017
313.194	1878
313.284	2945
313.374	2166
313.463	2596
313.553	2906
313.643	2063
313.732	2602
313.822	2064
313.912	3786
314.001	3578
314.091	3425
314.180	3208
314.270	3504
314.360	3160
314.449	2978
314.539	2813
314.628	3038
314.718	3218
314.808	3944
314.897	4004
314.987	4487
315.076	4850
315.166	4781
315.255	4774
315.345	3556
315.434	3449
315.524	3534
315.613	4442
315.703	5357
315.792	13067
315.881	43906
315.971	12787
316.060	4748
316.150	3685
316.239	3417
316.328	3330
316.418	3481
316.507	3766
316.597	4549
316.686	4611
316.775	4362
316.865	4559
316.954	3946
317.043	3631
317.133	2004
317.222	2382
317.311	2751
317.400	1301
317.490	3689
317.579	3427
317.668	3783
317.757	6994
317.847	22367
317.936	66895
318.025	18400
318.114	17016
318.203	6981
318.293	3997
318.382	6383
318.471	6138
318.560	5678
318.649	5473
318.738	3033
318.828	3319
318.917	1928
319.006	1822
319.095	2428
319.184	3455
319.273	3307
319.362	2586
319.451	2332
319.540	2339
319.629	2857
319.718	2736
319.807	2177
319.896	2333
319.985	4727
320.074	3052
320.163	1699
320.252	2018
320.341	3070
320.430	2448
320.519	3092
320.608	2487
320.697	4508
320.786	4322
320.875	5448
320.964	5932
321.053	6036
321.142	6344
321.230	7856
321.319	7947
321.408	9778
321.497	10055
321.586	7940
321.675	6353
321.764	5695
321.852	5437
321.941	6476
322.030	5884
322.119	6133
322.207	8734
322.296	10033
322.385	11030
322.474	14323
322.562	15562
322.651	10531
322.740	7663
322.829	6770
322.917	6133
323.006	5233
323.095	4603
323.183	4337
323.272	4158
323.361	3829
323.449	5404
323.538	3712
323.626	4046
323.715	3429
323.804	3292
323.892	3098
323.981	3498
324.069	3875
324.158	3397
324.246	3120
324.335	2518
324.424	3308
324.512	2354
324.601	3090
324.689	2007
324.778	2855
324.866	2885
324.954	2527
325.043	2022
325.131	1631
325.220	2170
325.308	2827
325.397	1852
325.485	2839
325.574	1924
325.662	1902
325.750	2313
325.839	2591
325.927	1870
326.015	2456
326.104	1866
326.192	2207
326.280	2236
326.369	2534
326.457	2555
326.545	2933
326.634	1876
326.722	2498
326.810	2028
326.898	2899
326.987	2400
327.075	2707
327.163	3446
327.251	2234
327.340	2622
327.428	4776
327.516	4620
327.604	3469
327.692	2783
327.781	2536
327.869	1971
327.957	2388
328.045	2218
328.133	3196
328.221	1643
328.309	1793
328.397	1501
328.485	2676
328.574	5203
328.662	7612
328.750	3794
328.838	3078
328.926	3677
329.014	2784
329.102	2126
329.190	2541
329.278	1958
329.366	2297
329.454	2327
329.542	1674
329.630	1324
329.718	2157
329.806	1765
329.893	2662
329.981	1005
330.069	2094
330.157	2590
330.245	2948
330.333	2520
330.421	1604
330.509	2283
330.597	2616
330.684	2457
330.772	1678
330.860	2388
330.948	1873
331.036	2563
331.123	2301
331.211	2225
331.299	2310
331.387	1967
331.475	2709
331.562	2496
331.650	2781
331.738	2734
331.825	2317
331.913	2077
332.001	1454
332.089	2199
332.176	2750
332.264	2339
332.352	1921
332.439	1868
332.527	1887
332.614	1424
332.702	2268
332.790	3061
332.877	3827
332.965	9112
333.052	7304
333.140	8921
333.228	23142
333.315	6323
333.403	2807
333.490	3773
333.578	10011
333.665	33816
333.753	12564
333.840	3745
333.928	3829
334.015	4249
334.103	5464
334.190	8284
334.278	9339
334.365	14887
334.452	14957
334.540	8792
334.627	8475
334.715	9817
334.802	14628
334.889	26185
334.977	39308
335.064	25311
335.151	11193
335.239	7946
335.326	6819
335.413	7318
335.501	7389
335.588	5980
335.675	6302
335.762	8149
335.850	10832
335.937	17646
336.024	30106
336.111	53382
336.199	50629
336.286	21352
336.373	10098
336.460	7282
336.547	6251
336.635	5181
336.722	4303
336.809	3849
336.896	3096
336.983	4302
337.070	4313
337.157	5701
337.245	4505
337.332	4128
337.419	3382
337.506	3888
337.593	3281
337.680	3843
337.767	4101
337.854	3269
337.941	2584
338.028	3289
338.115	2290
338.202	3029
338.289	3651
338.376	3576
338.463	3612
338.550	3072
338.637	4052
338.724	3259
338.811	2332
338.898	2570
338.984	2159
339.071	2296
339.158	2196
339.245	2684
339.332	3602
339.419	2464
339.506	3156
339.593	1396
339.679	3444
339.766	1905
339.853	1122
339.940	2317
340.027	1532
340.113	1762
340.200	2879
340.287	2657
340.374	2180
340.460	2820
340.547	849
340.634	3326
340.720	4237
340.807	1919
340.894	2159
340.980	1943
341.067	2367
341.154	3094
341.240	2041
341.327	2781
341.414	2727
341.500	1603
341.587	3009
341.674	2082
341.760	2965
341.847	3038
341.933	2470
342.020	1763
342.106	2545
342.193	2108
342.279	2745
342.366	1602
342.452	2797
342.539	2653
342.625	2736
342.712	2649
342.798	2198
342.885	1721
342.971	1843
343.058	2852
343.144	2083
343.230	3411
343.317	2152
343.403	1907
343.490	2563
343.576	2114
343.662	2405
343.749	2454
343.835	2341
343.921	3059
344.008	11578
344.094	21407
344.180	4659
344.267	2666
344.353	4674
344.439	3925
344.525	3317
344.612	2855
344.698	2040
344.784	1640
344.870	2531
344.957	2147
345.043	3257
345.129	2701
345.215	3113
345.301	2245
345.387	2303
345.474	1811
345.560	1809
345.646	2142
345.732	1998
345.818	2447
345.904	2057
345.990	2559
346.076	2419
346.162	1937
346.249	2404
346.335	1481
346.421	2332
346.507	3480
346.593	7668
346.679	2186
346.765	3701
346.851	5906
346.937	2760
347.023	3385
347.108	3133
347.194	2287
347.280	3147
347.366	4169
347.452	11933
347.538	15258
347.624	9182
347.710	5221
347.796	2422
347.882	2882
347.967	2517
348.053	1671
348.139	2634
348.225	2047
348.311	2554
348.397	2583
348.482	3490
348.568	2961
348.654	3836
348.740	15575
348.825	12513
348.911	6541
348.997	6378
349.083	9288
349.168	2595
349.254	2855
349.340	2929
349.425	3148
349.511	3114
349.597	2855
349.682	2689
349.768	5473
349.854	3189
349.939	2716
350.025	2377
350.110	2085
350.196	3062
350.282	1922
350.367	3544
350.453	2894
350.538	2894
350.624	1952
350.709	2941
350.795	2472
350.880	1612
350.966	3074
351.051	2839
351.137	2944
351.222	2596
351.308	3408
351.393	3542
351.479	2393
351.564	1878
351.649	3168
351.735	3349
351.820	2382
351.906	1967
351.991	2095
352.076	3813
352.162	3208
352.247	2840
352.332	2007
352.418	2975
352.503	1981
352.588	4744
352.673	4115
352.759	2615
352.844	1736
352.929	2476
353.014	1529
353.100	2739
353.185	2900
353.270	2303
353.355	2850
353.441	3053
353.526	2025
353.611	2277
353.696	2179
353.781	3198
353.866	1663
353.952	3766
354.037	1770
354.122	3424
354.207	3409
354.292	2880
354.377	2392
354.462	2964
354.547	1723
354.632	3407
354.717	3283
354.802	2260
354.887	3173
354.972	2728
355.057	2307
355.142	2947
355.227	3184
355.312	2894
355.397	3019
355.482	3768
355.567	2263
355.652	3828
355.737	2727
355.822	4562
355.907	3779
355.991	3628
356.076	2548
356.161	2823
356.246	2971
356.331	2894
356.416	2804
356.501	11472
356.585	9142
356.670	1988
356.755	5019
356.840	3822
356.924	7982
357.009	20965
357.094	8911
357.179	3080
357.263	3409
357.348	4227
357.433	2900
357.517	4118
357.602	2940
357.687	2902
357.771	2850
357.856	3272
357.941	3911
358.025	8139
358.110	27516
358.195	12151
358.279	4148
358.364	3946
358.448	5141
358.533	8493
358.617	6058
358.702	6927
358.787	4227
358.871	4575
358.956	2878
359.040	2985
359.125	3119
359.209	2393
359.294	3787
359.378	5940
359.462	5070
359.547	3515
359.631	3419
359.716	1749
359.800	2812
359.885	3890
359.969	2103
360.053	3403
360.138	2194
360.222	2363
360.306	3001
360.391	3288
360.475	4125
360.559	4241
360.644	4517
360.728	3258
360.812	8420
360.896	14623
360.981	5393
361.065	3276
361.149	3725
361.233	3844
361.318	2610
361.402	3453
361.486	4630
361.570	3966
361.654	3912
361.739	4732
361.823	10353
361.907	15450
361.991	5491
362.075	6443
362.159	6455
362.243	14733
362.327	36283
362.411	60491
362.495	22248
362.580	10368
362.664	9072
362.748	9309
362.832	15184
362.916	29901
363.000	95613
363.084	142448
363.168	58239
363.252	16571
363.336	10863
363.420	8059
363.503	7870
363.587	7737
363.671	6322
363.755	5637
363.839	8198
363.923	5925
364.007	8560
364.091	10951
364.175	16337
364.258	39017
364.342	100614
364.426	200692
364.510	104462
364.594	30226
364.677	15307
364.761	16446
364.845	12865
364.929	6219
365.013	5051
365.096	4843
365.180	3518
365.264	4923
365.347	7442
365.431	5163
365.515	2830
365.598	2604
365.682	5158
365.766	2708
365.849	3286
365.933	3140
366.017	5305
366.100	3276
366.184	2570
366.267	5410
366.351	4204
366.435	3011
366.518	2682
366.602	4071
366.685	3356
366.769	3951
366.852	3564
366.936	3979
367.019	4718
367.103	3103
367.186	4588
367.270	4008
367.353	3318
367.436	5063
367.520	4314
367.603	4827
367.687	2851
367.770	4049
367.853	4706
367.937	6897
368.020	7315
368.104	3210
368.187	4387
368.270	4574
368.353	2889
368.437	2892
368.520	3510
368.603	4098
368.687	3922
368.770	6534
368.853	3300
368.936	4234
369.020	3832
369.103	2819
369.186	2112
369.269	2116
369.352	3239
369.436	3088
369.519	3341
369.602	980
369.685	4982
369.768	2061
369.851	4091
369.934	2925
370.018	2709
370.101	2172
370.184	5210
370.267	3974
370.350	3455
370.433	5036
370.516	11937
370.599	28785
370.682	10399
370.765	7617
370.848	7421
370.931	8448
371.014	6291
371.097	2679
371.180	4921
371.263	5045
371.346	3286
371.429	4642
371.511	3337
371.594	4451
371.677	5312
371.760	6666
371.843	6911
371.926	15444
372.009	27478
372.091	16042
372.174	9106
372.257	13461
372.340	8364
372.423	8597
372.505	8516
372.588	6251
372.671	7667
372.754	9918
372.836	7399
372.919	6517
373.002	7794
373.085	5761
373.167	6648
373.250	7606
373.332	9497
373.415	17256
373.498	29747
373.580	17378
373.663	44513
373.746	42845
373.828	8983
373.911	6594
373.993	3945
374.076	5578
374.159	4151
374.241	5088
374.324	8038
374.406	6872
374.489	10325
374.571	23113
374.654	9353
374.736	7283
374.819	14433
374.901	22975
374.983	21448
375.066	8515
375.148	6099
375.231	5785
375.313	7728
375.395	5628
375.478	5638
375.560	5329
375.643	5412
375.725	8558
375.807	17773
375.890	13560
375.972	3990
376.054	4964
376.136	5053
376.219	3698
376.301	7386
376.383	12882
376.465	5762
376.548	3961
376.630	5171
376.712	10631
376.794	5414
376.877	3711
376.959	2211
377.041	4058
377.123	2378
377.205	4152
377.287	2666
377.369	3940
377.452	3431
377.534	4237
377.616	3457
377.698	3371
377.780	3093
377.862	4456
377.944	4844
378.026	2731
378.108	4011
378.190	3262
378.272	3569
378.354	3094
378.436	2224
378.518	3136
378.600	2868
378.682	3877
378.764	5443
378.846	5021
378.928	2598
379.010	1830
379.091	3483
379.173	3641
379.255	2938
379.337	2698
379.419	3482
379.501	7863
379.583	4281
379.664	2874
379.746	2558
379.828	6835
379.910	5328
379.991	6965
380.073	3395
380.155	3144
380.237	3069
380.318	3262
380.400	3125
380.482	5188
380.564	4288
380.645	4442
380.727	4566
380.809	4302
380.890	3475
380.972	2898
381.053	3893
381.135	4538
381.217	3972
381.298	7154
381.380	5162
381.461	5633
381.543	11210
381.624	12665
381.706	6819
381.787	5184
381.869	7087
381.951	10209
382.032	23865
382.113	17744
382.195	5458
382.276	10056
382.358	9615
382.439	15700
382.521	19175
382.602	27297
382.684	21084
382.765	34671
382.846	94750
382.928	211288
383.009	117651
383.090	92496
383.172	252441
383.253	307000
383.334	105717
383.416	48792
383.497	34525
383.578	39313
383.659	79337
383.741	223795
383.822	393846
383.903	211822
383.984	64514
384.066	39172
384.147	23396
384.228	16311
384.309	14252
384.390	13701
384.471	11529
384.553	10695
384.634	10510
384.715	10435
384.796	9203
384.877	9035
384.958	12196
385.039	9126
385.120	7580
385.201	7524
385.282	7154
385.363	10117
385.444	10600
385.525	11769
385.606	14544
385.687	12938
385.768	7954
385.849	7457
385.930	16603
386.011	22638
386.092	9689
386.173	8098
386.254	6671
386.335	7024
386.416	6606
386.496	7221
386.577	8385
386.658	6750
386.739	5292
386.820	7708
386.901	5966
386.981	7835
387.062	9229
387.143	8926
387.224	12211
387.304	13474
387.385	12246
387.466	8097
387.547	11788
387.627	11808
387.708	13074
387.789	16989
387.869	15087
387.950	10786
388.031	8086
388.111	5148
388.192	8337
388.273	9771
388.353	7814
388.434	4977
388.514	6642
388.595	12784
388.676	12447
388.756	7544
388.837	7008
388.917	5853
388.998	3147
389.078	5236
389.159	4705
389.239	3265
389.320	5993
389.400	2361
389.480	5186
389.561	6312
389.641	5990
389.722	4753
389.802	4218
389.883	5576
389.963	9654
390.043	6200
390.124	4015
390.204	5217
390.284	6306
390.365	4685
390.445	5937
390.525	8453
390.605	8173
390.686	5041
390.766	5020
390.846	6317
390.927	4375
391.007	3169
391.087	4710
391.167	4697
391.247	3414
391.328	5370
391.408	5438
391.488	5378
391.568	3593
391.648	5839
391.728	7098
391.808	7499
391.888	6992
391.969	7848
392.049	8661
392.129	8587
392.209	8755
392.289	12314
392.369	10187
392.449	10233
392.529	10698
392.609	13359
392.689	14783
392.769	19646
392.849	22494
392.929	27973
393.009	39106
393.089	56801
393.169	105628
393.248	250793
393.328	490318
393.408	470024
393.488	232349
393.568	97517
393.648	51716
393.728	31765
393.807	22781
393.887	18364
393.967	15646
394.047	12006
394.127	10657
394.206	10485
394.286	13055
394.366	39675
394.446	40195
394.525	11101
394.605	7814
394.685	7945
394.764	8863
394.844	16206
394.924	19418
395.003	9028
395.083	6700
395.163	7151
395.242	5215
395.322	5780
395.402	4343
395.481	8221
395.561	7479
395.640	25509
395.720	48032
395.799	22084
395.879	8324
395.958	8126
396.038	15150
396.117	54713
396.197	57539
396.276	18145
396.356	13522
396.435	17513
396.515	24015
396.594	37225
396.673	79224
396.753	228120
396.832	437147
396.912	320678
396.991	110796
397.070	47083
397.150	27137
397.229	24249
397.308	42362
397.388	73711
397.467	32244
397.546	13252
397.625	7584
397.705	10265
397.784	7287
397.863	6328
397.942	6078
398.022	6146
398.101	4998
398.180	6611
398.259	5005
398.338	5728
398.417	4100
398.497	4508
398.576	4409
398.655	2667
398.734	4023
398.813	3767
398.892	4252
398.971	5872
399.050	3584
399.129	1795
399.208	3752
399.287	3707
399.366	2166
399.445	3038
399.524	3650
399.603	2163
399.682	3372
399.761	3424
399.840	4563
399.919	5024
399.998	2576
400.077	1575
400.156	1712
400.235	5098
400.313	1878
400.392	1718
400.471	3786
400.550	4425
400.629	1586
400.708	3224
400.786	1796
400.865	2392
400.944	1305
401.023	4162
401.102	1910
401.180	1507
401.259	2388
401.338	1464
401.416	2497
401.495	973
401.574	2649
401.652	1171
401.731	2923
401.810	1379
401.888	2457
401.967	857
402.046	1892
402.124	2043
402.203	667
402.281	2346
402.360	1277
402.438	2659
402.517	452
402.596	2319
402.674	1888
402.753	1645
402.831	2189
402.910	2567
402.988	2529
403.066	7525
403.145	5729
403.223	4888
403.302	4806
403.380	5825
403.459	5297
403.537	3013
403.615	2129
403.694	1897
403.772	3152
403.850	2243
403.929	2073
404.007	1809
404.085	2889
404.164	1261
404.242	1753
404.320	3443
404.398	3638
404.477	4554
404.555	13107
404.633	10520
404.711	3461
404.789	2649
404.868	1797
404.946	896
405.024	2088
405.102	1611
405.180	982
405.258	292
405.336	2199
405.415	1349
405.493	1902
405.571	2031
405.649	1681
405.727	1548
405.805	3775
405.883	3591
405.961	3153
406.039	863
406.117	458
406.195	2076
406.273	2219
406.351	8609
406.429	5990
406.507	1133
406.585	570
406.663	1390
406.740	300
406.818	959
406.896	1253
406.974	2227
407.052	1117
407.130	5060
407.208	6033
407.285	2801
407.363	1433
407.441	1715
407.519	1547
407.596	1703
407.674	3366
407.752	10189
407.830	7482
407.907	2870
407.985	457
408.063	1328
408.141	1145
408.218	1813
408.296	530
408.373	1539
408.451	2636
408.529	2080
408.606	2180
408.684	2504
408.762	2037
408.839	2232
408.917	3097
408.994	3195
409.072	3000
409.149	6015
409.227	9731
409.304	13703
409.382	14538
409.459	17057
409.537	22512
409.614	19021
409.692	13487
409.769	13867
409.846	22356
409.924	27701
410.001	16395
410.079	10469
410.156	8242
410.233	5477
410.311	3614
410.388	4731
410.465	4410
410.543	3613
410.620	4556
410.697	4579
410.775	3973
410.852	3601
410.929	5051
411.006	5612
411.083	4082
411.161	4025
411.238	4088
411.315	3356
411.392	2575
411.469	2972
411.547	3310
411.624	1249
411.701	1525
411.778	2064
411.855	1240
411.932	1307
412.009	1986
412.086	2030
412.163	2192
412.240	1126
412.317	2330
412.394	1750
412.471	1889
412.548	1542
412.625	573
412.702	1398
412.779	2692
412.856	2077
412.933	1683
413.010	1707
413.087	1381
413.164	1861
413.241	3209
413.318	1079
413.395	2056
413.471	1427
413.548	1184
413.625	2315
413.702	25
413.779	891
413.855	1340
413.932	703
414.009	605
414.086	1773
414.162	1432
414.239	1921
414.316	1862
414.393	3464
414.469	1031
414.546	677
414.623	1864
414.699	1248
414.776	647
414.853	693
414.929	1447
415.006	805
415.082	1642
415.159	875
415.236	1238
415.312	2076
415.389	1399
415.465	1018
415.542	818
415.618	937
415.695	1795
415.771	-150
415.848	590
415.924	909
416.000	1828
416.077	1907
416.153	-45
416.230	-20
416.306	1243
416.383	1182
416.459	2005
416.535	72
416.612	1294
416.688	1191
416.764	2196
416.841	827
416.917	1774
416.993	1393
417.069	1241
417.146	615
417.222	1139
417.298	1105
417.374	458
417.451	1507
417.527	600
417.603	861
417.679	507
417.755	968
417.831	619
417.908	1753
417.984	605
418.060	-216
418.136	1510
418.212	1104
418.288	521
418.364	799
418.440	419
418.516	1870
418.592	558
418.668	778
418.744	893
418.820	2118
418.896	1797
418.972	421
419.048	450
419.124	3279
419.200	-424
419.276	1980
419.352	867
419.428	1569
419.504	1009
419.579	2087
419.655	2020
419.731	1422
419.807	2616
419.883	1780
419.959	1888
420.034	1842
420.110	1898
420.186	2330
420.262	3512
420.337	2682
420.413	1978
420.489	2325
420.565	3670
420.640	3547
420.716	4039
420.792	2443
420.867	4552
420.943	3991
421.019	4253
421.094	4038
421.170	4776
421.245	4265
421.321	6076
421.397	6148
421.472	8706
421.548	11639
421.623	9561
421.699	9383
421.774	10503
421.850	10697
421.925	13857
422.001	17431
422.076	20071
422.152	25546
422.227	34419
422.302	49458
422.378	72109
422.453	118790
422.529	193798
422.604	231735
422.679	183257
422.755	215749
422.830	189898
422.905	121941
422.981	78469
423.056	55327
423.131	40764
423.207	31320
423.282	23726
423.357	19416
423.432	15501
423.508	13563
423.583	12525
423.658	11065
423.733	9335
423.808	9012
423.883	8523
423.959	9960
424.034	12266
424.109	11624
424.184	6805
424.259	5437
424.334	4822
424.409	4732
424.484	3690
424.559	4807
424.634	3615
424.709	2968
424.784	2900
424.859	2806
424.934	2632
425.009	3141
425.084	4206
425.159	1698
425.234	2736
425.309	1725
425.384	2305
425.459	1856
425.534	2843
425.609	1328
425.683	1247
425.758	1336
425.833	1562
425.908	1872
425.983	1889
426.058	3774
426.132	1836
426.207	1594
426.282	2138
426.357	1889
426.431	1602
426.506	1796
426.581	1515
426.655	1472
426.730	1889
426.805	745
426.879	856
426.954	592
427.029	538
427.103	2587
427.178	5137
427.253	3320
427.327	1182
427.402	446
427.476	1317
427.551	1264
427.625	918
427.700	553
427.774	91
427.849	1334
427.923	1365
427.998	2284
428.072	2319
428.147	5527
428.221	30721
428.296	90317
428.370	44654
428.444	6007
428.519	2273
428.593	1046
428.667	2242
428.742	3156
428.816	11012
428.890	56227
428.965	78096
429.039	17998
429.113	3568
429.188	1845
429.262	2005
429.336	1177
429.410	1454
429.485	1775
429.559	2251
429.633	1828
429.707	2480
429.781	9283
429.855	52296
429.930	69543
430.004	17010
430.078	10305
430.152	35381
430.226	120269
430.300	107496
430.374	22672
430.448	6407
430.522	4132
430.596	5243
430.670	17625
430.744	69778
430.818	70142
430.892	11366
430.966	2942
431.040	1576
431.114	909
431.188	677
431.262	515
431.336	1086
431.410	1471
431.484	277
431.557	1980
431.631	1636
431.705	4858
431.779	24401
431.853	86756
431.927	52098
432.000	7126
432.074	1863
432.148	1407
432.222	-156
432.295	157
432.369	-229
432.443	-222
432.516	1462
432.590	5499
432.664	1727
432.737	-244
432.811	-438
432.885	-86
432.958	170
433.032	-149
433.106	-915
433.179	-83
433.253	-606
433.326	-352
433.400	-162
433.473	381
433.547	-283
433.620	362
433.694	-522
433.767	-20
433.841	-235
433.914	-7
433.988	-299
434.061	415
434.134	340
434.208	165
434.281	-158
434.355	-123
434.428	470
434.501	-62
434.575	751
434.648	42
434.721	-68
434.795	-16
434.868	218
434.941	-180
435.014	18
435.088	720
435.161	1830
435.234	3041
435.307	2728
435.381	3946
435.454	5662
435.527	11698
435.600	12080
435.673	8089
435.746	4706
435.819	2955
435.892	2526
435.966	1204
436.039	1454
436.112	643
436.185	641
436.258	-217
436.331	171
436.404	-320
436.477	-957
436.550	-67
436.623	161
436.696	-367
436.769	271
436.842	-506
436.915	227
436.987	55
437.060	-120
437.133	-529
437.206	-141
437.279	-62
437.352	-243
437.425	-470
437.498	178
437.570	603
437.643	-98
437.716	-546
437.789	-104
437.861	-294
437.934	-75
438.007	-470
438.080	51
438.152	-409
438.225	1116
438.298	3559
438.370	9883
438.443	3066
438.516	179
438.588	113
438.661	233
438.734	297
438.806	61
438.879	101
438.951	-849
439.024	-172
439.096	-799
439.169	-45
439.241	93
439.314	-319
439.386	220
439.459	527
439.531	-264
439.604	235
439.676	272
439.749	-151
439.821	-379
439.893	-99
439.966	-263
440.038	325
440.110	-553
440.183	-537
440.255	88
440.327	1223
440.400	1081
440.472	4951
440.544	2045
440.617	434
440.689	431
440.761	837
440.833	716
440.905	987
440.978	-148
441.050	95
441.122	-112
441.194	132
441.266	830
441.338	-166
441.411	371
441.483	1220
441.555	1203
441.627	287
441.699	65
441.771	827
441.843	148
441.915	-323
441.987	95
442.059	634
442.131	1031
442.203	2740
442.275	1781
442.347	4689
442.419	14153
442.491	68697
442.563	133578
442.635	46972
442.706	9156
442.778	4371
442.850	3150
442.922	2487
442.994	1918
443.066	3045
443.137	4138
443.209	5657
443.281	9116
443.353	20349
443.425	77648
443.496	210877
443.568	202947
443.640	79113
443.711	16651
443.783	6904
443.855	4716
443.926	3439
443.998	2236
444.070	2299
444.141	1942
444.213	1872
444.285	1094
444.356	1144
444.428	1129
444.499	1242
444.571	1102
444.642	1386
444.714	1508
444.785	1714
444.857	1888
444.928	1952
445.000	2440
445.071	5086
445.143	5101
445.214	8480
445.285	15543
445.357	41202
445.428	144354
445.500	241143
445.571	183381
445.642	118932
445.714	38140
445.785	12365
445.856	5672
445.928	3943
445.999	2728
446.070	1825
446.141	1725
446.213	1518
446.284	1401
446.355	1437
446.426	1093
446.497	699
446.569	229
446.640	-203
446.711	444
446.782	225
446.853	812
446.924	326
446.995	-93
447.066	355
447.138	674
447.209	461
447.280	-958
447.351	-95
447.422	-1113
447.493	306
447.564	82
447.635	-326
447.706	735
447.777	-389
447.847	259
447.918	-847
447.989	976
448.060	165
448.131	-191
448.202	-697
448.273	-144
448.344	711
448.414	16
448.485	-745
448.556	-507
448.627	-470
448.698	623
448.768	-45
448.839	-128
448.910	96
448.981	-519
449.051	-465
449.122	-270
449.193	-638
449.263	-248
449.334	-386
449.405	-108
449.475	-123
449.546	28
449.616	773
449.687	329
449.758	174
449.828	-1128
449.899	-651
449.969	-262
450.040	-810
450.110	-637
450.181	-309
450.251	-275
450.322	77
450.392	225
450.463	-542
450.533	-297
450.604	510
450.674	129
450.744	394
450.815	16
450.885	835
450.955	627
451.026	1036
451.096	-87
451.166	-352
451.237	691
451.307	2305
451.377	314
451.447	-193
451.518	-201
451.588	-967
451.658	65
451.728	-108
451.799	-584
451.869	317
451.939	-513
452.009	210
452.079	-551
452.149	312
452.219	488
452.289	426
452.360	-425
452.430	655
452.500	918
452.570	2931
452.640	8141
452.710	23748
452.780	22320
452.850	9587
452.920	3051
452.990	2083
453.060	1315
453.129	-64
453.199	559
453.269	840
453.339	720
453.409	607
453.479	492
453.549	595
453.619	901
453.688	-40
453.758	-479
453.828	-1394
453.898	-450
453.968	-1148
454.037	115
454.087	-542
454.107	-816
454.168	-1078
454.177	-1127
454.247	-902
454.249	-878
454.316	-573
454.330	-504
454.386	-252
454.411	-215
454.456	-210
454.492	-2
454.525	186
454.574	55
454.595	-14
454.655	100
454.665	115
454.734	-230
454.736	-221
454.804	-302
454.817	-184
454.873	297
454.898	288
454.943	284
454.979	-296
455.013	-867
455.060	-591
455.082	-478
455.141	-380
455.152	-374
455.221	-346
455.222	-332
455.291	-12
455.303	-128
455.360	-630
455.384	-329
455.430	205
455.465	86
455.499	-140
455.546	-69
455.569	42
455.627	502
455.638	573
455.707	-1240
455.708	-1221
455.777	-465
455.789	-486
455.846	-555
455.869	-467
455.916	-302
455.950	-247
455.985	-203
456.031	-48
456.054	-4
456.112	81
456.124	117
456.193	-483
456.193	-497
456.262	154
456.274	195
456.332	582
456.355	431
456.401	-60
456.436	187
456.470	388
456.516	478
456.540	577
456.597	-352
456.609	-543
456.678	344
456.678	337
456.747	1
456.759	-7
456.817	25
456.840	55
456.886	47
456.920	283
456.955	561
457.001	447
457.024	399
457.082	913
457.093	951
457.162	1160
457.163	1166
457.232	630
457.243	684
457.301	833
457.324	800
457.370	735
457.405	1001
457.439	1283
457.485	910
457.508	675
457.566	1596
457.577	1930
457.646	3202
457.647	3237
457.715	9380
457.727	10688
457.784	19105
457.808	27426
457.853	37664
457.889	42369
457.922	42285
457.969	25567
457.991	23870
458.050	29887
458.060	30925
458.129	60720
458.130	61411
458.198	62303
458.211	54589
458.267	25471
458.292	16943
458.336	9712
458.372	9291
458.405	13822
458.453	22899
458.474	29382
458.533	56877
458.543	58926
458.611	98591
458.614	98565
458.680	55309
458.694	42613
458.749	16404
458.775	11451
458.818	5768
458.855	4156
458.887	3284
458.936	2865
458.955	2601
459.016	2094
459.024	2097
459.093	1469
459.097	1493
459.162	1475
459.177	1465
459.230	1617
459.257	1719
459.299	1765
459.338	1588
459.368	1438
459.418	1822
459.437	2017
459.499	1526
459.505	1454
459.574	1600
459.579	1620
459.643	1795
459.659	1719
459.711	1435
459.740	1488
459.780	1481
459.820	1103
459.849	1003
459.900	1100
459.917	1095
459.981	1508
459.986	1513
460.054	1064
460.061	1061
460.123	1407
460.141	1464
460.191	1496
460.222	1510
460.260	1416
460.302	1417
460.328	1468
460.382	1317
460.397	1382
460.462	1767
460.465	1773
460.534	2599
460.543	2636
460.602	6021
460.623	7587
460.671	11438
460.703	15467
460.739	15072
460.783	11774
460.808	9869
460.864	2248
460.876	1543
460.944	1621
460.945	1617
461.013	1675
461.024	1641
461.081	1264
461.104	1247
461.150	1132
461.184	1078
461.218	1275
461.264	1583
461.286	1676
461.345	1396
461.355	1324
461.423	1752
461.425	1734
461.491	846
461.505	865
461.559	1443
461.585	1560
461.628	1563
461.665	1531
461.696	1372
461.745	1582
461.764	1721
461.825	1583
461.832	1604
461.901	1804
461.905	1842
461.969	1176
461.985	909
462.037	1601
462.065	2016
462.105	1456
462.145	969
462.173	1107
462.225	1330
462.241	1326
462.305	1597
462.310	1627
462.378	1684
462.385	1714
462.446	1868
462.465	1846
462.514	1766
462.545	1813
462.582	1594
462.625	1441
462.650	1674
462.705	1883
462.718	1735
462.785	1139
462.786	1147
462.854	1445
462.865	1489
462.922	1640
462.945	1804
462.990	1870
463.025	1696
463.058	1612
463.104	1636
463.126	1522
463.184	1388
463.194	1502
463.262	1780
463.264	1802
463.330	2015
463.344	2044
463.398	2370
463.424	2446
463.466	1608
463.504	1058
463.533	1497
463.583	1949
463.601	1741
463.663	1204
463.669	1214
463.737	1402
463.743	1369
463.805	1634
463.823	1889
463.873	2181
463.903	2267
463.940	1966
463.982	1472
464.008	1623
464.062	2043
464.076	1947
464.142	1331
464.144	1351
464.211	2186
464.221	2273
464.279	1173
464.301	878
464.347	1512
464.381	1820
464.414	1719
464.461	1486
464.482	1377
464.540	1224
464.550	1218
464.617	1255
464.620	1250
464.685	1960
464.699	2143
464.753	1914
464.779	1705
464.820	1520
464.859	1380
464.888	983
464.938	294
464.956	622
465.018	1897
465.023	1943
465.091	2400
465.098	2428
465.158	2230
465.177	2270
465.226	2229
465.257	2062
465.293	2264
465.336	2497
465.361	2459
465.416	2373
465.428	2390
465.495	2562
465.496	2561
465.563	1389
465.575	1212
465.631	1664
465.654	1886
465.698	1748
465.734	1525
465.765	2005
465.813	2775
465.833	2408
465.893	1329
465.900	1400
465.968	1847
465.972	1874
466.035	1425
466.052	1326
466.102	1405
466.131	1473
466.170	1909
466.210	2262
466.237	2235
466.290	2237
466.304	2229
466.369	2071
466.372	2061
466.439	1657
466.449	1594
466.506	1360
466.528	1251
466.573	1877
466.607	2347
466.641	2459
466.687	2662
466.708	2506
466.766	1965
466.775	2018
466.842	2398
466.845	2413
466.909	2006
466.925	1891
466.977	2321
467.004	2562
467.044	2371
467.083	2168
467.111	2212
467.163	2260
467.178	2246
467.242	2193
467.245	2202
467.312	2325
467.321	2340
467.379	2275
467.400	2244
467.446	2708
467.480	3040
467.559	2999
467.638	2560
467.717	1534
467.796	3171
467.875	2987
467.955	3180
468.034	3586
468.113	3692
468.192	4627
468.271	5579
468.350	9356
468.429	15250
468.508	17468
468.588	9883
468.667	5179
468.746	4426
468.825	2780
468.904	3374
468.983	2462
469.062	3103
469.141	3404
469.220	1583
469.299	2570
469.378	1392
469.456	3005
469.535	3048
469.614	2562
469.693	2468
469.772	3252
469.851	3829
469.930	3264
470.009	3797
470.088	3521
470.166	6287
470.245	13084
470.324	16543
470.403	8822
470.482	5230
470.560	3736
470.639	2459
470.718	3467
470.797	2921
470.875	3109
470.954	2529
471.033	2878
471.111	2190
471.190	2663
471.269	2840
471.347	2573
471.426	1961
471.505	2977
471.583	1847
471.662	2965
471.740	2809
471.819	2851
471.898	2825
471.976	2796
472.055	1872
472.133	1896
472.212	3552
472.290	2080
472.369	2113
472.447	3286
472.526	3023
472.604	3199
472.683	2926
472.761	2300
472.839	2557
472.918	3165
472.996	2290
473.075	3566
473.153	2626
473.231	2406
473.310	3000
473.388	2591
473.466	2532
473.545	3483
473.623	3114
473.701	2436
473.780	3267
473.858	1376
473.936	4364
474.014	3225
474.093	3153
474.171	3121
474.249	3085
474.327	2935
474.405	2270
474.484	3510
474.562	2280
474.640	3010
474.718	3272
474.796	2738
474.874	3083
474.952	2587
475.030	2396
475.108	3314
475.187	2994
475.265	3036
475.343	3781
475.421	3097
475.499	2748
475.577	2573
475.655	3400
475.733	3531
475.811	2747
475.889	2970
475.966	3154
476.044	2511
476.122	2903
476.200	3166
476.278	2727
476.356	3179
476.434	2368
476.512	3297
476.590	3363
476.667	3130
476.745	2352
476.823	3470
476.901	3257
476.979	2901
477.056	2439
477.134	2414
477.212	2790
477.290	3601
477.367	2269
477.445	2906
477.523	1740
477.601	2531
477.678	3083
477.756	2969
477.834	2815
477.911	2465
477.989	3332
478.066	2153
478.144	2406
478.222	2657
478.299	3034
478.377	2387
478.454	2231
478.532	2650
478.609	1283
478.687	3206
478.764	2211
478.842	2492
478.919	2529
478.997	2711
479.074	1483
479.152	2079
479.229	2433
479.307	2915
479.384	2919
479.461	2698
479.539	1774
479.616	2441
479.694	2295
479.771	2971
479.848	2467
479.926	944
480.003	3275
480.080	2516
480.157	2042
480.235	2367
480.312	2278
480.389	2210
480.467	2175
480.544	1914
480.621	2317
480.698	3187
480.775	4025
480.853	3201
480.930	2450
481.007	2681
481.084	3170
481.161	3412
481.238	2317
481.315	2221
481.392	1907
481.470	1806
481.547	3070
481.624	2618
481.701	2200
481.778	2506
481.855	2804
481.932	3329
482.009	3746
482.086	3673
482.163	4320
482.240	5183
482.317	5245
482.393	4749
482.470	3935
482.547	4381
482.624	3333
482.701	4045
482.778	1839
482.855	3415
482.932	1938
483.009	3114
483.085	3735
483.162	5062
483.239	5113
483.316	5570
483.393	5946
483.469	4915
483.546	4378
483.623	2782
483.699	2506
483.776	2422
483.853	2307
483.930	2970
484.006	2800
484.083	3422
484.160	3548
484.236	3741
484.313	3120
484.389	2033
484.466	4128
484.543	5285
484.619	7115
484.696	10138
484.772	4810
484.849	4183
484.925	3437
485.002	3164
485.078	2944
485.155	2413
485.231	2064
485.308	2445
485.384	2753
485.461	2149
485.537	2221
485.614	3327
485.690	2466
485.766	2500
485.843	1944
485.919	2026
485.995	1990
486.072	2064
486.148	1827
486.224	3210
486.301	1770
486.377	2753
486.453	1977
486.530	2373
486.606	3393
486.682	2661
486.758	2893
486.835	3045
486.911	1560
486.987	4376
487.063	4598
487.139	4426
487.215	5132
487.292	6329
487.368	6963
487.444	8136
487.520	13117
487.596	18801
487.672	54078
487.748	190725
487.824	282281
487.900	73801
487.976	16576
488.052	8685
488.128	6737
488.204	3022
488.280	5026
488.356	4537
488.432	3484
488.508	4627
488.584	3115
488.660	2656
488.736	3127
488.812	2419
488.888	3022
488.964	2094
489.039	3339
489.115	4465
489.191	3496
489.267	1791
489.343	2144
489.418	2401
489.494	2170
489.570	1078
489.646	4511
489.722	3089
489.797	2780
489.873	1853
489.949	2509
490.024	2723
490.100	2770
490.176	2434
490.251	1792
490.327	2875
490.403	2202
490.478	2885
490.554	2828
490.629	2862
490.705	2438
490.781	3538
490.856	2488
490.932	2349
491.007	1805
491.083	1656
491.158	2289
491.234	3203
491.309	2574
491.385	1872
491.460	1676
491.536	3011
491.611	2210
491.686	2926
491.762	3379
491.837	3374
491.913	3463
491.988	4622
492.063	3904
492.139	2672
492.214	1695
492.289	2207
492.365	2817
492.440	2665
492.515	2416
492.590	2286
492.666	2227
492.741	2743
492.816	2170
492.891	2627
492.967	2498
493.042	2386
493.117	2459
493.192	2668
493.267	3340
493.342	3487
493.418	3666
493.493	2653
493.568	2261
493.643	2746
493.718	2480
493.793	2858
493.868	2407
493.943	2316
494.018	2889
494.093	2525
494.168	3461
494.243	1860
494.318	2360
494.393	1960
494.468	2476
494.543	2803
494.618	2315
494.693	2137
494.768	2970
494.842	3047
494.917	3364
494.992	2373
495.067	2698
495.142	2392
495.217	1620
495.292	2621
495.366	2721
495.441	2666
495.516	3903
495.591	2365
495.665	4915
495.740	7417
495.815	4837
495.890	2032
495.964	673
496.039	4072
496.114	3106
496.188	3166
496.263	3685
496.338	2732
496.412	2437
496.487	2971
496.561	3645
496.636	2698
496.710	2603
496.785	2651
496.860	3163
496.934	2908
497.009	3229
497.083	4005
497.158	3350
497.232	3225
497.307	3695
497.381	4207
497.455	3724
497.530	2954
497.604	2588
497.679	3076
497.753	2448
497.827	2622
497.902	1527
497.976	2431
498.050	3245
498.125	5113
498.199	5977
498.273	3086
498.348	3414
498.422	4361
498.496	4313
498.570	4888
498.645	3034
498.719	693
498.793	2254
498.867	2779
498.941	1678
499.016	2722
499.090	4483
499.164	3802
499.238	2809
499.312	3541
499.386	3082
499.460	3733
499.534	5017
499.609	5094
499.683	3421
499.757	2353
499.831	1874
499.905	2998
499.979	2639
500.053	1951
500.127	1513
500.201	1287
500.275	2831
500.349	3403
500.422	2640
500.496	4764
500.570	5287
500.644	7917
500.718	7254
500.792	2351
500.866	1987
500.940	1739
501.013	2046
501.087	1695
501.161	1344
501.235	-119
501.309	3328
501.382	2019
501.456	3602
501.530	1776
501.603	910
501.677	1386
501.751	253
501.825	3457
501.898	1852
501.972	2537
502.046	1479
502.119	1102
502.193	1352
502.266	1434
502.340	1042
502.413	1269
502.487	1406
502.561	876
502.634	1895
502.708	1525
502.781	373
502.855	1818
502.928	-501
503.002	1592
503.075	1027
503.149	863
503.222	1307
503.295	1333
503.369	2409
503.442	1366
503.516	2384
503.589	3811
503.662	3958
503.736	4569
503.809	6521
503.882	8160
503.956	12418
504.029	29972
504.102	105550
504.175	160079
504.249	47554
504.322	13792
504.395	6925
504.468	4942
504.542	3246
504.615	1248
504.688	2833
504.761	423
504.834	1965
504.907	663
504.980	1532
505.053	1458
505.127	-923
505.200	4067
505.273	650
505.346	1442
505.419	126
505.492	2591
505.565	357
505.638	1376
505.711	-336
505.784	-384
505.857	556
505.930	2471
506.003	490
506.076	2821
506.149	322
506.221	-820
506.294	2431
506.367	-414
506.440	281
506.513	1403
506.586	1279
506.659	1594
506.731	686
506.804	-58
506.877	-34
506.950	1072
507.022	2251
507.095	-326
507.168	115
507.241	2209
507.313	-31
507.386	610
507.459	1768
507.531	724
507.604	-438
507.677	1940
507.749	-949
507.822	1637
507.894	812
507.967	1893
508.040	-219
508.112	663
508.185	1111
508.257	-956
508.330	2373
508.402	172
508.475	392
508.547	1179
508.620	651
508.692	477
508.765	1529
508.837	-431
508.909	881
508.982	-80
509.054	1371
509.127	398
509.199	-208
509.271	275
509.344	429
509.416	652
509.488	372
509.560	1947
509.633	370
509.705	812
509.777	1022
509.849	780
509.922	-704
509.994	1100
510.066	1410
510.138	-583
510.210	2659
510.283	1038
510.355	1332
510.427	1595
510.499	630
510.571	80
510.643	146
510.715	1860
510.787	-876
510.859	2031
510.931	761
511.003	481
511.076	1627
511.148	527
511.219	278
511.291	79
511.363	1795
511.435	259
511.507	-656
511.579	1135
511.651	1984
511.723	994
511.795	863
511.867	-23
511.939	1055
512.010	167
512.082	1512
512.154	-173
512.226	151
512.298	2273
512.369	474
512.441	1178
512.513	1055
512.585	-830
512.656	1606
512.728	1047
512.800	1019
512.871	1479
512.943	350
513.015	-1082
513.086	1343
513.158	1497
513.230	-409
513.301	135
513.373	1242
513.444	764
513.516	513
513.588	361
513.659	1721
513.731	771
513.802	-110
513.874	2514
513.945	1263
514.016	-186
514.088	1554
514.159	-619
514.231	1020
514.302	563
514.374	1111
514.445	-1128
514.516	3271
514.588	-48
514.659	68
514.730	-474
514.802	2181
514.873	-1349
514.944	3361
515.016	924
515.087	-272
515.158	388
515.229	1545
515.301	-231
515.372	2017
515.443	-326
515.514	596
515.585	-393
515.656	1920
515.728	2451
515.799	424
515.870	1334
515.941	1868
516.012	173
516.083	4142
516.154	1820
516.225	3598
516.296	6666
516.367	5543
516.438	8028
516.509	10841
516.580	17926
516.651	82759
516.722	275418
516.793	99333
516.864	15654
516.935	14543
517.006	18834
517.077	24783
517.148	66415
517.219	341310
517.289	485708
517.360	61907
517.431	13663
517.502	6847
517.573	7718
517.643	6298
517.714	5897
517.785	7745
517.856	8247
517.926	13409
517.997	16133
518.068	19229
518.138	29350
518.209	51285
518.280	219016
518.350	727965
518.421	263316
518.492	36527
518.562	19558
518.633	19877
518.703	25379
518.774	68208
518.845	199826
518.915	187206
518.986	41562
519.056	15101
519.127	10076
519.197	6523
519.268	4755
519.338	5701
519.408	2248
519.479	2484
519.549	1867
519.620	3884
519.690	2004
519.760	2062
519.831	1564
519.901	951
519.971	1466
520.042	405
520.112	304
520.182	1907
520.253	1517
520.323	1206
520.393	396
520.463	3389
520.534	-1063
520.604	2411
520.674	1863
520.744	41
520.814	493
520.885	2003
520.955	1092
521.025	549
521.095	1521
521.165	2202
521.235	463
521.305	589
521.375	1251
521.445	971
521.515	-195
521.585	1423
521.655	-860
521.725	1239
521.795	1687
521.865	-1328
521.935	3584
522.005	94
522.075	308
522.145	2139
522.215	637
522.285	1456
522.355	499
522.424	2202
522.494	332
522.564	1498
522.634	1179
522.704	3318
522.774	667
522.843	1954
522.913	1770
522.983	1018
523.053	461
523.122	1806
523.192	910
523.262	2062
523.331	247
523.401	2078
523.471	384
523.540	2357
523.610	1089
523.680	2121
523.749	1650
523.819	2524
523.888	531
523.958	1055
524.027	1777
524.097	1521
524.166	1386
524.236	890
524.305	3458
524.375	887
524.444	551
524.514	3749
524.583	622
524.653	-204
524.722	2549
524.791	145
524.861	3582
524.930	486
524.999	889
525.069	2586
525.138	1004
525.207	1111
525.277	3730
525.346	2493
525.415	3237
525.484	3857
525.554	4098
525.623	6410
525.692	7530
525.761	9299
525.830	12928
525.900	16921
525.969	28772
526.038	56985
526.107	127328
526.176	372943
526.245	280059
526.314	74115
526.383	178621
526.452	240807
526.522	362505
526.591	315706
526.660	43123
526.729	25032
526.797	29007
526.867	41415
526.935	137705
527.004	551011
527.073	325508
527.142	33781
527.211	13866
527.280	8831
527.349	6765
527.418	3247
527.487	5614
527.555	2205
527.624	2454
527.693	1773
527.762	4083
527.831	1521
527.899	2899
527.968	1832
528.037	549
528.106	2227
528.174	2107
528.243	1917
528.312	1764
528.380	1230
528.449	828
528.518	3304
528.586	1020
528.655	2688
528.723	1142
528.792	1691
528.861	-297
528.929	683
528.998	2378
529.066	1254
529.135	1310
529.203	797
529.272	927
529.340	2675
529.409	3383
529.477	1989
529.545	1069
529.614	4456
529.682	130
529.751	1872
529.819	4552
529.887	2119
529.956	1438
530.024	3390
530.092	2123
530.161	2984
530.229	3647
530.297	1273
530.365	3108
530.434	2139
530.502	2258
530.570	2493
530.638	766
530.707	2487
530.775	3744
530.843	1547
530.911	2635
530.979	3372
531.047	2683
531.115	3833
531.183	2626
531.252	3157
531.320	1483
531.388	1257
531.456	3863
531.524	1892
531.592	3899
531.660	4840
531.728	2120
531.796	2250
531.864	3233
531.932	2714
532.000	2360
532.067	2561
532.135	3654
532.203	4715
532.271	3218
532.339	4575
532.407	3875
532.475	3912
532.542	4037
532.610	3820
532.678	2817
532.746	6300
532.814	8915
532.881	5079
532.949	4567
533.017	3933
533.084	3723
533.152	2905
533.220	2941
533.287	2095
533.355	3378
533.423	3944
533.490	3613
533.558	3562
533.625	4021
533.693	3163
533.761	3788
533.828	4425
533.896	1787
533.963	4486
534.031	3849
534.098	6805
534.166	6360
534.233	5567
534.300	8252
534.368	6782
534.435	6872
534.503	7548
534.570	9247
534.637	10568
534.705	12227
534.772	14558
534.840	32302
534.907	163043
534.974	195747
535.041	21652
535.109	8494
535.176	7578
535.243	6859
535.310	6566
535.378	5159
535.445	6592
535.512	5915
535.579	6110
535.646	5947
535.714	6274
535.781	6932
535.848	6408
535.915	6860
535.982	4962
536.049	5804
536.116	7332
536.183	5550
536.250	5377
536.317	5269
536.384	7358
536.451	6082
536.518	6964
536.585	4918
536.652	7705
536.719	7768
536.786	5218
536.853	6216
536.920	7375
536.987	6852
537.053	4861
537.120	9592
537.187	9609
537.254	6617
537.321	6949
537.388	8729
537.454	6536
537.521	8101
537.588	5984
537.654	7993
537.721	7927
537.788	8004
537.855	7118
537.921	7276
537.988	6327
538.055	6941
538.121	5129
538.188	6005
538.254	6414
538.321	7494
538.388	6371
538.454	7795
538.521	7487
538.587	8398
538.654	6205
538.720	6997
538.787	7027
538.853	7471
538.920	7387
538.986	6077
539.053	5191
539.119	6578
539.185	6368
539.252	8377
539.318	7515
539.385	9052
539.451	5347
539.517	8214
539.583	8623
539.650	7185
539.716	8309
539.782	6248
539.849	5664
539.915	7638
539.981	6471
540.047	6440
540.114	6534
540.180	7917
540.246	6747
540.312	6791
540.378	7878
540.444	8873
540.510	8332
540.576	9810
540.643	7223
540.709	5481
540.775	7223
540.841	6697
540.907	7462
540.973	6518
541.039	6659
541.105	6505
541.171	6525
541.237	7466
541.303	9027
541.369	10400
541.435	8681
541.500	7475
541.566	6046
541.632	8207
541.698	6593
541.764	8026
541.830	6985
541.896	6051
541.961	7259
542.027	6513
542.093	7886
542.159	7774
542.224	5151
542.290	8563
542.356	7283
542.421	7782
542.487	7436
542.553	6516
542.618	6737
542.684	7090
542.750	6894
542.815	8218
542.881	7063
542.947	7657
543.012	9780
543.078	7743
543.143	5772
543.209	6661
543.274	6842
543.340	7009
543.405	7181
543.471	6727
543.536	7875
543.602	7718
543.667	5028
543.732	8378
543.798	6833
543.863	8504
543.928	7443
543.994	6706
544.059	7193
544.124	7585
544.190	7502
544.255	8172
544.320	9099
544.386	6996
544.451	10148
544.516	9119
544.581	7881
544.646	8556
544.712	10237
544.777	9398
544.842	8650
544.907	8362
544.972	8656
545.037	8862
545.102	9349
545.168	9588
545.233	9547
545.298	10451
545.363	9229
545.428	10626
545.493	11657
545.558	10145
545.623	10636
545.688	9728
545.753	11212
545.818	11385
545.883	12840
545.947	12469
546.012	12951
546.077	12855
546.142	15080
546.207	14084
546.272	16102
546.337	16070
546.401	17202
546.466	17755
546.531	17525
546.596	21291
546.661	20567
546.725	23611
546.790	23343
546.855	25524
546.919	26890
546.984	32415
547.049	34414
547.113	39128
547.178	43749
547.243	50140
547.307	60194
547.372	64360
547.436	66108
547.501	69214
547.565	75645
547.630	68284
547.695	64221
547.759	64557
547.823	65698
547.888	68452
547.952	69889
548.017	72058
548.081	74086
548.146	72923
548.210	75966
548.274	82348
548.339	79747
548.403	73421
548.468	69426
548.532	67575
548.596	70050
548.660	69953
548.725	76092
548.789	84134
548.853	80588
548.917	77307
548.982	74225
549.046	66693
549.110	60329
549.174	62715
549.238	74120
549.303	79790
549.367	84046
549.431	77709
549.495	73470
549.559	73277
549.623	86958
549.687	96269
549.751	91558
549.815	110914
549.879	114530
549.943	107369
550.007	113029
550.071	112052
550.135	100333
550.199	95969
550.263	93519
550.327	87412
550.391	90241
550.455	101552
550.519	107316
550.582	113937
550.646	128325
550.710	129640
550.774	128029
550.838	128992
550.901	132088
550.965	140272
551.029	143629
551.093	154810
551.156	164057
551.220	186943
551.284	212623
551.347	165404
551.411	140119
551.475	133875
551.538	140782
551.602	130299
551.666	121591
551.729	115656
551.793	113548
551.856	112610
551.920	109392
551.983	108797
552.047	108217
552.110	108569
552.174	111032
552.237	113976
552.301	105810
552.364	102204
552.428	99205
552.491	101059
552.554	103471
552.618	102741
552.681	107615
552.745	103970
552.808	117728
552.871	131219
552.934	113678
552.998	104939
553.061	101900
553.124	95969
553.187	96941
553.251	99354
553.314	100652
553.377	100560
553.440	106181
553.503	109798
553.567	107931
553.630	109228
553.693	107911
553.756	109205
553.819	107343
553.882	103234
553.945	103731
554.008	103279
554.071	104444
554.134	104876
554.197	98661
554.260	97955
554.323	99466
554.386	101072
554.449	105183
554.512	104312
554.575	100336
554.638	99247
554.701	97495
554.764	96810
554.827	94773
554.889	91391
554.952	85341
555.015	83462
555.078	85785
555.141	86477
555.203	84711
555.266	83368
555.329	84466
555.391	79077
555.454	80538
555.517	75454
555.580	73086
555.642	70110
555.705	69796
555.768	68642
555.830	67592
555.893	63001
555.955	63246
556.018	60653
556.080	60285
556.143	62013
556.206	61880
556.268	59605
556.330	58541
556.393	58330
556.455	55798
556.518	54319
556.580	53477
556.643	50080
556.705	49793
556.767	48317
556.830	48448
556.892	47527
556.955	45697
557.017	45449
557.079	44554
557.142	42733
557.204	41914
557.266	43248
557.328	40098
557.391	37760
557.453	36086
557.515	36166
557.577	38249
557.639	37757
557.701	38230
557.764	37063
557.826	37517
557.888	40099
557.950	39977
558.012	44395
558.074	56384
558.136	120361
558.198	270412
558.260	95345
558.322	41220
558.384	40344
558.446	42963
558.508	46005
558.570	51513
558.632	57915
558.694	74419
558.756	125761
558.818	354094
558.880	728441
558.942	279611
559.003	280740
559.065	130624
559.127	51745
559.189	49846
559.251	55658
559.312	81336
559.374	192727
559.436	551203
559.498	263241
559.559	58335
559.621	48566
559.683	57483
559.744	94701
559.806	297408
559.868	412352
559.929	85899
559.991	56235
560.052	92788
560.114	260371
560.176	158595
560.237	149889
560.299	232098
560.360	49175
560.422	19833
560.483	18991
560.545	17226
560.606	16305
560.667	15063
560.729	15212
560.790	14075
560.852	14230
560.913	13142
560.974	12810
561.036	12476
561.097	12663
561.158	11634
561.220	12622
561.281	10688
561.342	10960
561.403	11932
561.465	10431
561.526	12178
561.587	11980
561.648	9695
561.709	10317
561.771	10530
561.832	9086
561.893	9331
561.954	9721
562.015	9360
562.076	10181
562.137	9648
562.198	9648
562.259	10034
562.320	9104
562.381	9346
562.442	9228
562.503	9132
562.564	8695
562.625	9195
562.686	8411
562.747	8096
562.808	8394
562.869	8090
562.930	8797
562.991	7656
563.051	7658
563.112	7398
563.173	7392
563.234	6954
563.294	8018
563.355	6794
563.416	7693
563.477	7605
563.537	7055
563.598	6983
563.659	8009
563.720	7038
563.780	7609
563.841	6976
563.901	8080
563.962	7763
564.023	7204
564.083	7217
564.144	6654
564.204	6599
564.265	6490
564.325	6928
564.386	7339
564.446	7013
564.507	6601
564.567	6536
564.628	5815
564.688	6266
564.749	6160
564.809	6571
564.869	5654
564.930	6392
564.990	6691
565.050	6607
565.111	7065
565.171	6015
565.231	6143
565.292	7732
565.352	5625
565.412	7053
565.472	6530
565.532	6529
565.593	6082
565.653	6000
565.713	5997
565.773	6657
565.833	6920
565.893	7267
565.953	5617
566.013	5485
566.074	5819
566.134	6138
566.194	5311
566.254	6504
566.314	6027
566.374	5603
566.434	6254
566.494	5976
566.554	6165
566.614	5453
566.673	5931
566.733	6842
566.793	6539
566.853	6364
566.913	6480
566.973	6294
567.033	6315
567.092	5933
567.152	7433
567.212	6994
567.272	6923
567.331	5947
567.391	6591
567.451	7023
567.511	7653
567.570	7641
567.630	7126
567.690	6080
567.749	6561
567.809	7001
567.868	6287
567.928	6585
567.988	6308
568.047	6537
568.107	6577
568.166	6679
568.226	6765
568.285	7505
568.345	6584
568.404	7487
568.464	6388
568.523	7375
568.582	5907
568.642	6548
568.701	6464
568.761	6244
568.820	6455
568.879	7036
568.939	7398
568.998	6779
569.057	7273
569.116	5733
569.176	6600
569.235	6214
569.294	6242
569.353	6140
569.413	6577
569.472	5677
569.531	5797
569.590	6412
569.649	6016
569.708	6156
569.767	6722
569.827	6367
569.886	5853
569.945	5948
570.004	6578
570.063	6319
570.122	6704
570.181	6906
570.240	6961
570.299	7634
570.358	6728
570.417	6817
570.475	7570
570.534	7615
570.593	6588
570.652	7046
570.711	7296
570.770	6267
570.829	6442
570.887	6969
570.946	7322
571.005	7147
571.064	8101
571.122	8687
571.181	7564
571.240	6438
571.299	7382
571.357	5540
571.416	6243
571.475	6466
571.533	6569
571.592	7020
571.650	6903
571.709	7020
571.768	8835
571.826	8335
571.885	7828
571.943	6832
572.002	6588
572.060	6401
572.119	7027
572.177	6505
572.236	6886
572.294	6263
572.352	9349
572.411	7371
572.469	6636
572.528	7119
572.586	6824
572.644	6464
572.703	6314
572.761	5394
572.819	5086
572.877	5573
572.936	5706
572.994	6361
573.052	5204
573.110	5698
573.169	6401
573.227	5807
573.285	5874
573.343	6191
573.401	5896
573.459	6431
573.517	5314
573.576	6090
573.634	6269
573.692	6565
573.750	5980
573.808	5270
573.866	5936
573.924	6046
573.982	5158
574.040	4852
574.098	5703
574.155	5123
574.213	5657
574.271	5525
574.329	5490
574.387	5010
574.445	4983
574.503	4921
574.560	4483
574.618	4032
574.676	4788
574.734	4923
574.792	5008
574.849	4764
574.907	4401
574.965	3609
575.022	3989
575.080	3777
575.138	3786
575.195	3480
575.253	3549
575.311	3902
575.368	4632
575.426	3287
575.483	4516
575.541	4158
575.598	3972
575.656	3909
575.713	3935
575.771	5325
575.828	3762
575.886	3931
575.943	4184
576.001	3382
576.058	3713
576.115	3868
576.173	4109
576.230	4673
576.287	4336
576.345	4874
576.402	4290
576.459	4295
576.517	3077
576.574	3570
576.631	3675
576.688	3984
576.746	3493
576.803	2866
576.860	3204
576.917	2335
576.974	3144
577.031	3579
577.089	3556
577.146	3348
577.203	3686
577.260	3874
577.317	2343
577.374	3332
577.431	3372
577.488	3154
577.545	2209
577.602	3869
577.659	3708
577.716	4339
577.773	2804
577.830	3340
577.886	3865
577.943	3009
578.000	3106
578.057	2729
578.114	2941
578.171	2354
578.227	3173
578.284	2577
578.341	3618
578.398	3152
578.454	3410
578.511	3250
578.568	3962
578.625	3058
578.681	3557
578.738	3299
578.794	2880
578.851	3023
578.908	3593
578.964	3452
579.021	4318
579.077	2984
579.134	3915
579.190	2989
579.247	3529
579.303	2634
579.360	2967
579.416	3448
579.473	3709
579.529	3458
579.586	3165
579.642	3879
579.698	3356
579.755	3624
579.811	4589
579.867	3574
579.924	3764
579.980	3549
580.036	3949
580.093	3812
580.149	4353
580.205	4202
580.261	3634
580.317	4403
580.374	4014
580.430	4007
580.486	3802
580.542	4885
580.598	4027
580.619	4272
580.654	4697
580.692	4662
580.710	4649
580.765	4229
580.767	4214
580.823	4792
580.838	4865
580.879	5058
580.911	4904
580.935	4787
580.984	4548
580.991	4519
581.047	4719
581.057	4735
581.103	4809
581.130	4792
581.159	4774
581.203	4536
581.215	4474
581.270	4902
581.276	4836
581.326	4196
581.349	4033
581.382	3769
581.422	3838
581.438	3857
581.494	4595
581.494	4590
581.550	4035
581.567	4181
581.606	4517
581.640	4510
581.661	4507
581.713	4969
581.717	5003
581.773	4398
581.786	4508
581.829	4778
581.859	4958
581.885	5171
581.932	5090
581.940	5070
581.996	4749
582.004	4842
582.052	5278
582.077	5218
582.107	5178
582.150	5187
582.163	5163
582.219	4942
582.223	4893
582.274	4414
582.296	4760
582.330	5262
582.368	4771
582.386	4617
582.441	4955
582.441	4952
582.497	4773
582.514	4978
582.552	5741
582.587	5137
582.608	4703
582.659	5364
582.663	5396
582.719	5520
582.732	5503
582.774	5699
582.805	5383
582.830	5048
582.877	5314
582.885	5387
582.941	6629
582.950	6542
582.996	5813
583.023	6052
583.052	6606
583.095	6898
583.107	6849
583.162	6162
583.168	6168
583.218	6237
583.240	6048
583.273	5821
583.313	5647
583.328	5595
583.384	5759
583.385	5746
583.439	5307
583.458	5434
583.494	5745
583.531	5615
583.549	5607
583.603	5935
583.605	5939
583.660	6437
583.676	6314
583.715	6024
583.748	5907
583.770	5871
583.820	6436
583.825	6471
583.881	5238
583.893	5261
583.936	5697
583.965	6177
583.991	6399
584.038	6268
584.046	6307
584.101	7185
584.110	7161
584.156	6864
584.183	6940
584.211	6849
584.255	6535
584.266	6574
584.321	6615
584.328	6649
584.376	7050
584.400	7649
584.431	8180
584.472	7571
584.486	7411
584.541	8257
584.545	8226
584.596	8056
584.617	8319
584.651	8757
584.689	8913
584.706	8825
584.761	8549
584.762	8543
584.816	9178
584.834	9570
584.871	10399
584.906	10879
584.926	11051
584.978	10909
584.980	10928
585.035	12219
585.051	12621
585.090	13860
585.123	14915
585.145	15516
585.195	16468
585.200	16683
585.254	20070
585.267	20931
585.309	23934
585.340	25568
585.364	27023
585.412	32727
585.419	33821
585.473	42485
585.484	44804
585.528	59790
585.556	74435
585.583	106523
585.628	176506
585.637	202633
585.692	413192
585.700	446825
585.747	540574
585.772	471597
585.801	299610
585.845	107821
585.856	87097
585.910	42809
585.917	38364
585.965	29342
585.989	25202
586.019	22760
586.061	20747
586.074	20477
586.128	19095
586.133	18962
586.183	17935
586.205	17584
586.237	17043
586.277	16195
586.292	16230
586.346	16157
586.349	16180
586.401	16512
586.421	16216
586.455	16173
586.493	16735
586.509	17083
586.564	17105
586.565	17097
586.618	18897
586.637	19821
586.672	22779
586.709	25833
586.727	27060
586.781	29378
586.781	29411
586.835	22667
586.853	21076
586.889	19222
586.925	17405
586.944	17125
586.996	16829
586.998	16865
587.052	17476
587.068	17337
587.106	17421
587.140	17650
587.161	17729
587.212	17995
587.215	18042
587.269	18015
587.284	18164
587.323	18643
587.356	18576
587.377	18832
587.427	20140
587.431	20262
587.485	20446
587.499	20550
587.539	21241
587.571	21731
587.593	21914
587.643	22271
587.648	22419
587.702	23477
587.715	23742
587.755	24150
587.786	23763
587.810	23616
587.858	24417
587.864	24513
587.917	24184
587.930	24000
587.971	24069
588.001	24177
588.025	24235
588.073	24484
588.079	24619
588.133	24958
588.145	25042
588.187	25236
588.217	25172
588.241	25498
588.288	26025
588.295	26180
588.348	27115
588.360	27275
588.402	27984
588.431	28244
588.456	28794
588.503	29733
588.510	29997
588.564	31823
588.575	32213
588.617	33600
588.646	34309
588.671	35631
588.718	38101
588.725	38962
588.778	46714
588.789	48387
588.832	70054
588.861	86678
588.886	124914
588.932	206078
588.939	212847
588.993	259124
589.004	258125
589.047	141699
589.075	73964
589.100	59237
589.147	39411
589.154	39023
589.207	35967
589.218	35327
589.261	36372
589.290	37208
589.314	38426
589.361	41007
589.368	42434
589.421	53978
589.433	56814
589.475	95419
589.504	124742
589.528	162912
589.576	242029
589.582	233861
589.635	122971
589.647	100312
589.689	60542
589.718	37047
589.742	35623
589.790	32180
589.795	32212
589.849	32270
589.861	32215
589.902	31467
589.932	30700
589.955	30927
590.004	30958
590.009	30978
590.062	30889
590.075	30601
590.115	30680
590.146	30748
590.168	30741
590.218	30555
590.222	30675
590.275	30760
590.289	30825
590.328	31883
590.360	32462
590.381	32678
590.431	32973
590.435	33132
590.488	34162
590.503	34225
590.541	34205
590.574	34380
590.594	35069
590.645	36403
590.647	36565
590.700	37961
590.716	38236
590.753	38961
590.787	39473
590.806	39760
590.859	40200
590.859	40329
590.912	41020
590.930	41144
590.965	41833
591.001	42352
591.018	42087
591.071	40691
591.072	40559
591.124	41367
591.143	41460
591.177	41668
591.214	41801
591.230	42194
591.283	43010
591.285	42908
591.336	42318
591.356	41880
591.389	42541
591.427	43085
591.442	43038
591.495	42383
591.498	42197
591.547	42936
591.569	43172
591.600	43715
591.640	43890
591.653	44163
591.706	44938
591.711	44872
591.759	45463
591.782	45599
591.811	47259
591.853	49246
591.864	49424
591.917	49505
591.924	49362
591.969	49713
591.995	49650
592.022	50183
592.066	50709
592.075	51012
592.127	51809
592.137	51810
592.180	52917
592.208	53330
592.233	54240
592.279	55498
592.285	55859
592.338	57422
592.350	57592
592.390	57667
592.421	57416
592.443	58402
592.491	59959
592.495	60230
592.548	61263
592.562	61354
592.600	61159
592.633	60615
592.653	61235
592.704	62012
592.705	62382
592.775	63011
592.846	64514
592.916	64913
592.987	66843
593.058	66069
593.128	68416
593.199	68431
593.270	68797
593.341	69963
593.411	73289
593.482	76206
593.553	78303
593.623	77902
593.694	80078
593.764	80611
593.835	79520
593.906	81156
593.976	82814
594.047	85911
594.117	89315
594.188	90279
594.258	89783
594.329	90807
594.399	93217
594.470	95622
594.540	100617
594.611	99916
594.681	100562
594.751	98467
594.822	105927
594.892	109120
594.963	110019
595.033	114476
595.103	117581
595.174	116822
595.244	121173
595.314	125819
595.384	127165
595.455	131931
595.525	135350
595.595	141924
595.665	140766
595.736	137210
595.806	141293
595.876	142047
595.946	144739
596.016	150134
596.087	154183
596.157	155872
596.227	155969
596.297	163113
596.367	175888
596.437	185373
596.507	183533
596.577	182812
596.647	190842
596.717	198896
596.787	202160
596.857	201823
596.927	205398
596.997	202889
597.067	207558
597.137	210992
597.207	210462
597.277	213195
597.347	204088
597.417	198330
597.487	200454
597.557	201924
597.626	208949
597.696	210690
597.766	209590
597.836	197285
597.906	187721
597.975	183635
598.045	187373
598.115	195139
598.185	211538
598.254	236478
598.324	253783
598.394	257562
598.464	249961
598.533	243244
598.603	230004
598.672	222141
598.742	228972
598.812	229160
598.881	236483
598.951	233635
599.020	239330
599.090	246775
599.159	250188
599.229	238531
599.299	237901
599.368	244731
599.437	238864
599.507	221078
599.576	213255
599.646	208189
599.715	209156
599.785	204536
599.854	200759
599.924	197731
599.993	195112
600.062	200060
600.132	206741
600.201	219669
600.270	253235
600.340	267049
600.409	263077
600.478	259682
600.547	268771
600.617	238173
600.686	193228
600.755	176344
600.824	168299
600.894	163436
600.963	167448
601.032	161730
601.101	157121
601.170	152180
601.239	146341
601.308	146236
601.378	148559
601.447	149474
601.516	150167
601.585	150982
601.654	154189
601.723	154878
601.792	160148
601.861	166087
601.930	171745
601.999	171726
602.068	172229
602.137	175647
602.206	178345
602.275	179860
602.343	180921
602.412	181875
602.481	183619
602.550	186082
602.619	191424
602.688	193219
602.756	195556
602.825	197666
602.894	202884
602.963	205740
603.032	207792
603.100	208270
603.169	208624
603.238	211132
603.307	209945
603.375	214113
603.444	218712
603.513	219981
603.581	224517
603.650	227593
603.719	218074
603.787	224666
603.856	232355
603.924	238591
603.993	244632
604.061	255556
604.130	266878
604.198	268843
604.267	275985
604.335	278359
604.404	283716
604.472	286813
604.541	290699
604.609	292555
604.678	292387
604.746	295929
604.815	306986
604.883	308442
604.951	306657
605.020	315489
605.088	317839
605.156	321626
605.225	326022
605.293	325698
605.361	327347
605.429	329044
605.498	336621
605.566	345664
605.634	360074
605.702	372282
605.771	383134
605.839	385822
605.907	374482
605.975	362613
606.043	356917
606.111	354394
606.180	355839
606.248	353199
606.316	347856
606.384	350244
606.452	347543
606.520	354018
606.588	365956
606.656	370652
606.724	362176
606.792	341998
606.860	308648
606.928	282107
606.996	271360
607.064	266924
607.132	277809
607.200	291888
607.267	299575
607.335	309967
607.403	316825
607.471	301526
607.539	293696
607.607	293381
607.674	259481
607.742	261297
607.810	257633
607.878	258568
607.946	265745
608.013	274535
608.081	282443
608.149	283436
608.216	295749
608.284	304707
608.352	305027
608.419	300460
608.487	294741
608.555	288823
608.622	297971
608.690	319501
608.757	348820
608.825	353435
608.893	346298
608.960	324300
609.028	311104
609.095	312013
609.163	310784
609.230	274638
609.298	255023
609.365	271164
609.432	292659
609.500	317973
609.567	360264
609.635	408846
609.702	427075
609.769	401163
609.837	312904
609.904	273080
609.971	280429
610.039	302129
610.106	362654
610.173	582605
610.241	1069944
610.308	651707
610.375	338142
610.442	300787
610.509	287088
610.577	289958
610.644	291465
610.711	301745
610.778	308857
610.845	323319
610.912	340894
610.980	354355
611.047	353129
611.114	347358
611.181	335975
611.248	337302
611.315	357385
611.382	362492
611.449	375643
611.516	382538
611.583	376357
611.650	379945
611.717	379178
611.784	387946
611.851	399216
611.918	413664
611.984	458704
612.051	568453
612.118	880953
612.185	1509504
612.252	1088516
612.319	552969
612.386	485436
612.452	448229
612.519	426289
612.586	419239
612.653	427771
612.719	443018
612.786	423242
612.853	395050
612.919	390034
612.986	395780
613.053	374680
613.120	352001
613.186	340923
613.253	341844
613.319	343036
613.386	345711
613.453	348297
613.519	352584
613.586	346168
613.652	351409
613.719	344296
613.785	353199
613.852	358783
613.918	353374
613.985	356017
614.051	369856
614.118	365055
614.184	349212
614.250	352384
614.317	361234
614.383	356777
614.449	366547
614.516	360045
614.582	361348
614.648	354936
614.715	351535
614.781	345076
614.847	344167
614.914	342788
614.980	332885
615.046	337056
615.112	348359
615.179	349341
615.245	352792
615.311	345469
615.377	350461
615.443	353339
615.509	360192
615.575	369108
615.642	364676
615.708	371757
615.774	386500
615.840	401702
615.906	413566
615.972	468344
616.038	616636
616.104	1024138
616.170	1645847
616.236	1388357
616.302	714600
616.368	594804
616.434	458132
616.500	427484
616.565	470122
616.631	564115
616.697	474547
616.763	485499
616.829	677633
616.895	1074706
616.961	972996
617.026	506102
617.092	388648
617.158	370706
617.224	363939
617.289	337057
617.355	320100
617.421	319047
617.487	318049
617.552	305371
617.618	302596
617.684	303292
617.749	304647
617.815	292236
617.880	287708
617.946	285717
618.012	292617
618.077	300812
618.143	282492
618.208	286810
618.274	308269
618.339	306976
618.405	256272
618.470	257826
618.536	255887
618.601	252111
618.667	234386
618.732	224722
618.798	221553
618.863	221923
618.928	219673
618.994	220678
619.059	218930
619.124	222034
619.190	218865
619.255	218199
619.320	217195
619.386	219479
619.451	217816
619.516	210391
619.581	213974
619.647	223014
619.712	222008
619.777	212899
619.842	212341
619.907	216216
619.972	220772
620.038	218702
620.103	213429
620.168	213296
620.233	218055
620.298	218876
620.363	222816
620.428	229260
620.493	234058
620.558	236424
620.623	239206
620.688	237404
620.753	234038
620.818	239429
620.883	240150
620.948	238665
621.013	235350
621.078	231797
621.143	234054
621.207	239810
621.272	233134
621.337	226453
621.402	224174
621.467	222988
621.532	222006
621.596	223073
621.661	215398
621.726	214524
621.791	218109
621.855	216240
621.920	215749
621.985	217715
622.049	223533
622.114	224803
622.179	225933
622.243	232346
622.308	239981
622.373	247114
622.437	240552
622.502	228916
622.566	224990
622.631	226853
622.695	231360
622.760	229432
622.824	227585
622.889	230179
622.953	229786
623.018	244804
623.082	244881
623.147	243063
623.211	235893
623.276	237327
623.340	228610
623.404	224311
623.469	220608
623.533	226571
623.597	219653
623.662	219718
623.726	203205
623.790	192308
623.854	185451
623.919	189566
623.983	193791
624.047	196690
624.111	197057
624.176	201981
624.240	200135
624.304	207742
624.368	199163
624.432	202568
624.496	207001
624.560	216030
624.625	218174
624.689	215781
624.753	227340
624.817	216905
624.881	211794
624.945	190168
625.009	185819
625.073	190309
625.137	195277
625.201	203840
625.265	203470
625.329	195686
625.393	198296
625.456	199614
625.520	205492
625.584	208867
625.648	211406
625.712	218232
625.776	215027
625.839	203346
625.903	173386
625.967	163626
626.031	175613
626.095	209085
626.158	188185
626.222	149966
626.286	141150
626.349	137873
626.413	127875
626.477	127816
626.540	128248
626.604	126780
626.668	124772
626.731	123356
626.795	123119
626.858	124901
626.922	120429
626.986	120750
627.049	121001
627.113	126917
627.176	121831
627.240	120629
627.303	120651
627.366	117780
627.430	119668
627.493	117288
627.557	114402
627.620	117612
627.684	123664
627.747	123865
627.810	111290
627.874	102483
627.937	98270
628.000	103254
628.064	99225
628.127	88313
628.190	86716
628.253	87026
628.317	80498
628.380	79176
628.443	76169
628.506	75957
628.569	72650
628.632	69563
628.696	67563
628.759	68888
628.822	64838
628.885	64834
628.948	63103
629.011	61897
629.074	60463
629.137	58998
629.200	56629
629.263	58788
629.326	55852
629.389	57281
629.452	55379
629.515	53216
629.578	53409
629.641	55062
629.704	54470
629.767	55275
629.830	52924
629.892	51298
629.955	50359
630.018	55171
630.081	50835
630.144	51495
630.207	50206
630.269	52610
630.332	48484
630.395	49458
630.458	47410
630.520	45620
630.583	47469
630.646	48936
630.708	48803
630.771	49461
630.834	53842
630.896	51301
630.959	51661
631.021	47866
631.084	48363
631.146	49655
631.209	50065
631.272	49953
631.334	50737
631.397	50880
631.459	51884
631.522	53801
631.584	54594
631.646	58968
631.709	60662
631.771	60071
631.834	57099
631.896	54865
631.958	50388
632.021	52219
632.083	47678
632.145	47337
632.208	47605
632.270	47797
632.332	46941
632.395	46363
632.457	48233
632.519	45521
632.581	47878
632.643	44775
632.706	45545
632.768	44600
632.830	47276
632.892	48267
632.954	47041
633.016	48343
633.078	47054
633.141	47066
633.203	45488
633.265	47018
633.327	46034
633.389	47199
633.451	46930
633.513	45828
633.575	48769
633.637	47858
633.698	48083
633.760	51277
633.822	52829
633.884	54329
633.946	56352
634.008	56763
634.070	56619
634.132	59919
634.193	64382
634.255	70825
634.317	71756
634.379	69896
634.441	62946
634.502	57926
634.564	52934
634.626	49541
634.687	47155
634.749	46076
634.811	45437
634.873	44647
634.934	45357
634.996	45805
635.057	44514
635.119	44851
635.181	46724
635.242	48253
635.304	45214
635.365	49793
635.427	45427
635.488	46710
635.550	44996
635.611	47707
635.673	44866
635.734	50151
635.796	50704
635.857	57043
635.918	59787
635.980	67062
636.041	69172
636.102	74543
636.164	74291
636.225	71879
636.286	60646
636.348	55823
636.409	49870
636.470	46687
636.531	47248
636.593	43982
636.654	43704
636.715	42408
636.776	41563
636.838	40657
636.899	40582
636.960	39551
637.021	38639
637.082	38064
637.143	36648
637.204	36530
637.265	36705
637.326	38083
637.387	38946
637.448	37897
637.509	37560
637.570	37970
637.631	38372
637.692	34603
637.753	34564
637.814	36344
637.875	34090
637.936	36575
637.997	35122
638.058	33807
638.119	34716
638.179	34020
638.240	34189
638.301	35599
638.362	33179
638.423	33329
638.483	34092
638.544	31606
638.605	32828
638.666	32722
638.726	33357
638.787	32757
638.848	32302
638.908	31747
638.969	31302
639.030	30224
639.090	30027
639.151	30703
639.211	31640
639.272	31544
639.332	31345
639.393	33826
639.453	33628
639.514	35739
639.574	30277
639.635	28594
639.695	29606
639.756	28057
639.816	27876
639.877	28168
639.937	29572
639.997	29139
640.058	28206
640.118	27226
640.178	28703
640.239	28143
640.299	28752
640.359	29609
640.420	32183
640.480	35284
640.540	39511
640.600	38876
640.661	34695
640.721	32129
640.781	33485
640.841	28499
640.901	29540
640.961	29911
641.021	30850
641.082	32817
641.142	29619
641.202	28457
641.262	26056
641.322	27830
641.382	25987
641.442	27407
641.502	27627
641.562	28094
641.622	26905
641.682	30003
641.742	34703
641.802	31677
641.861	27731
641.921	27134
641.981	26406
642.041	26133
642.101	24840
642.161	23171
642.221	24264
642.280	26121
642.340	24736
642.400	25234
642.460	26309
642.519	25750
642.579	26418
642.639	27558
642.698	24085
642.758	29338
642.818	25854
642.877	26628
642.937	26365
642.997	26227
643.056	26558
643.116	25213
643.175	27699
643.235	27016
643.294	28166
643.354	29743
643.414	31475
643.473	35556
643.532	39866
643.592	51762
643.651	76032
643.711	123607
643.770	230307
643.830	525439
643.889	839791
643.948	260506
644.008	75536
644.067	48363
644.126	36555
644.186	32078
644.245	29788
644.304	27560
644.363	28687
644.423	25289
644.482	26053
644.541	27923
644.600	27866
644.659	35863
644.719	42174
644.778	61551
644.837	102616
644.896	210312
644.955	418891
645.014	131230
645.073	41576
645.132	32128
645.191	30179
645.250	29112
645.309	30646
645.368	33591
645.427	46464
645.486	80523
645.545	127468
645.604	37724
645.663	28338
645.722	26932
645.781	27860
645.840	30887
645.898	37020
645.957	48239
646.016	69280
646.075	116140
646.134	222904
646.192	546255
646.251	646471
646.310	141713
646.369	55913
646.427	48170
646.486	35598
646.545	29039
646.603	26987
646.662	25349
646.721	24457
646.779	24158
646.838	24990
646.896	31707
646.955	40730
647.014	64053
647.072	123063
647.131	309498
647.189	126965
647.248	29820
647.306	24434
647.365	22029
647.423	19064
647.481	21222
647.540	18706
647.598	19804
647.657	19543
647.715	19900
647.773	17378
647.832	19109
647.890	15568
647.948	15878
648.007	16199
648.065	15894
648.123	15508
648.181	17343
648.240	16135
648.298	15944
648.356	15313
648.414	15941
648.472	13961
648.531	14914
648.589	14389
648.647	14489
648.705	14999
648.763	14943
648.821	15496
648.879	16189
648.937	17556
648.995	20667
649.053	24239
649.111	36039
649.169	56545
649.227	100717
649.285	212501
649.343	514425
649.401	221509
649.459	42289
649.516	25828
649.574	20659
649.632	22125
649.690	24175
649.748	30048
649.806	43534
649.863	85273
649.921	236253
649.979	129620
650.037	24257
650.094	14664
650.152	15459
650.210	13850
650.268	13854
650.325	12637
650.383	11680
650.440	10083
650.498	11317
650.556	11333
650.613	10597
650.671	11075
650.728	11523
650.786	12516
650.843	18015
650.901	12289
650.958	11220
651.016	10164
651.073	10756
651.131	8481
651.188	9332
651.246	8863
651.303	8803
651.360	9172
651.418	9086
651.475	9428
651.532	8191
651.590	9643
651.647	8165
651.704	8466
651.762	8813
651.819	8928
651.876	8657
651.933	7851
651.990	9591
652.048	7002
652.105	6731
652.162	8145
652.219	7593
652.276	8104
652.333	8086
652.390	6926
652.448	7821
652.505	7570
652.562	7205
652.619	7709
652.676	7422
652.733	8896
652.790	7590
652.847	6524
652.904	7358
652.961	5916
653.017	5837
653.074	7214
653.131	7130
653.188	5769
653.245	7378
653.302	7086
653.359	6767
653.415	6967
653.472	6806
653.529	7050
653.586	6176
653.642	6662
653.699	8596
653.756	6335
653.813	6426
653.869	7303
653.926	7673
653.983	6804
654.039	7230
654.096	6123
654.152	7729
654.209	5929
654.266	6508
654.322	4625
654.379	6503
654.435	6833
654.492	6285
654.548	7429
654.605	6133
654.661	6520
654.717	6175
654.774	6738
654.830	6071
654.887	5437
654.943	5387
655.000	6226
655.056	6621
655.112	6908
655.168	6693
655.225	6373
655.281	7288
655.337	6555
655.394	5566
655.450	5608
655.506	5798
655.562	5357
655.618	6451
655.675	5508
655.731	6247
655.787	5071
655.843	6631
655.899	5140
655.955	6457
656.011	5986
656.067	5033
656.123	6271
656.179	6030
656.235	6677
656.291	6191
656.347	7302
656.403	5066
656.459	5635
656.515	6145
656.571	6213
656.627	5714
656.683	5385
656.739	5856
656.795	5656
656.850	5742
656.906	5245
656.962	7135
657.018	5627
657.074	8320
657.129	11414
657.185	18557
657.241	44248
657.297	19166
657.352	6537
657.408	6175
657.464	5153
657.519	5121
657.575	4533
657.630	5226
657.686	4683
657.742	4684
657.797	5334
657.853	4752
657.908	6087
657.964	4728
658.019	4787
658.075	4776
658.130	5348
658.186	3934
658.241	5572
658.297	4514
658.352	3912
658.407	5699
658.463	3569
658.518	4777
658.573	4917
658.629	4108
658.684	3514
658.739	4557
658.795	3755
658.850	5236
658.905	3837
658.960	5022
659.016	3743
659.071	4610
659.126	3880
659.181	4565
659.236	5242
659.291	5408
659.346	3511
659.401	4968
659.457	4359
659.512	3741
659.567	4611
659.622	4014
659.677	4004
659.732	3514
659.787	4121
659.842	3760
659.897	4318
659.952	4863
660.007	4594
660.061	4065
660.116	2403
660.171	2988
660.226	3440
660.281	5006
660.336	3555
660.391	5125
660.445	2669
660.500	3481
660.555	3563
660.610	3817
660.664	4124
660.719	3613
660.774	3876
660.828	3508
660.883	2736
660.938	4470
660.992	1632
661.047	3977
661.101	3607
661.156	3777
661.211	3049
661.265	3578
661.320	3107
661.374	3735
661.429	3580
661.483	3896
661.538	2476
661.592	3940
661.647	3722
661.701	4433
661.755	3561
661.810	3455
661.864	2802
661.919	3749
661.973	4214
662.027	4047
662.081	2494
662.136	3455
662.190	3541
662.244	3700
662.299	3290
662.353	3210
662.407	3095
662.461	3238
662.515	3597
662.569	3527
662.624	3441
662.678	3458
662.732	3096
662.786	3149
662.840	3385
662.894	3800
662.948	3256
663.002	3276
663.056	3564
663.110	3415
663.164	3830
663.218	3490
663.272	4120
663.326	3486
663.380	3813
663.434	3665
663.488	3160
663.542	3628
663.595	3800
663.649	2987
663.703	4382
663.757	3811
663.811	3018
663.864	4034
663.918	3126
663.972	4081
664.026	3946
664.079	4411
664.133	4786
664.187	4560
664.240	2913
664.294	3842
664.348	3821
664.401	4293
664.455	3364
664.508	3879
664.562	3058
664.615	3818
664.669	2959
664.722	3682
664.776	3126
664.829	2802
664.883	3725
664.936	3670
664.990	3052
665.043	3805
665.097	3156
665.150	3870
665.203	3325
665.257	4580
665.310	3560
665.363	4785
665.417	3579
665.470	4071
665.523	3708
665.576	4021
665.630	3925
665.683	4083
665.736	4140
665.789	4243
665.842	3443
665.895	4075
665.949	3575
666.002	4482
666.055	3812
666.108	5137
666.161	3913
666.214	5445
666.267	4053
666.320	5735
666.373	3519
666.426	4103
666.479	4163
666.532	4299
666.585	4236
666.638	5320
666.691	4426
666.744	4499
666.796	3581
666.849	4400
666.902	3944
666.955	4441
667.008	4457
667.060	4328
667.113	3391
667.166	4954
667.219	4548
667.271	4827
667.324	4126
667.377	3824
667.430	4911
667.482	4879
667.535	3705
667.587	4971
667.640	3857
667.693	4079
667.745	3812
667.798	4596
667.850	3416
667.903	4800
667.955	4414
668.008	4161
668.060	4176
668.113	4633
668.165	4416
668.218	4543
668.270	3031
668.322	3634
668.375	3151
668.427	4941
668.479	4883
668.532	4545
668.584	4019
668.636	4252
668.689	3852
668.741	3941
668.793	4149
668.845	4245
668.898	3666
668.950	4360
669.002	5094
669.054	3225
669.106	2871
669.158	4038
669.211	4129
669.263	3970
669.315	3988
669.367	4070
669.419	3629
669.471	4171
669.523	4027
669.575	4685
669.627	3426
669.679	3607
669.731	3727
669.783	3664
669.835	3792
669.886	3759
669.938	3948
669.990	4124
670.042	2704
670.094	3302
670.146	3380
670.197	4192
670.249	3800
670.301	4173
670.353	4415
670.404	4402
670.456	3771
670.508	4698
670.560	5610
670.611	7108
670.663	10556
670.715	24101
670.766	28744
670.818	7583
670.869	3997
670.921	3821
670.972	4540
671.024	3669
671.075	3441
671.127	5031
671.178	4780
671.230	4241
671.281	4361
671.333	5565
671.384	6147
671.436	9336
671.487	12938
671.538	19595
671.590	32593
671.641	55518
671.692	105147
671.744	184942
671.795	110543
671.846	36638
671.897	17901
671.949	11356
672.000	8093
672.051	6700
672.102	5462
672.153	4617
672.204	4635
672.256	4706
672.307	3228
672.358	3377
672.409	3181
672.460	3334
672.511	3061
672.562	2724
672.613	1780
672.664	2839
672.715	2868
672.766	2695
672.817	1919
672.868	3266
672.919	2590
672.970	2146
673.021	2344
673.071	1796
673.122	1854
673.173	1786
673.224	2561
673.275	1881
673.326	1680
673.376	2397
673.427	1894
673.478	2573
673.528	2828
673.579	2525
673.630	3071
673.680	3048
673.731	2605
673.782	2249
673.832	1901
673.883	2070
673.934	1951
673.984	2573
674.035	1724
674.085	2766
674.136	2665
674.186	2473
674.237	2263
674.287	2533
674.338	2122
674.388	2134
674.438	1999
674.489	3027
674.539	2018
674.589	3134
674.640	2284
674.690	2946
674.740	1949
674.791	3109
674.841	1961
674.891	1537
674.942	1434
674.992	736
675.042	1165
675.092	1051
675.142	1795
675.193	1624
675.243	1325
675.293	1434
675.343	1694
675.393	2119
675.443	2110
675.493	1892
675.543	1419
675.593	2314
675.643	2171
675.693	1602
675.743	1904
675.793	1815
675.843	1078
675.893	1980
675.943	1928
675.993	1169
676.043	998
676.093	1586
676.142	1631
676.192	1680
676.242	734
676.292	1478
676.341	1109
676.391	2166
676.441	1289
676.491	1187
676.540	555
676.590	1473
676.640	1303
676.689	1665
676.739	594
676.789	978
676.838	765
676.888	1525
676.937	567
676.987	1329
677.037	1446
677.086	1032
677.136	481
677.185	1697
677.235	1103
677.284	1691
677.333	961
677.383	1334
677.432	532
677.482	1207
677.531	578
677.580	723
677.630	1736
677.679	1355
677.728	937
677.778	953
677.827	852
677.876	1234
677.925	501
677.975	1468
678.024	1438
678.073	2019
678.122	1174
678.171	1980
678.220	775
678.269	2438
678.319	1884
678.368	2475
678.417	2133
678.466	2054
678.515	1912
678.564	443
678.613	313
678.662	1740
678.711	596
678.760	690
678.809	749
678.857	1572
678.906	762
678.955	594
679.004	1377
679.053	1169
679.102	655
679.151	763
679.199	831
679.248	2281
679.297	1129
679.346	1411
679.394	9
679.443	895
679.492	30
679.540	1445
679.589	906
679.638	651
679.686	442
679.735	1727
679.784	2048
679.832	2782
679.881	986
679.929	1605
679.978	27
680.026	1648
680.075	1160
680.123	1144
680.172	920
680.220	1099
680.268	1345
680.317	887
680.365	411
680.414	399
680.462	1419
680.510	953
680.559	402
680.607	1013
680.655	178
680.703	1236
680.752	586
680.800	1010
680.848	768
680.896	1035
680.945	762
680.993	344
681.041	50
681.089	1303
681.137	306
681.185	1082
681.233	521
681.258	423
681.281	303
681.329	1462
681.377	646
681.380	705
681.425	1261
681.473	1492
681.502	1319
681.521	1142
681.569	2215
681.617	1274
681.624	1336
681.665	1522
681.713	1773
681.745	1802
681.761	1774
681.809	1422
681.857	2206
681.867	2091
681.904	1555
681.952	2588
681.989	2467
682.000	2395
682.048	2087
682.096	1701
682.111	1844
682.143	2096
682.191	1602
682.233	2347
682.239	2424
682.286	1827
682.334	1806
682.354	1989
682.382	2175
682.430	2876
682.476	2032
682.477	1987
682.525	2121
682.572	1313
682.598	1419
682.620	1499
682.667	2372
682.715	2745
682.720	2788
682.763	2848
682.810	3259
682.841	3049
682.857	2929
682.905	2530
682.952	3000
682.963	3021
683.000	2945
683.047	2961
683.085	3670
683.095	3852
683.142	3306
683.190	3523
683.206	3223
683.237	2507
683.284	3431
683.328	2803
683.332	2744
683.379	3762
683.426	3211
683.449	3241
683.473	3208
683.521	4007
683.568	3313
683.571	3347
683.615	3429
683.662	4641
683.693	3713
683.709	3175
683.757	3705
683.804	3480
683.814	3519
683.851	3644
683.898	3473
683.936	4152
683.945	4296
683.992	3469
684.039	4113
684.057	4019
684.086	3770
684.133	4079
684.179	3603
684.180	3576
684.227	4701
684.274	4606
684.300	4755
684.321	4792
684.368	3586
684.415	4567
684.422	4515
684.462	4147
684.509	4505
684.543	4750
684.556	4826
684.603	5305
684.649	4662
684.665	4859
684.696	5173
684.743	5084
684.786	4922
684.790	4892
684.837	4621
684.883	5247
684.908	4996
684.930	4795
684.977	5236
685.023	5230
685.029	5211
685.070	4746
685.117	5257
685.150	4837
685.164	4750
685.210	5107
685.257	5956
685.272	5914
685.303	5683
685.350	6038
685.393	5439
685.396	5369
685.443	5132
685.490	5240
685.514	5210
685.536	5266
685.583	5372
685.629	5106
685.636	5130
685.675	5227
685.722	5660
685.757	5977
685.768	6031
685.815	5422
685.861	5613
685.878	5532
685.908	5553
685.954	5689
686.000	6163
686.000	6162
686.047	6253
686.093	6506
686.121	6677
686.139	6714
686.185	6872
686.232	5966
686.242	6066
686.278	6531
686.324	6518
686.363	6670
686.370	6675
686.416	5956
686.463	6981
686.484	6910
686.509	6769
686.555	6310
686.601	6000
686.606	6013
686.647	6324
686.693	6274
686.727	6627
686.739	6740
686.785	6444
686.831	7085
686.848	7038
686.877	6922
686.923	6977
686.969	7025
686.969	7024
687.015	7189
687.061	7253
687.090	7497
687.107	7619
687.153	7593
687.199	7636
687.211	7574
687.245	7241
687.291	7072
687.332	7023
687.336	7048
687.382	7824
687.428	7341
687.453	7928
687.474	8220
687.520	7448
687.565	7478
687.574	7342
687.611	7081
687.657	7714
687.695	8138
687.702	8227
687.748	8097
687.794	8720
687.816	8574
687.839	8324
687.885	7946
687.931	8325
687.937	8278
687.976	8073
688.022	8373
688.058	8311
688.067	8279
688.113	8629
688.158	7608
688.179	7950
688.204	8462
688.249	8678
688.295	8909
688.300	8875
688.340	8500
688.386	8807
688.421	8111
688.431	7954
688.477	8295
688.522	8286
688.542	8673
688.567	9371
688.613	9345
688.658	9204
688.663	9261
688.703	9224
688.749	8755
688.784	8663
688.794	8709
688.839	9062
688.884	9267
688.905	9297
688.930	9292
688.975	9270
689.020	8921
689.026	8867
689.065	8557
689.110	8634
689.146	8659
689.155	8746
689.201	9151
689.246	9479
689.267	9485
689.291	9271
689.336	9723
689.381	9666
689.388	9549
689.426	9338
689.471	9451
689.509	9781
689.516	9791
689.561	9734
689.606	8733
689.630	9072
689.651	9644
689.696	9652
689.741	10377
689.750	10420
689.785	10284
689.830	9888
689.871	9691
689.875	9689
689.920	9884
689.965	9666
689.992	9643
690.010	9693
690.054	9452
690.099	9322
690.112	9481
690.144	9864
690.189	9560
690.233	9465
690.233	9479
690.278	9624
690.323	9775
690.354	9914
690.367	10024
690.412	9703
690.457	9788
690.474	9944
690.501	10109
690.546	10115
690.590	9704
690.595	9667
690.635	9618
690.680	9881
690.716	9920
690.724	9966
690.769	9579
690.813	10145
690.836	10256
690.857	10532
690.902	10880
690.946	11251
690.957	11450
690.991	12084
691.035	11795
691.077	12459
691.080	12488
691.124	11989
691.168	12200
691.198	11699
691.213	11488
691.257	11664
691.301	10739
691.318	10845
691.346	11144
691.390	10640
691.434	10901
691.439	10812
691.478	10488
691.522	10826
691.559	11081
691.567	11160
691.611	11641
691.655	11864
691.680	11844
691.699	11724
691.743	11483
691.787	11485
691.800	11360
691.831	11299
691.875	11167
691.919	11570
691.921	11547
691.964	11276
692.008	10924
692.041	11020
692.052	11209
692.096	11530
692.139	11914
692.162	11965
692.183	11765
692.227	11601
692.271	11197
692.282	11157
692.315	11473
692.359	11661
692.402	11789
692.403	11811
692.447	11750
692.490	11492
692.523	11360
692.534	11387
692.578	11965
692.622	11544
692.643	11462
692.666	11434
692.709	11647
692.753	12130
692.763	12030
692.797	11820
692.840	12255
692.884	12120
692.884	12142
692.928	11981
692.971	11551
693.004	11327
693.015	11443
693.059	11678
693.102	12116
693.124	12312
693.146	12308
693.189	11943
693.233	11563
693.245	11593
693.276	11969
693.320	12301
693.363	12268
693.365	12237
693.407	12218
693.450	12612
693.485	12580
693.493	12602
693.537	12732
693.580	12664
693.605	12947
693.624	13080
693.667	12786
693.710	12540
693.725	12517
693.753	13388
693.797	14640
693.840	15740
693.845	15840
693.883	15068
693.926	14313
693.966	13386
693.970	13387
694.013	13160
694.056	13041
694.086	12751
694.099	12670
694.142	12461
694.185	12466
694.206	12272
694.229	12414
694.272	12864
694.315	13204
694.326	13314
694.358	13459
694.401	13442
694.444	13292
694.446	13259
694.487	13166
694.530	13043
694.566	12901
694.573	12941
694.616	13053
694.659	13094
694.686	13109
694.702	13276
694.745	13719
694.787	14102
694.806	14201
694.830	14114
694.873	13863
694.916	13708
694.926	13606
694.959	13728
695.002	14072
695.044	14286
695.046	14266
695.087	14685
695.130	14827
695.166	14963
695.172	14995
695.215	15042
695.258	15317
695.286	15115
695.301	15249
695.343	15880
695.386	16537
695.406	16819
695.428	17446
695.471	18480
695.514	19409
695.526	19711
695.556	20930
695.599	22363
695.641	23736
695.646	23849
695.684	22873
695.726	21611
695.766	20376
695.769	20387
695.811	19856
695.854	19565
695.886	19000
695.896	19004
695.938	18831
695.981	18908
696.005	18902
696.023	19681
696.065	21293
696.108	23158
696.125	23801
696.150	24080
696.192	24428
696.235	24760
696.245	24790
696.277	24671
696.319	24494
696.361	24357
696.365	24274
696.404	24024
696.446	23777
696.485	23457
696.488	23522
696.530	23636
696.572	23569
696.604	23630
696.614	23685
696.656	23543
696.698	23641
696.724	23450
696.740	23493
696.783	23548
696.825	23726
696.844	23709
696.867	23815
696.909	23886
696.951	23851
696.964	23842
696.992	24286
697.034	24667
697.076	25182
697.083	25216
697.118	25972
697.160	26599
697.202	27329
697.203	27279
697.244	26646
697.286	26056
697.323	25258
697.327	25334
697.369	25562
697.411	25762
697.442	25843
697.453	25920
697.494	25873
697.536	26005
697.562	25939
697.578	26095
697.620	26396
697.661	26687
697.682	26731
697.703	27279
697.744	28339
697.786	29358
697.801	29620
697.828	29517
697.869	29301
697.911	29007
697.921	28897
697.952	28746
697.994	28280
698.035	27974
698.040	27855
698.077	28313
698.118	28730
698.160	29147
698.160	29072
698.201	29431
698.243	29709
698.279	29891
698.284	30070
698.325	30979
698.367	31949
698.399	32543
698.408	32728
698.449	33257
698.491	33738
698.518	33984
698.532	34042
698.573	33950
698.614	33850
698.638	33704
698.656	33764
698.697	33712
698.738	33626
698.757	33501
698.779	33539
698.820	33443
698.862	33361
698.877	33239
698.903	33550
698.944	33907
698.985	34265
698.996	34277
699.026	34195
699.067	33955
699.116	33582
699.235	33946
699.354	33517
699.474	29621
699.593	30894
699.713	30883
699.832	32294
699.951	32900
700.070	31625
700.190	29757
700.309	30064
700.428	29845
700.547	28784
700.667	27353
700.786	28753
700.905	26843
701.024	28473
701.143	26489
701.262	28125
701.381	28308
701.500	28427
701.619	27924
701.738	29634
701.857	27484
701.976	25823
702.095	27664
702.214	27837
702.333	26767
702.452	28098
702.571	27631
702.690	27663
702.809	28310
702.928	26183
703.047	24307
703.165	26550
703.284	25276
703.403	25453
703.522	25694
703.640	23803
703.759	24995
703.878	23635
703.997	24170
704.115	24381
704.234	24706
704.353	24107
704.471	21844
704.590	22386
704.708	21801
704.827	21740
704.946	21725
705.064	22225
705.183	22119
705.301	22157
705.420	21195
705.538	21127
705.656	20181
705.775	19667
705.893	20428
706.012	20511
706.130	20083
706.249	21032
706.367	19811
706.485	20174
706.604	19148
706.722	19021
706.840	20334
706.958	20188
707.077	18722
707.195	19003
707.313	19473
707.431	16951
707.549	18488
707.668	17365
707.786	19014
707.904	17471
708.022	18043
708.140	17523
708.258	17003
708.376	18919
708.494	15620
708.612	18783
708.730	17825
708.848	16265
708.966	17573
709.084	18694
709.202	17167
709.320	15589
709.438	16223
709.556	17097
709.674	14546
709.791	15482
709.909	15324
710.027	14746
710.145	14912
710.263	15265
710.380	14634
710.498	15442
710.616	15291
710.733	14854
710.851	14133
710.969	14551
711.086	13278
711.204	15441
711.322	14061
711.439	14414
711.557	13171
711.674	13386
711.792	14067
711.909	13561
712.027	12702
712.144	13037
712.262	13514
712.379	14276
712.497	13618
712.614	13077
712.732	13545
712.849	12312
712.966	12823
713.084	14113
713.201	12169
713.318	14017
713.436	14582
713.553	12939
713.670	13915
713.787	14377
713.905	12341
714.022	13987
714.139	13889
714.256	16388
714.373	21758
714.490	40085
714.608	103061
714.725	387939
714.842	292202
714.959	33371
715.076	17152
715.193	15642
715.310	14906
715.427	11815
715.544	11773
715.661	12767
715.778	11124
715.895	11425
716.011	11874
716.128	11379
716.245	12301
716.362	11160
716.479	9957
716.596	10731
716.713	11523
716.829	10984
716.946	10768
717.063	10233
717.180	9276
717.296	10822
717.413	10310
717.530	10371
717.646	9202
717.763	10221
717.880	9446
717.996	8908
718.113	9526
718.229	9388
718.346	8306
718.462	8569
718.579	9494
718.695	9052
718.812	9119
718.928	9565
719.045	8789
719.161	9165
719.277	9306
719.394	10010
719.510	9218
719.626	10421
719.743	11741
719.859	18401
719.975	37552
720.092	149560
720.208	259097
720.324	30252
720.440	12982
720.557	10517
720.673	9592
720.789	9235
720.905	8895
721.021	9542
721.137	7791
721.253	8321
721.369	7803
721.486	8178
721.602	6756
721.718	8159
721.834	8426
721.950	8718
722.066	7954
722.181	7798
722.297	8386
722.413	7248
722.529	7164
722.645	7762
722.761	7813
722.877	7809
722.993	8743
723.108	10183
723.224	8273
723.340	6950
723.456	7429
723.571	6507
723.687	7069
723.803	8089
723.918	7258
724.034	6970
724.150	6616
724.265	7623
724.381	6975
724.497	6511
724.612	7416
724.728	7463
724.843	7265
724.959	7303
725.074	6541
725.190	7365
725.305	6418
725.421	6408
725.536	6816
725.651	7713
725.767	6387
725.882	6560
725.997	6769
726.113	6909
726.228	6280
726.343	7035
726.459	6530
726.574	6640
726.689	6498
726.804	7294
726.920	6102
727.035	7308
727.150	6446
727.265	6601
727.380	6293
727.495	7288
727.610	6667
727.725	5979
727.841	6260
727.956	6128
728.071	6422
728.186	6372
728.301	5696
728.416	6725
728.531	5877
728.645	5957
728.760	6703
728.875	6291
728.990	6134
729.105	5969
729.220	5648
729.335	6291
729.449	5827
729.564	5981
729.679	5987
729.794	6788
729.908	6618
730.023	6155
730.138	5283
730.253	6019
730.367	6387
730.482	5888
730.596	6276
730.711	7783
730.826	10927
730.940	9012
731.055	7872
731.169	8266
731.284	7731
731.398	8707
731.513	8626
731.627	9817
731.742	13140
731.856	15386
731.970	13611
732.085	16626
732.199	21527
732.313	36710
732.428	94240
732.542	272821
732.656	132356
732.771	29454
732.885	20473
732.999	20198
733.113	22158
733.227	22661
733.342	20770
733.456	21183
733.570	19322
733.684	18840
733.798	18740
733.912	18268
734.026	18523
734.140	18217
734.254	16768
734.368	16983
734.482	18151
734.596	18191
734.710	16650
734.824	17430
734.938	16641
735.052	17965
735.166	16595
735.280	16679
735.393	16169
735.507	16567
735.621	15377
735.735	15813
735.849	16101
735.962	14802
736.076	15942
736.190	15565
736.303	15844
736.417	15051
736.531	14076
736.644	15096
736.758	13913
736.872	14473
736.985	14161
737.099	14222
737.212	14092
737.326	14278
737.439	14307
737.553	13088
737.666	14408
737.780	12741
737.893	14745
738.007	12897
738.120	13971
738.233	12615
738.347	13659
738.460	13070
738.573	14350
738.687	13079
738.800	12935
738.913	14202
739.026	13180
739.140	11713
739.253	12713
739.366	11808
739.479	11908
739.592	12092
739.705	10228
739.818	13666
739.932	11568
740.045	12577
740.158	11381
740.271	13253
740.384	11388
740.497	10558
740.610	11777
740.723	10951
740.836	10539
740.949	11414
741.062	12172
741.174	10615
741.287	10536
741.400	10929
741.513	9182
741.626	11499
741.739	10224
741.851	10543
741.964	10814
742.077	10178
742.189	9149
742.302	10539
742.415	10749
742.527	10540
742.640	9876
742.753	8678
742.865	10828
742.978	9944
743.090	9215
743.203	9806
743.316	7432
743.428	9072
743.541	9734
743.653	7769
743.766	9209
743.878	9844
743.990	8252
744.103	10110
744.215	8748
744.327	8384
744.440	10738
744.552	8599
744.664	8099
744.777	9874
744.889	8544
745.001	8154
745.113	9304
745.226	8618
745.338	7351
745.450	9321
745.562	8420
745.674	8327
745.786	9373
745.898	8440
746.010	7637
746.122	9252
746.234	7944
746.347	8233
746.459	8064
746.570	6606
746.682	8099
746.794	9921
746.906	7483
747.018	7674
747.130	8832
747.242	7299
747.354	7388
747.466	8650
747.577	6711
747.689	7589
747.801	8092
747.913	6998
748.024	6771
748.136	6891
748.248	6323
748.359	7165
748.471	8023
748.583	6136
748.694	6089
748.806	7979
748.918	6177
749.029	6413
749.141	7053
749.252	7742
749.364	6142
749.475	6582
749.587	6438
749.698	6309
749.809	6581
749.921	6975
750.032	5995
750.144	5574
750.255	5885
750.366	6268
750.478	6861
750.589	6762
750.700	5670
750.811	6739
750.923	5719
751.034	4910
751.145	6255
751.256	5839
751.367	5316
751.479	6105
751.590	5215
751.701	5856
751.812	4870
751.923	5684
752.034	6925
752.145	6760
752.256	6634
752.367	5650
752.478	5831
752.589	6054
752.700	6533
752.811	5364
752.922	6158
753.032	5876
753.143	5979
753.254	5635
753.365	6670
753.476	5357
753.586	5079
753.697	5819
753.808	5139
753.919	5147
754.029	5075
754.140	4771
754.251	5130
754.361	5392
754.472	5940
754.582	4525
754.693	5679
754.804	6002
754.914	5622
755.025	4949
755.135	4838
755.246	6828
755.356	5551
755.466	4840
755.577	4772
755.687	5272
755.798	5179
755.908	5143
756.018	5061
756.129	4986
756.239	4955
756.349	5599
756.460	5075
756.570	4867
756.680	5158
756.790	5506
756.900	5190
757.011	4690
757.121	3724
757.231	4529
757.341	4094
757.451	4275
757.561	4535
757.671	5533
757.781	3975
757.891	4695
758.001	4379
758.111	4742
758.221	5156
758.331	5940
758.441	4118
758.551	4998
758.661	4879
758.771	5553
758.880	4436
758.990	4983
759.100	4436
759.210	4882
759.320	5240
759.429	4503
759.539	5605
759.649	5654
759.758	6117
759.868	6784
759.978	5693
760.087	6026
760.197	5797
760.307	4879
760.416	5085
760.526	4078
760.635	4908
760.745	6512
760.854	5769
760.964	7009
761.073	6540
761.182	6184
761.292	6295
761.401	5547
761.511	4394
761.620	4061
761.729	3906
761.839	3644
761.948	4312
762.057	3915
762.166	4057
762.276	3538
762.385	5464
762.494	4074
762.603	3468
762.712	4371
762.822	4544
762.931	3770
763.040	2652
763.149	3790
763.258	3906
763.367	4382
763.476	3709
763.585	3854
763.694	3053
763.803	4398
763.912	4361
764.021	4135
764.130	3692
764.238	3907
764.347	4058
764.456	4846
764.565	3968
764.674	3641
764.783	3526
764.891	3642
765.000	4423
765.109	4890
765.217	4661
765.326	5077
765.435	4680
765.543	5373
765.652	5915
765.761	7631
765.869	9430
765.978	13979
766.086	22358
766.195	44850
766.303	112616
766.412	257409
766.520	189559
766.629	64543
766.737	26006
766.846	15637
766.954	10060
767.062	9918
767.171	7181
767.279	6653
767.387	5583
767.496	5185
767.604	4582
767.712	4545
767.820	4349
767.928	5011
768.037	3497
768.145	5114
768.253	5192
768.361	3063
768.469	3932
768.577	4765
768.685	4782
768.793	4568
768.901	3748
769.009	5596
769.117	5026
769.225	5687
769.333	7312
769.441	11101
769.549	18949
769.657	41816
769.765	128916
769.873	207767
769.981	76422
770.088	21387
770.196	12259
770.304	10242
770.412	8517
770.519	8062
770.627	6884
770.735	5799
770.842	5283
770.950	5512
771.058	6418
771.165	7725
771.273	8378
771.380	9159
771.488	11799
771.595	13362
771.703	11409
771.810	10556
771.918	9607
772.025	13745
772.133	15052
772.240	14105
772.348	16663
772.455	15250
772.562	14293
772.670	13709
772.777	14115
772.884	14132
772.991	12715
773.099	14513
773.206	12370
773.313	13311
773.420	13170
773.528	12799
773.635	12333
773.742	13174
773.849	11849
773.956	12833
774.063	12069
774.170	12380
774.277	13034
774.384	11467
774.491	10515
774.598	12291
774.705	11577
774.812	11195
774.919	11367
775.026	12123
775.133	11462
775.239	12106
775.346	10543
775.453	11385
775.560	10463
775.667	11201
775.773	9900
775.880	12178
775.987	10109
776.093	11581
776.200	11487
776.307	8755
776.413	9292
776.520	12526
776.627	10506
776.733	9323
776.840	8188
776.946	13594
777.053	8787
777.159	9505
777.266	7535
777.372	9957
777.478	9850
777.585	10546
777.691	8675
777.798	10230
777.904	9374
778.010	9027
778.117	10390
778.223	8608
778.329	9211
778.435	8040
778.542	9610
778.648	8255
778.754	8328
778.860	9098
778.966	8144
779.072	8172
779.178	8649
779.284	7105
779.391	7495
779.497	9026
779.603	9210
779.708	7079
779.815	7424
779.920	9774
780.026	9843
780.132	8135
780.238	8157
780.344	6659
780.450	9999
780.556	6247
780.661	7517
780.767	8615
780.873	5281
780.979	7913
781.085	7229
781.190	6001
781.296	6016
781.402	7169
781.507	7600
781.613	5574
781.719	6276
781.824	8438
781.930	6894
782.035	7877
782.141	8327
782.246	4759
782.352	6151
782.457	6944
782.563	6110
782.668	7299
782.773	5715
782.879	5829
782.984	6869
783.090	6893
783.195	6687
783.300	6941
783.405	5505
783.511	4849
783.616	6186
783.721	6679
783.826	5672
783.932	5823
784.037	6194
784.142	7269
784.247	5285
784.352	6218
784.457	4254
784.562	5790
784.667	6361
784.772	4802
784.877	4436
784.982	7051
785.087	5814
785.192	5444
785.297	4797
785.402	6437
785.507	5183
785.611	5519
785.716	4275
785.821	5651
785.926	5280
786.031	5949
786.135	4450
786.240	5080
786.345	3136
786.450	5084
786.554	5333
786.659	3311
786.763	3598
786.868	5584
786.973	6418
787.077	5209
787.182	3905
787.286	5667
787.391	6065
787.495	3399
787.600	3355
787.704	4284
787.809	4590
787.913	4575
788.017	4747
788.122	5981
788.226	3888
788.330	3189
788.435	4368
788.539	5427
788.643	4462
788.747	3637
788.852	4200
788.956	4148
789.060	5221
789.164	4378
789.268	3766
789.372	5654
789.476	3012
789.580	2756
789.684	3379
789.788	5493
789.892	4093
789.996	3584
790.100	2878
790.204	4497
790.308	5288
790.412	2824
790.516	2638
790.620	3155
790.724	5114
790.828	4400
790.931	1550
791.035	4544
791.139	3752
791.242	3175
791.346	3799
791.450	3725
791.554	2871
791.657	1400
791.761	3779
791.864	4865
791.968	4288
792.072	3702
792.175	3556
792.279	3140
792.382	3052
792.486	2451
792.589	3507
792.693	3955
792.796	2140
792.899	4572
793.003	4327
793.106	2255
793.209	2970
793.313	3619
793.416	569
793.519	3334
793.623	4766
793.726	3544
793.829	2067
793.932	1916
794.035	2231
794.138	4633
794.242	4125
794.345	2286
794.448	2982
794.551	1983
794.654	4737
794.757	5006
794.860	2960
794.963	3742
795.066	2088
795.169	4164
795.272	1991
795.375	4136
795.477	1591
795.580	2583
795.683	1729
795.786	3527
795.889	1864
795.991	3476
796.094	3142
796.197	1475
796.300	3362
796.402	2977
796.505	994
796.608	1698
796.710	2432
796.813	3925
796.915	3090
797.018	3171
797.120	2916
797.223	2228
797.326	4265
797.428	2411
797.530	1500
797.633	2471
797.735	3028
797.838	2359
797.940	3200
798.042	2645
798.145	1314
798.247	2612
798.349	266
798.452	2866
798.554	1811
798.656	2352
798.758	3606
798.860	1645
798.962	1314
799.065	1742
799.167	673
799.269	4086
799.371	3302
799.473	3929
799.575	2323
799.677	1726
799.779	3595
799.881	859
799.983	3720
800.085	2512
800.187	2636
800.289	1054
800.390	1136
800.492	4281
800.594	3738
800.696	2273
800.798	2272
800.899	1861
801.001	2943
801.103	2485
801.205	2799
801.306	2541
801.408	945
801.509	2641
801.611	1901
801.713	2523
801.814	902
801.916	1315
802.017	1385
802.119	1033
802.220	2509
802.322	624
802.423	3104
802.525	245
802.626	1793
802.727	3254
802.829	1733
802.930	-662
803.031	2682
803.133	2244
803.234	1909
803.335	2066
803.436	1327
803.538	1467
803.639	591
803.740	1443
803.841	1109
803.942	2979
804.043	2126
804.144	989
804.245	1473
804.346	1852
804.447	1973
804.548	960
804.649	2436
804.750	1075
804.851	958
804.952	1637
805.053	1241
805.154	564
805.255	2227
805.355	2320
805.456	1524
805.557	519
805.658	938
805.758	2249
805.859	1314
805.960	1941
806.061	1199
806.161	1491
806.262	1290
806.362	1381
806.463	783
806.564	2427
806.664	613
806.765	834
806.865	1267
806.966	1315
807.066	881
807.166	1872
807.267	1841
807.367	1047
807.468	1807
807.568	166
807.668	1949
807.769	2265
807.869	867
807.969	1574
808.069	1650
808.170	1322
808.270	1111
808.370	2206
808.470	1730
808.570	853
808.670	1213
808.770	1072
808.870	463
808.970	1584
809.070	977
809.170	687
809.271	2436
809.370	1556
809.470	2109
809.570	1139
809.670	494
809.770	406
809.870	1933
809.970	1597
810.070	1506
810.169	2332
810.269	312
810.369	1986
810.469	1434
810.568	891
810.668	-15
810.768	757
810.867	678
810.967	523
811.066	63
811.166	670
811.265	2158
811.365	973
811.464	1511
811.564	1998
811.663	1469
811.763	-316
811.862	1841
811.962	2472
812.061	833
812.160	562
812.260	1197
812.359	1288
812.458	624
812.557	1497
812.657	859
812.756	1514
812.855	744
812.954	1076
813.053	1064
813.153	917
813.252	665
813.351	2195
813.450	1528
813.549	1049
813.648	774
813.747	751
813.846	2153
813.945	1254
814.044	1978
814.143	1562
814.242	1292
814.341	1646
814.439	2560
814.538	1990
814.637	2027
814.736	1995
814.835	2788
814.933	2107
815.032	3078
815.131	4146
815.229	9439
815.328	12376
815.427	8728
815.525	8396
815.624	7598
815.722	6883
815.821	8318
815.919	8582
816.018	6903
816.116	8391
816.215	7830
816.313	9570
816.412	10573
816.510	10755
816.609	11805
816.707	13289
816.805	9886
816.904	10416
817.002	11439
817.100	10201
817.198	12172
817.296	9839
817.395	10187
817.493	9841
817.591	8917
817.689	9886
817.787	9953
817.885	10200
817.983	8409
818.081	10103
818.179	9163
818.277	13644
818.375	9645
818.473	9186
818.571	8157
818.669	10206
818.767	10124
818.865	8375
818.963	7370
819.061	9066
819.158	8715
819.256	11532
819.354	10161
819.452	15073
819.549	9119
819.647	10426
819.745	7271
819.842	8214
819.940	8673
820.038	8056
820.135	7266
820.233	9203
820.330	8404
820.428	6838
820.525	9145
820.623	7362
820.720	6300
820.818	8400
820.915	7957
821.012	7319
821.110	6231
821.207	8053
821.304	6977
821.402	7421
821.499	6812
821.596	6211
821.693	7670
821.791	7590
821.888	7201
821.985	7550
822.082	5580
822.179	7758
822.276	7451
822.373	6171
822.470	6289
822.567	7509
822.664	5329
822.761	6931
822.858	6827
822.955	6050
823.052	4488
823.149	6314
823.246	6886
823.343	4977
823.440	6291
823.536	7705
823.633	6292
823.730	5379
823.827	6690
823.923	6623
824.020	5483
824.117	6735
824.213	6065
824.310	5416
824.407	5210
824.503	6986
824.600	5022
824.696	4393
824.793	7427
824.889	6417
824.986	4901
825.082	3998
825.179	4192
825.275	6756
825.371	6651
825.468	4624
825.564	2092
825.660	6816
825.757	8012
825.853	4987
825.949	3394
826.045	4692
826.142	5275
826.238	5608
826.334	5339
826.430	4174
826.526	3750
826.622	3560
826.718	6209
826.814	6798
826.910	5112
827.006	3066
827.102	2553
827.198	5582
827.294	6126
827.390	5278
827.486	4916
827.582	2739
827.678	3421
827.774	6322
827.869	3273
827.965	3894
828.061	2683
828.157	6017
828.252	5333
828.348	3741
828.444	4098
828.539	3920
828.635	4007
828.731	4754
828.826	3086
828.922	4019
829.017	4891
829.113	5022
829.208	2158
829.304	4029
829.399	6525
829.495	4492
829.590	3761
829.685	3600
829.781	4384
829.876	4795
829.971	1741
830.066	1756
830.162	2838
830.257	6179
830.352	3596
830.447	2593
830.543	3066
830.638	4430
830.733	4959
830.828	3357
830.923	3431
831.018	4729
831.113	4546
831.208	2585
831.303	1568
831.398	2273
831.493	3652
831.588	6825
831.683	1679
831.778	2706
831.873	2977
831.967	4287
832.062	4142
832.157	2717
832.252	3184
832.346	1985
832.441	4389
832.536	3450
832.631	3884
832.725	2815
832.820	2541
832.914	3084
833.009	1518
833.104	1835
833.198	2248
833.293	3665
833.387	4530
833.482	2822
833.576	3044
833.670	3486
833.765	1775
833.859	3035
833.954	3677
834.048	2559
834.142	2181
834.237	1929
834.331	2482
834.425	3618
834.519	1843
834.613	2155
834.708	1702
834.802	3093
834.896	2122
834.990	2901
835.084	2392
835.178	1105
835.272	2409
835.366	3982
835.460	4138
835.554	2815
835.648	2216
835.742	429
835.836	1888
835.930	2174
836.024	2606
836.117	2801
836.211	979
836.305	1561
836.399	2420
836.493	2208
836.586	3261
836.680	2448
836.774	1369
836.867	2407
836.961	1780
837.055	1740
837.148	2154
837.242	2462
837.335	1961
837.429	2009
837.522	1644
837.616	1265
837.709	1967
837.803	1458
837.896	3262
837.989	2479
838.083	964
838.176	684
838.269	-290
838.363	2628
838.456	1830
838.549	3040
838.642	1765
838.735	2723
838.829	2222
838.922	1753
839.015	679
839.108	1556
839.201	1436
839.294	3343
839.387	3012
839.480	226
839.573	1285
839.666	1129
839.759	1221
839.852	903
839.945	2270
840.038	1085
840.131	797
840.223	1405
840.316	1656
840.409	2923
840.502	1969
840.594	3467
840.687	-128
840.780	822
840.873	427
840.965	327
841.058	2605
841.150	2319
841.243	-364
841.336	1463
841.428	969
841.521	717
841.613	1101
841.706	1526
841.798	1544
841.890	2187
841.983	906
842.075	2409
842.167	389
842.260	1934
842.352	2424
842.444	1783
842.537	79
842.629	972
842.721	212
842.813	1142
842.905	1223
842.997	2626
843.090	1058
843.182	901
843.274	872
843.366	1145
843.458	2121
843.550	2182
843.642	1157
843.734	1646
843.826	-154
843.918	1129
844.009	1571
844.101	716
844.193	1471
844.285	1757
844.377	2130
844.469	1609
844.560	-690
844.652	1247
844.744	1460
844.835	96
844.927	1186
845.019	2121
845.110	1499
845.202	1045
845.293	933
845.385	488
845.476	1145
845.568	1921
845.659	911
845.751	1628
845.842	569
845.934	745
846.025	908
846.116	957
846.208	1443
846.299	55
846.390	429
846.482	485
846.573	1260
846.664	1910
846.755	14
846.846	1589
846.937	-62
847.029	940
847.120	230
847.211	1640
847.302	1717
847.393	386
847.484	1595
847.575	-23
847.666	194
847.757	48
847.847	1769
847.938	2363
848.029	1555
848.120	1795
848.211	717
848.302	322
848.392	571
848.483	2365
848.574	498
848.664	1676
848.755	626
848.846	872
848.936	239
849.027	1457
849.118	1022
849.208	-9
849.299	2052
849.389	3955
849.480	5720
849.570	12151
849.661	23785
849.751	36306
849.841	10491
849.932	1652
850.022	972
850.112	1893
850.203	225
850.293	896
850.383	677
850.474	875
850.564	877
850.654	1190
850.744	422
850.834	575
850.924	666
851.014	1796
851.104	421
851.194	789
851.284	652
851.374	834
851.464	520
851.554	1078
851.644	469
851.734	1031
851.824	779
851.914	686
852.004	765
852.094	349
852.183	454
852.273	819
852.363	347
852.452	1141
852.542	448
852.632	128
852.721	1278
852.811	691
852.901	1305
852.990	1115
853.080	1219
853.169	1302
853.259	857
853.348	930
853.438	1840
853.527	3043
853.617	3898
853.706	7318
853.795	13034
853.885	27022
853.974	46617
854.063	86411
854.152	103697
854.242	39033
854.331	9687
854.420	5260
854.509	3606
854.598	3252
854.687	2696
854.777	2246
854.866	978
854.955	2152
855.044	-43
855.133	1114
855.222	1013
855.311	1186
855.400	287
855.488	1045
855.577	1283
855.666	127
855.755	764
855.844	1041
855.933	366
856.021	496
856.110	480
856.199	407
856.288	373
856.376	468
856.465	-80
856.554	1000
856.642	373
856.731	1453
856.819	1137
856.908	419
856.996	376
857.085	791
857.173	-8
857.262	816
857.350	48
857.438	265
857.527	504
857.615	265
857.703	1306
857.792	-179
857.880	-604
857.968	577
858.056	-366
858.145	402
858.233	-174
858.321	-277
858.409	732
858.497	438
858.585	116
858.673	548
858.761	-588
858.849	655
858.937	480
859.025	-119
859.113	190
859.201	449
859.289	1156
859.377	658
859.465	-33
859.552	262
859.640	-922
859.728	984
859.816	480
859.903	480
859.991	330
860.079	1187
860.166	928
860.254	298
860.342	941
860.429	439
860.517	680
860.604	1219
860.692	621
860.779	-192
860.867	-655
860.954	860
861.042	1450
861.129	940
861.216	562
861.304	799
861.391	1073
861.478	541
861.565	71
861.653	880
861.740	371
861.827	237
861.914	441
862.001	-342
862.089	543
862.176	437
862.263	245
862.350	786
862.437	-361
862.524	-171
862.611	-29
862.698	1261
862.785	763
862.871	1580
862.958	911
863.045	1332
863.132	875
863.219	664
863.306	738
863.392	1322
863.479	685
863.566	1190
863.652	1115
863.739	897
863.826	1158
863.912	1176
863.999	1275
864.086	977
864.172	1224
864.259	1924
864.345	1295
864.432	1757
864.518	1716
864.604	1885
864.691	1601
864.777	2130
864.863	3327
864.950	4998
865.036	7014
865.122	12502
865.209	13233
865.295	11294
865.381	9784
865.467	9963
865.553	10090
865.639	11119
865.726	14103
865.812	21306
865.898	31531
865.984	45338
866.070	76365
866.156	68858
866.242	24071
866.328	12792
866.414	10117
866.499	8655
866.585	8951
866.671	9311
866.757	8737
866.843	8372
866.928	8585
867.014	8042
867.100	8850
867.186	7707
867.271	7281
867.357	7781
867.442	7047
867.528	8176
867.614	7923
867.699	7803
867.785	7537
867.870	6862
867.956	7484
868.041	8462
868.127	6730
868.212	7456
868.297	7230
868.383	7269
868.468	7240
868.553	8525
868.639	7289
868.724	7934
868.809	7485
868.894	6450
868.979	7101
869.065	6719
869.150	5480
869.235	7414
869.320	7517
869.405	5806
869.490	6675
869.575	7343
869.660	4992
869.745	8030
869.830	7160
869.915	5392
870.000	5067
870.085	6307
870.169	7545
870.254	7686
870.339	4973
870.424	5330
870.509	7139
870.593	7593
870.678	7929
870.763	5060
870.847	4170
870.932	6583
871.016	5907
871.101	3792
871.186	5419
871.270	7267
871.355	4038
871.439	5199
871.523	6625
871.608	4888
871.692	4308
871.777	6573
871.861	6304
871.945	4798
872.030	5448
872.114	4974
872.198	4427
872.282	4996
872.367	4586
872.451	5721
872.535	4982
872.619	5434
872.703	4352
872.787	5787
872.871	4672
872.955	3691
873.039	3533
873.123	5809
873.207	6269
873.291	3531
873.375	4153
873.459	5541
873.543	4660
873.627	4481
873.711	4345
873.794	5943
873.878	4072
873.962	3183
874.045	3948
874.129	4373
874.137	4359
874.213	4221
874.245	4329
874.296	4509
874.352	3846
874.380	3521
874.460	4423
874.464	4461
874.547	3580
874.568	3726
874.631	4147
874.676	3747
874.714	3414
874.784	5267
874.798	5636
874.881	4708
874.892	4544
874.965	3419
874.999	3624
875.048	3909
875.107	4319
875.131	4468
875.215	1468
875.215	1468
875.298	2664
875.323	2854
875.381	3345
875.430	4848
875.465	5886
875.538	4527
875.548	4335
875.631	2442
875.646	2443
875.714	2537
875.753	2903
875.798	3278
875.861	4513
875.881	4900
875.964	4020
875.968	3927
876.047	2360
876.076	2783
876.130	3525
876.183	3435
876.213	3425
876.291	5210
876.296	5316
876.379	3416
876.398	3275
876.462	2909
876.506	2454
876.545	2050
876.613	2779
876.628	2960
876.711	3872
876.721	3944
876.794	4434
876.828	3994
876.877	3254
876.935	2506
876.960	2227
877.043	2792
877.043	2796
877.125	3876
877.150	4134
877.208	4590
877.258	3571
877.291	2936
877.365	2414
877.374	2353
877.456	2480
877.472	2433
877.539	2218
877.579	3047
877.622	3912
877.687	3302
877.704	3154
877.787	3369
877.794	3385
877.869	3480
877.901	3215
877.952	2683
878.008	2597
878.034	2604
878.115	2349
878.117	2344
878.199	1872
878.222	2137
878.282	2932
878.329	3258
878.364	3358
878.437	3337
878.447	3343
878.529	2329
878.544	2225
878.611	1560
878.651	1770
878.694	2307
878.758	3085
878.776	3261
878.858	2689
878.865	2687
878.941	2135
878.972	1846
879.023	1833
879.078	2266
879.105	2404
879.185	2380
879.187	2382
879.269	2915
879.292	3098
879.351	3158
879.399	2674
879.433	2454
879.506	2650
879.516	2692
879.598	2495
879.613	2470
879.680	2209
879.720	2499
879.762	2658
879.827	1745
879.844	1592
879.926	2374
879.933	2374
880.007	2362
880.040	2471
880.089	2545
880.147	3201
880.171	3607
880.253	4728
880.254	4737
880.335	5429
880.360	5772
880.417	7079
880.467	9121
880.499	10419
880.574	11107
880.580	10917
880.662	5160
880.680	4332
880.744	2900
880.787	2480
880.825	2096
880.893	2270
880.907	2303
880.989	1659
881.000	1759
881.070	2749
881.106	2625
881.152	2188
881.213	1554
881.233	1496
881.315	2250
881.319	2280
881.396	2607
881.426	2470
881.478	2175
881.532	3058
881.559	3502
881.639	2529
881.641	2497
881.722	2399
881.745	2225
881.803	2194
881.852	2425
881.885	2398
881.958	1530
881.966	1427
882.047	1608
882.064	1502
882.129	1521
882.171	1443
882.210	1154
882.277	1276
882.291	1361
882.372	2194
882.383	2143
882.454	1691
882.489	1798
882.535	1972
882.596	2051
882.616	2146
882.697	2092
882.702	2090
882.778	1172
882.808	1042
882.859	1510
882.914	2024
882.940	2040
883.020	2435
883.021	2437
883.102	1881
883.127	1975
883.183	2606
883.233	2761
883.264	2447
883.339	1728
883.345	1660
883.426	594
883.445	563
883.507	1286
883.551	1761
883.587	2024
883.657	2315
883.668	2378
883.749	2688
883.763	2664
883.830	1453
883.869	889
883.910	1026
883.975	1583
883.991	1562
884.072	1198
884.081	1177
884.152	2483
884.187	3093
884.233	3159
884.292	2867
884.314	2377
884.394	299
884.398	221
884.475	617
884.504	862
884.555	1187
884.610	1292
884.636	1378
884.716	2163
884.716	2171
884.797	3022
884.821	3071
884.877	2431
884.927	2008
884.958	1715
885.033	895
885.038	861
885.118	521
885.139	341
885.199	184
885.244	634
885.279	1301
885.350	1899
885.359	1929
885.439	2790
885.456	2736
885.520	1731
885.561	1521
885.600	1350
885.667	964
885.680	1117
885.760	1962
885.773	2087
885.840	1599
885.878	1341
885.920	1133
885.984	831
886.000	918
886.080	1534
886.089	1596
886.160	2160
886.195	2298
886.240	2006
886.300	1743
886.320	1847
886.400	2251
886.406	2254
886.480	1461
886.511	1324
886.560	1353
886.616	1380
886.640	1456
886.720	1192
886.722	1191
886.800	949
886.827	950
886.879	1386
886.932	1602
886.959	1907
887.038	3018
887.039	3014
887.119	2117
887.143	1953
887.198	2099
887.248	2170
887.278	2080
887.354	1649
887.358	1643
887.437	1667
887.459	1675
887.517	1989
887.564	2048
887.596	1774
887.669	1425
887.676	1413
887.755	1119
887.774	1069
887.835	1056
887.880	1086
887.914	1053
887.985	944
887.994	1040
888.073	1987
888.090	2117
888.153	2374
888.195	2580
888.232	2048
888.300	1228
888.311	1219
888.391	1052
888.405	1041
888.470	1142
888.510	1127
888.549	1298
888.615	1735
888.628	1788
888.708	1985
888.720	2013
888.787	1883
888.825	1795
888.866	1231
888.930	379
888.945	548
889.024	1473
889.035	1593
889.103	1536
889.140	1502
889.182	1606
889.245	1772
889.261	1750
889.340	1620
889.349	1606
889.419	1398
889.454	1280
889.498	899
889.559	406
889.577	676
889.656	1871
889.664	1991
889.735	2288
889.768	2426
889.814	2314
889.873	2157
889.978	1183
890.083	1862
890.187	2025
890.292	2208
890.397	1869
890.501	521
890.606	1454
890.710	1514
890.815	2627
890.919	2037
891.024	1192
891.128	1128
891.233	1325
891.337	1732
891.442	1644
891.546	1851
891.650	526
891.755	1336
891.859	2848
891.963	1731
892.068	1726
892.172	1576
892.276	791
892.380	1309
892.484	1467
892.589	2185
892.693	2028
892.797	380
892.901	285
893.005	881
893.109	2185
893.213	1289
893.317	1037
893.421	835
893.525	577
893.629	-32
893.733	1781
893.837	878
893.941	1151
894.045	1888
894.148	778
894.252	1647
894.356	1559
894.460	1752
894.564	1433
894.667	1041
894.771	606
894.875	788
894.978	1208
895.082	1599
895.186	1801
895.289	1473
895.393	848
895.496	2210
895.600	355
895.703	756
895.807	899
895.910	1009
896.014	965
896.117	535
896.221	1330
896.324	1557
896.427	1489
896.531	776
896.634	1402
896.737	936
896.840	651
896.944	1556
897.047	2173
897.150	435
897.253	274
897.356	1939
897.460	508
897.563	735
897.666	1338
897.769	1319
897.872	177
897.975	628
898.078	1418
898.181	636
898.284	602
898.387	1798
898.490	2324
898.593	1520
898.695	791
898.798	516
898.901	954
899.004	1349
899.107	932
899.209	1360
899.312	818
899.415	1114
899.518	581
899.620	206
899.723	696
899.826	927
899.928	312
900.031	851
900.133	991
900.236	680
900.338	-30
900.441	987
900.543	327
900.646	1010
900.748	527
900.851	1126
900.953	926
901.055	564
901.158	1509
901.260	-80
901.362	1233
901.465	562
901.567	1682
901.669	1586
901.771	786
901.873	1058
901.976	701
902.078	782
902.180	433
902.282	1325
902.384	1683
902.486	656
902.588	870
902.690	956
902.792	236
902.894	1402
902.996	1395
903.098	1447
903.200	525
903.302	451
903.404	1070
903.505	926
903.607	626
903.709	1131
903.811	1197
903.913	1365
904.014	275
904.116	324
904.218	452
904.319	810
904.421	2038
904.523	1430
904.624	700
904.726	1279
904.827	-160
904.929	77
905.030	501
905.132	1916
905.233	848
905.335	435
905.436	90
905.537	564
905.639	1170
905.740	81
905.841	706
905.943	1123
906.044	-884
906.145	291
906.247	191
906.348	831
906.449	854
906.550	813
906.651	1311
906.752	998
906.854	211
906.955	563
907.056	279
907.157	593
907.258	789
907.359	-498
907.460	242
907.561	-158
907.662	813
907.762	312
907.863	698
907.964	691
908.065	459
908.166	-61
908.267	1024
908.367	139
908.468	59
908.569	-417
908.670	874
908.770	924
908.871	883
908.971	1112
909.072	739
909.173	928
909.273	-172
909.374	1598
909.474	783
909.575	713
909.675	-574
909.776	1437
909.876	840
909.977	482
910.077	33
910.177	1280
910.278	566
910.378	713
910.478	-170
910.579	1506
910.679	1363
910.779	505
910.879	884
910.980	777
911.080	925
911.180	-118
911.280	-672
911.380	745
911.480	63
911.580	683
911.680	426
911.780	1319
911.880	505
911.980	-66
912.080	-120
912.180	1234
912.280	1085
912.380	764
912.480	-229
912.580	12
912.679	495
912.779	836
912.879	649
912.979	-47
913.078	291
913.178	174
913.278	-523
913.377	76
913.477	520
913.577	182
913.676	784
913.776	1197
913.875	-162
913.975	476
914.074	575
914.174	686
914.273	928
914.373	1149
914.472	720
914.572	-188
914.671	-304
914.770	59
914.870	678
914.969	461
915.068	404
915.167	980
915.267	252
915.366	165
915.465	1283
915.564	1121
915.663	433
915.763	-47
915.862	401
915.961	487
916.060	819
916.159	692
916.258	-295
916.357	212
916.456	1083
916.555	588
916.654	739
916.752	812
916.851	1362
916.950	-495
917.049	-415
917.148	-183
917.247	108
917.345	320
917.444	-456
917.543	251
917.642	156
917.740	479
917.839	935
917.937	1060
918.036	1665
918.135	652
918.233	715
918.332	499
918.430	-233
918.529	823
918.627	880
918.726	1035
918.824	1732
918.923	227
919.021	443
919.119	-74
919.218	732
919.316	599
919.414	30
919.512	601
919.611	724
919.709	847
919.807	601
919.905	1365
920.003	1319
920.102	294
920.200	1143
920.298	1223
920.396	636
920.494	1384
920.592	504
920.690	1430
920.788	1036
920.886	1130
920.984	1470
921.082	1131
921.180	2055
921.277	1458
921.375	2442
921.473	3052
921.571	2757
921.669	2363
921.766	1300
921.864	2271
921.962	2137
922.060	2101
922.157	2987
922.255	2805
922.352	2143
922.450	2794
922.548	2695
922.645	3517
922.743	4190
922.840	7178
922.938	7663
923.035	7482
923.133	6417
923.230	8527
923.327	9734
923.425	8398
923.522	8538
923.619	8135
923.717	6556
923.814	6819
923.911	5777
924.008	7530
924.106	6527
924.203	6523
924.300	6681
924.397	6714
924.494	7191
924.591	6493
924.688	5453
924.786	6250
924.883	6923
924.979	6825
925.077	6403
925.173	5884
925.270	6486
925.367	6174
925.464	7369
925.561	7007
925.658	6368
925.755	5457
925.852	7541
925.948	6449
926.045	5761
926.142	6418
926.239	5651
926.335	4612
926.432	6210
926.529	5611
926.625	6775
926.722	6022
926.818	5994
926.915	6977
927.011	5487
927.108	6048
927.204	5300
927.301	4593
927.397	6038
927.494	6483
927.590	4294
927.687	4655
927.783	6433
927.879	6586
927.976	4657
928.072	4993
928.168	5755
928.264	5835
928.361	4737
928.457	6079
928.553	4493
928.649	5306
928.745	6102
928.841	4784
928.937	5962
929.033	5202
929.129	5262
929.225	6394
929.321	4228
929.417	4396
929.513	5175
929.609	5259
929.705	4462
929.801	5973
929.897	4535
929.993	5034
930.089	4385
930.184	4296
930.280	5170
930.376	6646
930.471	4325
930.567	4402
930.663	4473
930.758	4029
930.854	4624
930.950	3979
931.045	3503
931.141	4060
931.236	5455
931.332	4236
931.427	3987
931.523	5854
931.618	5586
931.714	2317
931.809	4041
931.905	4640
932.000	3213
932.095	3208
932.191	5381
932.286	5257
932.381	4325
932.476	3291
932.572	4110
932.667	4456
932.762	3622
932.857	4906
932.952	4695
933.047	3166
933.142	2787
933.237	3334
933.332	5067
933.427	4861
933.522	3968
933.617	3389
933.712	2467
933.807	4660
933.902	4394
933.997	5728
934.092	3247
934.187	3737
934.282	3504
934.376	4014
934.471	4412
934.566	2714
934.661	3334
934.755	5291
934.850	4644
934.945	3260
935.039	3028
935.134	2696
935.228	3530
935.323	6131
935.417	3274
935.512	3134
935.606	2851
935.701	3756
935.795	4725
935.890	3342
935.984	3578
936.079	1845
936.173	3524
936.267	3401
936.362	2333
936.456	4149
936.550	5220
936.644	3958
936.738	2697
936.833	2343
936.927	2995
937.021	2656
937.115	3240
937.209	3254
937.303	4001
937.397	1905
937.491	3163
937.585	4630
937.679	3751
937.773	2662
937.867	2344
937.961	2867
938.055	3993
938.149	3654
938.243	1577
938.337	2341
938.430	2211
938.524	3949
938.618	2720
938.712	1439
938.805	2459
938.899	3487
938.993	4028
939.086	2331
939.180	1200
939.274	2207
939.367	3178
939.461	4021
939.554	1666
939.648	2099
939.741	2099
939.835	2505
939.928	3961
940.022	3976
940.115	2296
940.208	3120
940.302	4155
940.395	3444
940.488	1574
940.582	3264
940.675	2214
940.768	2756
940.861	2759
940.954	3685
941.048	1644
941.141	1344
941.234	1844
941.327	2857
941.420	3046
941.513	2059
941.606	1830
941.699	2421
941.792	3153
941.885	2163
941.978	3185
942.071	2541
942.164	758
942.257	1939
942.349	2486
942.442	2196
942.535	1915
942.628	1943
942.721	1517
942.813	1774
942.906	2174
942.999	1797
943.091	1727
943.184	1499
943.277	1938
943.369	1865
943.462	1483
943.554	2427
943.647	1390
943.739	2845
943.832	2909
943.924	255
944.017	757
944.109	1832
944.201	1846
944.294	2416
944.386	1816
944.478	1976
944.571	1595
944.663	1263
944.755	1492
944.847	3103
944.940	1752
945.032	284
945.124	1450
945.216	2947
945.308	2146
945.400	2332
945.492	1549
945.584	2069
945.676	2304
945.768	1812
945.860	2931
945.952	2709
946.044	2805
946.136	1177
946.228	1482
946.320	1663
946.412	1619
946.503	2742
946.595	2938
946.687	1703
946.779	821
946.870	876
946.962	1298
947.054	1142
947.145	2562
947.237	1239
947.329	867
947.420	832
947.512	1459
947.603	667
947.695	1869
947.786	847
947.878	1063
947.969	1787
948.061	2482
948.152	1622
948.243	762
948.335	726
948.426	1165
948.517	416
948.609	1546
948.700	1780
948.791	882
948.882	1384
948.973	1086
949.065	1809
949.156	1809
949.247	521
949.338	1628
949.429	40
949.520	819
949.611	812
949.702	2552
949.793	1494
949.884	1497
949.975	1164
950.066	458
950.157	671
950.247	1458
950.338	476
950.429	1362
950.520	1960
950.611	279
950.701	1397
950.792	1283
950.883	1358
950.973	793
951.064	1387
951.155	1110
951.245	1805
951.336	1218
951.427	1303
951.517	2021
951.608	1554
951.698	1129
951.788	967
951.879	528
951.969	1548
952.060	909
952.150	1186
952.240	1073
952.331	172
952.421	2954
952.511	1208
952.602	972
952.692	815
952.782	-110
952.872	237
952.962	955
953.052	932
953.143	221
953.233	1264
953.323	312
953.413	803
953.503	1383
953.593	1204
953.683	623
953.773	70
953.863	311
953.953	585
954.042	1655
954.132	812
954.222	1336
954.312	367
954.402	-31
954.492	953
954.581	813
954.671	1435
954.761	15
954.850	2041
954.940	-7
955.030	1072
955.119	643
955.209	575
955.298	453
955.388	350
955.477	1172
955.567	-118
955.656	335
955.746	305
955.835	200
955.925	-306
956.014	1748
956.103	793
956.193	1904
956.282	1436
956.371	1152
956.461	75
956.550	55
956.639	1036
956.728	725
956.817	626
956.906	569
956.995	1561
957.085	-607
957.174	992
957.263	866
957.352	393
957.441	1352
957.530	-29
957.619	686
957.708	1005
957.796	107
957.885	3
957.974	-98
958.063	1517
958.152	-1249
958.241	988
958.329	642
958.418	889
958.507	286
958.596	1868
958.684	-199
958.773	1495
958.861	-150
958.950	-382
959.039	556
959.127	393
959.216	648
959.304	802
959.393	-115
959.481	73
959.570	432
959.658	49
959.746	-467
959.835	7
959.923	-188
960.011	-64
960.100	593
960.188	1320
960.276	238
960.365	240
960.453	-339
960.541	-238
960.629	-349
960.717	103
960.805	-1119
960.893	635
960.981	72
961.069	1179
961.158	827
961.245	1518
961.333	1147
961.421	299
961.509	9
961.597	628
961.685	357
961.773	821
961.861	22
961.949	1615
962.036	-799
962.124	438
962.212	-29
962.299	-369
962.387	-666
962.475	156
962.562	-392
962.650	1070
962.738	74
962.825	300
962.913	186
963.000	-188
963.088	741
963.175	684
963.263	87
963.350	-298
963.438	512
963.525	327
963.612	437
963.700	-54
963.787	979
963.874	278
963.962	457
964.049	398
964.136	267
964.223	-280
964.310	325
964.398	121
964.485	-226
964.572	-358
964.659	537
964.746	634
964.833	-645
964.920	292
965.007	44
965.094	258
965.181	172
965.268	711
965.355	-47
965.441	-252
965.528	-572
965.615	668
965.702	-263
965.789	-193
965.875	404
965.962	551
966.049	56
966.136	1037
966.222	28
966.309	1216
966.395	51
966.482	665
966.569	7
966.655	1108
966.742	66
966.828	-95
966.915	371
967.001	365
967.087	99
967.174	-217
967.260	802
967.347	-180
967.433	-152
967.519	397
967.605	-214
967.692	-605
967.778	867
967.864	984
967.950	-256
968.036	-255
968.123	30
968.209	-36
968.295	-455
968.381	1513
968.467	-94
968.553	-967
968.639	214
968.725	-616
968.811	498
968.897	519
968.983	461
969.069	-160
969.154	-382
969.240	1097
969.326	-62
969.412	161
969.497	-123
969.583	-497
969.669	1435
969.755	1160
969.840	256
969.926	1184
970.012	785
970.097	2204
970.183	1611
970.268	485
970.354	-91
970.439	-394
970.525	248
970.610	-444
970.696	1726
970.781	-11
970.866	-614
970.952	1432
971.037	606
971.122	354
971.208	1189
971.293	157
971.378	-459
971.463	277
971.549	131
971.634	-151
971.719	-360
971.804	-491
971.889	548
971.974	-680
972.059	614
972.144	854
972.229	-698
972.314	-589
972.399	4
972.484	67
972.569	1075
972.654	-193
972.739	677
972.824	186
972.908	-256
972.993	-246
973.078	762
973.163	-779
973.247	600
973.332	-1340
973.417	2015
973.501	-874
973.586	4
973.671	548
973.755	-324
973.840	812
973.924	1384
974.009	1440
974.093	179
974.178	991
974.262	841
974.346	421
974.431	41
974.515	481
974.600	-477
974.684	299
974.768	-526
974.852	1435
974.937	-347
975.021	715
975.105	937
975.189	296
975.273	567
975.358	-328
975.442	-831
975.526	973
975.610	-109
975.694	-176
975.778	1793
975.862	154
975.946	-2612
976.030	1425
976.114	-574
976.198	-460
976.281	39
976.365	1366
976.449	83
976.533	1536
976.617	-34
976.700	544
976.784	1047
976.868	-741
976.951	297
977.035	-229
977.119	-275
977.202	-401
977.286	1450
977.369	448
977.453	904
977.536	1339
977.620	403
977.703	623
977.787	-329
977.870	1660
977.953	1533
978.037	-876
978.120	921
978.203	76
978.287	44
978.370	143
978.453	-39
978.536	7
978.620	764
978.703	617
978.786	-38
978.869	80
978.952	-473
979.035	1428
979.118	840
979.201	-937
979.284	230
979.367	-115
979.450	398
979.533	-273
979.616	-463
979.699	143
979.782	-433
979.865	363
979.948	66
980.030	55
980.113	451
980.196	-284
980.279	822
980.361	357
980.444	-726
980.526	1294
980.609	1496
980.692	1516
980.774	1377
980.857	-358
980.939	1631
981.022	330
981.104	573
981.187	-215
981.269	968
981.352	513
981.434	-225
981.516	-419
981.599	925
981.681	976
981.763	-88
981.846	658
981.928	455
982.010	-442
982.092	-290
982.174	864
982.256	-19
982.339	114
982.421	618
982.503	964
982.585	-982
982.667	618
982.749	834
982.831	-101
982.913	-1094
982.995	1564
983.077	-541
983.158	2170
983.240	-615
983.322	1483
983.404	2891
983.486	1243
983.568	2422
983.649	433
983.731	1346
983.813	1014
983.894	549
983.976	-29
984.058	482
984.139	1350
984.221	-267
984.302	1859
984.384	383
984.465	306
984.547	1661
984.628	263
984.710	823
984.791	388
984.872	1125
984.954	44
985.035	1506
985.116	334
985.198	-56
985.279	1052
985.360	588
985.441	1416
985.522	1046
985.604	816
985.685	-681
985.766	1677
985.847	1881
985.928	-1023
986.009	933
986.090	1043
986.171	1326
986.252	557
986.333	947
986.414	654
986.495	1288
986.576	1069
986.656	925
986.737	1385
986.818	1803
986.899	799
986.980	885
987.060	1694
987.141	1481
987.222	1720
987.302	2085
987.383	2540
987.464	1354
987.544	1565
987.625	186
987.705	1686
987.786	2003
987.866	1398
987.947	1920
988.027	1054
988.108	301
988.188	1220
988.268	954
988.349	1562
988.429	1686
988.509	1573
988.589	1079
988.670	-330
988.750	2377
988.830	1127
988.910	831
988.990	407
989.070	1458
989.151	1749
989.231	291
989.311	1006
989.391	1187
989.471	1610
989.551	1261
989.631	836
989.711	1395
989.791	1057
989.870	418
989.950	1496
990.030	769
990.110	905
990.190	751
990.269	123
990.349	252
990.429	1362
990.509	805
990.588	188
990.668	1096
990.747	614
990.827	-430
990.907	1042
990.986	1023
991.066	1732
991.145	165
991.225	2097
991.304	746
991.383	1317
991.463	996
991.542	686
991.622	59
991.701	-205
991.780	739
991.859	821
991.939	58
992.018	734
992.097	372
992.176	667
992.256	-51
992.335	-924
992.414	855
992.493	-479
992.572	347
992.651	892
992.730	-18
992.809	838
992.888	208
992.967	390
993.046	809
993.125	-1020
993.203	-128
993.282	552
993.361	651
993.440	681
993.519	120
993.597	-246
993.676	202
993.755	1079
993.834	-232
993.912	-199
993.991	1156
994.069	-330
994.148	-319
994.226	-566
994.305	-174
994.384	491
994.462	1932
994.540	-1127
994.619	-337
994.697	418
994.776	-608
994.854	1368
994.932	-395
995.011	73
995.089	-194
995.167	561
995.245	185
995.324	281
995.402	-220
995.480	65
995.558	-711
995.636	-539
995.714	-30
995.792	364
995.870	-695
995.948	534
996.026	291
996.104	-1702
996.182	43
996.260	-817
996.338	-535
996.416	-532
996.494	40
996.572	807
996.649	-100
996.727	-863
996.805	-175
996.883	-156
996.960	49
997.038	77
997.116	492
997.193	-8
997.271	-627
997.348	-323
997.426	-230
997.504	-69
997.581	-255
997.658	370
997.736	-1608
997.813	-265
997.891	654
997.968	-484
998.046	-460
998.123	-177
998.200	346
998.277	-36
998.355	81
998.432	-809
998.509	-109
998.586	528
998.663	425
998.741	-602
998.818	245
998.895	-667
998.972	-451
999.049	-233
999.126	-521
999.203	-238
999.280	-281
999.357	462
999.434	-428
999.511	98
999.587	-43
999.664	-492
999.741	-962
999.818	629
999.895	-303
999.971	-222
1000.048	-363
1000.125	433
1000.202	-782
1000.278	-387
1000.355	-661
1000.431	-611
1000.508	-1058
1000.584	256
1000.661	-722
1000.738	-838
1000.814	-1067
1000.890	289
1000.967	-515
1001.043	-933
1001.120	-1619
1001.196	-589
1001.272	-2152
1001.349	202
1001.425	-221
1001.501	-262
1001.577	-894
1001.654	-462
1001.730	-419
1001.806	-4
1001.882	-567
1001.958	352
1002.034	-313
1002.110	-181
1002.186	-1424
1002.262	-1113
1002.338	-666
1002.414	-284
1002.490	-728
1002.566	-755
1002.642	-1284
1002.718	10
1002.794	-597
1002.870	-794
1002.945	-590
1003.021	-361
1003.097	-1253
1003.173	-86
1003.248	-387
1003.324	-1001
1003.400	-452
1003.475	-1420
1003.551	-272
1003.626	-1149
1003.702	-1002
1003.777	-706
1003.853	-1201
1003.928	-1152
1004.004	-674
1004.079	-514
1004.155	-726
1004.230	-1259
1004.305	313
1004.381	-1568
1004.456	-1213
1004.531	-254
1004.607	-543
1004.682	-578
1004.757	-64
1004.832	-946
1004.907	-1635
1004.982	10
1005.057	-729
1005.133	-1059
1005.208	-1322
1005.283	-695
1005.358	-791
1005.433	-908
1005.508	-851
1005.583	-1120
1005.657	-879
1005.732	-699
1005.807	-627
1005.882	-391
1005.957	-516
1006.032	-820
1006.106	-1013
1006.181	-969
1006.256	-580
1006.331	-1223
1006.405	-1601
1006.480	-833
1006.554	-1246
1006.629	-1292
1006.704	-1086
1006.778	-58
1006.853	-919
1006.927	-1194
1007.002	-591
1007.076	-80
1007.150	-919
1007.225	-829
1007.299	-1670
1007.373	-860
1007.448	-1394
1007.522	-816
1007.596	-418
1007.671	-819
1007.745	-357
1007.819	-705
1007.893	-863
1007.967	-1084
1008.041	-1979
1008.115	-467
1008.190	-1248
1008.264	-1123
1008.338	-1602
1008.412	-912
1008.486	-1154
1008.560	-672
1008.633	-1186
1008.707	-1143
1008.781	-300
1008.855	-292
1008.929	-777
1009.003	-1209
1009.076	-1138
1009.150	-1328
1009.224	-1237
1009.298	-1361
1009.371	-1720
1009.445	-135
1009.519	-1227
1009.592	-1789
1009.666	-1573
1009.739	-458
1009.813	-1217
1009.886	-216
1009.960	-2204
1010.033	-658
1010.107	-478
1010.180	-1534
1010.253	-1391
1010.327	-1769
1010.400	-2095
1010.473	-954
1010.547	-449
1010.620	-1157
1010.693	-1705
1010.766	-1197
1010.840	-885
1010.913	-535
1010.986	-2589
1011.059	-842
1011.132	-1827
1011.205	-607
1011.278	-1277
1011.351	-1229
1011.424	-773
1011.497	-1595
1011.570	-1141
1011.643	-1179
1011.716	-1751
1011.789	-1758
1011.862	-1282
1011.934	-1629
1012.007	-1722
1012.080	-1363
1012.153	-995
1012.225	-794
1012.298	-1122
1012.371	-1282
1012.443	-717
1012.516	-1946
1012.588	-1961
1012.661	5
1012.733	-1249
1012.806	-354
1012.879	-1614
1012.951	-1460
1013.023	-1683
1013.096	-1034
1013.168	-1631
1013.241	-622
1013.313	-1045
1013.385	-1203
1013.458	-2238
1013.530	-626
1013.602	-1899
1013.674	-1025
1013.746	-1403
1013.819	-2034
1013.891	-782
1013.963	-1759
1014.035	-1994
1014.107	-1032
1014.179	-1738
1014.251	-1088
1014.323	-878
1014.395	-1641
1014.467	-1902
1014.539	-1501
1014.611	-1658
1014.683	-686
1014.754	-1426
1014.826	-1489
1014.898	-1162
1014.970	-1828
1015.042	-525
1015.113	-1181
1015.185	-2001
1015.257	-1611
1015.328	-1344
1015.400	-1427
1015.471	-1452
1015.543	-2272
1015.615	-1269
1015.686	-1472
1015.757	-1376
1015.829	-988
1015.901	-1417
1015.972	-1375
1016.043	-897
1016.115	-81
1016.186	-1942
1016.257	-1754
1016.328	-624
1016.400	551
1016.471	-1821
1016.542	-912
1016.613	-1283
1016.685	-1191
1016.756	-1236
1016.827	-1630
1016.898	-1508
1016.969	-480
1017.040	-1590
1017.111	-1514
1017.182	-1727
1017.253	-904
1017.324	-1907
1017.395	-1843
1017.466	-818
1017.537	-2207
1017.608	-1858
1017.678	-1554
1017.749	-1058
1017.820	-1515
1017.891	-2420
1017.961	-929
1018.032	-952
1018.103	-1678
1018.173	-1153
1018.244	-1556
1018.315	-1627
1018.385	-793
1018.456	-1510
1018.526	-1470
1018.597	-663
1018.667	-860
1018.738	-1974
1018.808	-824
1018.878	-1772
1018.949	-1776
1019.019	-1127
1019.089	-1724
1019.160	-1458
1019.230	-1926
1019.300	-1664
1019.371	-2343
1019.441	-1335
1019.511	-1155
1019.581	-902
1019.651	-1020
1019.721	-1297
1019.791	-1530
1019.861	-1910
1019.931	-868
1020.001	-1361
1020.071	-1051
1020.141	-1349
1020.211	-1168
1020.281	-1763
1020.351	-1299
1020.421	-833
1020.491	-1274
1020.560	-2160
1020.630	-776
1020.700	-751
1020.770	-1265
1020.839	-1171
1020.909	-1563
1020.979	-2074
1021.048	-1765
1021.118	-2038
1021.187	-1303
1021.257	-1533
1021.326	-1124
1021.396	-1667
1021.465	-2363
1021.535	-1552
1021.604	-2401
1021.674	-1580
1021.743	-1103
1021.812	-1827
1021.882	-1608
1021.951	-1938
1022.020	-1249
1022.089	-1104
1022.159	-1579
1022.228	-1404
1022.297	-1909
1022.366	-1898
1022.435	-1186
1022.504	-2100
1022.573	-2644
1022.642	-524
1022.711	-1973
1022.781	-1733
1022.849	-670
1022.918	-2035
1022.987	-478
1023.056	-1457
1023.125	-1804
1023.194	-1262
1023.263	-1785
1023.331	-483
1023.400	-1964
1023.469	-2006
1023.538	-1238
1023.606	-1585
1023.675	-1549
1023.744	-2048
1023.812	-1817
1023.881	-1668
1023.949	-864
1024.018	-2392
1024.086	-1680
1024.155	-1459
1024.223	-1891
1024.292	-1030
1024.360	-1326
1024.429	-1893
1024.497	-2921
1024.565	-1018
1024.634	-1923
1024.702	-1473
1024.770	-1028
1024.838	-2836
1024.907	-1178
1024.975	-2434
1025.043	-1485
1025.111	-2160
1025.179	-1743
1025.247	-1791
1025.315	-1736
1025.383	-1902
1025.451	-1294
1025.519	-1168
1025.587	-1536
1025.655	-1688
1025.723	-1381
1025.791	-2253
1025.859	-1819
1025.927	-1395
1025.995	-2219
1026.062	-2343
1026.130	-1132
1026.198	-2455
1026.266	-2136
1026.333	-1294
1026.401	-1073
1026.469	-2423
1026.536	-1537
1026.604	-2007
1026.671	-1743
1026.739	-2277
1026.806	-1894
1026.874	-2534
1026.941	-1637
1027.009	-1241
1027.076	-1682
1027.144	-1549
1027.211	-2443
1027.278	-2338
1027.345	-1611
1027.413	-2213
1027.480	-1716
1027.547	-2009
1027.614	-2275
1027.682	-1115
1027.749	-1835
1027.816	-1999
1027.883	-1396
1027.950	-2402
1028.017	-1991
1028.084	-1989
1028.151	-1836
1028.218	-2447
1028.285	-2289
1028.352	-1966
1028.419	-2214
1028.486	-2468
1028.553	-1856
1028.619	-2077
1028.686	-1620
1028.753	-1853
1028.820	-2122
1028.886	-2099
1028.953	-1678
1029.020	-2127
1029.086	-1884
1029.153	-1606
1029.220	-1776
1029.286	-1195
1029.353	-2207
1029.419	-1848
1029.486	-1408
1029.552	-1868
1029.619	-2076
1029.685	-1619
1029.751	-1288
1029.818	-1369
1029.884	-1985
1029.951	-986
1030.017	-1818
1030.083	-1928
1030.149	-1082
1030.216	-2236
1030.282	-1791
1030.348	-2252
1030.414	-1653
1030.480	-1966
1030.546	-1517
1030.612	-1411
1030.678	-2095
1030.744	-2954
1030.810	-2231
1030.876	-2277
1030.942	-1633
1031.008	-1300
1031.074	-1856
1031.140	-2112
1031.206	-1374
1031.272	-2324
1031.337	-1860
1031.403	-1529
1031.469	-1683
1031.534	-2390
1031.600	-1620
1031.666	-1995
1031.731	-2609
1031.797	-1795
1031.863	-1639
1031.928	-2330
1031.994	-2049
1032.059	-1837
1032.125	-1991
1032.190	-1672
1032.256	-1862
1032.321	-1769
1032.386	-1645
1032.452	-1436
1032.517	-1645
1032.582	-1838
1032.647	-2322
1032.713	-2049
1032.778	-1726
1032.843	-1496
1032.908	-1601
1032.974	-1589
1033.039	-1307
1033.104	-1813
1033.169	-1913
1033.234	-1572
1033.299	-1184
1033.364	-1628
1033.429	-1080
1033.494	-1479
1033.559	-2007
1033.624	-1456
1033.688	-1507
1033.753	-2121
1033.818	-1497
1033.883	-1561
1033.948	-1694
1034.013	-2098
1034.077	-624
1034.142	-151
1034.207	-944
1034.271	621
1034.336	986
1034.400	-102
1034.465	-1017
1034.530	-2021
1034.594	-1224
1034.658	-1856
1034.723	-1697
1034.787	-1778
1034.852	-1872
1034.916	-2348
1034.981	-1841
1035.045	-1565
1035.109	-1552
1035.173	-1069
1035.238	-1725
1035.302	-1831
1035.366	-2127
1035.430	-1530
1035.495	-1953
1035.559	-634
1035.623	-1768
1035.687	-2070
1035.751	-1873
1035.815	-2435
1035.879	-1530
1035.943	-1750
1036.007	-1518
1036.071	-1726
1036.135	-1140
1036.198	-1407
1036.262	-1762
1036.326	-1808
1036.390	-1279
1036.454	-1530
1036.517	-1422
1036.581	-1771
1036.645	-1274
1036.709	-1150
1036.772	-1514
1036.836	-1954
1036.900	-1516
1036.963	-1914
1037.026	-2030
1037.090	-1852
1037.154	-1709
1037.217	-1674
1037.280	-1992
1037.344	-1582
1037.407	-2317
1037.471	-1909
1037.534	-1608
1037.597	-1392
1037.661	-1332
1037.724	-1845
1037.787	-1644
1037.850	-1727
1037.913	-1942
1037.977	-1379
1038.040	-1318
1038.103	-1683
1038.166	-1547
1038.229	-981
1038.292	-1820
1038.355	-1677
1038.418	-1996
1038.481	-2025
1038.544	-1283
1038.607	-1795
1038.670	-2294
1038.732	-1198
1038.795	-1381
1038.858	-1880
1038.921	-2104
1038.984	-892
1039.046	-1887
1039.109	-1498
1039.172	-2576
1039.234	-1660
1039.297	-2043
1039.360	-1816
1039.422	-1601
1039.485	-1820
1039.547	-1776
1039.610	-1422
1039.672	-1235
1039.734	-1767
1039.797	-1471
1039.859	-2468
1039.922	-1544
1039.984	-1900
1040.046	-1509
1040.109	-1594
1040.171	-2174
1040.233	-1939
1040.295	-864
1040.358	-1566
1040.420	-1855
1040.482	-1563
1040.544	-1430
1040.606	-1556
1040.668	-1533
1040.730	-2581
1040.792	-1979
1040.854	-2338
1040.916	-776
1040.978	-2340
1041.040	-1209
1041.102	-1722
1041.164	-2125
1041.225	-1890
1041.287	-1615
1041.349	-2428
1041.411	-1285
1041.472	-2045
1041.534	-1460
1041.596	-1617
1041.657	-1296
1041.719	-1275
1041.781	-1778
1041.842	-1850
1041.904	-1852
1041.965	-2290
1042.027	-1876
1042.088	-1856
1042.150	-1815
1042.211	-862
1042.272	-1223
1042.334	-1194
1042.395	-2071
1042.456	-2007
1042.518	-977
1042.579	-1204
1042.640	-1445
1042.701	-880
1042.763	-2067
1042.824	-1923
1042.885	-1908
1042.946	-2237
1043.007	-1803
1043.068	-2094
1043.129	-1717
1043.190	-1641
1043.251	-1017
1043.312	-1651
1043.373	-1126
1043.434	-2175
1043.495	-1679
1043.556	-1901
1043.616	-1187
1043.677	-1548
1043.738	-1507
1043.799	-1883
1043.859	-1197
1043.920	-1724
1043.981	-1962
1044.041	-1860
1044.102	-783
1044.162	-1071
1044.223	-1062
1044.284	-2207
1044.344	-1314
1044.405	-1751
1044.465	-1336
1044.525	-1891
1044.586	-911
1044.646	-2007
1044.707	-961
1044.767	-1287
1044.827	-1980
1044.887	-1206
1044.948	-1128
1045.008	-1046
1045.068	-1156
1045.128	-1407
1045.188	-1491
1045.249	-872
1045.309	-1943
1045.369	-1742
1045.429	-1699
1045.489	-1344
1045.549	-1400
1045.609	-1479
1045.669	-1143
1045.729	-1518
1045.789	-1323
1045.848	-1596
1045.908	-1754
1045.968	-1754
1046.028	-1214
1046.088	-1291
1046.147	-895
1046.207	-1376
1046.267	-1141
1046.326	-901
1046.386	-1086
1046.446	-926
1046.505	87
1046.565	-939
1046.624	-164
1046.684	-30
1046.743	-545
1046.803	-12
1046.862	-514
1046.922	0
