'Start Wavelength	183.907
'End Wavelength	1046.922
'Gate Delay	5.000
'Gate Width (ms)	1.050
'Laser Output Level	0.000
'X Position	0.000
'Y Position	0.000
'Z Position	0.000
'Grid Point Number	1.000
'Shot Number	100.000
183.907	731.000
183.977	243.000
184.047	-359
184.116	305
184.186	244
184.256	-530
184.325	-519
184.395	-1739
184.465	767
184.534	262
184.604	-405
184.674	-45
184.743	179
184.813	-98
184.883	224
184.952	-252
185.022	511
185.092	825
185.161	97
185.231	-905
185.301	-193
185.370	423
185.440	-547
185.509	-69
185.579	215
185.649	-256
185.718	126
185.788	33
185.857	353
185.927	-1037
185.996	-16
186.066	-231
186.136	-855
186.205	-380
186.275	-32
186.344	-167
186.414	-304
186.483	-785
186.553	502
186.622	27
186.692	152
186.761	-282
186.831	421
186.900	-400
186.970	-449
187.039	632
187.109	287
187.178	383
187.248	246
187.317	938
187.387	-440
187.456	495
187.526	-184
187.595	-64
187.664	-297
187.734	-258
187.803	200
187.873	100
187.942	199
188.012	-199
188.081	-254
188.150	-227
188.220	-166
188.289	-46
188.358	53
188.428	46
188.497	-168
188.567	-271
188.636	-394
188.705	-928
188.775	187
188.844	-43
188.913	770
188.983	-151
189.052	299
189.121	-358
189.191	-575
189.260	50
189.329	635
189.399	-525
189.468	158
189.537	-851
189.606	213
189.676	420
189.745	636
189.814	308
189.883	-49
189.953	148
190.022	327
190.091	90
190.161	-319
190.230	156
190.299	-329
190.368	-307
190.437	-193
190.507	-192
190.576	-427
190.645	1046
190.714	185
190.783	-281
190.853	-282
190.922	-304
190.991	-231
191.060	-346
191.129	-683
191.198	-232
191.268	-296
191.337	163
191.406	158
191.475	-330
191.544	100
191.613	-37
191.682	-88
191.752	181
191.821	356
191.890	86
191.959	-288
192.028	-237
192.097	351
192.166	117
192.235	352
192.304	-198
192.373	-941
192.442	323
192.511	697
192.580	-266
192.650	-36
192.719	491
192.788	541
192.857	-372
192.926	151
192.995	-352
193.064	-58
193.133	-503
193.202	763
193.271	623
193.340	294
193.409	344
193.478	56
193.547	-131
193.615	-406
193.684	389
193.753	-386
193.822	621
193.891	-373
193.960	435
194.029	78
194.098	191
194.167	-854
194.236	470
194.305	-96
194.374	14
194.443	-419
194.512	149
194.580	767
194.649	412
194.718	60
194.787	-765
194.856	-12
194.925	281
194.994	-338
195.062	-131
195.131	291
195.200	-15
195.269	-26
195.338	265
195.407	623
195.475	503
195.544	884
195.613	464
195.682	-402
195.751	258
195.819	-232
195.888	-600
195.957	1314
196.026	327
196.094	460
196.163	-9
196.232	330
196.301	384
196.369	47
196.438	-211
196.507	-92
196.576	-247
196.644	-315
196.713	467
196.782	68
196.850	-88
196.919	-229
196.988	-133
197.056	-214
197.125	289
197.194	276
197.262	-124
197.331	-229
197.400	122
197.468	175
197.537	-383
197.606	37
197.674	-71
197.743	-58
197.812	-424
197.880	479
197.949	-457
198.017	283
198.086	-624
198.155	323
198.223	-289
198.292	-248
198.360	-137
198.429	-851
198.497	-701
198.566	-247
198.635	146
198.703	902
198.772	176
198.840	-683
198.909	-444
198.977	384
199.046	146
199.114	12
199.183	408
199.251	-390
199.320	-417
199.388	355
199.457	-727
199.525	-100
199.594	-185
199.662	425
199.731	-182
199.799	-73
199.867	86
199.936	-139
200.004	-405
200.073	531
200.141	-799
200.210	-666
200.278	-729
200.346	44
200.415	-18
200.483	-95
200.552	-579
200.620	-665
200.688	-550
200.757	269
200.825	299
200.893	90
200.962	609
201.030	-372
201.098	-176
201.167	-27
201.235	-534
201.303	-313
201.372	293
201.440	160
201.508	424
201.577	-24
201.645	-480
201.713	68
201.781	-356
201.850	260
201.918	-248
201.986	-267
202.055	225
202.123	-270
202.191	-147
202.259	479
202.327	-6
202.396	-509
202.464	122
202.532	-4
202.600	-396
202.669	-87
202.737	-382
202.805	360
202.873	-392
202.941	245
203.009	373
203.078	-30
203.146	130
203.214	-713
203.282	-280
203.350	319
203.418	-90
203.487	-176
203.555	471
203.623	-91
203.691	-362
203.759	-1033
203.827	-500
203.895	-159
203.963	5
204.031	-1225
204.099	509
204.168	314
204.236	-440
204.304	669
204.372	-353
204.440	-504
204.508	-623
204.576	-371
204.644	13
204.712	153
204.780	36
204.848	742
204.916	-921
204.984	375
205.052	-1014
205.120	-76
205.188	-644
205.256	-229
205.324	-677
205.392	-66
205.460	308
205.528	76
205.596	-80
205.664	-146
205.732	449
205.799	421
205.867	-417
205.935	-401
206.003	226
206.071	-527
206.139	-1261
206.207	-539
206.275	-1
206.343	-44
206.411	630
206.478	178
206.546	542
206.614	-830
206.682	-1251
206.750	54
206.818	473
206.885	139
206.953	-1013
207.021	604
207.089	-150
207.157	-819
207.225	581
207.292	56
207.360	-229
207.428	-803
207.496	-67
207.563	-9
207.631	-580
207.699	-398
207.767	-196
207.834	-380
207.902	-479
207.970	-1072
208.038	-806
208.105	-1049
208.173	-161
208.241	9
208.309	-269
208.376	93
208.444	95
208.512	-458
208.579	-985
208.647	-437
208.715	521
208.782	-749
208.850	-338
208.918	-521
208.985	327
209.053	-219
209.120	-411
209.188	-204
209.256	-663
209.323	-619
209.391	-919
209.459	449
209.526	-680
209.594	-665
209.661	-383
209.729	-60
209.796	220
209.864	401
209.932	-1374
209.999	634
210.067	-80
210.134	433
210.202	-447
210.269	-201
210.337	-583
210.404	-459
210.472	-1196
210.539	600
210.607	-404
210.674	-516
210.742	-524
210.809	-267
210.877	-261
210.944	-33
211.012	-1089
211.079	697
211.146	-756
211.214	-815
211.281	713
211.349	73
211.416	-728
211.484	-511
211.551	-1087
211.618	-62
211.686	-95
211.753	-372
211.821	66
211.888	-107
211.955	-277
212.023	336
212.090	167
212.157	-347
212.225	-198
212.292	-212
212.359	-699
212.427	236
212.494	-316
212.561	-1223
212.629	73
212.696	-207
212.763	-888
212.831	-462
212.898	1029
212.965	-365
213.032	-404
213.100	-269
213.167	-344
213.234	-22
213.301	-444
213.369	95
213.436	-509
213.503	-127
213.570	-56
213.638	809
213.705	-638
213.772	-904
213.839	-638
213.906	-251
213.973	-18
214.041	-493
214.108	763
214.175	-28
214.242	-119
214.309	236
214.376	-372
214.444	-720
214.511	-504
214.578	-313
214.645	-401
214.712	367
214.779	-439
214.846	-1064
214.913	-421
214.980	-468
215.048	479
215.115	215
215.182	-77
215.249	225
215.316	-911
215.383	646
215.450	-164
215.517	-664
215.584	672
215.651	-333
215.718	-1356
215.785	138
215.852	-884
215.919	10
215.986	-104
216.053	-122
216.120	-759
216.187	580
216.254	332
216.321	-232
216.388	-1490
216.455	-370
216.522	-865
216.589	-737
216.656	-107
216.722	-143
216.789	-742
216.856	-528
216.923	-571
216.990	-358
217.057	-1054
217.124	500
217.191	-430
217.258	-439
217.324	-961
217.391	-223
217.458	-648
217.525	-507
217.592	-227
217.659	-1985
217.725	-292
217.792	-670
217.859	122
217.926	-567
217.993	-1109
218.059	-258
218.126	-435
218.193	-67
218.260	-697
218.327	-1576
218.393	-920
218.460	-183
218.527	-772
218.594	-30
218.660	-470
218.727	758
218.794	-333
218.860	12
218.927	-607
218.994	-243
219.061	-388
219.127	-176
219.194	-549
219.261	-22
219.327	-793
219.394	-454
219.461	-1031
219.527	563
219.594	-1284
219.661	-627
219.727	-1363
219.794	6
219.860	-805
219.927	267
219.994	-8
220.060	-169
220.127	83
220.193	-229
220.260	-617
220.326	-261
220.393	-263
220.460	-315
220.526	-542
220.593	-1076
220.659	588
220.726	-881
220.792	-1055
220.859	-522
220.925	-797
220.992	-391
221.058	-102
221.125	-533
221.191	-872
221.258	-593
221.324	-862
221.391	-715
221.457	-106
221.524	-101
221.590	-304
221.657	-998
221.723	-732
221.789	-1095
221.856	204
221.922	-1671
221.989	-299
222.055	36
222.121	-1667
222.188	1116
222.254	-195
222.321	-193
222.387	-900
222.453	-525
222.520	-484
222.586	-373
222.652	-583
222.719	-274
222.785	-191
222.851	28
222.918	-667
222.984	-278
223.050	-1087
223.116	-1393
223.183	-127
223.249	-264
223.315	-1312
223.382	-94
223.448	-710
223.514	-935
223.580	-600
223.647	-520
223.713	-769
223.779	-521
223.845	-810
223.911	-847
223.978	-1569
224.044	-486
224.110	-1160
224.176	-417
224.242	-1006
224.309	-1222
224.375	-597
224.441	-816
224.507	-599
224.573	-1487
224.639	-35
224.705	-994
224.772	-137
224.838	-1272
224.904	-310
224.970	-602
225.036	-630
225.102	-1453
225.168	-116
225.234	-884
225.300	-1272
225.366	-305
225.432	326
225.499	-607
225.565	-1001
225.631	-1681
225.697	-1340
225.763	-401
225.829	-1122
225.895	-613
225.961	-365
226.027	-619
226.093	-1061
226.159	506
226.225	-424
226.291	232
226.357	-838
226.423	-360
226.489	-806
226.554	-584
226.620	-220
226.686	-837
226.752	-341
226.818	-488
226.884	-560
226.950	-342
227.016	-1466
227.082	-18
227.148	-965
227.214	-917
227.279	-517
227.345	-616
227.411	-840
227.477	-910
227.543	628
227.609	556
227.674	-495
227.740	-1184
227.806	-372
227.872	-737
227.938	-152
228.003	-607
228.069	-1694
228.135	-544
228.201	-361
228.267	-663
228.332	-769
228.398	-1272
228.464	-172
228.530	-603
228.595	-465
228.661	-1090
228.727	-1315
228.792	-236
228.858	-901
228.924	-2338
228.990	774
229.055	-1539
229.121	-1115
229.187	-173
229.252	-1370
229.318	-499
229.384	-1130
229.449	-218
229.515	-1773
229.581	-937
229.646	748
229.712	-302
229.777	-1285
229.843	-522
229.909	-457
229.974	-289
230.040	-823
230.105	-685
230.171	-1426
230.236	-622
230.302	-789
230.368	-1308
230.433	-758
230.499	-583
230.564	535
230.630	-1102
230.695	-933
230.761	-479
230.826	-1615
230.892	375
230.957	-244
231.023	-1078
231.088	-88
231.154	-878
231.219	-472
231.284	-755
231.350	-1015
231.415	-943
231.481	175
231.546	-631
231.612	-631
231.677	-854
231.742	-1736
231.808	-93
231.873	-1388
231.939	-1969
232.004	-89
232.069	521
232.135	-1424
232.200	-389
232.265	155
232.331	-1167
232.396	-925
232.461	-1300
232.527	-475
232.592	-1899
232.657	-432
232.723	-456
232.788	-707
232.853	68
232.918	-918
232.984	-1199
233.049	-780
233.114	-1352
233.179	-245
233.245	41
233.310	-438
233.375	-952
233.440	-170
233.506	-718
233.571	-341
233.636	7
233.701	-56
233.766	-518
233.832	-738
233.897	-678
233.962	-2196
234.027	1175
234.092	-772
234.157	-464
234.222	-1224
234.288	-645
234.353	-1448
234.418	-393
234.483	38
234.548	-767
234.613	-318
234.678	-616
234.743	-1092
234.808	738
234.873	-1781
234.938	-447
235.004	-1185
235.069	-466
235.134	-766
235.199	-314
235.264	-423
235.329	-1163
235.394	-332
235.459	766
235.524	-1480
235.589	-71
235.654	-475
235.719	-1786
235.784	-544
235.849	-716
235.913	-529
235.978	-130
236.043	-701
236.108	-131
236.173	-1531
236.238	513
236.303	-749
236.368	-1440
236.433	-353
236.498	-1276
236.563	-619
236.627	-542
236.692	-295
236.757	-896
236.822	-80
236.887	-894
236.952	-397
237.017	-1900
237.081	-39
237.146	-1919
237.211	435
237.276	-944
237.341	165
237.405	-1781
237.470	-827
237.535	-705
237.600	-1235
237.664	-381
237.729	-988
237.794	-1120
237.859	92
237.923	-1116
237.988	-773
238.053	1054
238.118	-683
238.182	-896
238.247	-26
238.312	-1690
238.376	-315
238.441	-2211
238.506	153
238.570	-2227
238.635	301
238.700	128
238.764	-716
238.829	-1035
238.893	-871
238.958	591
239.023	-850
239.087	-1343
239.152	137
239.216	-1096
239.281	-213
239.346	-299
239.410	-873
239.475	-1149
239.539	-535
239.604	-2116
239.668	136
239.733	-210
239.797	-167
239.862	2204
239.926	921
239.991	381
240.055	72
240.120	-458
240.184	-585
240.249	-1189
240.313	-219
240.378	-12
240.442	-959
240.507	-869
240.571	-740
240.635	-1437
240.700	-846
240.764	-907
240.829	-517
240.893	-1663
240.957	-278
241.022	-186
241.086	-67
241.151	-1466
241.215	-1281
241.279	209
241.344	-1459
241.408	-413
241.472	-1702
241.537	-180
241.601	-214
241.665	-1510
241.730	-1475
241.794	426
241.858	-1110
241.922	-847
241.987	-374
242.051	-1351
242.115	-1513
242.179	-270
242.244	-828
242.308	-234
242.372	-1075
242.436	-666
242.501	-970
242.565	-1523
242.629	-993
242.693	81
242.757	-865
242.822	-537
242.886	335
242.950	362
243.014	-1911
243.078	-541
243.142	-1485
243.206	-1449
243.271	-586
243.335	-553
243.399	-764
243.463	-774
243.527	-802
243.591	-1485
243.655	-741
243.719	-804
243.783	-595
243.847	-387
243.911	-660
243.975	-1195
244.040	-2915
244.104	1058
244.168	-1104
244.232	-1063
244.296	-1124
244.360	-1232
244.424	-912
244.488	219
244.552	585
244.615	-2181
244.679	-853
244.743	-819
244.807	-725
244.871	-757
244.935	-137
244.999	-1796
245.063	-1303
245.127	-253
245.191	-670
245.255	-1203
245.319	-1596
245.383	-2301
245.446	388
245.510	-1147
245.574	-503
245.638	-23
245.702	-1912
245.766	-1161
245.829	-129
245.893	-1236
245.957	-1081
246.021	-40
246.085	-1200
246.149	-591
246.212	298
246.276	-1157
246.340	-370
246.404	-670
246.467	182
246.531	-2633
246.595	-144
246.659	425
246.722	-2111
246.786	-110
246.850	-917
246.913	-1468
246.977	-2448
247.041	-524
247.104	-1175
247.168	-761
247.232	-364
247.295	-529
247.359	-590
247.423	-524
247.486	-1108
247.550	-127
247.614	-682
247.677	-544
247.741	-497
247.804	-1053
247.868	-627
247.932	-326
247.995	954
248.059	-564
248.122	-1512
248.186	263
248.249	-556
248.313	-54
248.376	-162
248.440	-972
248.503	-1727
248.567	208
248.630	-1682
248.694	-1055
248.757	379
248.821	11
248.884	433
248.948	-1108
249.011	-506
249.075	-755
249.138	-240
249.202	-408
249.265	-1203
249.328	-106
249.392	-1905
249.455	372
249.519	-1012
249.582	-666
249.645	-1178
249.709	-555
249.772	-1403
249.835	-787
249.899	-1235
249.962	-151
250.025	-1216
250.089	-707
250.152	-419
250.215	-660
250.279	-1396
250.342	-760
250.405	-545
250.468	-1341
250.532	-1336
250.595	-19
250.658	-2144
250.721	371
250.785	-1649
250.848	68
250.911	-1630
250.974	-44
251.038	-918
251.101	-216
251.164	-1243
251.227	-474
251.290	-1604
251.354	-877
251.417	-199
251.480	-867
251.543	152
251.606	435
251.669	-185
251.732	-32
251.795	-623
251.859	384
251.922	-732
251.985	127
252.048	-403
252.111	-222
252.174	-1494
252.237	453
252.300	-333
252.363	-584
252.426	622
252.489	-1263
252.552	-233
252.615	-855
252.678	-444
252.741	-571
252.804	-1007
252.867	-52
252.930	101
252.993	-421
253.056	-708
253.119	-779
253.182	-838
253.245	-546
253.308	-124
253.371	-973
253.434	-791
253.497	681
253.559	-45
253.622	-695
253.685	-1541
253.748	-1583
253.811	-1163
253.874	563
253.937	-1395
254.000	292
254.062	-547
254.125	-255
254.188	-944
254.251	-711
254.314	-1224
254.376	-563
254.439	-334
254.502	-1305
254.565	-1147
254.628	-287
254.690	-1331
254.753	-1328
254.816	-855
254.878	-898
254.941	-670
255.004	21
255.067	-1162
255.129	-1717
255.192	-816
255.255	-1621
255.317	-856
255.380	-480
255.443	-820
255.505	-627
255.568	-1864
255.631	-593
255.693	-867
255.756	-1330
255.819	533
255.881	-620
255.944	-316
256.006	-786
256.069	-1396
256.132	-414
256.194	-926
256.257	-1324
256.319	-838
256.382	-811
256.444	-448
256.507	214
256.569	-1029
256.632	-1094
256.694	-977
256.757	225
256.819	-291
256.882	-1488
256.944	-764
257.007	72
257.069	-1076
257.132	-737
257.194	-354
257.257	-788
257.319	-2206
257.381	-1278
257.444	-106
257.506	-841
257.569	-160
257.631	-375
257.693	-634
257.756	-974
257.818	-716
257.880	-1103
257.943	-648
258.005	-1933
258.067	-677
258.130	359
258.192	-869
258.254	-1768
258.317	-1317
258.379	-508
258.441	-994
258.503	-430
258.566	-1822
258.628	-83
258.690	-1901
258.753	-567
258.815	-918
258.877	-1776
258.939	-940
259.001	-364
259.064	-621
259.126	-1181
259.188	-1379
259.250	-684
259.312	-1122
259.375	-1020
259.437	-1252
259.499	-1030
259.561	-1170
259.623	-666
259.685	-1200
259.747	-734
259.809	-682
259.872	-538
259.934	-526
259.996	-866
260.058	-1179
260.120	-1132
260.182	-1139
260.244	-1074
260.306	-987
260.368	19
260.430	-1155
260.492	-648
260.554	-1215
260.616	-1826
260.678	-1941
260.740	-1250
260.802	-1822
260.864	-555
260.926	-1808
260.988	255
261.050	-734
261.112	-837
261.174	-158
261.236	-753
261.298	-1092
261.359	-1257
261.421	-453
261.483	-1669
261.545	-837
261.607	-2110
261.669	-669
261.731	-293
261.793	-763
261.854	-1750
261.916	-476
261.978	-1508
262.040	-795
262.102	-388
262.164	-1624
262.225	-387
262.287	-872
262.349	-1266
262.411	-751
262.472	-68
262.534	-1345
262.596	-952
262.658	-665
262.719	-1710
262.781	-494
262.843	-1866
262.904	-708
262.966	-612
263.028	-1046
263.090	-779
263.151	-1021
263.213	-924
263.275	-1887
263.336	-1226
263.398	-405
263.459	-1903
263.521	-548
263.583	-263
263.644	-1766
263.706	-523
263.767	-992
263.829	-537
263.891	-1257
263.952	-1700
264.014	-1091
264.075	-968
264.137	-1042
264.198	-600
264.260	-1288
264.321	-633
264.383	-290
264.444	-384
264.506	-1273
264.567	-289
264.629	-716
264.690	-2818
264.752	-789
264.813	-503
264.875	-1906
264.936	-455
264.998	-1175
265.059	-1088
265.120	-1167
265.182	-500
265.243	-1208
265.305	-1233
265.366	-888
265.427	-2074
265.489	12
265.550	-2288
265.611	-1732
265.673	-1378
265.734	-1092
265.795	-329
265.857	-820
265.918	-1462
265.979	-146
266.040	-760
266.102	-838
266.163	-66
266.224	-1348
266.286	-283
266.347	-1378
266.408	-1481
266.469	-598
266.530	-904
266.592	-912
266.653	-1025
266.714	-1176
266.775	-1081
266.836	-1323
266.898	-1073
266.959	-2132
267.020	-621
267.081	-162
267.142	-1356
267.203	-1230
267.264	-713
267.326	-347
267.387	-1141
267.448	-1668
267.509	-845
267.570	-808
267.631	-422
267.692	-1114
267.753	-820
267.814	-1621
267.875	-279
267.936	-717
267.997	-2334
268.058	-954
268.119	-1314
268.180	-962
268.241	-1438
268.302	-1763
268.363	-1375
268.424	-1263
268.485	-691
268.546	-919
268.607	-56
268.668	-1641
268.729	-696
268.790	-1427
268.851	-481
268.912	-1843
268.972	-395
269.033	-1283
269.094	-687
269.155	-837
269.216	-1280
269.277	-575
269.338	-864
269.398	-713
269.459	-1872
269.520	-316
269.581	-1253
269.642	-745
269.702	-1576
269.763	-829
269.824	-1125
269.885	-760
269.945	-872
270.006	-744
270.067	-676
270.128	-1037
270.188	-421
270.249	-1319
270.310	-1235
270.370	-1430
270.431	-933
270.492	-1314
270.553	-1050
270.613	-754
270.674	-480
270.734	-2087
270.795	-1350
270.856	-326
270.916	-1819
270.977	-597
271.038	-459
271.098	-1028
271.159	-997
271.219	-476
271.280	-848
271.340	-909
271.401	-591
271.462	-877
271.522	132
271.583	-693
271.643	-423
271.704	-1441
271.764	-749
271.825	-853
271.885	-679
271.946	391
272.006	-327
272.066	-377
272.127	329
272.187	142
272.248	-379
272.308	-933
272.369	320
272.429	-1497
272.489	-1039
272.550	-1679
272.610	-837
272.671	-1238
272.731	-1330
272.791	-1863
272.852	-1424
272.912	-658
272.972	-695
273.033	-1089
273.093	-1065
273.153	-34
273.214	-711
273.274	-1600
273.334	-1137
273.394	-556
273.455	-1051
273.515	-77
273.575	305
273.635	-208
273.696	-721
273.756	-368
273.816	-775
273.876	-413
273.936	-619
273.997	-745
274.057	-1518
274.117	-1426
274.177	-861
274.237	-352
274.297	-321
274.358	-761
274.418	-326
274.478	-819
274.538	-823
274.598	-1571
274.658	-810
274.718	-1613
274.778	-442
274.838	-692
274.898	-1776
274.958	-467
275.018	-711
275.078	-1337
275.138	-592
275.198	-1098
275.258	-996
275.318	-1138
275.378	-918
275.438	-1271
275.498	-1677
275.558	-1162
275.618	-490
275.678	-744
275.738	-955
275.798	-1316
275.858	-1143
275.918	-753
275.978	-448
276.038	-758
276.098	-902
276.157	-1358
276.217	-962
276.277	-733
276.337	-1364
276.397	-1397
276.457	-224
276.517	-1119
276.576	-1540
276.636	-1568
276.696	-1007
276.756	-463
276.815	-620
276.875	-638
276.935	-1542
276.995	-861
277.055	-1200
277.114	-834
277.174	-460
277.234	-430
277.293	-1355
277.353	-1415
277.413	-804
277.472	-1006
277.532	-535
277.592	-201
277.651	-591
277.711	1267
277.771	-464
277.830	1279
277.890	1106
277.950	-180
278.009	4271
278.069	1315
278.128	1151
278.188	1361
278.248	-312
278.307	2509
278.367	351
278.426	-1428
278.486	-704
278.545	-1380
278.605	-1070
278.664	-1145
278.724	-1245
278.783	-391
278.843	-483
278.902	-1061
278.962	-788
279.021	-486
279.081	54
279.140	-972
279.199	-894
279.259	-414
279.318	-793
279.378	11
279.437	-632
279.496	522
279.556	8486
279.615	7008
279.675	1239
279.734	532
279.793	-58
279.853	1143
279.912	513
279.971	-541
280.031	-688
280.090	-89
280.149	-455
280.208	162
280.268	4328
280.327	5261
280.386	410
280.445	-682
280.505	-631
280.564	-506
280.623	-552
280.682	-751
280.742	-515
280.801	-409
280.860	-1060
280.919	-1016
280.978	-794
281.037	-1042
281.097	-2021
281.156	-694
281.215	-1114
281.274	-1439
281.333	-424
281.392	-1340
281.451	-1165
281.510	-928
281.569	-810
281.628	-826
281.688	-721
281.747	-714
281.806	-875
281.865	-984
281.924	-967
281.983	-530
282.042	-948
282.101	-991
282.160	-1014
282.219	-1287
282.278	-1214
282.337	-1172
282.396	-1560
282.454	-924
282.513	-793
282.572	-1238
282.631	-1019
282.690	-1228
282.749	-1247
282.808	-424
282.867	-917
282.926	-1877
282.985	-974
283.043	-1558
283.102	-1182
283.161	-1245
283.220	-634
283.279	-927
283.338	-1211
283.396	-1604
283.455	-1247
283.514	-1069
283.573	-1010
283.631	-722
283.690	-466
283.749	-1034
283.808	-888
283.866	-614
283.925	-1294
283.984	-813
284.043	-982
284.101	-683
284.160	-1674
284.219	-1052
284.277	-387
284.336	-959
284.395	542
284.453	-467
284.512	-569
284.570	-797
284.629	-361
284.688	268
284.746	-1347
284.805	310
284.863	129
284.922	1079
284.981	1044
285.039	2804
285.098	5271
285.156	8994
285.215	14873
285.273	13727
285.332	11109
285.390	6557
285.449	4308
285.507	2134
285.566	863
285.624	783
285.683	1257
285.741	-50
285.799	-187
285.858	-505
285.916	-1183
285.975	-425
286.033	-915
286.091	-621
286.150	-1244
286.208	-638
286.267	-633
286.325	-757
286.383	-175
286.442	-1216
286.500	-1332
286.558	-576
286.616	-1268
286.675	-356
286.733	-772
286.791	-999
286.850	-493
286.908	-479
286.966	-866
287.024	-1319
287.083	-1073
287.141	-1210
287.199	-596
287.257	-712
287.315	-349
287.374	-1170
287.432	-1214
287.490	-669
287.548	-1165
287.606	-895
287.664	-326
287.723	-459
287.781	-58
287.839	-1371
287.897	-1109
287.955	-1454
288.013	-997
288.071	-833
288.129	-1348
288.187	1703
288.245	260
288.303	-730
288.361	-749
288.419	-790
288.477	-708
288.535	-1509
288.593	-1002
288.651	-1060
288.709	-1229
288.767	-380
288.825	-1206
288.883	-949
288.941	-1084
288.999	-852
289.057	-454
289.115	-1321
289.173	-1111
289.231	-746
289.289	-929
289.346	-600
289.404	-779
289.462	-1402
289.520	-1040
289.578	-1004
289.636	-839
289.694	-1086
289.751	-719
289.809	-978
289.867	-1001
289.925	-768
289.983	-207
290.040	-972
290.098	-509
290.156	-1278
290.214	-817
290.271	-1272
290.329	-700
290.387	-333
290.444	-1220
290.502	-1512
290.560	-955
290.617	-297
290.675	-672
290.733	-481
290.790	-481
290.848	-879
290.906	-522
290.963	-254
291.021	-896
291.078	-357
291.136	-1616
291.194	-895
291.251	-1144
291.309	-1907
291.366	-744
291.424	-1251
291.481	-1168
291.539	-1255
291.596	185
291.654	-1048
291.711	-475
291.769	-1122
291.826	-1159
291.884	-1123
291.941	-1065
291.999	-1510
292.056	-677
292.114	-1079
292.171	-664
292.228	-417
292.286	-638
292.343	-1377
292.401	-535
292.458	-667
292.515	-1714
292.573	-1033
292.630	-574
292.687	-885
292.745	-1484
292.802	-953
292.859	-237
292.917	-1096
292.974	-349
293.031	-977
293.089	-1288
293.146	-1018
293.203	-1104
293.260	-1097
293.318	-1267
293.375	-1164
293.432	-1109
293.489	-272
293.546	-1554
293.604	-1137
293.661	-847
293.718	125
293.775	-224
293.832	-736
293.889	-960
293.947	-1067
294.004	40
294.061	-725
294.118	-965
294.175	-808
294.232	195
294.289	-1404
294.346	-1501
294.403	-1371
294.460	-734
294.517	-1171
294.574	-1298
294.631	-866
294.688	-869
294.745	-1481
294.802	159
294.859	-952
294.916	-320
294.973	-1001
295.030	-968
295.087	-381
295.144	-1288
295.201	-563
295.258	-851
295.315	-1769
295.372	-983
295.429	-956
295.486	-595
295.542	-1031
295.599	-1188
295.656	-1356
295.713	-1039
295.770	-206
295.827	-182
295.883	-1316
295.940	-1367
295.997	-1405
296.054	-762
296.111	-1033
296.167	-748
296.224	-1582
296.281	-1169
296.338	-1149
296.394	-1368
296.451	-1455
296.508	-1147
296.564	-849
296.621	-153
296.678	-223
296.734	891
296.791	-1202
296.848	-1299
296.904	-1215
296.961	-931
297.018	-594
297.074	-1305
297.131	-671
297.187	-972
297.244	-719
297.301	-387
297.357	-306
297.414	-464
297.470	-1398
297.527	-1451
297.583	-1071
297.640	-955
297.696	-1500
297.753	-1003
297.809	-1423
297.866	-1533
297.922	-1340
297.979	-1391
298.035	-1317
298.092	-1125
298.148	-988
298.204	-1064
298.261	-1211
298.317	-837
298.374	-278
298.430	-723
298.486	-930
298.543	-1559
298.599	-1376
298.656	-1148
298.712	-1261
298.768	-766
298.824	-1091
298.881	-312
298.937	-1427
298.993	-1071
299.050	-928
299.106	-692
299.162	-1449
299.218	-1283
299.275	-1208
299.331	-1356
299.387	-1035
299.443	-166
299.500	2630
299.556	2012
299.612	-470
299.668	-393
299.724	1483
299.780	3178
299.837	-363
299.893	-167
299.949	290
300.005	2153
300.061	813
300.117	3130
300.173	607
300.229	135
300.285	-1246
300.341	-324
300.397	-978
300.453	-1164
300.510	48
300.566	14
300.622	-386
300.678	3301
300.734	4946
300.790	1660
300.845	-244
300.901	990
300.957	2223
301.013	681
301.069	-460
301.125	-635
301.181	-368
301.237	-423
301.293	-1490
301.349	-127
301.405	-708
301.461	-537
301.516	-964
301.572	-672
301.628	-1425
301.684	-1321
301.740	-1288
301.796	-179
301.851	-1272
301.907	-970
301.963	-1058
302.019	-297
302.074	2051
302.130	2191
302.186	43
302.242	-410
302.297	-960
302.353	-1419
302.409	-1753
302.464	-390
302.520	-869
302.576	-134
302.631	9
302.687	-1262
302.743	-747
302.798	-1329
302.854	-1222
302.910	-850
302.965	-1330
303.021	-759
303.076	-943
303.132	-1049
303.187	-1471
303.243	-828
303.299	-1429
303.354	-1436
303.410	-1224
303.465	-1202
303.521	-881
303.576	-1931
303.632	-1141
303.687	-735
303.743	-464
303.798	-134
303.853	-695
303.909	-1156
303.964	-415
304.020	-645
304.075	-1032
304.130	-1678
304.186	-1213
304.241	96
304.297	-987
304.352	-686
304.358	-736
304.407	-1140
304.449	-939
304.463	-874
304.518	-1362
304.539	-1380
304.573	-1409
304.629	-1342
304.630	-1330
304.684	-860
304.720	-731
304.739	-676
304.794	3
304.811	-251
304.850	-850
304.902	-879
304.905	-879
304.960	-1050
304.992	-819
305.015	-686
305.071	-939
305.083	-886
305.126	-662
305.173	-963
305.181	-1001
305.236	-693
305.264	-628
305.292	-644
305.347	-950
305.354	-1043
305.402	-1557
305.445	-656
305.457	-386
305.512	-1104
305.535	-1110
305.567	-1179
305.622	-1121
305.626	-1067
305.678	-5
305.716	-360
305.733	-609
305.788	326
305.807	-160
305.843	-813
305.897	271
305.898	283
305.953	560
305.988	-93
306.008	-442
306.063	-35
306.078	-347
306.118	-1080
306.168	-1527
306.173	-1575
306.228	-301
306.259	-253
306.283	-206
306.338	-732
306.349	-774
306.393	-953
306.440	-386
306.448	-252
306.503	-669
306.530	-437
306.558	-240
306.613	-519
306.620	-473
306.668	-112
306.711	49
306.723	25
306.778	-112
306.801	-241
306.833	-249
306.888	-1
306.892	-31
306.943	-379
306.982	-312
306.997	-345
307.052	-18
307.072	-266
307.107	-606
307.162	-714
307.163	-717
307.217	-630
307.253	-385
307.272	-279
307.327	-703
307.343	-543
307.381	-426
307.434	-496
307.436	-466
307.491	-76
307.524	278
307.546	304
307.600	54
307.614	32
307.655	72
307.704	-84
307.710	-94
307.765	-94
307.795	-110
307.819	-139
307.874	-74
307.885	-101
307.929	45
307.975	537
307.984	574
308.038	173
308.065	175
308.093	563
308.148	1285
308.156	1586
308.202	3416
308.246	4078
308.257	3818
308.312	1131
308.336	489
308.366	570
308.421	363
308.426	332
308.475	-77
308.517	-227
308.530	-224
308.585	-376
308.607	-76
308.639	346
308.694	140
308.697	131
308.748	192
308.787	228
308.803	172
308.857	249
308.877	173
308.912	302
308.967	524
308.967	528
309.021	1167
309.058	1257
309.076	1368
309.130	2203
309.148	2339
309.185	4314
309.238	7607
309.239	7636
309.293	9443
309.328	8722
309.348	7373
309.402	3219
309.418	2178
309.457	1956
309.508	1925
309.511	1919
309.566	1933
309.598	2295
309.620	3009
309.674	4283
309.688	4760
309.729	4770
309.778	3834
309.783	3750
309.837	2596
309.868	1991
309.892	1838
309.946	1785
309.959	1804
310.001	1726
310.049	1524
310.055	1505
310.109	1024
310.139	885
310.163	791
310.218	702
310.229	618
310.272	887
310.319	1264
310.326	1228
310.381	856
310.409	732
310.435	680
310.489	433
310.499	417
310.543	393
310.589	187
310.598	206
310.652	398
310.679	423
310.706	607
310.760	1078
310.769	1154
310.814	1211
310.859	1049
310.868	1055
310.923	1096
310.948	1200
310.977	1281
311.031	1252
311.038	1261
311.085	1000
311.128	573
311.139	563
311.193	546
311.218	559
311.247	667
311.301	819
311.308	830
311.356	911
311.398	938
311.410	1021
311.464	1464
311.488	1641
311.518	1248
311.572	462
311.578	376
311.626	750
311.668	1018
311.680	985
311.734	853
311.758	764
311.788	770
311.842	771
311.847	770
311.896	327
311.937	-81
311.950	104
312.004	931
312.027	1280
312.058	1147
312.112	919
312.117	893
312.165	1348
312.207	1733
312.297	863
312.386	1105
312.476	712
312.566	1181
312.656	418
312.745	771
312.835	1664
312.925	1577
313.015	169
313.104	1143
313.194	1011
313.284	1688
313.374	755
313.463	1250
313.553	1172
313.643	1295
313.732	1504
313.822	2010
313.912	1754
314.001	1279
314.091	1855
314.180	2094
314.270	1932
314.360	1502
314.449	1365
314.539	2420
314.628	1867
314.718	2451
314.808	2117
314.897	2335
314.987	3226
315.076	2495
315.166	1884
315.255	2705
315.345	1252
315.434	1537
315.524	1614
315.613	2244
315.703	1902
315.792	3810
315.881	10275
315.971	3445
316.060	2765
316.150	2370
316.239	1383
316.328	1699
316.418	1881
316.507	2694
316.597	2207
316.686	3086
316.775	1985
316.865	2242
316.954	1519
317.043	2054
317.133	1105
317.222	1451
317.311	1481
317.400	371
317.490	1989
317.579	2474
317.668	1745
317.757	2332
317.847	5235
317.936	15639
318.025	5675
318.114	4531
318.203	2236
318.293	2734
318.382	3055
318.471	4067
318.560	2914
318.649	2527
318.738	1989
318.828	2611
318.917	547
319.006	1235
319.095	937
319.184	2098
319.273	1537
319.362	1962
319.451	1764
319.540	827
319.629	1324
319.718	1923
319.807	1495
319.896	690
319.985	3031
320.074	1214
320.163	723
320.252	1249
320.341	2090
320.430	1795
320.519	1764
320.608	2010
320.697	1968
320.786	2557
320.875	3394
320.964	3636
321.053	3512
321.142	3915
321.230	4306
321.319	4447
321.408	5620
321.497	5454
321.586	5108
321.675	3207
321.764	3614
321.852	3156
321.941	3820
322.030	3733
322.119	3259
322.207	4638
322.296	5154
322.385	4392
322.474	7207
322.562	8318
322.651	5563
322.740	4139
322.829	3878
322.917	3332
323.006	2885
323.095	3211
323.183	2874
323.272	2595
323.361	1905
323.449	2428
323.538	1413
323.626	2201
323.715	1964
323.804	1464
323.892	1955
323.981	2473
324.069	2345
324.158	2248
324.246	2087
324.335	2001
324.424	1553
324.512	1602
324.601	1373
324.689	1506
324.778	1860
324.866	2485
324.954	1872
325.043	1785
325.131	1042
325.220	2334
325.308	1310
325.397	1704
325.485	994
325.574	1076
325.662	1538
325.750	1621
325.839	1758
325.927	2285
326.015	1555
326.104	1053
326.192	1454
326.280	880
326.369	1201
326.457	2295
326.545	1268
326.634	1795
326.722	1052
326.810	2120
326.898	2040
326.987	2383
327.075	1447
327.163	1820
327.251	1321
327.340	1214
327.428	2220
327.516	2346
327.604	2016
327.692	1971
327.781	1508
327.869	1897
327.957	612
328.045	1097
328.133	1251
328.221	1187
328.309	974
328.397	1499
328.485	1562
328.574	2674
328.662	4149
328.750	2766
328.838	1803
328.926	1935
329.014	1971
329.102	1738
329.190	1444
329.278	1611
329.366	1870
329.454	1503
329.542	672
329.630	1061
329.718	1224
329.806	989
329.893	1703
329.981	789
330.069	2002
330.157	2055
330.245	2219
330.333	1686
330.421	1243
330.509	1412
330.597	2482
330.684	1988
330.772	1601
330.860	1790
330.948	1359
331.036	2015
331.123	1431
331.211	2012
331.299	1180
331.387	1455
331.475	1003
331.562	1679
331.650	1891
331.738	1607
331.825	1080
331.913	1023
332.001	2059
332.089	1712
332.176	1218
332.264	1420
332.352	1184
332.439	1209
332.527	1372
332.614	1531
332.702	1659
332.790	1542
332.877	1479
332.965	2764
333.052	1957
333.140	2893
333.228	3057
333.315	1768
333.403	1789
333.490	2593
333.578	2024
333.665	4556
333.753	2807
333.840	2016
333.928	2544
334.015	2940
334.103	2641
334.190	4271
334.278	4924
334.365	7653
334.452	8682
334.540	4901
334.627	4262
334.715	5802
334.802	8074
334.889	13243
334.977	19301
335.064	13666
335.151	6317
335.239	5551
335.326	3460
335.413	3842
335.501	3720
335.588	3457
335.675	3872
335.762	5038
335.850	6416
335.937	9863
336.024	15819
336.111	25205
336.199	25424
336.286	11202
336.373	6697
336.460	3391
336.547	3823
336.635	3104
336.722	2217
336.809	2959
336.896	2307
336.983	2950
337.070	2996
337.157	2660
337.245	2232
337.332	2525
337.419	2567
337.506	2533
337.593	2002
337.680	2360
337.767	2551
337.854	1403
337.941	1825
338.028	1603
338.115	817
338.202	3149
338.289	1872
338.376	1359
338.463	2257
338.550	1509
338.637	1880
338.724	1758
338.811	1427
338.898	2231
338.984	1541
339.071	1647
339.158	1112
339.245	1931
339.332	1861
339.419	2043
339.506	1585
339.593	695
339.679	1826
339.766	1499
339.853	1441
339.940	1328
340.027	1628
340.113	1552
340.200	1921
340.287	1372
340.374	614
340.460	1845
340.547	641
340.634	2175
340.720	2626
340.807	1733
340.894	2355
340.980	1564
341.067	1265
341.154	2366
341.240	1208
341.327	1753
341.414	1678
341.500	1432
341.587	2317
341.674	2038
341.760	2118
341.847	2126
341.933	1841
342.020	943
342.106	1271
342.193	2566
342.279	2298
342.366	1416
342.452	1895
342.539	1903
342.625	1369
342.712	1268
342.798	1920
342.885	1790
342.971	1550
343.058	721
343.144	1030
343.230	1546
343.317	1488
343.403	1140
343.490	1222
343.576	1038
343.662	1904
343.749	1567
343.835	1699
343.921	1921
344.008	3689
344.094	7817
344.180	2649
344.267	1595
344.353	2319
344.439	2545
344.525	1895
344.612	1305
344.698	1293
344.784	1507
344.870	2208
344.957	1935
345.043	3044
345.129	2062
345.215	1761
345.301	1690
345.387	1398
345.474	1706
345.560	1240
345.646	1071
345.732	1545
345.818	1871
345.904	1718
345.990	1678
346.076	1304
346.162	1000
346.249	1734
346.335	1554
346.421	1054
346.507	1642
346.593	2830
346.679	882
346.765	2931
346.851	2556
346.937	1513
347.023	2590
347.108	1728
347.194	1674
347.280	1594
347.366	2633
347.452	5794
347.538	7611
347.624	5371
347.710	2725
347.796	851
347.882	1535
347.967	1259
348.053	1766
348.139	1928
348.225	1340
348.311	1698
348.397	1878
348.482	2502
348.568	1798
348.654	1673
348.740	8660
348.825	6997
348.911	4137
348.997	2654
349.083	5227
349.168	1560
349.254	1651
349.340	1914
349.425	1557
349.511	1606
349.597	1087
349.682	1440
349.768	3082
349.854	2620
349.939	2543
350.025	931
350.110	2289
350.196	1698
350.282	912
350.367	2600
350.453	1964
350.538	2091
350.624	1546
350.709	2103
350.795	1338
350.880	1128
350.966	2672
351.051	1837
351.137	1981
351.222	2015
351.308	1635
351.393	2373
351.479	1295
351.564	809
351.649	2222
351.735	1945
351.820	1707
351.906	1167
351.991	885
352.076	1545
352.162	2241
352.247	2007
352.332	2040
352.418	857
352.503	2136
352.588	2689
352.673	2461
352.759	1622
352.844	1819
352.929	1503
353.014	859
353.100	1861
353.185	1658
353.270	1164
353.355	2616
353.441	2078
353.526	1597
353.611	1816
353.696	1574
353.781	2535
353.866	900
353.952	1532
354.037	1140
354.122	1954
354.207	1683
354.292	1412
354.377	2255
354.462	2015
354.547	1738
354.632	2208
354.717	1982
354.802	700
354.887	1787
354.972	1386
355.057	2205
355.142	1375
355.227	1863
355.312	1524
355.397	1263
355.482	2608
355.567	1854
355.652	1752
355.737	1654
355.822	2404
355.907	2077
355.991	2518
356.076	1671
356.161	1528
356.246	1789
356.331	2140
356.416	962
356.501	4559
356.585	4121
356.670	1410
356.755	3701
356.840	1836
356.924	4269
357.009	7504
357.094	5081
357.179	2151
357.263	2128
357.348	3039
357.433	2360
357.517	2323
357.602	1882
357.687	1236
357.771	1693
357.856	2072
357.941	2659
358.025	3055
358.110	9929
358.195	5203
358.279	1878
358.364	2294
358.448	2205
358.533	4280
358.617	2548
358.702	3727
358.787	2023
358.871	1879
358.956	1723
359.040	1572
359.125	2356
359.209	1254
359.294	2617
359.378	3325
359.462	2761
359.547	2002
359.631	1980
359.716	1428
359.800	2127
359.885	2266
359.969	905
360.053	2328
360.138	2291
360.222	973
360.306	2188
360.391	1982
360.475	1664
360.559	1886
360.644	2445
360.728	1547
360.812	3898
360.896	5829
360.981	2725
361.065	1887
361.149	2675
361.233	2321
361.318	1073
361.402	1649
361.486	3325
361.570	1779
361.654	3083
361.739	2946
361.823	3999
361.907	7783
361.991	2803
362.075	3226
362.159	4038
362.243	8019
362.327	18165
362.411	31970
362.495	11585
362.580	4819
362.664	5158
362.748	5910
362.832	8146
362.916	14693
363.000	44506
363.084	64206
363.168	27882
363.252	8280
363.336	5762
363.420	4766
363.503	4398
363.587	3775
363.671	3468
363.755	2600
363.839	4537
363.923	2853
364.007	5055
364.091	6324
364.175	8475
364.258	19332
364.342	44694
364.426	84666
364.510	48660
364.594	16599
364.677	8223
364.761	6669
364.845	6682
364.929	3236
365.013	3073
365.096	3076
365.180	2236
365.264	2754
365.347	3430
365.431	2333
365.515	1562
365.598	1890
365.682	3998
365.766	1695
365.849	2479
365.933	1603
366.017	3042
366.100	1931
366.184	1798
366.267	3519
366.351	3040
366.435	1697
366.518	1639
366.602	2949
366.685	2077
366.769	1459
366.852	3398
366.936	2496
367.019	2850
367.103	1289
367.186	3292
367.270	2499
367.353	2134
367.436	3608
367.520	2921
367.603	3059
367.687	1891
367.770	1911
367.853	3271
367.937	3698
368.020	3785
368.104	1127
368.187	2891
368.270	2517
368.353	1944
368.437	1105
368.520	2400
368.603	2340
368.687	1741
368.770	3339
368.853	2047
368.936	2757
369.020	3132
369.103	2689
369.186	2201
369.269	2058
369.352	3124
369.436	1899
369.519	2259
369.602	708
369.685	3258
369.768	1551
369.851	2618
369.934	1252
370.018	2417
370.101	410
370.184	4001
370.267	2852
370.350	2345
370.433	1880
370.516	4282
370.599	8501
370.682	2269
370.765	2370
370.848	4039
370.931	3224
371.014	3922
371.097	944
371.180	3681
371.263	2402
371.346	1271
371.429	2548
371.511	1619
371.594	2054
371.677	3728
371.760	3546
371.843	2288
371.926	4472
372.009	9009
372.091	7309
372.174	3293
372.257	5597
372.340	3140
372.423	2930
372.505	4083
372.588	2056
372.671	3800
372.754	3379
372.836	2746
372.919	2599
373.002	3143
373.085	936
373.167	3707
373.250	2583
373.332	4551
373.415	6611
373.498	10310
373.580	6801
373.663	10868
373.746	11172
373.828	3787
373.911	3591
373.993	1843
374.076	2972
374.159	2199
374.241	2991
374.324	3420
374.406	4500
374.489	4456
374.571	8662
374.654	3754
374.736	2601
374.819	6094
374.901	10086
374.983	8918
375.066	4158
375.148	3031
375.231	3236
375.313	4165
375.395	2926
375.478	2823
375.560	3200
375.643	3242
375.725	2689
375.807	6215
375.890	6169
375.972	1500
376.054	2834
376.136	3294
376.219	2283
376.301	3697
376.383	4824
376.465	3072
376.548	1543
376.630	2870
376.712	4572
376.794	3067
376.877	2584
376.959	1847
377.041	1896
377.123	2033
377.205	1825
377.287	1455
377.369	3047
377.452	2120
377.534	2942
377.616	2535
377.698	2639
377.780	1017
377.862	2941
377.944	2463
378.026	1223
378.108	3087
378.190	2304
378.272	2163
378.354	1812
378.436	1728
378.518	1574
378.600	2204
378.682	2400
378.764	2233
378.846	3325
378.928	1847
379.010	1132
379.091	2639
379.173	1886
379.255	1153
379.337	1451
379.419	1976
379.501	4107
379.583	2565
379.664	2228
379.746	1662
379.828	4202
379.910	2042
379.991	3819
380.073	1420
380.155	2225
380.237	1604
380.318	1665
380.400	2698
380.482	1992
380.564	1493
380.645	1407
380.727	2475
380.809	2987
380.890	1774
380.972	239
381.053	2161
381.135	1806
381.217	1936
381.298	3530
381.380	1904
381.461	1650
381.543	4439
381.624	5349
381.706	2660
381.787	2967
381.869	2764
381.951	2569
382.032	7443
382.113	8123
382.195	1331
382.276	3816
382.358	2166
382.439	4307
382.521	6055
382.602	9202
382.684	4917
382.765	6286
382.846	11426
382.928	25072
383.009	13515
383.090	10039
383.172	33040
383.253	47808
383.334	15381
383.416	9273
383.497	5994
383.578	4822
383.659	8739
383.741	27625
383.822	66140
383.903	33151
383.984	8788
384.066	8891
384.147	5537
384.228	4022
384.309	3933
384.390	3634
384.471	3330
384.553	2063
384.634	3358
384.715	2963
384.796	2611
384.877	1957
384.958	3650
385.039	2567
385.120	2640
385.201	3177
385.282	3008
385.363	3459
385.444	2520
385.525	3269
385.606	5044
385.687	5094
385.768	3701
385.849	2753
385.930	6792
386.011	9046
386.092	3460
386.173	3649
386.254	3464
386.335	3806
386.416	3700
386.496	3787
386.577	3746
386.658	3209
386.739	2365
386.820	3598
386.901	2723
386.981	4803
387.062	4627
387.143	3721
387.224	5523
387.304	6663
387.385	6727
387.466	5102
387.547	6430
387.627	5517
387.708	7190
387.789	8063
387.869	6747
387.950	5991
388.031	4164
388.111	1666
388.192	3945
388.273	4291
388.353	2618
388.434	2887
388.514	3612
388.595	6208
388.676	5584
388.756	3864
388.837	3871
388.917	2118
388.998	1386
389.078	2992
389.159	2672
389.239	1263
389.320	4295
389.400	1404
389.480	4338
389.561	2883
389.641	3610
389.722	2781
389.802	2023
389.883	3337
389.963	5374
390.043	2943
390.124	1952
390.204	3338
390.284	3355
390.365	3188
390.445	3217
390.525	2224
390.605	3321
390.686	1618
390.766	2384
390.846	3727
390.927	2536
391.007	1763
391.087	3457
391.167	3230
391.247	1253
391.328	3490
391.408	3034
391.488	2685
391.568	1720
391.648	2639
391.728	3619
391.808	3854
391.888	2577
391.969	3576
392.049	4232
392.129	3654
392.209	2855
392.289	6475
392.369	4581
392.449	4589
392.529	4436
392.609	5706
392.689	6366
392.769	6779
392.849	8268
392.929	11086
393.009	14180
393.089	18411
393.169	33596
393.248	74072
393.328	155922
393.408	161279
393.488	80956
393.568	34008
393.648	18800
393.728	11593
393.807	7956
393.887	7687
393.967	5895
394.047	5333
394.127	4635
394.206	4540
394.286	4469
394.366	12089
394.446	14235
394.525	4919
394.605	3184
394.685	3434
394.764	4821
394.844	6525
394.924	10736
395.003	4560
395.083	2767
395.163	2969
395.242	2854
395.322	2718
395.402	1547
395.481	4383
395.561	3548
395.640	12135
395.720	23310
395.799	10245
395.879	4344
395.958	2671
396.038	5188
396.117	17272
396.197	18543
396.276	7150
396.356	5225
396.435	6077
396.515	9124
396.594	12305
396.673	25826
396.753	68591
396.832	142006
396.912	111327
396.991	39602
397.070	17909
397.150	9520
397.229	10333
397.308	17710
397.388	34466
397.467	17129
397.546	7181
397.625	3193
397.705	5429
397.784	4191
397.863	3244
397.942	2966
398.022	3154
398.101	2435
398.180	2996
398.259	2342
398.338	3766
398.417	2731
398.497	1755
398.576	3721
398.655	1851
398.734	3597
398.813	2339
398.892	2507
398.971	2551
399.050	1785
399.129	2022
399.208	3022
399.287	2797
399.366	1117
399.445	1964
399.524	2054
399.603	833
399.682	2931
399.761	2331
399.840	3265
399.919	2412
399.998	2106
400.077	1555
400.156	933
400.235	4109
400.313	2033
400.392	1032
400.471	3638
400.550	2792
400.629	1352
400.708	1952
400.786	1222
400.865	1661
400.944	711
401.023	3642
401.102	1115
401.180	2204
401.259	1979
401.338	1348
401.416	2803
401.495	873
401.574	2936
401.652	1079
401.731	2185
401.810	462
401.888	1763
401.967	721
402.046	1982
402.124	2069
402.203	845
402.281	1317
402.360	784
402.438	1332
402.517	38
402.596	1823
402.674	1951
402.753	836
402.831	2224
402.910	2403
402.988	1833
403.066	1475
403.145	2319
403.223	3302
403.302	1602
403.380	2374
403.459	1332
403.537	1924
403.615	1992
403.694	642
403.772	2530
403.850	1464
403.929	1618
404.007	959
404.085	2153
404.164	931
404.242	1907
404.320	3231
404.398	2991
404.477	1784
404.555	5293
404.633	4596
404.711	2793
404.789	3053
404.868	1148
404.946	1111
405.024	1115
405.102	1229
405.180	604
405.258	-172
405.336	2498
405.415	802
405.493	2070
405.571	1144
405.649	940
405.727	397
405.805	2335
405.883	1799
405.961	2140
406.039	190
406.117	38
406.195	1931
406.273	950
406.351	4271
406.429	3209
406.507	626
406.585	774
406.663	1556
406.740	1362
406.818	473
406.896	1063
406.974	2617
407.052	-505
407.130	2222
407.208	3596
407.285	1982
407.363	770
407.441	1505
407.519	1255
407.596	1527
407.674	2165
407.752	6151
407.830	5105
407.907	1233
407.985	180
408.063	1213
408.141	796
408.218	1340
408.296	387
408.373	1235
408.451	2140
408.529	2011
408.606	1761
408.684	1847
408.762	2890
408.839	2117
408.917	2643
408.994	2401
409.072	1976
409.149	2765
409.227	5507
409.304	7855
409.382	7446
409.459	8606
409.537	12644
409.614	9428
409.692	7389
409.769	7070
409.846	11463
409.924	14802
410.001	8318
410.079	6511
410.156	5114
410.233	3820
410.311	2810
410.388	2683
410.465	2909
410.543	1532
410.620	3400
410.697	2793
410.775	3225
410.852	1554
410.929	3690
411.006	3767
411.083	2445
411.161	2349
411.238	2655
411.315	2032
411.392	1511
411.469	2966
411.547	1859
411.624	695
411.701	1362
411.778	1924
411.855	1462
411.932	900
412.009	1655
412.086	1861
412.163	2695
412.240	1232
412.317	1715
412.394	1416
412.471	2173
412.548	838
412.625	1943
412.702	1632
412.779	2017
412.856	1471
412.933	922
413.010	1607
413.087	988
413.164	1303
413.241	2533
413.318	170
413.395	2394
413.471	1009
413.548	1861
413.625	1810
413.702	547
413.779	1725
413.855	1283
413.932	549
414.009	874
414.086	1525
414.162	1983
414.239	1807
414.316	1645
414.393	3343
414.469	1323
414.546	284
414.623	1506
414.699	1358
414.776	361
414.853	1199
414.929	1680
415.006	1400
415.082	1399
415.159	1316
415.236	1721
415.312	2136
415.389	2006
415.465	126
415.542	719
415.618	712
415.695	1261
415.771	518
415.848	1138
415.924	859
416.000	556
416.077	1276
416.153	-112
416.230	273
416.306	1071
416.383	771
416.459	1589
416.535	637
416.612	1384
416.688	609
416.764	1072
416.841	-48
416.917	1315
416.993	1483
417.069	1806
417.146	-89
417.222	75
417.298	634
417.374	473
417.451	1093
417.527	626
417.603	176
417.679	1344
417.755	488
417.831	1015
417.908	1585
417.984	1947
418.060	193
418.136	1686
418.212	1064
418.288	1289
418.364	1310
418.440	427
418.516	1560
418.592	1064
418.668	927
418.744	728
418.820	928
418.896	1522
418.972	1170
419.048	1038
419.124	2380
419.200	370
419.276	1415
419.352	943
419.428	1870
419.504	1239
419.579	1049
419.655	1483
419.731	1596
419.807	1327
419.883	1647
419.959	2328
420.034	2656
420.110	2101
420.186	1429
420.262	3038
420.337	1872
420.413	2210
420.489	2840
420.565	3399
420.640	2900
420.716	3084
420.792	2430
420.867	4526
420.943	2897
421.019	3271
421.094	3120
421.170	3578
421.245	4320
421.321	5031
421.397	5289
421.472	7072
421.548	7976
421.623	8288
421.699	7991
421.774	8400
421.850	9373
421.925	11362
422.001	12895
422.076	15621
422.152	19706
422.227	24889
422.302	34190
422.378	43812
422.453	62075
422.529	79984
422.604	76897
422.679	56583
422.755	77822
422.830	88349
422.905	69155
422.981	51119
423.056	39661
423.131	30486
423.207	23479
423.282	18657
423.357	15103
423.432	12052
423.508	11723
423.583	9497
423.658	8507
423.733	8288
423.808	7362
423.883	6520
423.959	7075
424.034	8616
424.109	8130
424.184	5758
424.259	4337
424.334	4026
424.409	4014
424.484	3974
424.559	3520
424.634	3071
424.709	3158
424.784	2765
424.859	3206
424.934	2210
425.009	3253
425.084	3003
425.159	2154
425.234	2618
425.309	1295
425.384	2437
425.459	1617
425.534	2249
425.609	929
425.683	1842
425.758	2378
425.833	2189
425.908	2201
425.983	2104
426.058	3046
426.132	2095
426.207	1606
426.282	3385
426.357	1424
426.431	1797
426.506	1309
426.581	1934
426.655	1848
426.730	1191
426.805	1234
426.879	2681
426.954	1040
427.029	1665
427.103	1621
427.178	3286
427.253	1850
427.327	1699
427.402	457
427.476	1366
427.551	891
427.625	1514
427.700	1823
427.774	894
427.849	1618
427.923	1199
427.998	1593
428.072	1271
428.147	3218
428.221	11852
428.296	36255
428.370	21502
428.444	4342
428.519	1801
428.593	1319
428.667	1345
428.742	1476
428.816	5756
428.890	22019
428.965	34428
429.039	10189
429.113	1904
429.188	950
429.262	1665
429.336	1553
429.410	1207
429.485	1520
429.559	1500
429.633	1611
429.707	1291
429.781	4887
429.855	20359
429.930	30804
430.004	8374
430.078	4718
430.152	14616
430.226	46901
430.300	49739
430.374	11579
430.448	4967
430.522	2620
430.596	2410
430.670	7343
430.744	28509
430.818	30690
430.892	6146
430.966	1803
431.040	1867
431.114	3
431.188	987
431.262	332
431.336	717
431.410	1945
431.484	242
431.557	1311
431.631	1175
431.705	1905
431.779	8608
431.853	35053
431.927	24081
432.000	4391
432.074	2196
432.148	161
432.222	1013
432.295	728
432.369	111
432.443	-130
432.516	809
432.590	2286
432.664	1429
432.737	303
432.811	-496
432.885	591
432.958	960
433.032	316
433.106	464
433.179	690
433.253	134
433.326	15
433.400	-239
433.473	406
433.547	376
433.620	597
433.694	421
433.767	362
433.841	-20
433.914	4
433.988	522
434.061	501
434.134	33
434.208	111
434.281	-473
434.355	-268
434.428	418
434.501	394
434.575	687
434.648	-924
434.721	-325
434.795	-4
434.868	522
434.941	53
435.014	175
435.088	50
435.161	1221
435.234	908
435.307	1041
435.381	1232
435.454	2787
435.527	5153
435.600	5730
435.673	4609
435.746	3595
435.819	1947
435.892	1936
435.966	959
436.039	1093
436.112	1099
436.185	795
436.258	354
436.331	-73
436.404	111
436.477	-4
436.550	94
436.623	867
436.696	368
436.769	1300
436.842	49
436.915	273
436.987	759
437.060	121
437.133	-244
437.206	-164
437.279	814
437.352	-218
437.425	-321
437.498	159
437.570	206
437.643	-150
437.716	-185
437.789	452
437.861	-49
437.934	274
438.007	0
438.080	-120
438.152	153
438.225	392
438.298	1266
438.370	3564
438.443	1556
438.516	665
438.588	-443
438.661	-454
438.734	829
438.806	249
438.879	687
438.951	198
439.024	477
439.096	613
439.169	756
439.241	473
439.314	-364
439.386	566
439.459	13
439.531	143
439.604	-14
439.676	989
439.749	533
439.821	528
439.893	452
439.966	1143
440.038	-98
440.110	565
440.183	331
440.255	40
440.327	1052
440.400	1046
440.472	1959
440.544	1711
440.617	1008
440.689	1938
440.761	970
440.833	724
440.905	427
440.978	-72
441.050	-76
441.122	1049
441.194	-376
441.266	1036
441.338	272
441.411	1638
441.483	615
441.555	1342
441.627	834
441.699	577
441.771	284
441.843	540
441.915	769
441.987	1219
442.059	329
442.131	1671
442.203	1488
442.275	1999
442.347	2725
442.419	6546
442.491	27587
442.563	57606
442.635	23818
442.706	5624
442.778	2006
442.850	1888
442.922	1389
442.994	2282
443.066	1003
443.137	2116
443.209	3180
443.281	4834
443.353	10030
443.425	30508
443.496	79034
443.568	85571
443.640	36325
443.711	9436
443.783	3331
443.855	3548
443.926	1766
443.998	1400
444.070	1388
444.141	1653
444.213	1486
444.285	1181
444.356	1114
444.428	1252
444.499	1343
444.571	684
444.642	1053
444.714	1789
444.785	798
444.857	1363
444.928	862
445.000	1794
445.071	1818
445.143	2613
445.214	4237
445.285	7630
445.357	19188
445.428	55589
445.500	94050
445.571	79595
445.642	55512
445.714	18703
445.785	6458
445.856	3293
445.928	1823
445.999	882
446.070	896
446.141	1470
446.213	641
446.284	658
446.355	294
446.426	82
446.497	759
446.569	878
446.640	471
446.711	895
446.782	671
446.853	994
446.924	751
446.995	262
447.066	-508
447.138	-111
447.209	27
447.280	-177
447.351	-183
447.422	-557
447.493	-958
447.564	608
447.635	-759
447.706	-67
447.777	-191
447.847	472
447.918	-978
447.989	717
448.060	-461
448.131	-634
448.202	-297
448.273	624
448.344	-299
448.414	381
448.485	154
448.556	175
448.627	-244
448.698	1042
448.768	-243
448.839	687
448.910	8
448.981	-106
449.051	59
449.122	457
449.193	-466
449.263	585
449.334	-821
449.405	463
449.475	69
449.546	830
449.616	51
449.687	230
449.758	248
449.828	357
449.899	-729
449.969	-302
450.040	-480
450.110	106
450.181	27
450.251	-276
450.322	324
450.392	673
450.463	184
450.533	235
450.604	-620
450.674	321
450.744	444
450.815	-298
450.885	200
450.955	695
451.026	-220
451.096	651
451.166	274
451.237	813
451.307	1122
451.377	1014
451.447	-107
451.518	-32
451.588	291
451.658	-1
451.728	-363
451.799	-90
451.869	-520
451.939	-502
452.009	-314
452.079	61
452.149	51
452.219	237
452.289	-343
452.360	118
452.430	31
452.500	553
452.570	1902
452.640	3795
452.710	10883
452.780	10761
452.850	5695
452.920	1732
452.990	1384
453.060	852
453.129	95
453.199	694
453.269	725
453.339	259
453.409	-211
453.479	891
453.549	172
453.619	561
453.688	197
453.758	-705
453.828	410
453.898	-305
453.968	98
454.037	800
454.087	49
454.107	-260
454.168	-294
454.177	-307
454.247	-505
454.249	-496
454.316	-344
454.330	-451
454.386	-860
454.411	-736
454.456	-575
454.492	-421
454.525	-271
454.574	317
454.595	572
454.655	-623
454.665	-827
454.734	-360
454.736	-360
454.804	-535
454.817	-473
454.873	-210
454.898	-408
454.943	-804
454.979	-478
455.013	-193
455.060	-2
455.082	89
455.141	262
455.152	299
455.221	-243
455.222	-234
455.291	-175
455.303	-165
455.360	-103
455.384	-102
455.430	-147
455.465	176
455.499	484
455.546	487
455.569	496
455.627	380
455.638	353
455.707	-87
455.708	-82
455.777	141
455.789	119
455.846	221
455.869	210
455.916	55
455.950	9
455.985	-61
456.031	-285
456.054	-356
456.112	203
456.124	320
456.193	511
456.193	506
456.262	612
456.274	579
456.332	502
456.355	409
456.401	172
456.436	296
456.470	471
456.516	506
456.540	471
456.597	257
456.609	240
456.678	706
456.678	704
456.747	50
456.759	127
456.817	622
456.840	560
456.886	270
456.920	-12
456.955	-174
457.001	202
457.024	283
457.082	532
457.093	617
457.162	459
457.163	462
457.232	47
457.243	149
457.301	895
457.324	808
457.370	398
457.405	508
457.439	744
457.485	795
457.508	776
457.566	1141
457.577	1247
457.646	1544
457.647	1551
457.715	3315
457.727	3938
457.784	7503
457.808	10793
457.853	15231
457.889	17881
457.922	18873
457.969	11584
457.991	10162
458.050	11441
458.060	11706
458.129	22990
458.130	23304
458.198	28252
458.211	24887
458.267	12080
458.292	8439
458.336	4436
458.372	4073
458.405	5519
458.453	8938
458.474	11089
458.533	20274
458.543	20987
458.611	39470
458.614	39421
458.680	24793
458.694	19745
458.749	7887
458.775	5807
458.818	3057
458.855	2527
458.887	2077
458.936	1235
458.955	1013
459.016	1112
459.024	1138
459.093	1343
459.097	1339
459.162	1030
459.177	974
459.230	747
459.257	780
459.299	938
459.338	935
459.368	899
459.418	980
459.437	891
459.499	793
459.505	836
459.574	414
459.579	448
459.643	725
459.659	769
459.711	853
459.740	794
459.780	764
459.820	1053
459.849	1231
459.900	530
459.917	341
459.981	883
459.986	914
460.054	485
460.061	540
460.123	833
460.141	786
460.191	651
460.222	605
460.260	692
460.302	545
460.328	614
460.382	994
460.397	1031
460.462	1211
460.465	1208
460.534	1536
460.543	1520
460.602	3512
460.623	4491
460.671	7168
460.703	9985
460.739	9736
460.783	7659
460.808	6858
460.864	2628
460.876	1985
460.944	242
460.945	238
461.013	735
461.024	876
461.081	789
461.104	734
461.150	1067
461.184	1156
461.218	1016
461.264	1009
461.286	988
461.345	617
461.355	634
461.423	1205
461.425	1209
461.491	553
461.505	505
461.559	701
461.585	683
461.628	855
461.665	1070
461.696	802
461.745	387
461.764	588
461.825	1227
461.832	1227
461.901	1332
461.905	1328
461.969	570
461.985	400
462.037	1003
462.065	1276
462.105	730
462.145	543
462.173	928
462.225	922
462.241	833
462.305	948
462.310	927
462.378	379
462.385	357
462.446	847
462.465	915
462.514	872
462.545	889
462.582	973
462.625	1002
462.650	772
462.705	581
462.718	589
462.785	-13
462.786	-6
462.854	965
462.865	1103
462.922	1125
462.945	1103
462.990	1243
463.025	1302
463.058	1055
463.104	749
463.126	811
463.184	1418
463.194	1496
463.262	1200
463.264	1206
463.330	1003
463.344	911
463.398	969
463.424	1026
463.466	350
463.504	-211
463.533	281
463.583	892
463.601	785
463.663	677
463.669	641
463.737	172
463.743	132
463.805	819
463.823	1012
463.873	1341
463.903	1428
463.940	1056
463.982	811
464.008	996
464.062	1348
464.076	1280
464.142	897
464.144	897
464.211	757
464.221	758
464.279	576
464.301	480
464.347	881
464.381	1207
464.414	918
464.461	548
464.482	795
464.540	1219
464.550	1153
464.617	1005
464.620	992
464.685	1144
464.699	1187
464.753	1109
464.779	1070
464.820	904
464.859	796
464.888	628
464.938	111
464.956	365
465.018	1602
465.023	1590
465.091	1090
465.098	1075
465.158	903
465.177	782
465.226	1199
465.257	1464
465.293	1211
465.336	907
465.361	882
465.416	879
465.428	913
465.495	1077
465.496	1075
465.563	599
465.575	512
465.631	743
465.654	917
465.698	690
465.734	365
465.765	829
465.813	1573
465.833	1385
465.893	817
465.900	819
465.968	795
465.972	794
466.035	1002
466.052	1067
466.102	588
466.131	280
466.170	443
466.210	672
466.237	727
466.290	782
466.304	801
466.369	806
466.372	805
466.439	757
466.449	761
466.506	1135
466.528	1241
466.573	1335
466.607	1404
466.641	902
466.687	231
466.708	397
466.766	820
466.775	919
466.842	1670
466.845	1703
466.909	1563
466.925	1528
466.977	640
467.004	172
467.044	781
467.083	1375
467.111	1355
467.163	1336
467.178	1247
467.242	862
467.245	886
467.312	1405
467.321	1475
467.379	509
467.400	156
467.446	1068
467.480	1732
467.559	2362
467.638	1164
467.717	1098
467.796	1380
467.875	1671
467.955	1000
468.034	951
468.113	1788
468.192	1921
468.271	2341
468.350	3738
468.429	5669
468.508	6467
468.588	3670
468.667	2499
468.746	1658
468.825	1018
468.904	1161
468.983	1211
469.062	1964
469.141	2094
469.220	1237
469.299	1496
469.378	402
469.456	2243
469.535	1712
469.614	1622
469.693	930
469.772	1026
469.851	1453
469.930	1236
470.009	1088
470.088	1427
470.166	818
470.245	2677
470.324	2088
470.403	1455
470.482	1895
470.560	1647
470.639	584
470.718	1584
470.797	1772
470.875	1382
470.954	806
471.033	1637
471.111	492
471.190	1083
471.269	892
471.347	543
471.426	1291
471.505	1629
471.583	1153
471.662	645
471.740	1124
471.819	1243
471.898	368
471.976	2358
472.055	505
472.133	1162
472.212	1236
472.290	1226
472.369	1091
472.447	1676
472.526	913
472.604	1547
472.683	1120
472.761	1088
472.839	710
472.918	2140
472.996	1385
473.075	1452
473.153	1360
473.231	1878
473.310	930
473.388	1517
473.466	715
473.545	725
473.623	877
473.701	1463
473.780	1890
473.858	55
473.936	1980
474.014	796
474.093	1343
474.171	885
474.249	1197
474.327	2149
474.405	668
474.484	1690
474.562	1385
474.640	1333
474.718	785
474.796	1455
474.874	1510
474.952	744
475.030	630
475.108	1372
475.187	1427
475.265	1590
475.343	1518
475.421	1461
475.499	1121
475.577	2365
475.655	1519
475.733	1327
475.811	1166
475.889	1270
475.966	769
476.044	1449
476.122	833
476.200	-30
476.278	760
476.356	1180
476.434	1303
476.512	843
476.590	953
476.667	2094
476.745	1373
476.823	1555
476.901	721
476.979	1427
477.056	1808
477.134	1087
477.212	1075
477.290	1128
477.367	692
477.445	1707
477.523	295
477.601	1242
477.678	1528
477.756	1186
477.834	1301
477.911	1806
477.989	807
478.066	530
478.144	949
478.222	858
478.299	1411
478.377	684
478.454	1430
478.532	1083
478.609	819
478.687	1049
478.764	277
478.842	1485
478.919	728
478.997	1483
479.074	1283
479.152	1015
479.229	1599
479.307	685
479.384	1305
479.461	1028
479.539	373
479.616	2039
479.694	1145
479.771	1926
479.848	1061
479.926	-82
480.003	1327
480.080	1572
480.157	1778
480.235	1403
480.312	429
480.389	1142
480.467	1176
480.544	1721
480.621	1249
480.698	1657
480.775	1074
480.853	1022
480.930	1100
481.007	625
481.084	558
481.161	2522
481.238	1750
481.315	1167
481.392	315
481.470	936
481.547	720
481.624	1214
481.701	787
481.778	1998
481.855	292
481.932	2145
482.009	1147
482.086	1271
482.163	1267
482.240	2673
482.317	1637
482.393	1978
482.470	1399
482.547	1262
482.624	1089
482.701	2120
482.778	382
482.855	1139
482.932	851
483.009	1058
483.085	1269
483.162	2243
483.239	2379
483.316	710
483.393	1873
483.469	1881
483.546	1300
483.623	1549
483.699	-337
483.776	418
483.853	762
483.930	1789
484.006	690
484.083	2240
484.160	1034
484.236	1112
484.313	1563
484.389	1456
484.466	2090
484.543	1647
484.619	2797
484.696	4515
484.772	1916
484.849	2011
484.925	711
485.002	1710
485.078	1358
485.155	1313
485.231	714
485.308	493
485.384	1964
485.461	757
485.537	585
485.614	1733
485.690	8
485.766	1277
485.843	1209
485.919	635
485.995	1061
486.072	1343
486.148	718
486.224	1223
486.301	437
486.377	602
486.453	-411
486.530	1379
486.606	1414
486.682	1031
486.758	569
486.835	1365
486.911	312
486.987	1982
487.063	1405
487.139	1738
487.215	1806
487.292	3424
487.368	1829
487.444	2661
487.520	4276
487.596	6074
487.672	19470
487.748	64555
487.824	91753
487.900	24165
487.976	5454
488.052	2803
488.128	2498
488.204	1105
488.280	2240
488.356	1625
488.432	944
488.508	1964
488.584	797
488.660	1180
488.736	1758
488.812	419
488.888	1332
488.964	966
489.039	-277
489.115	1144
489.191	1320
489.267	1162
489.343	1113
489.418	562
489.494	515
489.570	-548
489.646	2531
489.722	749
489.797	541
489.873	1092
489.949	1279
490.024	1002
490.100	-209
490.176	1781
490.251	1272
490.327	2215
490.403	292
490.478	2435
490.554	1036
490.629	1259
490.705	1732
490.781	1781
490.856	726
490.932	590
491.007	1273
491.083	-37
491.158	419
491.234	824
491.309	2025
491.385	791
491.460	537
491.536	1366
491.611	246
491.686	932
491.762	701
491.837	601
491.913	512
491.988	1663
492.063	1207
492.139	1734
492.214	1287
492.289	920
492.365	1237
492.440	1190
492.515	19
492.590	1017
492.666	1122
492.741	1314
492.816	781
492.891	276
492.967	1306
493.042	667
493.117	131
493.192	892
493.267	1301
493.342	1202
493.418	1615
493.493	224
493.568	852
493.643	1005
493.718	918
493.793	1303
493.868	984
493.943	1416
494.018	1201
494.093	404
494.168	911
494.243	415
494.318	1524
494.393	1596
494.468	1526
494.543	1061
494.618	782
494.693	1187
494.768	1003
494.842	1149
494.917	728
494.992	412
495.067	683
495.142	628
495.217	108
495.292	1455
495.366	1614
495.441	-232
495.516	795
495.591	287
495.665	482
495.740	2159
495.815	2113
495.890	403
495.964	-1136
496.039	2158
496.114	951
496.188	118
496.263	1080
496.338	830
496.412	100
496.487	1322
496.561	193
496.636	1338
496.710	936
496.785	327
496.860	876
496.934	449
497.009	1728
497.083	615
497.158	736
497.232	1864
497.307	374
497.381	1247
497.455	1052
497.530	614
497.604	1283
497.679	1560
497.753	360
497.827	563
497.902	118
497.976	808
498.050	1282
498.125	2625
498.199	1941
498.273	533
498.348	1214
498.422	1201
498.496	874
498.570	2356
498.645	-37
498.719	396
498.793	811
498.867	1333
498.941	433
499.016	606
499.090	682
499.164	1463
499.238	522
499.312	1967
499.386	40
499.460	1095
499.534	1272
499.609	1035
499.683	499
499.757	1096
499.831	685
499.905	1124
499.979	199
500.053	1717
500.127	903
500.201	125
500.275	1028
500.349	1153
500.422	933
500.496	1471
500.570	989
500.644	2870
500.718	1225
500.792	645
500.866	1130
500.940	1894
501.013	1123
501.087	72
501.161	637
501.235	-668
501.309	2888
501.382	765
501.456	1782
501.530	1038
501.603	-269
501.677	901
501.751	-1611
501.825	1897
501.898	341
501.972	793
502.046	1242
502.119	556
502.193	406
502.266	820
502.340	916
502.413	621
502.487	664
502.561	-352
502.634	1144
502.708	1075
502.781	-355
502.855	2208
502.928	270
503.002	1041
503.075	348
503.149	407
503.222	220
503.295	676
503.369	1291
503.442	983
503.516	706
503.589	1069
503.662	1131
503.736	2732
503.809	2793
503.882	2089
503.956	5084
504.029	10898
504.102	35972
504.175	53363
504.249	14973
504.322	5208
504.395	2201
504.468	1647
504.542	577
504.615	-311
504.688	2180
504.761	-830
504.834	1579
504.907	707
504.980	572
505.053	818
505.127	-846
505.200	2661
505.273	-544
505.346	1367
505.419	-538
505.492	693
505.565	-476
505.638	250
505.711	435
505.784	22
505.857	57
505.930	1589
506.003	-958
506.076	2721
506.149	259
506.221	-961
506.294	1305
506.367	-476
506.440	698
506.513	1436
506.586	550
506.659	806
506.731	185
506.804	-82
506.877	-454
506.950	338
507.022	1841
507.095	-346
507.168	569
507.241	1317
507.313	-58
507.386	-21
507.459	837
507.531	675
507.604	-624
507.677	2211
507.749	-664
507.822	1300
507.894	246
507.967	984
508.040	385
508.112	470
508.185	602
508.257	-869
508.330	1909
508.402	-381
508.475	-730
508.547	642
508.620	3
508.692	205
508.765	-785
508.837	-673
508.909	194
508.982	895
509.054	406
509.127	260
509.199	313
509.271	157
509.344	-1517
509.416	395
509.488	-331
509.560	869
509.633	-229
509.705	-427
509.777	138
509.849	171
509.922	-1401
509.994	1154
510.066	939
510.138	-596
510.210	2098
510.283	-36
510.355	539
510.427	645
510.499	-273
510.571	413
510.643	269
510.715	1483
510.787	-2026
510.859	2280
510.931	-781
511.003	927
511.076	708
511.148	51
511.219	-894
511.291	939
511.363	1045
511.435	649
511.507	-320
511.579	649
511.651	1670
511.723	-400
511.795	120
511.867	84
511.939	295
512.010	-204
512.082	1503
512.154	-279
512.226	710
512.298	1547
512.369	727
512.441	1078
512.513	110
512.585	-300
512.656	776
512.728	-707
512.800	-41
512.871	1356
512.943	-56
513.015	-1250
513.086	561
513.158	753
513.230	-639
513.301	-181
513.373	-407
513.444	517
513.516	-215
513.588	523
513.659	179
513.731	765
513.802	-1928
513.874	1557
513.945	-102
514.016	-1073
514.088	631
514.159	-688
514.231	346
514.302	682
514.374	221
514.445	-1385
514.516	1251
514.588	218
514.659	-43
514.730	-6
514.802	843
514.873	-1895
514.944	2156
515.016	333
515.087	-496
515.158	273
515.229	320
515.301	-793
515.372	819
515.443	-579
515.514	-741
515.585	-832
515.656	1056
515.728	1343
515.799	-613
515.870	1398
515.941	471
516.012	-1050
516.083	1075
516.154	-328
516.225	1016
516.296	1970
516.367	717
516.438	627
516.509	1094
516.580	2711
516.651	10903
516.722	32394
516.793	10189
516.864	1994
516.935	2088
517.006	3256
517.077	4350
517.148	10244
517.219	50523
517.289	63787
517.360	5123
517.431	2159
517.502	400
517.573	1416
517.643	925
517.714	736
517.785	1578
517.856	526
517.926	3047
517.997	2900
518.068	1382
518.138	6553
518.209	6988
518.280	34591
518.350	116878
518.421	33184
518.492	5772
518.562	4086
518.633	4898
518.703	7189
518.774	22789
518.845	64076
518.915	57677
518.986	12015
519.056	4915
519.127	3338
519.197	1952
519.268	253
519.338	1660
519.408	850
519.479	869
519.549	467
519.620	2334
519.690	1521
519.760	430
519.831	148
519.901	-423
519.971	1051
520.042	61
520.112	-655
520.182	852
520.253	680
520.323	-271
520.393	-467
520.463	1994
520.534	-2167
520.604	1921
520.674	1490
520.744	507
520.814	-435
520.885	424
520.955	959
521.025	-688
521.095	824
521.165	1596
521.235	453
521.305	389
521.375	1289
521.445	404
521.515	-310
521.585	991
521.655	-1137
521.725	1717
521.795	658
521.865	-2034
521.935	2346
522.005	-874
522.075	-237
522.145	1094
522.215	-559
522.285	1794
522.355	947
522.424	200
522.494	-875
522.564	283
522.634	433
522.704	1587
522.774	10
522.843	815
522.913	432
522.983	439
523.053	-88
523.122	1102
523.192	-398
523.262	-167
523.331	-748
523.401	1299
523.471	732
523.540	268
523.610	-828
523.680	882
523.749	544
523.819	645
523.888	-236
523.958	-3
524.027	486
524.097	368
524.166	22
524.236	-1508
524.305	3056
524.375	-30
524.444	-504
524.514	2247
524.583	382
524.653	-60
524.722	50
524.791	-535
524.861	2631
524.930	-589
524.999	-48
525.069	1312
525.138	-360
525.207	478
525.277	1289
525.346	305
525.415	2001
525.484	1245
525.554	6
525.623	2364
525.692	3098
525.761	3626
525.830	4623
525.900	5320
525.969	10099
526.038	19901
526.107	44271
526.176	123584
526.245	88152
526.314	25581
526.383	60900
526.452	76905
526.522	123038
526.591	99419
526.660	13652
526.729	8266
526.797	10848
526.867	14213
526.935	50648
527.004	186198
527.073	100802
527.142	11135
527.211	4960
527.280	2970
527.349	2884
527.418	388
527.487	3066
527.555	1114
527.624	1328
527.693	325
527.762	1838
527.831	-358
527.899	1353
527.968	889
528.037	102
528.106	859
528.174	1740
528.243	998
528.312	442
528.380	421
528.449	-291
528.518	2372
528.586	194
528.655	1947
528.723	1473
528.792	580
528.861	-468
528.929	-156
528.998	1057
529.066	406
529.135	613
529.203	201
529.272	-411
529.340	1176
529.409	1839
529.477	-325
529.545	-119
529.614	3110
529.682	-350
529.751	-24
529.819	3082
529.887	-329
529.956	-6
530.024	2342
530.092	0
530.161	816
530.229	1086
530.297	-190
530.365	1646
530.434	1141
530.502	228
530.570	1334
530.638	-406
530.707	1344
530.775	2374
530.843	13
530.911	615
530.979	1046
531.047	746
531.115	1337
531.183	1158
531.252	1901
531.320	919
531.388	77
531.456	1341
531.524	-1080
531.592	2252
531.660	2956
531.728	-165
531.796	836
531.864	1167
531.932	501
532.000	663
532.067	1160
532.135	1604
532.203	2158
532.271	877
532.339	1691
532.407	1854
532.475	1146
532.542	2214
532.610	2632
532.678	985
532.746	3069
532.814	3513
532.881	1261
532.949	1997
533.017	2027
533.084	1760
533.152	1355
533.220	1686
533.287	258
533.355	1874
533.423	1242
533.490	1038
533.558	1471
533.625	1776
533.693	1251
533.761	1950
533.828	1771
533.896	449
533.963	2277
534.031	2948
534.098	2846
534.166	2834
534.233	1795
534.300	4156
534.368	3430
534.435	2443
534.503	3828
534.570	4042
534.637	3838
534.705	4346
534.772	5190
534.840	10980
534.907	55944
534.974	60423
535.041	7007
535.109	4111
535.176	2097
535.243	3504
535.310	2931
535.378	2283
535.445	3187
535.512	3178
535.579	3791
535.646	2248
535.714	3223
535.781	3991
535.848	3078
535.915	3789
535.982	1238
536.049	2511
536.116	3307
536.183	2523
536.250	2278
536.317	3059
536.384	3306
536.451	3776
536.518	3693
536.585	1704
536.652	4858
536.719	4454
536.786	1426
536.853	3235
536.920	3325
536.987	2650
537.053	2338
537.120	4562
537.187	4195
537.254	3113
537.321	2814
537.388	4305
537.454	2989
537.521	3658
537.588	2744
537.654	4150
537.721	3663
537.788	4363
537.855	3523
537.921	3981
537.988	2062
538.055	4223
538.121	2076
538.188	3154
538.254	3178
538.321	2816
538.388	4389
538.454	4017
538.521	4821
538.587	3892
538.654	3379
538.720	3956
538.787	3614
538.853	3841
538.920	3874
538.986	3267
539.053	3167
539.119	3748
539.185	3641
539.252	4614
539.318	3071
539.385	5773
539.451	2179
539.517	3781
539.583	4473
539.650	3459
539.716	4449
539.782	3631
539.849	2417
539.915	4954
539.981	3283
540.047	3100
540.114	4146
540.180	5490
540.246	3510
540.312	4243
540.378	3630
540.444	5104
540.510	4502
540.576	4673
540.643	3376
540.709	3242
540.775	3573
540.841	3377
540.907	3923
540.973	3253
541.039	3982
541.105	4369
541.171	3316
541.237	4417
541.303	4622
541.369	6306
541.435	4230
541.500	3842
541.566	1370
541.632	3552
541.698	3160
541.764	4918
541.830	3746
541.896	2163
541.961	4315
542.027	3502
542.093	4650
542.159	5619
542.224	1928
542.290	4158
542.356	4167
542.421	4243
542.487	3347
542.553	2821
542.618	3265
542.684	2730
542.750	3169
542.815	5231
542.881	2905
542.947	4227
543.012	4072
543.078	3289
543.143	2962
543.209	4025
543.274	2926
543.340	4082
543.405	3913
543.471	3539
543.536	4451
543.602	4455
543.667	2452
543.732	5153
543.798	3686
543.863	3606
543.928	3457
543.994	3805
544.059	4322
544.124	4790
544.190	4606
544.255	4887
544.320	5065
544.386	3691
544.451	4819
544.516	3983
544.581	3757
544.646	4652
544.712	6443
544.777	4969
544.842	4984
544.907	4140
544.972	4597
545.037	5927
545.102	5225
545.168	4499
545.233	5289
545.298	6685
545.363	5172
545.428	5964
545.493	6298
545.558	5520
545.623	5763
545.688	6344
545.753	6377
545.818	6308
545.883	7076
545.947	6379
546.012	7690
546.077	6382
546.142	7674
546.207	7695
546.272	8184
546.337	7958
546.401	8818
546.466	8820
546.531	9257
546.596	10891
546.661	11872
546.725	12425
546.790	13289
546.855	14508
546.919	15203
546.984	17549
547.049	17901
547.113	21421
547.178	22891
547.243	27756
547.307	31358
547.372	35071
547.436	34032
547.501	36797
547.565	40409
547.630	36384
547.695	34934
547.759	36067
547.823	35403
547.888	36575
547.952	36543
548.017	38502
548.081	39832
548.146	38607
548.210	40504
548.274	44833
548.339	41818
548.403	39643
548.468	36665
548.532	36257
548.596	37216
548.660	38360
548.725	41511
548.789	44819
548.853	43892
548.917	41866
548.982	39690
549.046	36089
549.110	32993
549.174	34689
549.238	40551
549.303	44392
549.367	45502
549.431	43800
549.495	40949
549.559	40389
549.623	47798
549.687	51968
549.751	51583
549.815	60242
549.879	61612
549.943	58628
550.007	62331
550.071	61806
550.135	54772
550.199	52582
550.263	51884
550.327	50350
550.391	51141
550.455	56124
550.519	59443
550.582	62868
550.646	70860
550.710	69940
550.774	70205
550.838	70188
550.901	72527
550.965	76242
551.029	77936
551.093	83172
551.156	86998
551.220	91385
551.284	98522
551.347	83558
551.411	75357
551.475	73561
551.538	78530
551.602	74476
551.666	69832
551.729	66443
551.793	66413
551.856	65283
551.920	64309
551.983	64398
552.047	63700
552.110	63756
552.174	63125
552.237	65745
552.301	62317
552.364	60230
552.428	58486
552.491	60148
552.554	61456
552.618	60636
552.681	62060
552.745	59445
552.808	62576
552.871	64972
552.934	62660
552.998	61886
553.061	59435
553.124	57654
553.187	58709
553.251	60446
553.314	61172
553.377	60430
553.440	64913
553.503	65766
553.567	65469
553.630	66272
553.693	66909
553.756	67944
553.819	67325
553.882	66318
553.945	66042
554.008	66579
554.071	67262
554.134	68482
554.197	63918
554.260	63363
554.323	65469
554.386	65969
554.449	66881
554.512	67333
554.575	64387
554.638	64374
554.701	62510
554.764	63448
554.827	60355
554.889	59265
554.952	55221
555.015	54598
555.078	56043
555.141	56350
555.203	55667
555.266	55400
555.329	54940
555.391	52795
555.454	50762
555.517	50141
555.580	47199
555.642	46034
555.705	44773
555.768	45706
555.830	44882
555.893	42553
555.955	41480
556.018	40522
556.080	40081
556.143	41402
556.206	39289
556.268	38494
556.330	37551
556.393	37324
556.455	36214
556.518	35012
556.580	33823
556.643	33066
556.705	31898
556.767	32687
556.830	31540
556.892	29604
556.955	28374
557.017	29093
557.079	29144
557.142	26892
557.204	28412
557.266	26863
557.328	25028
557.391	24025
557.453	23024
557.515	23315
557.577	23205
557.639	22388
557.701	23663
557.764	22486
557.826	22702
557.888	23082
557.950	23821
558.012	24503
558.074	28520
558.136	50749
558.198	98928
558.260	40499
558.322	21183
558.384	22254
558.446	23486
558.508	23521
558.570	26777
558.632	27934
558.694	34148
558.756	54158
558.818	137191
558.880	257226
558.942	100666
559.003	103463
559.065	50212
559.127	24838
559.189	23666
559.251	26638
559.312	35527
559.374	76052
559.436	195682
559.498	93993
559.559	26785
559.621	23222
559.683	27322
559.744	41187
559.806	110983
559.868	143335
559.929	35299
559.991	25353
560.052	38979
560.114	95736
560.176	58521
560.237	58659
560.299	84390
560.360	21381
560.422	12338
560.483	11315
560.545	9841
560.606	9531
560.667	9555
560.729	10159
560.790	8922
560.852	8951
560.913	9105
560.974	9093
561.036	8029
561.097	8927
561.158	9063
561.220	8650
561.281	7238
561.342	7687
561.403	8794
561.465	7178
561.526	7990
561.587	8215
561.648	6910
561.709	7947
561.771	7187
561.832	7206
561.893	6342
561.954	6896
562.015	6398
562.076	6027
562.137	6003
562.198	6417
562.259	6332
562.320	5528
562.381	6250
562.442	6511
562.503	6742
562.564	6902
562.625	6289
562.686	6369
562.747	5424
562.808	5897
562.869	5317
562.930	6664
562.991	5188
563.051	6328
563.112	5552
563.173	4879
563.234	6043
563.294	5630
563.355	4704
563.416	6536
563.477	5103
563.537	5560
563.598	5193
563.659	4942
563.720	5053
563.780	5936
563.841	5338
563.901	5389
563.962	4848
564.023	5666
564.083	5622
564.144	4883
564.204	4786
564.265	4701
564.325	4837
564.386	5396
564.446	5050
564.507	5272
564.567	5069
564.628	4513
564.688	4755
564.749	4416
564.809	5601
564.869	4641
564.930	4309
564.990	5148
565.050	4693
565.111	4930
565.171	4384
565.231	4915
565.292	5290
565.352	4611
565.412	4887
565.472	4760
565.532	4832
565.593	4558
565.653	3626
565.713	5535
565.773	4065
565.833	4650
565.893	5661
565.953	4970
566.013	4699
566.074	4468
566.134	4850
566.194	4731
566.254	4637
566.314	4884
566.374	3300
566.434	4808
566.494	4838
566.554	4779
566.614	4112
566.673	4896
566.733	4642
566.793	5065
566.853	5013
566.913	4334
566.973	4440
567.033	4666
567.092	3617
567.152	5057
567.212	4890
567.272	5466
567.331	5235
567.391	5298
567.451	5560
567.511	6225
567.570	5183
567.630	5437
567.690	4471
567.749	4796
567.809	4692
567.868	4304
567.928	4938
567.988	4281
568.047	4897
568.107	5602
568.166	5245
568.226	5057
568.285	4963
568.345	4734
568.404	5107
568.464	5262
568.523	4858
568.582	6184
568.642	4438
568.701	4785
568.761	4724
568.820	4117
568.879	4665
568.939	4386
568.998	4618
569.057	5208
569.116	4539
569.176	5326
569.235	4534
569.294	5414
569.353	5007
569.413	5361
569.472	4818
569.531	5009
569.590	4275
569.649	4756
569.708	4268
569.767	5174
569.827	4302
569.886	5092
569.945	4310
570.004	4834
570.063	4378
570.122	4320
570.181	5518
570.240	5581
570.299	4725
570.358	5578
570.417	4665
570.475	5615
570.534	5590
570.593	5056
570.652	5145
570.711	5190
570.770	4562
570.829	5347
570.887	4712
570.946	6073
571.005	5467
571.064	5872
571.122	5156
571.181	5707
571.240	4516
571.299	5085
571.357	4264
571.416	4375
571.475	5212
571.533	4966
571.592	5247
571.650	5507
571.709	5692
571.768	6357
571.826	5902
571.885	5742
571.943	5802
572.002	5085
572.060	5174
572.119	6559
572.177	5718
572.236	4848
572.294	5854
572.352	6537
572.411	5773
572.469	4801
572.528	4818
572.586	6110
572.644	6367
572.703	5116
572.761	5165
572.819	5027
572.877	4072
572.936	5454
572.994	4556
573.052	4479
573.110	4905
573.169	5173
573.227	5305
573.285	5752
573.343	5670
573.401	5682
573.459	4719
573.517	4991
573.576	4783
573.634	4696
573.692	4559
573.750	4858
573.808	3911
573.866	4930
573.924	5066
573.982	5093
574.040	4725
574.098	5231
574.155	4336
574.213	4854
574.271	4439
574.329	5158
574.387	3963
574.445	3648
574.503	3586
574.560	3720
574.618	4089
574.676	4130
574.734	5181
574.792	4516
574.849	3755
574.907	3250
574.965	4254
575.022	2706
575.080	3113
575.138	4138
575.195	3804
575.253	3239
575.311	3405
575.368	3964
575.426	2659
575.483	4336
575.541	3856
575.598	3695
575.656	3893
575.713	3254
575.771	3980
575.828	3800
575.886	3717
575.943	3835
576.001	2463
576.058	3886
576.115	3025
576.173	3176
576.230	3740
576.287	3418
576.345	3217
576.402	4255
576.459	3952
576.517	3775
576.574	3633
576.631	4045
576.688	2822
576.746	3054
576.803	3484
576.860	2979
576.917	4045
576.974	3063
577.031	2845
577.089	3724
577.146	3393
577.203	3508
577.260	3631
577.317	3814
577.374	3324
577.431	2494
577.488	3198
577.545	2914
577.602	3805
577.659	3030
577.716	3540
577.773	3467
577.830	3140
577.886	3718
577.943	2937
578.000	3700
578.057	3283
578.114	3646
578.171	2767
578.227	3522
578.284	2438
578.341	3814
578.398	3412
578.454	3260
578.511	2933
578.568	3410
578.625	3508
578.681	3304
578.738	3054
578.794	3991
578.851	3405
578.908	3629
578.964	3584
579.021	3891
579.077	3190
579.134	3353
579.190	3184
579.247	3041
579.303	2797
579.360	3030
579.416	3419
579.473	3866
579.529	4042
579.586	3408
579.642	3458
579.698	3627
579.755	3621
579.811	3795
579.867	3590
579.924	3634
579.980	3562
580.036	4326
580.093	4297
580.149	4058
580.205	3477
580.261	4257
580.317	2843
580.374	3824
580.430	4629
580.486	3414
580.542	2870
580.598	3509
580.619	3757
580.654	4182
580.692	4482
580.710	4627
580.765	3322
580.767	3272
580.823	4443
580.838	4508
580.879	4646
580.911	4485
580.935	4363
580.984	3805
580.991	3721
581.047	3668
581.057	3859
581.103	4659
581.130	4891
581.159	5105
581.203	4013
581.215	3727
581.270	4200
581.276	4193
581.326	4009
581.349	4351
581.382	4868
581.422	4496
581.438	4315
581.494	3613
581.494	3622
581.550	3799
581.567	4169
581.606	4961
581.640	5066
581.661	5128
581.713	4590
581.717	4530
581.773	5466
581.786	5400
581.829	5272
581.859	5541
581.885	5752
581.932	5221
581.940	5117
581.996	5436
582.004	5479
582.052	5460
582.077	5107
582.107	4839
582.150	5677
582.163	5880
582.219	4733
582.223	4806
582.274	5634
582.296	5542
582.330	5444
582.368	5588
582.386	5684
582.441	6373
582.441	6367
582.497	5537
582.514	5543
582.552	5644
582.587	5921
582.608	6033
582.659	6152
582.663	6168
582.719	5374
582.732	5429
582.774	5585
582.805	5763
582.830	5889
582.877	6176
582.885	6235
582.941	7121
582.950	7069
582.996	6696
583.023	6981
583.052	7398
583.095	7223
583.107	7132
583.162	7252
583.168	7251
583.218	7061
583.240	6801
583.273	6528
583.313	6825
583.328	6960
583.384	7075
583.385	7078
583.439	6981
583.458	6790
583.494	6486
583.531	6543
583.549	6676
583.603	7649
583.605	7674
583.660	7497
583.676	7697
583.715	8209
583.748	8160
583.770	8181
583.820	8277
583.825	8298
583.881	8974
583.893	8772
583.936	7843
583.965	7795
583.991	7822
584.038	8541
584.046	8682
584.101	8436
584.110	8487
584.156	8967
584.183	8980
584.211	8882
584.255	9813
584.266	10114
584.321	9832
584.328	9863
584.376	9884
584.400	9963
584.431	10211
584.472	10143
584.486	10166
584.541	10594
584.545	10618
584.596	11088
584.617	11101
584.651	11399
584.689	12035
584.706	12185
584.761	11791
584.762	11776
584.816	12243
584.834	12417
584.871	13037
584.906	13422
584.926	13420
584.978	12927
584.980	12970
585.035	14489
585.051	14973
585.090	15840
585.123	16252
585.145	16834
585.195	17665
585.200	17842
585.254	20523
585.267	21201
585.309	23355
585.340	24864
585.364	26224
585.412	28490
585.419	29129
585.473	36508
585.484	37821
585.528	46554
585.556	54691
585.583	75131
585.628	115408
585.637	131290
585.692	248937
585.700	266621
585.747	308795
585.772	287512
585.801	200565
585.845	90014
585.856	78332
585.910	43705
585.917	39872
585.965	32493
585.989	29382
586.019	27935
586.061	25640
586.074	25308
586.128	24571
586.133	24386
586.183	23535
586.205	23499
586.237	23618
586.277	23244
586.292	23240
586.346	22997
586.349	22968
586.401	23745
586.421	23667
586.455	23593
586.493	23780
586.509	24062
586.564	24003
586.565	23954
586.618	25701
586.637	26374
586.672	28647
586.709	30652
586.727	31650
586.781	34579
586.781	34660
586.835	30418
586.853	29017
586.889	27844
586.925	26562
586.944	26346
586.996	25979
586.998	26059
587.052	26428
587.068	26495
587.106	27323
587.140	27633
587.161	27738
587.212	28030
587.215	28166
587.269	28936
587.284	29098
587.323	29624
587.356	30107
587.377	30717
587.427	31761
587.431	31930
587.485	32738
587.499	32809
587.539	32902
587.571	33103
587.593	34218
587.643	36532
587.648	36772
587.702	37238
587.715	37397
587.755	38130
587.786	38424
587.810	38376
587.858	37832
587.864	38046
587.917	39063
587.930	39083
587.971	39079
588.001	38902
588.025	38775
588.073	38463
588.079	38746
588.133	39820
588.145	39957
588.187	40053
588.217	39921
588.241	40480
588.288	41390
588.295	41608
588.348	42330
588.360	42229
588.402	42669
588.431	42748
588.456	43102
588.503	43642
588.510	44090
588.564	46806
588.575	47158
588.617	48912
588.646	50008
588.671	50920
588.718	52278
588.725	53135
588.778	59502
588.789	60653
588.832	77702
588.861	90423
588.886	119923
588.932	179828
588.939	184837
588.993	216896
589.004	217584
589.047	138185
589.075	89535
589.100	76792
589.147	57094
589.154	56773
589.207	53055
589.218	52134
589.261	52495
589.290	52436
589.314	53257
589.361	55056
589.368	56479
589.421	66969
589.433	69238
589.475	99140
589.504	120908
589.528	149199
589.576	206079
589.582	200494
589.635	126489
589.647	111081
589.689	78930
589.718	58183
589.742	56557
589.790	52327
589.795	52542
589.849	53007
589.861	52939
589.902	53004
589.932	52611
589.955	52575
590.004	51682
590.009	51892
590.062	52411
590.075	52236
590.115	52266
590.146	51979
590.168	51930
590.218	51418
590.222	51777
590.275	53604
590.289	53815
590.328	55057
590.360	55841
590.381	56561
590.431	57214
590.435	57481
590.488	58049
590.503	58071
590.541	59152
590.574	59385
590.594	60450
590.645	62668
590.647	62977
590.700	64037
590.716	64101
590.753	66258
590.787	67856
590.806	68706
590.859	70122
590.859	70428
590.912	71138
590.930	71194
590.965	72268
591.001	72721
591.018	73157
591.071	73424
591.072	73118
591.124	72371
591.143	71725
591.177	72702
591.214	73166
591.230	73911
591.283	75437
591.285	75173
591.336	75065
591.356	74580
591.389	74357
591.427	73346
591.442	73693
591.495	73933
591.498	73633
591.547	75111
591.569	75352
591.600	76262
591.640	76599
591.653	77323
591.706	78936
591.711	78781
591.759	81311
591.782	82081
591.811	84333
591.853	86647
591.864	87032
591.917	87154
591.924	86778
591.969	86821
591.995	86287
592.022	87749
592.066	89105
592.075	89859
592.127	92125
592.137	92143
592.180	94784
592.208	95820
592.233	96688
592.279	97082
592.285	97884
592.338	101052
592.350	101318
592.390	101103
592.421	100168
592.443	101866
592.491	104158
592.495	104742
592.548	106371
592.562	106351
592.600	106352
592.633	105472
592.653	106322
592.704	106708
592.705	107391
592.775	110661
592.846	113865
592.916	115143
592.987	115581
593.058	115410
593.128	118540
593.199	119231
593.270	120156
593.341	125119
593.411	127175
593.482	132078
593.553	133520
593.623	136761
593.694	139224
593.764	142269
593.835	138946
593.906	139066
593.976	144237
594.047	145587
594.117	154196
594.188	155844
594.258	155882
594.329	156248
594.399	158438
594.470	162890
594.540	168237
594.611	171070
594.681	171694
594.751	169925
594.822	176957
594.892	181952
594.963	187149
595.033	193111
595.103	197230
595.174	198453
595.244	204403
595.314	209226
595.384	215194
595.455	220391
595.525	226331
595.595	233310
595.665	231805
595.736	228884
595.806	233530
595.876	237493
595.946	237003
596.016	247623
596.087	256036
596.157	254411
596.227	254589
596.297	267083
596.367	283874
596.437	301105
596.507	295763
596.577	292591
596.647	304129
596.717	318763
596.787	322571
596.857	322347
596.927	324406
596.997	325305
597.067	328712
597.137	331619
597.207	336369
597.277	338482
597.347	325905
597.417	316989
597.487	316720
597.557	323302
597.626	332168
597.696	335487
597.766	334627
597.836	313732
597.906	300100
597.975	295465
598.045	300227
598.115	309542
598.185	331541
598.254	367667
598.324	392561
598.394	397649
598.464	385472
598.533	380109
598.603	357348
598.672	348554
598.742	354761
598.812	355761
598.881	365893
598.951	364543
599.020	369617
599.090	378646
599.159	384622
599.229	370336
599.299	364256
599.368	376301
599.437	370164
599.507	345017
599.576	334886
599.646	329731
599.715	325909
599.785	321469
599.854	313746
599.924	311505
599.993	309328
600.062	315979
600.132	320792
600.201	339781
600.270	384911
600.340	405796
600.409	396534
600.478	394025
600.547	400981
600.617	363132
600.686	301838
600.755	277596
600.824	262461
600.894	257430
600.963	260115
601.032	256532
601.101	248508
601.170	237858
601.239	230437
601.308	228220
601.378	228714
601.447	231403
601.516	231540
601.585	235196
601.654	238294
601.723	238980
601.792	243007
601.861	251445
601.930	259062
601.999	261081
602.068	260746
602.137	263537
602.206	266072
602.275	270394
602.343	274580
602.412	273767
602.481	277830
602.550	279858
602.619	286411
602.688	289228
602.756	293028
602.825	293185
602.894	303733
602.963	305199
603.032	311567
603.100	312043
603.169	310052
603.238	316053
603.307	315688
603.375	316840
603.444	322517
603.513	330309
603.581	333524
603.650	337206
603.719	330970
603.787	342515
603.856	348726
603.924	357850
603.993	368487
604.061	380461
604.130	394789
604.198	399965
604.267	407755
604.335	412575
604.404	418704
604.472	423466
604.541	424013
604.609	430927
604.678	430356
604.746	433735
604.815	442710
604.883	447965
604.951	448157
605.020	455596
605.088	461997
605.156	467132
605.225	475246
605.293	476526
605.361	475199
605.429	479127
605.498	485405
605.566	496852
605.634	514374
605.702	528201
605.771	545771
605.839	545831
605.907	538244
605.975	521498
606.043	515221
606.111	513810
606.180	515011
606.248	512785
606.316	508024
606.384	508632
606.452	512573
606.520	522127
606.588	537071
606.656	539588
606.724	530915
606.792	507574
606.860	469810
606.928	435120
606.996	418390
607.064	414768
607.132	421298
607.200	443383
607.267	457574
607.335	465452
607.403	471620
607.471	458988
607.539	444969
607.607	448803
607.674	403794
607.742	401037
607.810	398273
607.878	399956
607.946	405935
608.013	425860
608.081	430628
608.149	435606
608.216	447091
608.284	457462
608.352	459755
608.419	456244
608.487	443205
608.555	442673
608.622	456143
608.690	475876
608.757	516859
608.825	521929
608.893	513386
608.960	486381
609.028	471450
609.095	472768
609.163	472985
609.230	427093
609.298	396933
609.365	418015
609.432	445291
609.500	474518
609.567	529059
609.635	580314
609.702	602232
609.769	572385
609.837	469828
609.904	419996
609.971	421858
610.039	432905
610.106	472534
610.173	601366
610.241	864567
610.308	680587
610.375	483963
610.442	449603
610.509	435190
610.577	438837
610.644	445119
610.711	455708
610.778	465504
610.845	482761
610.912	503591
610.980	519420
611.047	520309
611.114	511862
611.181	499685
611.248	500207
611.315	522877
611.382	531095
611.449	551016
611.516	555364
611.583	550043
611.650	549169
611.717	551893
611.784	557402
611.851	564346
611.918	571505
611.984	603756
612.051	665749
612.118	817295
612.185	1089275
612.252	949704
612.319	693067
612.386	649892
612.452	620007
612.519	597995
612.586	591298
612.653	602512
612.719	620435
612.786	600840
612.853	571245
612.919	566422
612.986	574668
613.053	546807
613.120	525316
613.186	508676
613.253	513424
613.319	512868
613.386	515377
613.453	522339
613.519	522974
613.586	515627
613.652	520654
613.719	515178
613.785	522027
613.852	528894
613.918	524634
613.985	529389
614.051	543877
614.118	539144
614.184	523259
614.250	521763
614.317	535068
614.383	528820
614.449	537661
614.516	535533
614.582	539591
614.648	528259
614.715	526350
614.781	517699
614.847	519918
614.914	513780
614.980	507561
615.046	506993
615.112	517874
615.179	521581
615.245	523505
615.311	517807
615.377	521523
615.443	528515
615.509	531326
615.575	539589
615.642	536263
615.708	542833
615.774	557337
615.840	566460
615.906	570247
615.972	597840
616.038	681894
616.104	894475
616.170	1144948
616.236	1061613
616.302	783812
616.368	710731
616.434	612271
616.500	582622
616.565	603975
616.631	671829
616.697	620785
616.763	614620
616.829	716077
616.895	945255
616.961	905964
617.026	639753
617.092	551837
617.158	540194
617.224	533829
617.289	506160
617.355	489927
617.421	490896
617.487	491913
617.552	472959
617.618	469337
617.684	471506
617.749	473274
617.815	459536
617.880	453005
617.946	451355
618.012	458835
618.077	468099
618.143	450388
618.208	454426
618.274	476853
618.339	480077
618.405	416075
618.470	418299
618.536	416327
618.601	410131
618.667	385145
618.732	372216
618.798	368188
618.863	368512
618.928	362616
618.994	368489
619.059	362798
619.124	364062
619.190	361514
619.255	360138
619.320	362628
619.386	363586
619.451	360120
619.516	351751
619.581	359408
619.647	371958
619.712	369247
619.777	355320
619.842	358508
619.907	365493
619.972	372147
620.038	365659
620.103	360663
620.168	359286
620.233	366164
620.298	367740
620.363	370311
620.428	378358
620.493	389111
620.558	391597
620.623	393854
620.688	393725
620.753	392071
620.818	397835
620.883	399165
620.948	396180
621.013	392757
621.078	384319
621.143	390121
621.207	391755
621.272	385345
621.337	377751
621.402	373790
621.467	369894
621.532	370329
621.596	373844
621.661	363514
621.726	362448
621.791	365702
621.855	362933
621.920	361524
621.985	365355
622.049	374425
622.114	374141
622.179	377187
622.243	382948
622.308	394875
622.373	406054
622.437	398367
622.502	382469
622.566	378550
622.631	378503
622.695	385163
622.760	382397
622.824	381194
622.889	383310
622.953	383981
623.018	402349
623.082	404865
623.147	401330
623.211	395631
623.276	395450
623.340	383911
623.404	376354
623.469	376333
623.533	380414
623.597	373339
623.662	370958
623.726	349727
623.790	334296
623.854	327236
623.919	331759
623.983	336967
624.047	339905
624.111	343597
624.176	347068
624.240	347768
624.304	358938
624.368	348537
624.432	348972
624.496	356932
624.560	371418
624.625	374767
624.689	369658
624.753	382986
624.817	370302
624.881	361560
624.945	332202
625.009	324572
625.073	330664
625.137	338642
625.201	349256
625.265	348345
625.329	337777
625.393	342698
625.456	344336
625.520	353973
625.584	354652
625.648	365320
625.712	370158
625.776	366364
625.839	347611
625.903	308497
625.967	289726
626.031	304412
626.095	349977
626.158	328367
626.222	273268
626.286	257537
626.349	251003
626.413	236779
626.477	234701
626.540	239085
626.604	236967
626.668	232220
626.731	229352
626.795	228735
626.858	230572
626.922	227107
626.986	222545
627.049	225427
627.113	232610
627.176	224287
627.240	219762
627.303	219034
627.366	217507
627.430	221184
627.493	216723
627.557	213136
627.620	217139
627.684	224915
627.747	224817
627.810	208026
627.874	190747
627.937	184545
628.000	189531
628.064	185256
628.127	169526
628.190	166395
628.253	162671
628.317	155924
628.380	150727
628.443	146964
628.506	145082
628.569	141109
628.632	134170
628.696	134979
628.759	135881
628.822	127685
628.885	126042
628.948	124888
629.011	122426
629.074	118417
629.137	115098
629.200	113862
629.263	112667
629.326	110033
629.389	112406
629.452	111152
629.515	108360
629.578	106411
629.641	108604
629.704	107893
629.767	105473
629.830	103716
629.892	101835
629.955	100049
630.018	102917
630.081	100530
630.144	99899
630.207	98202
630.269	100324
630.332	96312
630.395	97918
630.458	93898
630.520	90623
630.583	92683
630.646	94451
630.708	93908
630.771	94311
630.834	100120
630.896	97220
630.959	96244
631.021	91667
631.084	94724
631.146	94333
631.209	94423
631.272	92459
631.334	94799
631.397	92662
631.459	91844
631.522	95281
631.584	95192
631.646	98725
631.709	99418
631.771	97173
631.834	95061
631.896	94586
631.958	90598
632.021	90418
632.083	87330
632.145	88529
632.208	87568
632.270	88927
632.332	88064
632.395	87278
632.457	88881
632.519	86192
632.581	87823
632.643	86240
632.706	86267
632.768	84076
632.830	86992
632.892	88773
632.954	87973
633.016	89798
633.078	89350
633.141	90176
633.203	87575
633.265	88363
633.327	85814
633.389	85920
633.451	87401
633.513	85210
633.575	87611
633.637	86518
633.698	88060
633.760	91617
633.822	92945
633.884	93765
633.946	95034
634.008	93622
634.070	94142
634.132	93668
634.193	97729
634.255	101861
634.317	103264
634.379	103231
634.441	97162
634.502	93298
634.564	88884
634.626	84972
634.687	83091
634.749	81228
634.811	82393
634.873	80271
634.934	82362
634.996	82524
635.057	80927
635.119	81417
635.181	83388
635.242	82624
635.304	81044
635.365	85956
635.427	81310
635.488	82219
635.550	79884
635.611	81524
635.673	78335
635.734	81067
635.796	83354
635.857	88017
635.918	90418
635.980	94271
636.041	95924
636.102	98245
636.164	99496
636.225	98173
636.286	87945
636.348	83588
636.409	79697
636.470	79894
636.531	79619
636.593	79350
636.654	78128
636.715	75111
636.776	78797
636.838	74650
636.899	74461
636.960	73869
637.021	73937
637.082	72134
637.143	71281
637.204	69629
637.265	69478
637.326	71040
637.387	72382
637.448	70742
637.509	71868
637.570	71686
637.631	71641
637.692	68859
637.753	69515
637.814	68736
637.875	68444
637.936	67854
637.997	69347
638.058	66979
638.119	67098
638.179	67301
638.240	68041
638.301	69901
638.362	66834
638.423	65974
638.483	65535
638.544	63317
638.605	65519
638.666	63372
638.726	65470
638.787	64123
638.848	65977
638.908	63229
638.969	62672
639.030	61746
639.090	61254
639.151	61892
639.211	63400
639.272	62914
639.332	62324
639.393	62952
639.453	63999
639.514	62659
639.574	61523
639.635	58868
639.695	60084
639.756	57742
639.816	57437
639.877	57060
639.937	57488
639.997	58152
640.058	56146
640.118	57727
640.178	58192
640.239	56518
640.299	57218
640.359	57574
640.420	60120
640.480	62275
640.540	66887
640.600	64675
640.661	61927
640.721	61297
640.781	62238
640.841	57874
640.901	57608
640.961	56770
641.021	58576
641.082	59546
641.142	57702
641.202	57231
641.262	54649
641.322	55926
641.382	54493
641.442	55576
641.502	55081
641.562	55373
641.622	56358
641.682	57763
641.742	60839
641.802	58958
641.861	55966
641.921	53000
641.981	52589
642.041	50415
642.101	50672
642.161	48990
642.221	51904
642.280	51843
642.340	51143
642.400	52069
642.460	53497
642.519	52478
642.579	54132
642.639	54077
642.698	50435
642.758	55164
642.818	54282
642.877	50649
642.937	53517
642.997	52377
643.056	52797
643.116	50809
643.175	55258
643.235	53516
643.294	54034
643.354	54566
643.414	56243
643.473	58728
643.532	61816
643.592	70426
643.651	86236
643.711	119624
643.770	193295
643.830	376236
643.889	568028
643.948	242259
644.008	95680
644.067	70107
644.126	59862
644.186	54061
644.245	52482
644.304	48860
644.363	52993
644.423	47727
644.482	48604
644.541	50510
644.600	48834
644.659	55507
644.719	59120
644.778	73161
644.837	101443
644.896	173164
644.955	314889
645.014	131155
645.073	62844
645.132	53565
645.191	52205
645.250	51433
645.309	53783
645.368	54098
645.427	64386
645.486	88630
645.545	133472
645.604	59357
645.663	48571
645.722	47356
645.781	50177
645.840	50212
645.898	54450
645.957	64146
646.016	75833
646.075	110784
646.134	179151
646.192	377401
646.251	452919
646.310	147309
646.369	74205
646.427	67627
646.486	55227
646.545	49890
646.603	47013
646.662	45730
646.721	44106
646.779	43724
646.838	42965
646.896	45642
646.955	53338
647.014	70193
647.072	110179
647.131	239570
647.189	126465
647.248	47404
647.306	42854
647.365	40617
647.423	37960
647.481	39849
647.540	38186
647.598	38125
647.657	39353
647.715	39087
647.773	37807
647.832	36486
647.890	34189
647.948	34472
648.007	34715
648.065	33674
648.123	32896
648.181	34105
648.240	34041
648.298	32387
648.356	32330
648.414	33039
648.472	32401
648.531	31434
648.589	30337
648.647	30235
648.705	30957
648.763	29274
648.821	31234
648.879	30658
648.937	31507
648.995	33532
649.053	35927
649.111	44496
649.169	57445
649.227	89046
649.285	158862
649.343	351122
649.401	182483
649.459	52145
649.516	39440
649.574	32438
649.632	32956
649.690	34413
649.748	39479
649.806	48367
649.863	78041
649.921	183611
649.979	118830
650.037	34858
650.094	26374
650.152	28022
650.210	25736
650.268	26117
650.325	26034
650.383	25648
650.440	23024
650.498	23508
650.556	23529
650.613	23108
650.671	24406
650.728	23542
650.786	24207
650.843	29494
650.901	23704
650.958	22438
651.016	22288
651.073	21756
651.131	21153
651.188	20471
651.246	20934
651.303	19354
651.360	20872
651.418	19869
651.475	20581
651.532	19012
651.590	20781
651.647	20003
651.704	19106
651.762	20217
651.819	19620
651.876	18725
651.933	18621
651.990	19652
652.048	17108
652.105	18361
652.162	18757
652.219	17482
652.276	17597
652.333	18619
652.390	16426
652.448	18580
652.505	17549
652.562	17174
652.619	17282
652.676	17468
652.733	18586
652.790	17141
652.847	15653
652.904	16647
652.961	15645
653.017	16275
653.074	17398
653.131	17138
653.188	15303
653.245	16289
653.302	17038
653.359	16959
653.415	17010
653.472	16317
653.529	17065
653.586	15037
653.642	16055
653.699	16954
653.756	15497
653.813	15689
653.869	17029
653.926	15774
653.983	16263
654.039	16664
654.096	15310
654.152	16522
654.209	14191
654.266	15251
654.322	14292
654.379	16034
654.435	15545
654.492	15394
654.548	15429
654.605	14617
654.661	16200
654.717	15590
654.774	16235
654.830	15402
654.887	14613
654.943	14528
655.000	15249
655.056	14661
655.112	15638
655.168	14092
655.225	15251
655.281	15382
655.337	14723
655.394	14950
655.450	14576
655.506	14298
655.562	13725
655.618	15984
655.675	13003
655.731	14373
655.787	13334
655.843	14159
655.899	13925
655.955	15716
656.011	14171
656.067	13189
656.123	14460
656.179	14328
656.235	15840
656.291	13553
656.347	15747
656.403	13470
656.459	13249
656.515	13531
656.571	14686
656.627	14330
656.683	14333
656.739	14270
656.795	14520
656.850	13855
656.906	14268
656.962	14013
657.018	14425
657.074	16913
657.129	20667
657.185	29217
657.241	58483
657.297	32117
657.352	15573
657.408	13566
657.464	14114
657.519	12582
657.575	12530
657.630	13015
657.686	13529
657.742	12109
657.797	13311
657.853	12152
657.908	13651
657.964	11555
658.019	12775
658.075	12249
658.130	12909
658.186	11706
658.241	12879
658.297	12342
658.352	11479
658.407	13587
658.463	12303
658.518	12463
658.573	13549
658.629	12214
658.684	12296
658.739	12134
658.795	10559
658.850	12764
658.905	11818
658.960	12682
659.016	11799
659.071	11208
659.126	11425
659.181	10763
659.236	11916
659.291	11935
659.346	10369
659.401	11744
659.457	11739
659.512	11084
659.567	13030
659.622	11755
659.677	12100
659.732	10175
659.787	12103
659.842	10688
659.897	11080
659.952	11542
660.007	11106
660.061	11683
660.116	10407
660.171	10676
660.226	10940
660.281	11547
660.336	10620
660.391	11201
660.445	10207
660.500	10565
660.555	11339
660.610	10375
660.664	11233
660.719	10324
660.774	11079
660.828	10319
660.883	9965
660.938	10882
660.992	9951
661.047	11189
661.101	11344
661.156	9956
661.211	9575
661.265	9888
661.320	10252
661.374	9519
661.429	10414
661.483	10711
661.538	9553
661.592	9598
661.647	10421
661.701	11188
661.755	11245
661.810	10519
661.864	9817
661.919	9452
661.973	10919
662.027	10275
662.081	9586
662.136	9736
662.190	10247
662.244	10539
662.299	10231
662.353	10700
662.407	9979
662.461	9563
662.515	9633
662.569	9451
662.624	10307
662.678	8818
662.732	8999
662.786	9573
662.840	9813
662.894	9486
662.948	9402
663.002	9779
663.056	10026
663.110	9534
663.164	9975
663.218	10477
663.272	9873
663.326	9988
663.380	9465
663.434	9422
663.488	8944
663.542	9544
663.595	9315
663.649	9289
663.703	10044
663.757	9225
663.811	9021
663.864	9586
663.918	9863
663.972	8927
664.026	9938
664.079	8526
664.133	10508
664.187	9769
664.240	9705
664.294	10449
664.348	9435
664.401	9848
664.455	9654
664.508	9522
664.562	8851
664.615	9820
664.669	8953
664.722	10004
664.776	9260
664.829	9292
664.883	8971
664.936	9465
664.990	9295
665.043	10607
665.097	9305
665.150	10515
665.203	9045
665.257	9184
665.310	9842
665.363	9578
665.417	10008
665.470	9512
665.523	9739
665.576	9650
665.630	9630
665.683	9730
665.736	10302
665.789	9711
665.842	8202
665.895	10328
665.949	9585
666.002	10448
666.055	9690
666.108	9774
666.161	10608
666.214	10695
666.267	10011
666.320	10003
666.373	10313
666.426	10468
666.479	9756
666.532	10204
666.585	10061
666.638	11013
666.691	10426
666.744	10681
666.796	10067
666.849	9734
666.902	11743
666.955	9972
667.008	9985
667.060	8963
667.113	11617
667.166	10581
667.219	11665
667.271	11548
667.324	11171
667.377	10408
667.430	10884
667.482	10482
667.535	10949
667.587	10630
667.640	10420
667.693	10026
667.745	9856
667.798	10630
667.850	10581
667.903	11085
667.955	10415
668.008	10431
668.060	9883
668.113	10176
668.165	11064
668.218	10975
668.270	10290
668.322	11445
668.375	8989
668.427	10910
668.479	9253
668.532	11602
668.584	9851
668.636	10162
668.689	10502
668.741	8757
668.793	10317
668.845	10118
668.898	10463
668.950	9793
669.002	10192
669.054	9366
669.106	9432
669.158	9955
669.211	10197
669.263	9590
669.315	10636
669.367	9717
669.419	9403
669.471	9782
669.523	9047
669.575	9705
669.627	9101
669.679	9664
669.731	9030
669.783	9534
669.835	9295
669.886	9459
669.938	9178
669.990	9049
670.042	8169
670.094	8527
670.146	9409
670.197	9230
670.249	8934
670.301	8878
670.353	8800
670.404	9379
670.456	9242
670.508	9871
670.560	11150
670.611	12607
670.663	15835
670.715	29795
670.766	37474
670.818	13864
670.869	9806
670.921	9104
670.972	9272
671.024	9050
671.075	7687
671.127	8861
671.178	8223
671.230	9248
671.281	8823
671.333	10122
671.384	11522
671.436	12088
671.487	16737
671.538	21928
671.590	32319
671.641	51532
671.692	88436
671.744	155410
671.795	100999
671.846	39840
671.897	22354
671.949	16272
672.000	13268
672.051	11187
672.102	9773
672.153	9907
672.204	9468
672.256	9542
672.307	8696
672.358	7704
672.409	7827
672.460	8248
672.511	7533
672.562	6688
672.613	7172
672.664	7035
672.715	8262
672.766	7056
672.817	6793
672.868	7028
672.919	6868
672.970	5911
673.021	6297
673.071	5684
673.122	6591
673.173	5774
673.224	6636
673.275	6616
673.326	6980
673.376	7344
673.427	5954
673.478	6721
673.528	6874
673.579	6681
673.630	6466
673.680	7170
673.731	7273
673.782	5909
673.832	6487
673.883	6779
673.934	6195
673.984	6451
674.035	6705
674.085	5973
674.136	7082
674.186	6589
674.237	6283
674.287	5850
674.338	6441
674.388	6970
674.438	7373
674.489	6749
674.539	6265
674.589	6718
674.640	6797
674.690	6380
674.740	6338
674.791	6819
674.841	5357
674.891	5780
674.942	5128
674.992	5245
675.042	4983
675.092	5273
675.142	4603
675.193	4465
675.243	4730
675.293	5389
675.343	5965
675.393	6107
675.443	6063
675.493	6208
675.543	5612
675.593	6413
675.643	6074
675.693	6802
675.743	6377
675.793	4822
675.843	5003
675.893	5219
675.943	5412
675.993	4367
676.043	5504
676.093	5807
676.142	5682
676.192	5146
676.242	5919
676.292	5939
676.341	5366
676.391	4837
676.441	5315
676.491	5114
676.540	4445
676.590	4714
676.640	5654
676.689	4371
676.739	4417
676.789	5111
676.838	4589
676.888	4795
676.937	4776
676.987	4883
677.037	5149
677.086	4783
677.136	4678
677.185	4374
677.235	4402
677.284	4977
677.333	4517
677.383	4886
677.432	4327
677.482	3973
677.531	4777
677.580	4289
677.630	4367
677.679	4320
677.728	4817
677.778	4247
677.827	3588
677.876	4606
677.925	4419
677.975	4227
678.024	4800
678.073	4537
678.122	5599
678.171	4390
678.220	4112
678.269	4916
678.319	5602
678.368	5674
678.417	4558
678.466	4969
678.515	4381
678.564	3701
678.613	4274
678.662	3301
678.711	4057
678.760	3706
678.809	4097
678.857	4927
678.906	4715
678.955	3912
679.004	4447
679.053	3256
679.102	3633
679.151	4161
679.199	3975
679.248	4541
679.297	3824
679.346	3990
679.394	3159
679.443	3839
679.492	3899
679.540	4056
679.589	4768
679.638	3598
679.686	4430
679.735	4371
679.784	5155
679.832	5463
679.881	4457
679.929	4023
679.978	4050
680.026	4328
680.075	4707
680.123	3556
680.172	3962
680.220	4071
680.268	4784
680.317	2687
680.365	3316
680.414	3372
680.462	3683
680.510	4244
680.559	3204
680.607	3490
680.655	3774
680.703	3342
680.752	4023
680.800	3328
680.848	2756
680.896	4204
680.945	4545
680.993	3181
681.041	2570
681.089	3388
681.137	3701
681.185	3169
681.233	4383
681.258	4031
681.281	3666
681.329	3378
681.377	3516
681.380	3564
681.425	3816
681.473	3811
681.502	3934
681.521	3956
681.569	4025
681.617	5190
681.624	5044
681.665	3821
681.713	5217
681.745	4528
681.761	4148
681.809	3532
681.857	4275
681.867	4385
681.904	4643
681.952	4468
681.989	4509
682.000	4478
682.048	4277
682.096	4289
682.111	4376
682.143	4443
682.191	4039
682.233	5228
682.239	5376
682.286	4969
682.334	4571
682.354	4749
682.382	4890
682.430	5225
682.476	4429
682.477	4381
682.525	5274
682.572	4821
682.598	5156
682.620	5381
682.667	4675
682.715	4685
682.720	4793
682.763	5523
682.810	6455
682.841	6114
682.857	5881
682.905	5744
682.952	5575
682.963	5531
683.000	5224
683.047	5260
683.085	6172
683.095	6412
683.142	5982
683.190	5930
683.206	5861
683.237	5591
683.284	5981
683.328	6246
683.332	6242
683.379	5611
683.426	6201
683.449	5934
683.473	5672
683.521	6744
683.568	6975
683.571	6968
683.615	6413
683.662	6060
683.693	6215
683.709	6256
683.757	5840
683.804	6961
683.814	6875
683.851	6527
683.898	7002
683.936	6663
683.945	6549
683.992	6765
684.039	6336
684.057	6715
684.086	7288
684.133	7210
684.179	6631
684.180	6591
684.227	6918
684.274	7479
684.300	7172
684.321	6900
684.368	6731
684.415	8097
684.422	8078
684.462	7850
684.509	7761
684.543	7991
684.556	8060
684.603	8015
684.649	8360
684.665	8228
684.696	7858
684.743	8070
684.786	7960
684.790	7927
684.837	8306
684.883	7303
684.908	7772
684.930	8300
684.977	8134
685.023	9019
685.029	9050
685.070	8925
685.117	8595
685.150	8650
685.164	8660
685.210	8283
685.257	8479
685.272	8697
685.303	9242
685.350	8944
685.393	8814
685.396	8762
685.443	8548
685.490	8758
685.514	8654
685.536	8701
685.583	8578
685.629	8660
685.636	8680
685.675	8787
685.722	8824
685.757	8678
685.768	8583
685.815	9151
685.861	9327
685.878	9399
685.908	9544
685.954	9287
686.000	9862
686.000	9863
686.047	9303
686.093	9770
686.121	9799
686.139	9812
686.185	9695
686.232	10037
686.242	10019
686.278	9828
686.324	9707
686.363	9973
686.370	10018
686.416	9606
686.463	9852
686.484	9826
686.509	9899
686.555	9725
686.601	9818
686.606	9898
686.647	10411
686.693	10160
686.727	9692
686.739	9555
686.785	9882
686.831	10286
686.848	10416
686.877	10555
686.923	10360
686.969	10696
686.969	10698
687.015	10412
687.061	10852
687.090	11318
687.107	11420
687.153	11895
687.199	11541
687.211	11371
687.245	10789
687.291	11206
687.332	10939
687.336	10929
687.382	11178
687.428	10987
687.453	10968
687.474	11052
687.520	10915
687.565	11327
687.574	11310
687.611	11296
687.657	12116
687.695	12289
687.702	12308
687.748	12722
687.794	12947
687.816	12890
687.839	12781
687.885	12145
687.931	12812
687.937	12802
687.976	12430
688.022	11874
688.058	11726
688.067	11802
688.113	11434
688.158	12179
688.179	12050
688.204	11834
688.249	12395
688.295	12011
688.300	11983
688.340	11740
688.386	12576
688.421	11794
688.431	11635
688.477	11938
688.522	12402
688.542	12538
688.567	12882
688.613	13667
688.658	13964
688.663	14013
688.703	13869
688.749	13199
688.784	13085
688.794	13171
688.839	12961
688.884	13940
688.905	13782
688.930	13349
688.975	13187
689.020	12784
689.026	12765
689.065	13074
689.110	13079
689.146	13408
689.155	13478
689.201	13566
689.246	13831
689.267	13538
689.291	13175
689.336	13657
689.381	12914
689.388	12926
689.426	13353
689.471	13753
689.509	13531
689.516	13473
689.561	13734
689.606	13545
689.630	13752
689.651	13981
689.696	13540
689.741	13843
689.750	13816
689.785	13785
689.830	14159
689.871	14144
689.875	14145
689.920	13600
689.965	13974
689.992	13869
690.010	13879
690.054	13569
690.099	13669
690.112	13754
690.144	13832
690.189	13187
690.233	12967
690.233	12986
690.278	13316
690.323	14088
690.354	14157
690.367	14097
690.412	13914
690.457	13745
690.474	13933
690.501	14266
690.546	14120
690.590	13961
690.595	13899
690.635	13600
690.680	13759
690.716	13727
690.724	13767
690.769	14166
690.813	14375
690.836	14339
690.857	14549
690.902	15529
690.946	15983
690.957	16101
690.991	16693
691.035	17403
691.077	17836
691.080	17823
691.124	17551
691.168	17177
691.198	16506
691.213	16188
691.257	15410
691.301	14783
691.318	14604
691.346	14824
691.390	15203
691.434	15093
691.439	15077
691.478	14934
691.522	14992
691.559	14701
691.567	14770
691.611	15243
691.655	15643
691.680	15842
691.699	15798
691.743	16018
691.787	16012
691.800	15948
691.831	15883
691.875	15151
691.919	15448
691.921	15418
691.964	15631
692.008	16017
692.041	15993
692.052	15988
692.096	16119
692.139	16239
692.162	16166
692.183	15927
692.227	15441
692.271	15068
692.282	14951
692.315	15162
692.359	15656
692.402	15781
692.403	15808
692.447	15434
692.490	15507
692.523	15429
692.534	15445
692.578	15519
692.622	15298
692.643	15218
692.666	15174
692.709	15132
692.753	14947
692.763	14968
692.797	15430
692.840	15790
692.884	15947
692.884	15977
692.928	15946
692.971	15980
693.004	15840
693.015	15846
693.059	15920
693.102	15927
693.124	15837
693.146	15838
693.189	15950
693.233	15540
693.245	15636
693.276	15948
693.320	16067
693.363	15851
693.365	15816
693.407	16171
693.450	16591
693.485	16854
693.493	16906
693.537	17320
693.580	17124
693.605	17247
693.624	17443
693.667	17645
693.710	17829
693.725	17921
693.753	19234
693.797	21302
693.840	23114
693.845	23247
693.883	21812
693.926	20655
693.966	19189
693.970	19129
694.013	18509
694.056	17794
694.086	17136
694.099	17114
694.142	17009
694.185	17107
694.206	16975
694.229	17020
694.272	17288
694.315	17450
694.326	17447
694.358	17461
694.401	17278
694.444	17326
694.446	17276
694.487	17266
694.530	17726
694.566	17736
694.573	17756
694.616	17677
694.659	17868
694.686	17801
694.702	17804
694.745	17798
694.787	17703
694.806	17575
694.830	17560
694.873	17824
694.916	17814
694.926	17765
694.959	17975
695.002	18399
695.044	18643
695.046	18623
695.087	19229
695.130	19445
695.166	19792
695.172	19883
695.215	19948
695.258	20218
695.286	20313
695.301	20395
695.343	20480
695.386	20825
695.406	20715
695.428	21376
695.471	23060
695.514	24422
695.526	24845
695.556	26373
695.599	28345
695.641	30101
695.646	30219
695.684	28535
695.726	26717
695.766	25072
695.769	25096
695.811	24464
695.854	23942
695.886	23541
695.896	23749
695.938	24122
695.981	24770
696.005	25049
696.023	25743
696.065	27218
696.108	28885
696.125	29433
696.150	29716
696.192	30066
696.235	30407
696.245	30436
696.277	30609
696.319	30806
696.361	30855
696.365	30794
696.404	30132
696.446	29260
696.485	28549
696.488	28635
696.530	28672
696.572	28841
696.604	28812
696.614	28828
696.656	28734
696.698	28604
696.724	28482
696.740	28847
696.783	29488
696.825	30310
696.844	30522
696.867	30694
696.909	31050
696.951	31267
696.964	31307
696.992	31209
697.034	30855
697.076	30542
697.083	30418
697.118	31623
697.160	32995
697.202	34177
697.203	34133
697.244	33617
697.286	32870
697.323	32164
697.327	32238
697.369	32215
697.411	32171
697.442	32042
697.453	32164
697.494	32326
697.536	32509
697.562	32617
697.578	32844
697.620	33042
697.661	33356
697.682	33440
697.703	34120
697.744	35301
697.786	36427
697.801	36758
697.828	36673
697.869	36311
697.911	36148
697.921	35987
697.952	35688
697.994	35154
698.035	34702
698.040	34557
698.077	34878
698.118	35146
698.160	35417
698.160	35330
698.201	36222
698.243	36952
698.279	37525
698.284	37722
698.325	38771
698.367	39698
698.399	40392
698.408	40559
698.449	40806
698.491	41101
698.518	41173
698.532	41377
698.573	41726
698.614	42051
698.638	42149
698.656	42099
698.697	41701
698.738	41312
698.757	41047
698.779	41129
698.820	41047
698.862	40978
698.877	40858
698.903	40953
698.944	40922
698.985	40898
698.996	40791
699.026	40863
699.067	40824
699.116	40678
699.235	42123
699.354	40236
699.474	37307
699.593	37068
699.713	37942
699.832	38007
699.951	38976
700.070	38670
700.190	36373
700.309	36555
700.428	35744
700.547	35541
700.667	35002
700.786	35076
700.905	32244
701.024	33911
701.143	33239
701.262	35105
701.381	34434
701.500	35712
701.619	34904
701.738	35241
701.857	33025
701.976	32155
702.095	33708
702.214	34221
702.333	33245
702.452	35110
702.571	34563
702.690	34586
702.809	35097
702.928	32879
703.047	30525
703.165	31116
703.284	32100
703.403	30520
703.522	30318
703.640	28881
703.759	29252
703.878	28171
703.997	29838
704.115	29353
704.234	29854
704.353	31375
704.471	27670
704.590	27001
704.708	26966
704.827	27018
704.946	27893
705.064	27082
705.183	26723
705.301	28123
705.420	26748
705.538	25064
705.656	24096
705.775	24971
705.893	25856
706.012	24629
706.130	24421
706.249	25985
706.367	24231
706.485	24645
706.604	23344
706.722	23139
706.840	25812
706.958	26807
707.077	23530
707.195	23961
707.313	23490
707.431	21842
707.549	22283
707.668	20838
707.786	24006
707.904	21506
708.022	23339
708.140	21157
708.258	20308
708.376	22875
708.494	19783
708.612	22323
708.730	21679
708.848	20315
708.966	21765
709.084	21630
709.202	21708
709.320	19290
709.438	20132
709.556	20951
709.674	19100
709.791	18827
709.909	18958
710.027	19690
710.145	19721
710.263	18684
710.380	19381
710.498	17423
710.616	18314
710.733	18183
710.851	17207
710.969	18480
711.086	17077
711.204	18525
711.322	18733
711.439	17834
711.557	16377
711.674	17749
711.792	16396
711.909	16263
712.027	17277
712.144	16577
712.262	16769
712.379	17757
712.497	16060
712.614	16128
712.732	16215
712.849	16284
712.966	15960
713.084	18042
713.201	14017
713.318	16054
713.436	17439
713.553	15700
713.670	16299
713.787	17680
713.905	14378
714.022	16805
714.139	17531
714.256	17342
714.373	23101
714.490	35398
714.608	75013
714.725	256735
714.842	240349
714.959	37768
715.076	19496
715.193	18721
715.310	16351
715.427	14560
715.544	15747
715.661	15505
715.778	14400
715.895	14300
716.011	14630
716.128	14081
716.245	14604
716.362	13937
716.479	12107
716.596	13054
716.713	13698
716.829	13320
716.946	12753
717.063	13251
717.180	11882
717.296	13142
717.413	13124
717.530	12641
717.646	11590
717.763	12874
717.880	11814
717.996	11282
718.113	11823
718.229	11984
718.346	11665
718.462	10355
718.579	11722
718.695	11741
718.812	11659
718.928	11727
719.045	10989
719.161	11208
719.277	11596
719.394	12487
719.510	12814
719.626	12073
719.743	13101
719.859	17727
719.975	29978
720.092	99599
720.208	200145
720.324	31440
720.440	13830
720.557	12762
720.673	11994
720.789	11548
720.905	11386
721.021	10890
721.137	10423
721.253	9460
721.369	10437
721.486	9799
721.602	9303
721.718	9711
721.834	9982
721.950	9858
722.066	9709
722.181	9159
722.297	9609
722.413	9833
722.529	9950
722.645	10012
722.761	9135
722.877	9146
722.993	9574
723.108	10701
723.224	9643
723.340	10446
723.456	9135
723.571	8946
723.687	8818
723.803	9238
723.918	9596
724.034	8802
724.150	9374
724.265	7994
724.381	8394
724.497	8011
724.612	9391
724.728	9047
724.843	8640
724.959	7700
725.074	8446
725.190	8659
725.305	8815
725.421	8330
725.536	9707
725.651	8986
725.767	9386
725.882	8340
725.997	8271
726.113	8793
726.228	8853
726.343	8607
726.459	8483
726.574	8190
726.689	8641
726.804	8948
726.920	8291
727.035	8099
727.150	8836
727.265	8369
727.380	8076
727.495	8247
727.610	8384
727.725	7265
727.841	8422
727.956	8430
728.071	8287
728.186	8559
728.301	7277
728.416	8209
728.531	7910
728.645	7587
728.760	8046
728.875	8652
728.990	7737
729.105	7635
729.220	6953
729.335	7957
729.449	7746
729.564	7570
729.679	7103
729.794	8298
729.908	8458
730.023	6425
730.138	7976
730.253	8391
730.367	7690
730.482	8486
730.596	7755
730.711	9921
730.826	13588
730.940	11006
731.055	9980
731.169	10490
731.284	11816
731.398	10740
731.513	11063
731.627	12357
731.742	14536
731.856	18694
731.970	16746
732.085	19399
732.199	23153
732.313	35898
732.428	79431
732.542	209420
732.656	125189
732.771	34105
732.885	24764
732.999	22974
733.113	26371
733.227	26009
733.342	24167
733.456	24321
733.570	22874
733.684	22506
733.798	22029
733.912	20638
734.026	22202
734.140	21875
734.254	20527
734.368	20861
734.482	21234
734.596	20951
734.710	19310
734.824	20194
734.938	19441
735.052	20529
735.166	19462
735.280	20350
735.393	19715
735.507	19529
735.621	18553
735.735	17937
735.849	19412
735.962	17594
736.076	18306
736.190	17877
736.303	18159
736.417	19146
736.531	16843
736.644	17724
736.758	17362
736.872	17305
736.985	17838
737.099	16326
737.212	16772
737.326	16108
737.439	16815
737.553	16509
737.666	16537
737.780	15907
737.893	17125
738.007	15185
738.120	16430
738.233	14586
738.347	16350
738.460	14251
738.573	17090
738.687	15131
738.800	15224
738.913	16424
739.026	15545
739.140	14155
739.253	14021
739.366	14782
739.479	14115
739.592	15038
739.705	13146
739.818	16010
739.932	12930
740.045	14307
740.158	13410
740.271	14884
740.384	14071
740.497	12496
740.610	14492
740.723	13025
740.836	12794
740.949	13797
741.062	14823
741.174	12675
741.287	12922
741.400	13552
741.513	11803
741.626	13619
741.739	12470
741.851	11977
741.964	13279
742.077	12783
742.189	10877
742.302	12239
742.415	11665
742.527	11711
742.640	12523
742.753	10498
742.865	12237
742.978	11464
743.090	11319
743.203	12450
743.316	10639
743.428	11487
743.541	11479
743.653	10043
743.766	11950
743.878	11143
743.990	9587
744.103	11189
744.215	10933
744.327	9308
744.440	12863
744.552	10169
744.664	9497
744.777	11086
744.889	9873
745.001	10316
745.113	11549
745.226	11003
745.338	9891
745.450	10857
745.562	9780
745.674	9093
745.786	11416
745.898	11430
746.010	8396
746.122	10026
746.234	10578
746.347	9688
746.459	10501
746.570	8065
746.682	9649
746.794	11221
746.906	7693
747.018	9256
747.130	9336
747.242	8855
747.354	9057
747.466	9877
747.577	7986
747.689	9060
747.801	10250
747.913	8714
748.024	8270
748.136	9248
748.248	8256
748.359	8918
748.471	8956
748.583	8122
748.694	8073
748.806	8642
748.918	8228
749.029	8851
749.141	9414
749.252	9080
749.364	7849
749.475	8615
749.587	7848
749.698	7478
749.809	8514
749.921	7899
750.032	8842
750.144	7485
750.255	7470
750.366	7318
750.478	7499
750.589	8502
750.700	7015
750.811	7990
750.923	7231
751.034	6340
751.145	8788
751.256	7524
751.367	6973
751.479	7230
751.590	7337
751.701	6684
751.812	6227
751.923	6887
752.034	7781
752.145	7311
752.256	6760
752.367	6665
752.478	6609
752.589	6855
752.700	6580
752.811	6008
752.922	6579
753.032	7910
753.143	7294
753.254	6225
753.365	6806
753.476	7949
753.586	7379
753.697	7041
753.808	7588
753.919	5790
754.029	7856
754.140	5457
754.251	6442
754.361	7356
754.472	7550
754.582	6148
754.693	6466
754.804	7238
754.914	5907
755.025	5129
755.135	6086
755.246	6743
755.356	6855
755.466	5826
755.577	6277
755.687	6846
755.798	6115
755.908	7095
756.018	6229
756.129	5877
756.239	6412
756.349	6029
756.460	5734
756.570	6471
756.680	5171
756.790	6746
756.900	6604
757.011	5772
757.121	5135
757.231	5026
757.341	6738
757.451	4843
757.561	4997
757.671	5830
757.781	5391
757.891	6022
758.001	4599
758.111	6071
758.221	7080
758.331	5528
758.441	6244
758.551	5810
758.661	6360
758.771	5984
758.880	5268
758.990	4785
759.100	5565
759.210	5890
759.320	6392
759.429	5931
759.539	6272
759.649	5374
759.758	5951
759.868	6842
759.978	6338
760.087	7464
760.197	6697
760.307	6859
760.416	6230
760.526	5882
760.635	6357
760.745	7217
760.854	6976
760.964	7968
761.073	7091
761.182	7164
761.292	7307
761.401	5685
761.511	5072
761.620	5692
761.729	6300
761.839	5204
761.948	6295
762.057	5076
762.166	5177
762.276	4738
762.385	6349
762.494	4767
762.603	5528
762.712	4321
762.822	5609
762.931	5263
763.040	4363
763.149	4275
763.258	5125
763.367	5969
763.476	5099
763.585	5470
763.694	4850
763.803	4344
763.912	5033
764.021	5273
764.130	4762
764.238	5688
764.347	5922
764.456	5660
764.565	5810
764.674	5357
764.783	5582
764.891	5520
765.000	6549
765.109	6402
765.217	6697
765.326	6011
765.435	8245
765.543	9354
765.652	8769
765.761	10418
765.869	14829
765.978	20831
766.086	33730
766.195	61575
766.303	132372
766.412	222747
766.520	184889
766.629	102707
766.737	47758
766.846	27182
766.954	18205
767.062	15275
767.171	11743
767.279	10142
767.387	7865
767.496	7400
767.604	6982
767.712	7244
767.820	6932
767.928	6677
768.037	5235
768.145	6873
768.253	6434
768.361	5080
768.469	5831
768.577	5828
768.685	6820
768.793	6561
768.901	6463
769.009	7781
769.117	7436
769.225	9093
769.333	10869
769.441	16555
769.549	26182
769.657	55025
769.765	135135
769.873	183451
769.981	106111
770.088	38347
770.196	20625
770.304	15247
770.412	13124
770.519	10587
770.627	9616
770.735	8137
770.842	7363
770.950	7760
771.058	8221
771.165	8986
771.273	10276
771.380	9955
771.488	12918
771.595	15704
771.703	13699
771.810	12551
771.918	12552
772.025	14892
772.133	18395
772.240	16525
772.348	19073
772.455	17862
772.562	15617
772.670	15506
772.777	15910
772.884	15346
772.991	14776
773.099	16223
773.206	14329
773.313	14884
773.420	15391
773.528	15877
773.635	13941
773.742	15056
773.849	13239
773.956	14986
774.063	13583
774.170	14793
774.277	14579
774.384	13063
774.491	13313
774.598	12919
774.705	12822
774.812	14557
774.919	14061
775.026	13985
775.133	13519
775.239	13709
775.346	12081
775.453	12429
775.560	11628
775.667	13468
775.773	12931
775.880	11862
775.987	12540
776.093	12583
776.200	14441
776.307	9607
776.413	10522
776.520	14112
776.627	11736
776.733	10446
776.840	9253
776.946	14342
777.053	11354
777.159	10392
777.266	10675
777.372	11073
777.478	11957
777.585	11362
777.691	9431
777.798	12396
777.904	10904
778.010	9607
778.117	11739
778.223	9268
778.329	10525
778.435	9146
778.542	12156
778.648	9263
778.754	9554
778.860	10653
778.966	10512
779.072	9086
779.178	10596
779.284	8152
779.391	9489
779.497	10015
779.603	10866
779.708	8699
779.815	8598
779.920	13287
780.026	13739
780.132	9411
780.238	9353
780.344	8786
780.450	11478
780.556	7838
780.661	7265
780.767	10033
780.873	6331
780.979	8402
781.085	9193
781.190	8293
781.296	7840
781.402	8566
781.507	7606
781.613	7020
781.719	7438
781.824	9857
781.930	7531
782.035	7812
782.141	9972
782.246	6029
782.352	6997
782.457	8297
782.563	8185
782.668	7775
782.773	7126
782.879	6405
782.984	7410
783.090	6867
783.195	7360
783.300	8335
783.405	7507
783.511	6398
783.616	7225
783.721	7805
783.826	6418
783.932	6372
784.037	8007
784.142	8245
784.247	6548
784.352	7518
784.457	6040
784.562	6926
784.667	7778
784.772	5241
784.877	4825
784.982	7554
785.087	7690
785.192	5914
785.297	6408
785.402	6713
785.507	6336
785.611	6533
785.716	4969
785.821	6628
785.926	6453
786.031	6054
786.135	5799
786.240	6553
786.345	4141
786.450	5735
786.554	5859
786.659	5235
786.763	5488
786.868	5814
786.973	8851
787.077	4903
787.182	5270
787.286	5720
787.391	7150
787.495	4093
787.600	4209
787.704	5915
787.809	6247
787.913	5355
788.017	5585
788.122	7344
788.226	5337
788.330	3239
788.435	4708
788.539	6094
788.643	5028
788.747	3546
788.852	4429
788.956	4724
789.060	5736
789.164	4739
789.268	5069
789.372	6333
789.476	4923
789.580	4463
789.684	4170
789.788	6057
789.892	5210
789.996	4043
790.100	3635
790.204	5782
790.308	6105
790.412	3517
790.516	3497
790.620	4348
790.724	6299
790.828	5491
790.931	2972
791.035	5202
791.139	4160
791.242	4442
791.346	4975
791.450	4638
791.554	3722
791.657	1813
791.761	4803
791.864	4416
791.968	5224
792.072	4764
792.175	3496
792.279	3695
792.382	4325
792.486	3856
792.589	3885
792.693	4638
792.796	2804
792.899	4625
793.003	4521
793.106	3038
793.209	4237
793.313	3055
793.416	1652
793.519	4034
793.623	4998
793.726	4596
793.829	3751
793.932	2838
794.035	3022
794.138	5392
794.242	5998
794.345	3541
794.448	2331
794.551	2173
794.654	5428
794.757	6716
794.860	3681
794.963	4209
795.066	3881
795.169	5068
795.272	3476
795.375	4822
795.477	2383
795.580	3182
795.683	2797
795.786	3907
795.889	2740
795.991	3428
796.094	4074
796.197	2248
796.300	4967
796.402	2779
796.505	2339
796.608	2899
796.710	3646
796.813	4047
796.915	3714
797.018	3481
797.120	3851
797.223	2489
797.326	4144
797.428	2493
797.530	2402
797.633	2591
797.735	4144
797.838	3204
797.940	4984
798.042	3302
798.145	3169
798.247	3223
798.349	744
798.452	4218
798.554	3796
798.656	2955
798.758	4240
798.860	2644
798.962	2548
799.065	2036
799.167	2106
799.269	2825
799.371	3747
799.473	4435
799.575	3360
799.677	1786
799.779	3212
799.881	1895
799.983	3720
800.085	2746
800.187	3512
800.289	1160
800.390	2836
800.492	3511
800.594	3893
800.696	2687
800.798	2480
800.899	2759
801.001	3113
801.103	3396
801.205	2508
801.306	3416
801.408	2431
801.509	3255
801.611	3526
801.713	2131
801.814	2330
801.916	2661
802.017	2396
802.119	2457
802.220	2547
802.322	1770
802.423	3838
802.525	1360
802.626	2349
802.727	3235
802.829	3584
802.930	-7
803.031	3548
803.133	2594
803.234	2929
803.335	3398
803.436	1404
803.538	2179
803.639	1808
803.740	3365
803.841	1759
803.942	3014
804.043	3216
804.144	1165
804.245	2474
804.346	2049
804.447	1219
804.548	2314
804.649	2362
804.750	1523
804.851	1926
804.952	2537
805.053	2407
805.154	750
805.255	3126
805.355	2330
805.456	2151
805.557	2400
805.658	1127
805.758	2870
805.859	2379
805.960	2873
806.061	1851
806.161	1936
806.262	2226
806.362	1736
806.463	1319
806.564	2933
806.664	2273
806.765	1826
806.865	2972
806.966	1510
807.066	1121
807.166	2403
807.267	2771
807.367	1114
807.468	2700
807.568	1227
807.668	3100
807.769	3408
807.869	1928
807.969	2093
808.069	2034
808.170	2378
808.270	2162
808.370	2865
808.470	2216
808.570	1317
808.670	1920
808.770	2319
808.870	2112
808.970	2187
809.070	1630
809.170	1183
809.271	2888
809.370	1931
809.470	2392
809.570	1653
809.670	1196
809.770	2176
809.870	2685
809.970	3078
810.070	1582
810.169	3281
810.269	517
810.369	1986
810.469	1736
810.568	1795
810.668	1165
810.768	1489
810.867	2090
810.967	881
811.066	1592
811.166	1913
811.265	2004
811.365	1569
811.464	1934
811.564	1945
811.663	2760
811.763	1059
811.862	2388
811.962	2072
812.061	2371
812.160	1326
812.260	2595
812.359	2178
812.458	1420
812.557	2454
812.657	1782
812.756	2040
812.855	1634
812.954	1099
813.053	1616
813.153	1884
813.252	1048
813.351	2949
813.450	2526
813.549	1739
813.648	1696
813.747	1919
813.846	2390
813.945	2533
814.044	2270
814.143	2556
814.242	2843
814.341	576
814.439	3248
814.538	4007
814.637	2357
814.736	2295
814.835	3225
814.933	2400
815.032	4497
815.131	5069
815.229	9829
815.328	14552
815.427	10342
815.525	9237
815.624	8901
815.722	8625
815.821	8926
815.919	9829
816.018	8962
816.116	9753
816.215	9428
816.313	10144
816.412	12225
816.510	12064
816.609	13043
816.707	13302
816.805	11778
816.904	11009
817.002	11777
817.100	12339
817.198	12367
817.296	11510
817.395	11726
817.493	11077
817.591	10422
817.689	10512
817.787	11728
817.885	11265
817.983	9014
818.081	11334
818.179	10470
818.277	14437
818.375	10510
818.473	10178
818.571	9155
818.669	10718
818.767	12584
818.865	8755
818.963	7921
819.061	10394
819.158	8702
819.256	12729
819.354	10435
819.452	13385
819.549	10478
819.647	10866
819.745	8201
819.842	8700
819.940	9752
820.038	8741
820.135	7733
820.233	10164
820.330	9132
820.428	8391
820.525	9879
820.623	7994
820.720	7801
820.818	8682
820.915	9083
821.012	8762
821.110	6862
821.207	8824
821.304	7560
821.402	8394
821.499	10012
821.596	7479
821.693	7210
821.791	8869
821.888	8245
821.985	9642
822.082	6319
822.179	8342
822.276	8132
822.373	6702
822.470	7244
822.567	8904
822.664	6884
822.761	7964
822.858	8117
822.955	7443
823.052	5904
823.149	7425
823.246	8063
823.343	5597
823.440	5905
823.536	8562
823.633	7973
823.730	6515
823.827	7605
823.923	7417
824.020	5963
824.117	7646
824.213	7657
824.310	6713
824.407	5223
824.503	7789
824.600	6275
824.696	5686
824.793	8579
824.889	8024
824.986	5342
825.082	4315
825.179	5643
825.275	6804
825.371	8291
825.468	6001
825.564	3701
825.660	6951
825.757	8385
825.853	7044
825.949	5426
826.045	4332
826.142	5987
826.238	7551
826.334	5825
826.430	5902
826.526	3562
826.622	4090
826.718	6711
826.814	7675
826.910	6943
827.006	3445
827.102	3997
827.198	6820
827.294	6406
827.390	5880
827.486	5321
827.582	4120
827.678	3790
827.774	7718
827.869	3879
827.965	4947
828.061	2872
828.157	6453
828.252	5526
828.348	4373
828.444	5032
828.539	4167
828.635	5418
828.731	5601
828.826	3000
828.922	5539
829.017	5456
829.113	6744
829.208	3717
829.304	3555
829.399	6210
829.495	5047
829.590	4490
829.685	3574
829.781	5063
829.876	5463
829.971	2638
830.066	2661
830.162	3731
830.257	7714
830.352	5328
830.447	2989
830.543	4034
830.638	3239
830.733	6618
830.828	4365
830.923	5130
831.018	4499
831.113	5896
831.208	3044
831.303	2345
831.398	2825
831.493	4897
831.588	7788
831.683	3292
831.778	2642
831.873	3117
831.967	4937
832.062	5141
832.157	3498
832.252	4029
832.346	3674
832.441	5178
832.536	3938
832.631	4391
832.725	3549
832.820	3460
832.914	4193
833.009	2700
833.104	2721
833.198	2568
833.293	3374
833.387	4943
833.482	3975
833.576	3858
833.670	4101
833.765	2574
833.859	4377
833.954	4540
834.048	4369
834.142	3496
834.237	1963
834.331	3549
834.425	3941
834.519	3625
834.613	3511
834.708	2706
834.802	3075
834.896	3085
834.990	3754
835.084	1716
835.178	1901
835.272	2478
835.366	4710
835.460	4827
835.554	3365
835.648	2769
835.742	1964
835.836	2548
835.930	1693
836.024	4180
836.117	3605
836.211	2776
836.305	2331
836.399	2175
836.493	2011
836.586	3869
836.680	2824
836.774	2860
836.867	3066
836.961	1621
837.055	2456
837.148	2122
837.242	2808
837.335	2631
837.429	3310
837.522	1503
837.616	1601
837.709	3040
837.803	2751
837.896	3686
837.989	3548
838.083	2039
838.176	2093
838.269	1356
838.363	2437
838.456	1937
838.549	3311
838.642	2129
838.735	2015
838.829	2630
838.922	1439
839.015	1660
839.108	1108
839.201	1741
839.294	2991
839.387	3604
839.480	1038
839.573	1848
839.666	1306
839.759	2193
839.852	2356
839.945	3202
840.038	1310
840.131	1369
840.223	2217
840.316	2165
840.409	2816
840.502	2887
840.594	3637
840.687	675
840.780	1774
840.873	980
840.965	1260
841.058	2860
841.150	2764
841.243	293
841.336	2031
841.428	1585
841.521	963
841.613	1828
841.706	1642
841.798	1496
841.890	3062
841.983	1077
842.075	2039
842.167	1806
842.260	2643
842.352	3180
842.444	2149
842.537	819
842.629	1064
842.721	1078
842.813	2195
842.905	1032
842.997	1469
843.090	1573
843.182	1652
843.274	-22
843.366	1955
843.458	1098
843.550	2312
843.642	1648
843.734	1503
843.826	232
843.918	1574
844.009	2034
844.101	1505
844.193	1999
844.285	1676
844.377	2494
844.469	1063
844.560	441
844.652	1206
844.744	1386
844.835	1584
844.927	1505
845.019	891
845.110	1229
845.202	1888
845.293	1302
845.385	544
845.476	1713
845.568	2744
845.659	856
845.751	1151
845.842	1347
845.934	1632
846.025	780
846.116	1545
846.208	914
846.299	1460
846.390	1156
846.482	1398
846.573	1284
846.664	986
846.755	528
846.846	2347
846.937	456
847.029	1177
847.120	774
847.211	607
847.302	2580
847.393	909
847.484	1812
847.575	808
847.666	-151
847.757	762
847.847	1422
847.938	2980
848.029	1716
848.120	1064
848.211	1053
848.302	622
848.392	382
848.483	1714
848.574	575
848.664	1916
848.755	1147
848.846	1633
848.936	869
849.027	807
849.118	1564
849.208	889
849.299	2084
849.389	2961
849.480	3240
849.570	5372
849.661	10515
849.751	17548
849.841	6605
849.932	1803
850.022	729
850.112	1538
850.203	940
850.293	350
850.383	817
850.474	945
850.564	838
850.654	990
850.744	378
850.834	458
850.924	1194
851.014	2400
851.104	1658
851.194	224
851.284	1438
851.374	1215
851.464	614
851.554	-132
851.644	1407
851.734	1706
851.824	1134
851.914	1360
852.004	1990
852.094	759
852.183	1056
852.273	785
852.363	392
852.452	563
852.542	971
852.632	287
852.721	1260
852.811	88
852.901	1323
852.990	1584
853.080	1223
853.169	644
853.259	1249
853.348	915
853.438	661
853.527	1766
853.617	1775
853.706	4250
853.795	6493
853.885	12541
853.974	22321
854.063	38055
854.152	52263
854.242	22763
854.331	6678
854.420	3267
854.509	2613
854.598	2319
854.687	1076
854.777	2041
854.866	1117
854.955	1206
855.044	220
855.133	547
855.222	802
855.311	-236
855.400	1438
855.488	363
855.577	931
855.666	509
855.755	1400
855.844	886
855.933	540
856.021	1742
856.110	1093
856.199	166
856.288	494
856.376	770
856.465	399
856.554	681
856.642	804
856.731	1564
856.819	1263
856.908	1506
856.996	900
857.085	718
857.173	963
857.262	60
857.350	574
857.438	853
857.527	516
857.615	379
857.703	836
857.792	763
857.880	1126
857.968	580
858.056	514
858.145	524
858.233	533
858.321	-147
858.409	1360
858.497	897
858.585	47
858.673	345
858.761	15
858.849	396
858.937	561
859.025	1145
859.113	1494
859.201	518
859.289	2313
859.377	776
859.465	963
859.552	-507
859.640	324
859.728	1171
859.816	426
859.903	1186
859.991	320
860.079	1076
860.166	1100
860.254	497
860.342	1151
860.429	1032
860.517	703
860.604	1557
860.692	1173
860.779	315
860.867	437
860.954	1436
861.042	1807
861.129	1993
861.216	1261
861.304	1260
861.391	1420
861.478	844
861.565	317
861.653	1424
861.740	190
861.827	112
861.914	686
862.001	1336
862.089	1255
862.176	965
862.263	1066
862.350	1286
862.437	1087
862.524	742
862.611	1362
862.698	1576
862.785	1783
862.871	1719
862.958	2107
863.045	1160
863.132	1598
863.219	1375
863.306	36
863.392	1089
863.479	1496
863.566	1124
863.652	1749
863.739	933
863.826	1299
863.912	2186
863.999	1442
864.086	1175
864.172	2305
864.259	2209
864.345	2105
864.432	2276
864.518	1723
864.604	2391
864.691	1460
864.777	2285
864.863	3844
864.950	4951
865.036	7104
865.122	12664
865.209	13483
865.295	11365
865.381	10810
865.467	10468
865.553	10995
865.639	10067
865.726	11642
865.812	14839
865.898	19470
865.984	25310
866.070	37964
866.156	40021
866.242	18437
866.328	11059
866.414	10201
866.499	10188
866.585	9407
866.671	9434
866.757	8152
866.843	8975
866.928	9754
867.014	8536
867.100	8987
867.186	8547
867.271	8655
867.357	8835
867.442	8893
867.528	8429
867.614	8359
867.699	8566
867.785	8428
867.870	7606
867.956	8146
868.041	8579
868.127	8052
868.212	7383
868.297	8377
868.383	8663
868.468	7743
868.553	8471
868.639	8387
868.724	8148
868.809	8021
868.894	8014
868.979	7909
869.065	7653
869.150	6216
869.235	7098
869.320	7921
869.405	7198
869.490	8115
869.575	7033
869.660	5806
869.745	7447
869.830	8719
869.915	6217
870.000	6595
870.085	7247
870.169	8665
870.254	8691
870.339	5685
870.424	4804
870.509	7045
870.593	6789
870.678	8203
870.763	6969
870.847	5588
870.932	7348
871.016	7441
871.101	5247
871.186	6641
871.270	9174
871.355	5056
871.439	5872
871.523	6901
871.608	5542
871.692	5277
871.777	7805
871.861	6671
871.945	6306
872.030	6639
872.114	6426
872.198	5497
872.282	5597
872.367	5537
872.451	5218
872.535	5556
872.619	6362
872.703	5146
872.787	6289
872.871	6141
872.955	4169
873.039	4000
873.123	6391
873.207	6376
873.291	3329
873.375	4662
873.459	6432
873.543	5270
873.627	5084
873.711	4038
873.794	6431
873.878	5143
873.962	4331
874.045	4212
874.129	5178
874.137	5139
874.213	4759
874.245	4759
874.296	4757
874.352	4181
874.380	3902
874.460	4841
874.464	4881
874.547	4157
874.568	4438
874.631	5254
874.676	5158
874.714	5092
874.784	5691
874.798	5809
874.881	4678
874.892	4551
874.965	3709
874.999	4194
875.048	4838
875.107	5051
875.131	5144
875.215	3045
875.215	3044
875.298	2413
875.323	2911
875.381	4166
875.430	5263
875.465	6049
875.538	5399
875.548	5300
875.631	3496
875.646	3286
875.714	2281
875.753	2810
875.798	3415
875.861	4337
875.881	4634
875.964	3702
875.968	3674
876.047	3148
876.076	3577
876.130	4400
876.183	3849
876.213	3537
876.291	5291
876.296	5406
876.379	3545
876.398	3439
876.462	3222
876.506	3334
876.545	3297
876.613	2971
876.628	2960
876.711	3460
876.721	3560
876.794	4163
876.828	4102
876.877	3922
876.935	3109
876.960	2859
877.043	2171
877.043	2176
877.125	3090
877.150	3548
877.208	4712
877.258	3359
877.291	2470
877.365	2612
877.374	2609
877.456	2821
877.472	2596
877.539	1887
877.579	2898
877.622	3737
877.687	3703
877.704	3779
877.787	2629
877.794	2693
877.869	3175
877.901	2894
877.952	2418
878.008	2099
878.034	1985
878.115	2271
878.117	2277
878.199	2340
878.222	2655
878.282	3178
878.329	3044
878.364	3147
878.437	2991
878.447	2900
878.529	1154
878.544	1252
878.611	2170
878.651	2419
878.694	2559
878.758	2927
878.776	3031
878.858	3297
878.865	3206
878.941	1862
878.972	1592
879.023	1365
879.078	1786
879.105	1919
879.185	2670
879.187	2689
879.269	2754
879.292	2692
879.351	2309
879.399	1943
879.433	1657
879.506	2200
879.516	2281
879.598	1846
879.613	1818
879.680	1729
879.720	2338
879.762	2941
879.827	1829
879.844	1504
879.926	2211
879.933	2182
880.007	1984
880.040	1885
880.089	1905
880.147	2111
880.171	2093
880.253	2430
880.254	2430
880.335	1925
880.360	2105
880.417	2527
880.467	2386
880.499	2496
880.574	3197
880.580	3190
880.662	2395
880.680	2057
880.744	1127
880.787	1145
880.825	1250
880.893	2172
880.907	2302
880.989	1554
881.000	1663
881.070	2513
881.106	2456
881.152	2347
881.213	1734
881.233	1501
881.315	2076
881.319	2057
881.396	2220
881.426	2365
881.478	2014
881.532	1996
881.559	2063
881.639	1285
881.641	1268
881.722	1100
881.745	1210
881.803	1874
881.852	1953
881.885	1718
881.958	951
881.966	882
882.047	1406
882.064	1433
882.129	1521
882.171	1426
882.210	1260
882.277	873
882.291	832
882.372	1551
882.383	1563
882.454	1877
882.489	1965
882.535	1781
882.596	1885
882.616	1949
882.697	1590
882.702	1576
882.778	1304
882.808	1304
882.859	1367
882.914	1475
882.940	1419
883.020	1441
883.021	1444
883.102	1766
883.127	2087
883.183	2272
883.233	1387
883.264	947
883.339	929
883.345	941
883.426	797
883.445	878
883.507	1153
883.551	1399
883.587	1328
883.657	1212
883.668	1352
883.749	1888
883.763	1965
883.830	1495
883.869	1328
883.910	1212
883.975	1665
883.991	1672
884.072	358
884.081	314
884.152	921
884.187	1180
884.233	1004
884.292	590
884.314	659
884.394	491
884.398	513
884.475	506
884.504	643
884.555	805
884.610	747
884.636	750
884.716	1022
884.716	1021
884.797	1342
884.821	1348
884.877	1319
884.927	1382
884.958	1191
885.033	587
885.038	559
885.118	543
885.139	456
885.199	266
885.244	281
885.279	460
885.350	909
885.359	943
885.439	1177
885.456	1108
885.520	780
885.561	803
885.600	592
885.667	294
885.680	392
885.760	1086
885.773	1130
885.840	904
885.878	1004
885.920	985
885.984	879
886.000	850
886.080	623
886.089	619
886.160	913
886.195	993
886.240	946
886.300	735
886.320	627
886.400	641
886.406	613
886.480	724
886.511	902
886.560	830
886.616	687
886.640	693
886.720	811
886.722	815
886.800	720
886.827	695
886.879	1031
886.932	1391
886.959	1464
887.038	1598
887.039	1583
887.119	382
887.143	108
887.198	591
887.248	912
887.278	849
887.354	690
887.358	701
887.437	983
887.459	1075
887.517	768
887.564	446
887.596	348
887.669	270
887.676	313
887.755	891
887.774	975
887.835	511
887.880	387
887.914	835
887.985	1478
887.994	1453
888.073	1440
888.090	1410
888.153	1364
888.195	1291
888.232	869
888.300	150
888.311	240
888.391	1017
888.405	1136
888.470	-84
888.510	-824
888.549	-384
888.615	536
888.628	479
888.708	6
888.720	-63
888.787	242
888.825	426
888.866	30
888.930	-554
888.945	-394
889.024	585
889.035	705
889.103	331
889.140	141
889.182	268
889.245	537
889.261	590
889.340	827
889.349	860
889.419	254
889.454	-54
889.498	157
889.559	510
889.577	401
889.656	-65
889.664	-101
889.735	202
889.768	356
889.814	526
889.873	759
889.978	-120
890.083	1247
890.187	351
890.292	646
890.397	-456
890.501	262
890.606	754
890.710	190
890.815	655
890.919	-212
891.024	85
891.128	314
891.233	81
891.337	831
891.442	763
891.546	-10
891.650	1081
891.755	438
891.859	1533
891.963	871
892.068	869
892.172	689
892.276	34
892.380	-62
892.484	715
892.589	-155
892.693	-26
892.797	834
892.901	653
893.005	141
893.109	546
893.213	859
893.317	330
893.421	810
893.525	516
893.629	443
893.733	502
893.837	458
893.941	249
894.045	620
894.148	200
894.252	-251
894.356	-8
894.460	129
894.564	362
894.667	1118
894.771	319
894.875	-98
894.978	497
895.082	210
895.186	267
895.289	1206
895.393	395
895.496	237
895.600	98
895.703	79
895.807	-172
895.910	452
896.014	-105
896.117	-11
896.221	789
896.324	145
896.427	463
896.531	673
896.634	-289
896.737	108
896.840	386
896.944	747
897.047	711
897.150	631
897.253	-532
897.356	234
897.460	188
897.563	260
897.666	750
897.769	535
897.872	237
897.975	33
898.078	364
898.181	-275
898.284	437
898.387	236
898.490	-332
898.593	-205
898.695	-73
898.798	361
898.901	-13
899.004	-62
899.107	-100
899.209	1053
899.312	796
899.415	554
899.518	-434
899.620	34
899.723	-142
899.826	491
899.928	195
900.031	636
900.133	84
900.236	680
900.338	56
900.441	1375
900.543	363
900.646	967
900.748	-428
900.851	149
900.953	460
901.055	890
901.158	-295
901.260	404
901.362	372
901.465	389
901.567	-141
901.669	937
901.771	72
901.873	259
901.976	-369
902.078	-68
902.180	-34
902.282	-215
902.384	-360
902.486	234
902.588	573
902.690	558
902.792	-834
902.894	666
902.996	-524
903.098	381
903.200	576
903.302	245
903.404	135
903.505	415
903.607	-209
903.709	845
903.811	-76
903.913	48
904.014	-338
904.116	-209
904.218	-453
904.319	583
904.421	318
904.523	-61
904.624	-163
904.726	-71
904.827	-61
904.929	147
905.030	3
905.132	208
905.233	-5
905.335	-650
905.436	559
905.537	220
905.639	93
905.740	422
905.841	-681
905.943	475
906.044	-524
906.145	100
906.247	-472
906.348	150
906.449	-354
906.550	10
906.651	-272
906.752	-617
906.854	-79
906.955	-388
907.056	-403
907.157	1025
907.258	327
907.359	58
907.460	237
907.561	76
907.662	188
907.762	452
907.863	-302
907.964	-550
908.065	252
908.166	141
908.267	709
908.367	-190
908.468	-374
908.569	99
908.670	439
908.770	305
908.871	-419
908.971	734
909.072	710
909.173	-261
909.273	79
909.374	19
909.474	246
909.575	-92
909.675	-495
909.776	438
909.876	-225
909.977	-74
910.077	-79
910.177	-197
910.278	43
910.378	-114
910.478	-158
910.579	-3
910.679	188
910.779	575
910.879	-356
910.980	-336
911.080	-709
911.180	-82
911.280	-438
911.380	-233
911.480	380
911.580	-334
911.680	-44
911.780	398
911.880	-461
911.980	-597
912.080	-512
912.180	-146
912.280	-58
912.380	407
912.480	2
912.580	-308
912.679	-154
912.779	401
912.879	387
912.979	-40
913.078	536
913.178	-801
913.278	-317
913.377	-437
913.477	-335
913.577	-403
913.676	431
913.776	-37
913.875	-724
913.975	981
914.074	-244
914.174	-212
914.273	-615
914.373	396
914.472	-72
914.572	470
914.671	-875
914.770	379
914.870	-480
914.969	-784
915.068	-362
915.167	-215
915.267	-654
915.366	469
915.465	-68
915.564	-374
915.663	419
915.763	-85
915.862	309
915.961	-295
916.060	168
916.159	635
916.258	-658
916.357	-207
916.456	279
916.555	-133
916.654	79
916.752	-568
916.851	-518
916.950	38
917.049	547
917.148	-278
917.247	-72
917.345	-302
917.444	-729
917.543	52
917.642	-130
917.740	175
917.839	-343
917.937	72
918.036	290
918.135	219
918.233	-516
918.332	-699
918.430	224
918.529	-346
918.627	-1631
918.726	98
918.824	377
918.923	120
919.021	-24
919.119	-708
919.218	-262
919.316	419
919.414	-619
919.512	334
919.611	-142
919.709	317
919.807	-221
919.905	611
920.003	-310
920.102	179
920.200	386
920.298	-75
920.396	-189
920.494	480
920.592	-28
920.690	101
920.788	75
920.886	-409
920.984	190
921.082	-778
921.180	625
921.277	896
921.375	455
921.473	1016
921.571	1134
921.669	425
921.766	280
921.864	1169
921.962	922
922.060	748
922.157	550
922.255	893
922.352	318
922.450	956
922.548	359
922.645	363
922.743	888
922.840	1479
922.938	1414
923.035	2714
923.133	1838
923.230	2384
923.327	2399
923.425	2581
923.522	2460
923.619	2294
923.717	1587
923.814	1205
923.911	2031
924.008	3088
924.106	2032
924.203	1545
924.300	1686
924.397	2552
924.494	3041
924.591	3245
924.688	1733
924.786	2180
924.883	2519
924.979	2449
925.077	1414
925.173	1843
925.270	1704
925.367	1669
925.464	2122
925.561	1538
925.658	1291
925.755	1742
925.852	1397
925.948	1490
926.045	1546
926.142	1896
926.239	1150
926.335	1239
926.432	1309
926.529	2255
926.625	1855
926.722	992
926.818	1174
926.915	1880
927.011	1625
927.108	885
927.204	1241
927.301	2103
927.397	748
927.494	2020
927.590	554
927.687	1239
927.783	1815
927.879	891
927.976	1804
928.072	2236
928.168	1621
928.264	1158
928.361	1203
928.457	1118
928.553	188
928.649	1758
928.745	1389
928.841	1290
928.937	1008
929.033	2160
929.129	1550
929.225	2240
929.321	1116
929.417	721
929.513	1446
929.609	1062
929.705	1050
929.801	1526
929.897	566
929.993	1088
930.089	672
930.184	1074
930.280	1165
930.376	1095
930.471	1288
930.567	1202
930.663	1701
930.758	552
930.854	1224
930.950	933
931.045	915
931.141	1172
931.236	1341
931.332	1689
931.427	851
931.523	1900
931.618	1047
931.714	1077
931.809	420
931.905	2045
932.000	281
932.095	1195
932.191	1143
932.286	1659
932.381	794
932.476	338
932.572	755
932.667	882
932.762	875
932.857	2135
932.952	1193
933.047	945
933.142	792
933.237	1899
933.332	435
933.427	1387
933.522	948
933.617	512
933.712	1059
933.807	1339
933.902	1087
933.997	1837
934.092	791
934.187	694
934.282	97
934.376	875
934.471	708
934.566	394
934.661	1173
934.755	147
934.850	620
934.945	1545
935.039	450
935.134	967
935.228	564
935.323	1461
935.417	929
935.512	1098
935.606	108
935.701	690
935.795	1061
935.890	614
935.984	652
936.079	741
936.173	1201
936.267	62
936.362	451
936.456	1195
936.550	1493
936.644	-12
936.738	1397
936.833	626
936.927	773
937.021	1047
937.115	836
937.209	434
937.303	1398
937.397	458
937.491	541
937.585	673
937.679	136
937.773	418
937.867	210
937.961	1273
938.055	715
938.149	581
938.243	382
938.337	401
938.430	213
938.524	1155
938.618	478
938.712	-4
938.805	133
938.899	1308
938.993	942
939.086	823
939.180	221
939.274	-284
939.367	600
939.461	267
939.554	156
939.648	246
939.741	1139
939.835	76
939.928	1318
940.022	1340
940.115	542
940.208	1154
940.302	1196
940.395	1763
940.488	455
940.582	1084
940.675	108
940.768	1128
940.861	479
940.954	1727
941.048	-829
941.141	127
941.234	-390
941.327	147
941.420	632
941.513	1355
941.606	249
941.699	943
941.792	467
941.885	855
941.978	1009
942.071	658
942.164	121
942.257	5
942.349	699
942.442	456
942.535	-134
942.628	865
942.721	364
942.813	-1256
942.906	790
942.999	240
943.091	174
943.184	219
943.277	-664
943.369	461
943.462	-1296
943.554	610
943.647	-293
943.739	664
943.832	605
943.924	-353
944.017	83
944.109	-1132
944.201	725
944.294	363
944.386	72
944.478	-54
944.571	-570
944.663	1045
944.755	-491
944.847	695
944.940	-522
945.032	-319
945.124	-1171
945.216	616
945.308	-153
945.400	380
945.492	74
945.584	233
945.676	-505
945.768	813
945.860	-230
945.952	103
946.044	286
946.136	614
946.228	-387
946.320	-101
946.412	-369
946.503	-694
946.595	754
946.687	106
946.779	-594
946.870	-350
946.962	-692
947.054	-393
947.145	-167
947.237	-163
947.329	205
947.420	6
947.512	257
947.603	-647
947.695	-210
947.786	-40
947.878	-1026
947.969	-241
948.061	48
948.152	-387
948.243	-465
948.335	-750
948.426	-488
948.517	452
948.609	102
948.700	-54
948.791	357
948.882	-113
948.973	-667
949.065	450
949.156	78
949.247	-308
949.338	339
949.429	386
949.520	-871
949.611	-337
949.702	347
949.793	-252
949.884	-210
949.975	-276
950.066	-421
950.157	-496
950.247	-949
950.338	-763
950.429	-1184
950.520	368
950.611	-399
950.701	-223
950.792	408
950.883	-154
950.973	-524
951.064	-212
951.155	-412
951.245	292
951.336	82
951.427	-933
951.517	-40
951.608	-7
951.698	-322
951.788	-660
951.879	-146
951.969	-306
952.060	-572
952.150	-611
952.240	240
952.331	-1231
952.421	-41
952.511	-812
952.602	-861
952.692	-916
952.782	-1225
952.872	-702
952.962	-230
953.052	245
953.143	-959
953.233	925
953.323	383
953.413	-14
953.503	-165
953.593	76
953.683	-1054
953.773	-1067
953.863	-1012
953.953	-401
954.042	-337
954.132	-736
954.222	-403
954.312	-746
954.402	-713
954.492	-487
954.581	-347
954.671	24
954.761	-818
954.850	580
954.940	-705
955.030	-427
955.119	-1126
955.209	292
955.298	-509
955.388	-356
955.477	105
955.567	-908
955.656	235
955.746	-239
955.835	-603
955.925	-824
956.014	-725
956.103	-651
956.193	295
956.282	222
956.371	-128
956.461	-523
956.550	-1306
956.639	-702
956.728	-926
956.817	-170
956.906	-156
956.995	348
957.085	-837
957.174	300
957.263	-541
957.352	-531
957.441	-756
957.530	-182
957.619	-166
957.708	-583
957.796	-572
957.885	-632
957.974	-1295
958.063	-541
958.152	-1786
958.241	322
958.329	-688
958.418	-497
958.507	-813
958.596	437
958.684	-1358
958.773	-519
958.861	-1181
958.950	-149
959.039	-410
959.127	-273
959.216	-1270
959.304	1
959.393	-993
959.481	-134
959.570	-1456
959.658	-1458
959.746	-1053
959.835	-661
959.923	-1187
960.011	-866
960.100	-507
960.188	-328
960.276	-908
960.365	-692
960.453	-1378
960.541	-1102
960.629	-540
960.717	121
960.805	-1581
960.893	-1422
960.981	-718
961.069	-335
961.158	-966
961.245	-256
961.333	-975
961.421	-979
961.509	-554
961.597	-358
961.685	-1016
961.773	-628
961.861	-1552
961.949	-172
962.036	-1281
962.124	42
962.212	-1101
962.299	-134
962.387	-1837
962.475	-797
962.562	-1621
962.650	-224
962.738	-698
962.825	-1323
962.913	-1186
963.000	-953
963.088	-1157
963.175	-1423
963.263	-569
963.350	-662
963.438	-1089
963.525	-1476
963.612	-236
963.700	-1029
963.787	-907
963.874	-925
963.962	-1342
964.049	181
964.136	-1008
964.223	-1576
964.310	-466
964.398	-1345
964.485	-882
964.572	-250
964.659	-578
964.746	-391
964.833	-687
964.920	-728
965.007	-113
965.094	-610
965.181	-585
965.268	-628
965.355	147
965.441	-642
965.528	-1139
965.615	-261
965.702	-1150
965.789	-1298
965.875	-1022
965.962	-1391
966.049	-902
966.136	-1137
966.222	-1130
966.309	-326
966.395	-941
966.482	-241
966.569	-1732
966.655	-32
966.742	-412
966.828	-403
966.915	-1925
967.001	-976
967.087	-1624
967.174	-1034
967.260	-470
967.347	-812
967.433	-720
967.519	-261
967.605	-1945
967.692	-1320
967.778	-1642
967.864	-770
967.950	-1043
968.036	-826
968.123	-1148
968.209	-827
968.295	-1623
968.381	628
968.467	-1355
968.553	-2014
968.639	512
968.725	-2076
968.811	-676
968.897	-309
968.983	-410
969.069	-1416
969.154	-143
969.240	-365
969.326	-1463
969.412	-1338
969.497	-970
969.583	-583
969.669	-544
969.755	-784
969.840	-1290
969.926	-567
970.012	-1053
970.097	-75
970.183	-1650
970.268	-1035
970.354	-1513
970.439	-1286
970.525	-117
970.610	-1830
970.696	-543
970.781	-1328
970.866	-1997
970.952	-443
971.037	-1387
971.122	-160
971.208	-1464
971.293	-956
971.378	-1958
971.463	-1057
971.549	-715
971.634	-859
971.719	-1056
971.804	-1144
971.889	-634
971.974	-594
972.059	-1060
972.144	-843
972.229	-633
972.314	-1285
972.399	-1055
972.484	-918
972.569	-936
972.654	-1526
972.739	-150
972.824	-1435
972.908	-1608
972.993	-272
973.078	-1246
973.163	72
973.247	-1123
973.332	-1832
973.417	288
973.501	-1640
973.586	-1644
973.671	-1146
973.755	-1408
973.840	-623
973.924	-821
974.009	-344
974.093	-1014
974.178	-16
974.262	-1401
974.346	-1100
974.431	-1334
974.515	-1462
974.600	-1117
974.684	-906
974.768	-1289
974.852	-143
974.937	-1370
975.021	153
975.105	-1260
975.189	-1899
975.273	-1129
975.358	-918
975.442	-1425
975.526	-527
975.610	-1919
975.694	-1512
975.778	-200
975.862	-1271
975.946	-2984
976.030	-410
976.114	-1310
976.198	-649
976.281	-759
976.365	-226
976.449	-1450
976.533	-761
976.617	-1332
976.700	-973
976.784	-831
976.868	-1793
976.951	-1074
977.035	-1232
977.119	-529
977.202	-1183
977.286	-799
977.369	-1421
977.453	-366
977.536	-732
977.620	-1196
977.703	-709
977.787	-1137
977.870	-91
977.953	320
978.037	-1622
978.120	-900
978.203	-711
978.287	-1214
978.370	-25
978.453	-909
978.536	-1160
978.620	65
978.703	-622
978.786	-1230
978.869	-1320
978.952	-1605
979.035	630
979.118	-716
979.201	-1279
979.284	-238
979.367	-1346
979.450	-66
979.533	-1296
979.616	-1092
979.699	-2272
979.782	-426
979.865	-998
979.948	-1132
980.030	-828
980.113	-903
980.196	-1568
980.279	-603
980.361	-1147
980.444	-1599
980.526	-520
980.609	-1069
980.692	-234
980.774	50
980.857	-2245
980.939	-449
981.022	-1211
981.104	-733
981.187	-925
981.269	-832
981.352	-1245
981.434	-2471
981.516	-1313
981.599	489
981.681	-177
981.763	-1073
981.846	-657
981.928	-906
982.010	-1381
982.092	-962
982.174	-155
982.256	-1832
982.339	-798
982.421	-1037
982.503	-574
982.585	-1645
982.667	-735
982.749	-734
982.831	-886
982.913	-1807
982.995	-55
983.077	-1134
983.158	-79
983.240	-1167
983.322	-544
983.404	-187
983.486	-1113
983.568	-137
983.649	-1109
983.731	-1068
983.813	-965
983.894	-512
983.976	-920
984.058	-1250
984.139	1
984.221	-1673
984.302	299
984.384	-700
984.465	-1233
984.547	-443
984.628	-2128
984.710	-107
984.791	-178
984.872	-395
984.954	-1017
985.035	-813
985.116	-1119
985.198	-1637
985.279	413
985.360	-484
985.441	-943
985.522	-774
985.604	-963
985.685	-1886
985.766	-159
985.847	150
985.928	-1070
986.009	-738
986.090	-36
986.171	-408
986.252	-697
986.333	-1133
986.414	-395
986.495	-1331
986.576	-148
986.656	-584
986.737	-1207
986.818	-876
986.899	-325
986.980	-367
987.060	-121
987.141	-1154
987.222	-547
987.302	-1000
987.383	34
987.464	-712
987.544	-152
987.625	-322
987.705	-177
987.786	-816
987.866	-545
987.947	-761
988.027	30
988.108	-704
988.188	-14
988.268	-595
988.349	-786
988.429	-404
988.509	-569
988.589	-485
988.670	-1622
988.750	-151
988.830	-336
988.910	-460
988.990	-275
989.070	-328
989.151	-343
989.231	-1728
989.311	-493
989.391	-565
989.471	-576
989.551	-1147
989.631	-848
989.711	17
989.791	-1361
989.870	-1214
989.950	-724
990.030	-1168
990.110	-1419
990.190	-757
990.269	-903
990.349	-378
990.429	-823
990.509	-643
990.588	-442
990.668	-577
990.747	-635
990.827	-369
990.907	-878
990.986	-1440
991.066	-896
991.145	-1207
991.225	147
991.304	-651
991.383	-150
991.463	-1052
991.542	-369
991.622	-527
991.701	-698
991.780	-802
991.859	-504
991.939	-820
992.018	-796
992.097	-1088
992.176	-1205
992.256	-867
992.335	-1609
992.414	-987
992.493	-709
992.572	-1512
992.651	-28
992.730	-796
992.809	-292
992.888	-848
992.967	-956
993.046	-668
993.125	-2504
993.203	-1050
993.282	-1577
993.361	-744
993.440	-1283
993.519	-1802
993.597	-1560
993.676	-569
993.755	-561
993.834	-657
993.912	-1214
993.991	-534
994.069	-982
994.148	-607
994.226	-681
994.305	-1430
994.384	-1378
994.462	678
994.540	-1969
994.619	-883
994.697	233
994.776	-2321
994.854	-559
994.932	-1163
995.011	-652
995.089	-1281
995.167	-1274
995.245	-544
995.324	-1291
995.402	-225
995.480	-1128
995.558	-304
995.636	-1724
995.714	-1058
995.792	-214
995.870	-1552
995.948	-1148
996.026	-623
996.104	-2050
996.182	-1222
996.260	-1596
996.338	-1234
996.416	-2006
996.494	-645
996.572	397
996.649	-631
996.727	-1026
996.805	-945
996.883	-1360
996.960	-1969
997.038	273
997.116	-900
997.193	-1401
997.271	-1152
997.348	-1456
997.426	-1377
997.504	-1789
997.581	-661
997.658	-529
997.736	-2634
997.813	-1445
997.891	-265
997.968	-1832
998.046	-1597
998.123	-857
998.200	-916
998.277	-1970
998.355	-940
998.432	-1604
998.509	-989
998.586	-26
998.663	-314
998.741	-713
998.818	-1535
998.895	-1313
998.972	-1422
999.049	-663
999.126	-1591
999.203	-214
999.280	-948
999.357	-1759
999.434	-1162
999.511	-1069
999.587	-1309
999.664	-957
999.741	-1109
999.818	-1139
999.895	-1549
999.971	-1610
1000.048	-1226
1000.125	-183
1000.202	-2034
1000.278	-1035
1000.355	-275
1000.431	-1161
1000.508	-1998
1000.584	-796
1000.661	-968
1000.738	-1665
1000.814	-1089
1000.890	-991
1000.967	-1750
1001.043	-469
1001.120	-2123
1001.196	-1364
1001.272	-1511
1001.349	-1372
1001.425	-691
1001.501	-1489
1001.577	-1609
1001.654	-1680
1001.730	-1274
1001.806	-1411
1001.882	-2271
1001.958	-584
1002.034	-1063
1002.110	-698
1002.186	-1406
1002.262	-1376
1002.338	-1308
1002.414	-536
1002.490	-284
1002.566	-1772
1002.642	-1864
1002.718	-357
1002.794	-1163
1002.870	-1483
1002.945	-1609
1003.021	-1142
1003.097	-2074
1003.173	-1219
1003.248	-2010
1003.324	-2108
1003.400	-822
1003.475	-983
1003.551	-606
1003.626	-1057
1003.702	-1257
1003.777	-1088
1003.853	-2629
1003.928	-2220
1004.004	-1253
1004.079	-1481
1004.155	-1929
1004.230	-1905
1004.305	-969
1004.381	-2142
1004.456	-1396
1004.531	-1780
1004.607	-1247
1004.682	-1876
1004.757	-1242
1004.832	-1393
1004.907	-1495
1004.982	-919
1005.057	-2098
1005.133	-1792
1005.208	-2653
1005.283	-1204
1005.358	-321
1005.433	-1487
1005.508	-771
1005.583	-1614
1005.657	-1754
1005.732	-875
1005.807	-2120
1005.882	-1089
1005.957	-1461
1006.032	-604
1006.106	-1154
1006.181	-1372
1006.256	-1058
1006.331	-2175
1006.405	-2491
1006.480	-1163
1006.554	-1332
1006.629	-826
1006.704	-2156
1006.778	-1572
1006.853	-1079
1006.927	-1647
1007.002	-1750
1007.076	-1269
1007.150	-954
1007.225	-1216
1007.299	-1312
1007.373	-2169
1007.448	-1373
1007.522	-1040
1007.596	-875
1007.671	-2319
1007.745	-1698
1007.819	-1702
1007.893	-1557
1007.967	-1018
1008.041	-2324
1008.115	-484
1008.190	-2060
1008.264	-1724
1008.338	-2124
1008.412	-1355
1008.486	-1444
1008.560	-1542
1008.633	-2229
1008.707	-1747
1008.781	-792
1008.855	-1479
1008.929	-1626
1009.003	-1426
1009.076	-2016
1009.150	-1305
1009.224	-1657
1009.298	-785
1009.371	-2249
1009.445	-750
1009.519	-1697
1009.592	-2535
1009.666	-1215
1009.739	-1138
1009.813	-1781
1009.886	-1063
1009.960	-2151
1010.033	-1522
1010.107	-1309
1010.180	-2305
1010.253	-1119
1010.327	-1612
1010.400	-1803
1010.473	-1481
1010.547	-634
1010.620	-1895
1010.693	-1632
1010.766	-1492
1010.840	-1518
1010.913	-904
1010.986	-2595
1011.059	-1886
1011.132	-2341
1011.205	-1667
1011.278	-2212
1011.351	-2208
1011.424	-2137
1011.497	-2831
1011.570	-1346
1011.643	-2112
1011.716	-2209
1011.789	-1875
1011.862	-1126
1011.934	-910
1012.007	-2309
1012.080	-1689
1012.153	-1191
1012.225	-467
1012.298	-2026
1012.371	-1329
1012.443	-1714
1012.516	-2313
1012.588	-1560
1012.661	-945
1012.733	-1794
1012.806	-707
1012.879	-1919
1012.951	-1212
1013.023	-1233
1013.096	-2196
1013.168	-2189
1013.241	-598
1013.313	-1451
1013.385	-1682
1013.458	-2163
1013.530	-150
1013.602	-2281
1013.674	-1318
1013.746	-1880
1013.819	-1329
1013.891	-696
1013.963	-1855
1014.035	-1448
1014.107	-1612
1014.179	-1910
1014.251	-2812
1014.323	-1296
1014.395	-1926
1014.467	-2033
1014.539	-1057
1014.611	-2357
1014.683	-1892
1014.754	-1564
1014.826	-2060
1014.898	-1602
1014.970	-2228
1015.042	-1438
1015.113	-1738
1015.185	-2376
1015.257	-2096
1015.328	-1689
1015.400	-1939
1015.471	-1113
1015.543	-2122
1015.615	-1910
1015.686	-2123
1015.757	-2080
1015.829	-1209
1015.901	-2231
1015.972	-1689
1016.043	-1828
1016.115	-1766
1016.186	-2152
1016.257	-2180
1016.328	-2308
1016.400	-434
1016.471	-2087
1016.542	-1953
1016.613	-1603
1016.685	-1415
1016.756	-1643
1016.827	-2013
1016.898	-2348
1016.969	-878
1017.040	-2336
1017.111	-1474
1017.182	-2054
1017.253	-1883
1017.324	-1517
1017.395	-1150
1017.466	-1053
1017.537	-2526
1017.608	-1468
1017.678	-1744
1017.749	-2440
1017.820	-1809
1017.891	-2421
1017.961	-2053
1018.032	-1990
1018.103	-1648
1018.173	-2374
1018.244	-2317
1018.315	-2075
1018.385	-1841
1018.456	-1658
1018.526	-2496
1018.597	-1974
1018.667	-2021
1018.738	-2309
1018.808	-2272
1018.878	-2630
1018.949	-1231
1019.019	-2135
1019.089	-1458
1019.160	-1639
1019.230	-2220
1019.300	-1817
1019.371	-2286
1019.441	-1876
1019.511	-1712
1019.581	-1340
1019.651	-1824
1019.721	-1972
1019.791	-1292
1019.861	-1982
1019.931	-1842
1020.001	-1912
1020.071	-1168
1020.141	-2540
1020.211	-1638
1020.281	-2436
1020.351	-1811
1020.421	-936
1020.491	-1413
1020.560	-2206
1020.630	-2027
1020.700	-1385
1020.770	-1994
1020.839	-1550
1020.909	-1504
1020.979	-2249
1021.048	-1848
1021.118	-1081
1021.187	-2015
1021.257	-1281
1021.326	-1321
1021.396	-2315
1021.465	-1915
1021.535	-1519
1021.604	-2447
1021.674	-1461
1021.743	-1041
1021.812	-1721
1021.882	-1458
1021.951	-1535
1022.020	-1724
1022.089	-2220
1022.159	-2310
1022.228	-1139
1022.297	-2071
1022.366	-2000
1022.435	-1554
1022.504	-884
1022.573	-2439
1022.642	-2166
1022.711	-2335
1022.781	-1240
1022.849	-539
1022.918	-2273
1022.987	-1743
1023.056	-1753
1023.125	-1637
1023.194	-2337
1023.263	-1099
1023.331	-875
1023.400	-1544
1023.469	-2461
1023.538	-1466
1023.606	-2097
1023.675	-1448
1023.744	-1972
1023.812	-1486
1023.881	-1357
1023.949	-1300
1024.018	-2796
1024.086	-1926
1024.155	-2203
1024.223	-2318
1024.292	-1820
1024.360	-1214
1024.429	-2049
1024.497	-1912
1024.565	-1913
1024.634	-1963
1024.702	-1543
1024.770	-1169
1024.838	-2135
1024.907	-1748
1024.975	-2035
1025.043	-1700
1025.111	-2494
1025.179	-1758
1025.247	-2813
1025.315	-1638
1025.383	-1770
1025.451	-1181
1025.519	-1665
1025.587	-1828
1025.655	-1694
1025.723	-1427
1025.791	-825
1025.859	-1386
1025.927	-1062
1025.995	-2533
1026.062	-1192
1026.130	-1061
1026.198	-2082
1026.266	-2111
1026.333	-1895
1026.401	-1458
1026.469	-1959
1026.536	-1808
1026.604	-1353
1026.671	-1708
1026.739	-828
1026.806	-1981
1026.874	-2229
1026.941	-1749
1027.009	-2264
1027.076	-2769
1027.144	-1866
1027.211	-2475
1027.278	-2508
1027.345	-2123
1027.413	-1922
1027.480	-2079
1027.547	-2669
1027.614	-1864
1027.682	-1928
1027.749	-1286
1027.816	-1931
1027.883	-735
1027.950	-1365
1028.017	-2210
1028.084	-1796
1028.151	-1772
1028.218	-2131
1028.285	-2265
1028.352	-2324
1028.419	-1648
1028.486	-2012
1028.553	-1439
1028.619	-2166
1028.686	-1522
1028.753	-1960
1028.820	-1228
1028.886	-2456
1028.953	-1570
1029.020	-2451
1029.086	-1575
1029.153	-1912
1029.220	-2208
1029.286	-1522
1029.353	-2204
1029.419	-1538
1029.486	-1934
1029.552	-2268
1029.619	-1850
1029.685	-1592
1029.751	-1490
1029.818	-1159
1029.884	-1956
1029.951	-1522
1030.017	-2390
1030.083	-2159
1030.149	-1317
1030.216	-1562
1030.282	-1499
1030.348	-1821
1030.414	-1939
1030.480	-2874
1030.546	-862
1030.612	-1865
1030.678	-2532
1030.744	-1746
1030.810	-2899
1030.876	-925
1030.942	-1309
1031.008	-2207
1031.074	-1853
1031.140	-1963
1031.206	-1917
1031.272	-1818
1031.337	-1525
1031.403	-1427
1031.469	-2194
1031.534	-2260
1031.600	-2432
1031.666	-2427
1031.731	-1311
1031.797	-1103
1031.863	-2060
1031.928	-2036
1031.994	-1920
1032.059	-1753
1032.125	-2517
1032.190	-1525
1032.256	-2261
1032.321	-2036
1032.386	-1546
1032.452	-1997
1032.517	-1877
1032.582	-2311
1032.647	-1999
1032.713	-2056
1032.778	-1495
1032.843	-2045
1032.908	-2293
1032.974	-1268
1033.039	-2050
1033.104	-1670
1033.169	-2012
1033.234	-1776
1033.299	-1220
1033.364	-1444
1033.429	-2090
1033.494	-1078
1033.559	-1894
1033.624	-1744
1033.688	-1691
1033.753	-2990
1033.818	-1524
1033.883	-2111
1033.948	-1526
1034.013	-2210
1034.077	-1581
1034.142	-1640
1034.207	-843
1034.271	-1327
1034.336	-444
1034.400	-1938
1034.465	-1970
1034.530	-2234
1034.594	-997
1034.658	-1601
1034.723	-2319
1034.787	-2083
1034.852	-1967
1034.916	-1963
1034.981	-1605
1035.045	-1285
1035.109	-1692
1035.173	-1879
1035.238	-1817
1035.302	-1839
1035.366	-1513
1035.430	-2399
1035.495	-1641
1035.559	-1653
1035.623	-928
1035.687	-2777
1035.751	-2395
1035.815	-1974
1035.879	-1776
1035.943	-1203
1036.007	-1730
1036.071	-1940
1036.135	-1296
1036.198	-1431
1036.262	-1795
1036.326	-2077
1036.390	-1445
1036.454	-2327
1036.517	-2898
1036.581	-2299
1036.645	-1759
1036.709	-2100
1036.772	-1997
1036.836	-1033
1036.900	-2043
1036.963	-1653
1037.026	-1640
1037.090	-2427
1037.154	-1085
1037.217	-1883
1037.280	-1764
1037.344	-1263
1037.407	-2251
1037.471	-1345
1037.534	-1782
1037.597	-1844
1037.661	-2030
1037.724	-2228
1037.787	-1895
1037.850	-2455
1037.913	-1450
1037.977	-1457
1038.040	-2153
1038.103	-1819
1038.166	-2033
1038.229	-2099
1038.292	-2040
1038.355	-1925
1038.418	-1328
1038.481	-1421
1038.544	-2291
1038.607	-2336
1038.670	-2502
1038.732	-2465
1038.795	-2011
1038.858	-2458
1038.921	-1848
1038.984	-1146
1039.046	-2598
1039.109	-1767
1039.172	-1502
1039.234	-2548
1039.297	-2219
1039.360	-2431
1039.422	-2247
1039.485	-1944
1039.547	-2147
1039.610	-2381
1039.672	-1954
1039.734	-2357
1039.797	-1534
1039.859	-2258
1039.922	-1633
1039.984	-1679
1040.046	-1566
1040.109	-2031
1040.171	-2122
1040.233	-1375
1040.295	-2372
1040.358	-2070
1040.420	-2555
1040.482	-2250
1040.544	-1797
1040.606	-2205
1040.668	-1105
1040.730	-2384
1040.792	-1874
1040.854	-2578
1040.916	-1379
1040.978	-2063
1041.040	-1557
1041.102	-1767
1041.164	-1652
1041.225	-2629
1041.287	-2463
1041.349	-2370
1041.411	-1881
1041.472	-1701
1041.534	-1632
1041.596	-2370
1041.657	-1890
1041.719	-2611
1041.781	-1573
1041.842	-1695
1041.904	-1832
1041.965	-1655
1042.027	-2456
1042.088	-2078
1042.150	-1752
1042.211	-2196
1042.272	-2012
1042.334	-1810
1042.395	-1626
1042.456	-1427
1042.518	-1578
1042.579	-1101
1042.640	-1755
1042.701	-2043
1042.763	-2227
1042.824	-2311
1042.885	-2001
1042.946	-1856
1043.007	-1816
1043.068	-1856
1043.129	-1272
1043.190	-2030
1043.251	-1588
1043.312	-2527
1043.373	-1966
1043.434	-1913
1043.495	-1986
1043.556	-1729
1043.616	-893
1043.677	-1919
1043.738	-1687
1043.799	-2068
1043.859	-1569
1043.920	-2038
1043.981	-1555
1044.041	-1806
1044.102	-1485
1044.162	-2781
1044.223	-1587
1044.284	-1826
1044.344	-1554
1044.405	-1698
1044.465	-1575
1044.525	-2203
1044.586	-731
1044.646	-2114
1044.707	-1643
1044.767	-1404
1044.827	-1562
1044.887	-1764
1044.948	-1303
1045.008	-1182
1045.068	-2103
1045.128	-748
1045.188	-1093
1045.249	-1438
1045.309	-2050
1045.369	-1564
1045.429	-1520
1045.489	-1711
1045.549	-1754
1045.609	-2006
1045.669	-1242
1045.729	-2050
1045.789	-1320
1045.848	-1068
1045.908	-1004
1045.968	-1288
1046.028	-1113
1046.088	-1822
1046.147	-567
1046.207	-1590
1046.267	-716
1046.326	-1409
1046.386	-1560
1046.446	-938
1046.505	-8
1046.565	-596
1046.624	-403
1046.684	-814
1046.743	399
1046.803	-502
1046.862	-429
1046.922	0
