'Start Wavelength	183.907
'End Wavelength	1046.922
'Gate Delay	5.000
'Gate Width (ms)	1.050
'Laser Output Level	0.000
'X Position	0.000
'Y Position	0.000
'Z Position	0.000
'Grid Point Number	1.000
'Shot Number	100.000
183.907	500.000
183.977	-206.000
184.047	145
184.116	200
184.186	-203
184.256	20
184.325	-83
184.395	-846
184.465	586
184.534	-181
184.604	-693
184.674	39
184.743	-539
184.813	-215
184.883	-438
184.952	-278
185.022	219
185.092	263
185.161	-470
185.231	588
185.301	-142
185.370	899
185.440	-573
185.509	-180
185.579	108
185.649	189
185.718	568
185.788	486
185.857	40
185.927	26
185.996	715
186.066	-381
186.136	444
186.205	-202
186.275	-633
186.344	19
186.414	214
186.483	-196
186.553	227
186.622	274
186.692	-1079
186.761	518
186.831	-158
186.900	-898
186.970	-416
187.039	579
187.109	742
187.178	-45
187.248	273
187.317	-121
187.387	-776
187.456	47
187.526	-636
187.595	676
187.664	295
187.734	282
187.803	171
187.873	158
187.942	-183
188.012	20
188.081	453
188.150	79
188.220	-136
188.289	422
188.358	153
188.428	542
188.497	-121
188.567	842
188.636	-129
188.705	-142
188.775	221
188.844	-24
188.913	716
188.983	-131
189.052	-184
189.121	-43
189.191	193
189.260	-411
189.329	856
189.399	-252
189.468	-114
189.537	-360
189.606	168
189.676	51
189.745	-473
189.814	466
189.883	-867
189.953	237
190.022	178
190.091	-398
190.161	-64
190.230	436
190.299	-204
190.368	104
190.437	-829
190.507	745
190.576	-43
190.645	82
190.714	283
190.783	252
190.853	746
190.922	424
190.991	726
191.060	127
191.129	-459
191.198	364
191.268	-744
191.337	107
191.406	237
191.475	-81
191.544	-587
191.613	410
191.682	162
191.752	-453
191.821	-285
191.890	-571
191.959	456
192.028	86
192.097	-344
192.166	310
192.235	-247
192.304	170
192.373	-253
192.442	-396
192.511	-147
192.580	-304
192.650	-162
192.719	-329
192.788	-296
192.857	3
192.926	-412
192.995	-672
193.064	-451
193.133	444
193.202	-530
193.271	195
193.340	-564
193.409	452
193.478	302
193.547	-454
193.615	-398
193.684	-153
193.753	338
193.822	257
193.891	-202
193.960	540
194.029	-240
194.098	396
194.167	105
194.236	399
194.305	487
194.374	-142
194.443	14
194.512	53
194.580	-247
194.649	53
194.718	-379
194.787	599
194.856	43
194.925	-113
194.994	-124
195.062	449
195.131	-265
195.200	86
195.269	-417
195.338	-74
195.407	12
195.475	-499
195.544	166
195.613	125
195.682	-224
195.751	-166
195.819	-556
195.888	610
195.957	114
196.026	-517
196.094	158
196.163	330
196.232	393
196.301	-323
196.369	-313
196.438	-257
196.507	54
196.576	-301
196.644	-497
196.713	219
196.782	-235
196.850	500
196.919	221
196.988	281
197.056	473
197.125	762
197.194	-138
197.262	-93
197.331	-82
197.400	-381
197.468	-325
197.537	432
197.606	-509
197.674	219
197.743	-147
197.812	-500
197.880	414
197.949	287
198.017	-204
198.086	-493
198.155	-57
198.223	282
198.292	-397
198.360	152
198.429	-939
198.497	-649
198.566	-470
198.635	590
198.703	-334
198.772	-409
198.840	-517
198.909	-470
198.977	-305
199.046	155
199.114	-551
199.183	-247
199.251	28
199.320	-296
199.388	-82
199.457	-41
199.525	257
199.594	-494
199.662	49
199.731	677
199.799	503
199.867	-36
199.936	-482
200.004	543
200.073	121
200.141	-180
200.210	-352
200.278	644
200.346	-590
200.415	-595
200.483	-469
200.552	-163
200.620	34
200.688	185
200.757	184
200.825	266
200.893	266
200.962	288
201.030	-356
201.098	-529
201.167	-21
201.235	-61
201.303	-380
201.372	-14
201.440	316
201.508	-855
201.577	-200
201.645	-257
201.713	672
201.781	-144
201.850	255
201.918	-120
201.986	-682
202.055	884
202.123	-92
202.191	-451
202.259	-266
202.327	-277
202.396	-138
202.464	275
202.532	-585
202.600	750
202.669	-842
202.737	484
202.805	-802
202.873	-836
202.941	56
203.009	-72
203.078	473
203.146	-226
203.214	-316
203.282	-1019
203.350	243
203.418	-223
203.487	1
203.555	-172
203.623	-439
203.691	-530
203.759	543
203.827	-318
203.895	-384
203.963	-256
204.031	-923
204.099	-363
204.168	14
204.236	-108
204.304	-433
204.372	-959
204.440	-73
204.508	-563
204.576	-320
204.644	-347
204.712	-589
204.780	-537
204.848	-274
204.916	48
204.984	-289
205.052	-418
205.120	-789
205.188	-442
205.256	-380
205.324	-106
205.392	-245
205.460	14
205.528	-986
205.596	532
205.664	-199
205.732	248
205.799	43
205.867	-230
205.935	-566
206.003	247
206.071	-212
206.139	-627
206.207	-617
206.275	-160
206.343	-440
206.411	-444
206.478	-117
206.546	-169
206.614	-296
206.682	-236
206.750	-109
206.818	-570
206.885	50
206.953	-1021
207.021	-55
207.089	-446
207.157	-442
207.225	-545
207.292	-52
207.360	-720
207.428	-527
207.496	-841
207.563	-339
207.631	-346
207.699	-927
207.767	-417
207.834	-266
207.902	-128
207.970	-1050
208.038	-150
208.105	-839
208.173	-1062
208.241	-33
208.309	-189
208.376	-657
208.444	573
208.512	-566
208.579	-1787
208.647	-152
208.715	25
208.782	-233
208.850	-369
208.918	-785
208.985	-342
209.053	-8
209.120	38
209.188	-747
209.256	-203
209.323	-1293
209.391	-1018
209.459	260
209.526	-263
209.594	-882
209.661	-713
209.729	342
209.796	135
209.864	318
209.932	-1123
209.999	470
210.067	-671
210.134	-838
210.202	-314
210.269	-497
210.337	504
210.404	-953
210.472	-290
210.539	-646
210.607	-632
210.674	-638
210.742	-178
210.809	-84
210.877	-772
210.944	-392
211.012	-1327
211.079	197
211.146	-532
211.214	-180
211.281	-210
211.349	148
211.416	14
211.484	124
211.551	-942
211.618	-380
211.686	-179
211.753	-1311
211.821	475
211.888	-352
211.955	-92
212.023	51
212.090	-642
212.157	-571
212.225	-975
212.292	-397
212.359	429
212.427	-605
212.494	-812
212.561	-572
212.629	-197
212.696	-550
212.763	-30
212.831	-1295
212.898	631
212.965	-821
213.032	165
213.100	-63
213.167	-1456
213.234	312
213.301	-376
213.369	-196
213.436	-566
213.503	-949
213.570	283
213.638	-170
213.705	-485
213.772	-510
213.839	-831
213.906	-277
213.973	274
214.041	-682
214.108	-105
214.175	-421
214.242	113
214.309	-653
214.376	-828
214.444	-1126
214.511	-413
214.578	-731
214.645	-116
214.712	584
214.779	220
214.846	-481
214.913	-185
214.980	-12
215.048	504
215.115	53
215.182	-319
215.249	-900
215.316	-966
215.383	301
215.450	493
215.517	-864
215.584	-201
215.651	-458
215.718	22
215.785	-179
215.852	-1090
215.919	-226
215.986	-531
216.053	-1114
216.120	-1265
216.187	-622
216.254	-2
216.321	-268
216.388	-448
216.455	-1253
216.522	-32
216.589	-463
216.656	12
216.722	-811
216.789	-202
216.856	-637
216.923	-584
216.990	-5
217.057	-541
217.124	-472
217.191	-973
217.258	-891
217.324	-345
217.391	73
217.458	-967
217.525	311
217.592	-122
217.659	-1212
217.725	393
217.792	-1058
217.859	-451
217.926	-828
217.993	167
218.059	158
218.126	-690
218.193	-1002
218.260	-740
218.327	-260
218.393	-166
218.460	-738
218.527	-859
218.594	-217
218.660	-231
218.727	-403
218.794	-1090
218.860	-7
218.927	-587
218.994	-567
219.061	-676
219.127	-1046
219.194	-265
219.261	143
219.327	-706
219.394	392
219.461	-1266
219.527	232
219.594	-181
219.661	-654
219.727	-811
219.794	339
219.860	-531
219.927	-145
219.994	496
220.060	424
220.127	244
220.193	-87
220.260	-704
220.326	105
220.393	-895
220.460	-1272
220.526	-950
220.593	-976
220.659	333
220.726	-998
220.792	-389
220.859	-892
220.925	-378
220.992	-683
221.058	-254
221.125	-881
221.191	-932
221.258	-279
221.324	-428
221.391	-623
221.457	-300
221.524	-118
221.590	-216
221.657	-174
221.723	-1565
221.789	-772
221.856	-215
221.922	-415
221.989	50
222.055	40
222.121	-788
222.188	1091
222.254	-292
222.321	-502
222.387	-725
222.453	-1049
222.520	-675
222.586	-1266
222.652	596
222.719	-1164
222.785	86
222.851	-1090
222.918	-202
222.984	-355
223.050	-668
223.116	-1779
223.183	662
223.249	-1007
223.315	-392
223.382	-87
223.448	-453
223.514	-474
223.580	-178
223.647	-644
223.713	-507
223.779	-353
223.845	-729
223.911	-40
223.978	-1258
224.044	82
224.110	-1250
224.176	-16
224.242	-321
224.309	-757
224.375	-311
224.441	-412
224.507	-833
224.573	-1038
224.639	-602
224.705	-274
224.772	-362
224.838	-816
224.904	-523
224.970	-1075
225.036	-816
225.102	-608
225.168	-238
225.234	530
225.300	-498
225.366	-384
225.432	-742
225.499	-134
225.565	-595
225.631	-921
225.697	-868
225.763	-844
225.829	-982
225.895	-974
225.961	-867
226.027	-514
226.093	-803
226.159	-240
226.225	567
226.291	-317
226.357	-502
226.423	-292
226.489	-99
226.554	-282
226.620	-752
226.686	-851
226.752	137
226.818	45
226.884	19
226.950	409
227.016	-360
227.082	54
227.148	-319
227.214	-532
227.279	-4
227.345	-649
227.411	-534
227.477	453
227.543	1142
227.609	754
227.674	946
227.740	-257
227.806	-33
227.872	-856
227.938	65
228.003	-179
228.069	-195
228.135	-807
228.201	-130
228.267	-654
228.332	65
228.398	-2339
228.464	-162
228.530	-760
228.595	-285
228.661	-1371
228.727	-991
228.792	-369
228.858	-961
228.924	-2448
228.990	216
229.055	-1661
229.121	-732
229.187	-472
229.252	-1170
229.318	-941
229.384	573
229.449	-677
229.515	-2020
229.581	-231
229.646	748
229.712	-352
229.777	-809
229.843	-1522
229.909	-659
229.974	-676
230.040	-591
230.105	-668
230.171	-1152
230.236	-525
230.302	-1027
230.368	-760
230.433	-1024
230.499	-785
230.564	25
230.630	-1439
230.695	-1076
230.761	10
230.826	-1644
230.892	348
230.957	-1736
231.023	-737
231.088	-86
231.154	-935
231.219	53
231.284	-677
231.350	-182
231.415	-1500
231.481	-184
231.546	-816
231.612	-539
231.677	-1089
231.742	-1868
231.808	287
231.873	-1086
231.939	-2369
232.004	314
232.069	-372
232.135	-1010
232.200	-1740
232.265	-50
232.331	-1201
232.396	-457
232.461	-232
232.527	-847
232.592	-1616
232.657	-803
232.723	-952
232.788	-828
232.853	-54
232.918	-36
232.984	-1127
233.049	-214
233.114	-1394
233.179	-417
233.245	101
233.310	-496
233.375	-2410
233.440	-320
233.506	-1863
233.571	-762
233.636	-375
233.701	-741
233.766	-394
233.832	-362
233.897	-1071
233.962	-1617
234.027	206
234.092	358
234.157	-268
234.222	-761
234.288	-1202
234.353	-569
234.418	-368
234.483	609
234.548	-291
234.613	-453
234.678	-514
234.743	-1751
234.808	118
234.873	-1876
234.938	254
235.004	-93
235.069	-762
235.134	-1321
235.199	-265
235.264	-468
235.329	-1065
235.394	438
235.459	-25
235.524	-1284
235.589	-522
235.654	-1168
235.719	-1397
235.784	-464
235.849	-600
235.913	-938
235.978	-349
236.043	-332
236.108	-496
236.173	-1389
236.238	-446
236.303	-1263
236.368	-1794
236.433	400
236.498	-1161
236.563	-452
236.627	-1411
236.692	417
236.757	-675
236.822	-746
236.887	-906
236.952	846
237.017	-1655
237.081	236
237.146	-1692
237.211	215
237.276	-879
237.341	1004
237.405	-872
237.470	-1541
237.535	-79
237.600	-821
237.664	-289
237.729	-1728
237.794	-1710
237.859	-893
237.923	-1397
237.988	-877
238.053	-420
238.118	-381
238.182	-934
238.247	260
238.312	-1864
238.376	162
238.441	-2034
238.506	303
238.570	-1245
238.635	489
238.700	-388
238.764	-1081
238.829	-848
238.893	-1165
238.958	-310
239.023	-954
239.087	-331
239.152	-552
239.216	-1248
239.281	-301
239.346	-976
239.410	-1388
239.475	-368
239.539	-921
239.604	-1570
239.668	-19
239.733	18
239.797	-167
239.862	2681
239.926	1424
239.991	742
240.055	178
240.120	-842
240.184	-287
240.249	-1066
240.313	-66
240.378	-830
240.442	-407
240.507	89
240.571	-749
240.635	-1533
240.700	-463
240.764	-543
240.829	-1117
240.893	-1402
240.957	-324
241.022	211
241.086	-158
241.151	-1072
241.215	-1906
241.279	-113
241.344	-1561
241.408	-582
241.472	-794
241.537	561
241.601	-422
241.665	-2215
241.730	-1405
241.794	-36
241.858	-846
241.922	-658
241.987	-592
242.051	-295
242.115	-837
242.179	1
242.244	-1591
242.308	-860
242.372	-72
242.436	-1565
242.501	-563
242.565	-1295
242.629	-1050
242.693	258
242.757	-1572
242.822	-1261
242.886	-466
242.950	-65
243.014	-1349
243.078	-688
243.142	-1241
243.206	-1183
243.271	106
243.335	-1372
243.399	-417
243.463	-1218
243.527	62
243.591	-678
243.655	-699
243.719	-1568
243.783	174
243.847	-533
243.911	-94
243.975	-1560
244.040	-2320
244.104	976
244.168	-896
244.232	-1260
244.296	-1225
244.360	-820
244.424	-1213
244.488	-1503
244.552	-499
244.615	-2499
244.679	-271
244.743	-490
244.807	-2013
244.871	-749
244.935	-585
244.999	-2142
245.063	-752
245.127	-559
245.191	-645
245.255	-1377
245.319	-235
245.383	-2711
245.446	454
245.510	-1143
245.574	-1115
245.638	-815
245.702	-1724
245.766	-1011
245.829	588
245.893	-2185
245.957	-1458
246.021	-385
246.085	-1599
246.149	-568
246.212	105
246.276	-1719
246.340	-714
246.404	-288
246.467	96
246.531	-2407
246.595	-214
246.659	-6
246.722	-2273
246.786	-33
246.850	182
246.913	-933
246.977	-2569
247.041	-632
247.104	-1296
247.168	-583
247.232	-522
247.295	-664
247.359	-552
247.423	-1268
247.486	-1509
247.550	129
247.614	-663
247.677	-1079
247.741	-1333
247.804	-780
247.868	510
247.932	-1370
247.995	717
248.059	-525
248.122	-1455
248.186	78
248.249	-921
248.313	-313
248.376	75
248.440	-923
248.503	-2072
248.567	505
248.630	-1269
248.694	-513
248.757	86
248.821	367
248.884	242
248.948	-1150
249.011	156
249.075	475
249.138	39
249.202	-1304
249.265	-1458
249.328	78
249.392	-1954
249.455	-692
249.519	-960
249.582	-618
249.645	-349
249.709	-993
249.772	-1192
249.835	-1177
249.899	-924
249.962	-1093
250.025	-883
250.089	-1042
250.152	56
250.215	-835
250.279	-374
250.342	271
250.405	-118
250.468	-1156
250.532	-1188
250.595	-275
250.658	-926
250.721	1578
250.785	-743
250.848	803
250.911	-1239
250.974	141
251.038	-844
251.101	-78
251.164	-2033
251.227	-395
251.290	-1000
251.354	278
251.417	665
251.480	627
251.543	-56
251.606	2077
251.669	1475
251.732	-76
251.795	-534
251.859	-3
251.922	362
251.985	190
252.048	667
252.111	-405
252.174	-1327
252.237	-1114
252.300	442
252.363	-1089
252.426	2262
252.489	-810
252.552	-13
252.615	-1486
252.678	-93
252.741	-554
252.804	-811
252.867	1832
252.930	737
252.993	-657
253.056	-317
253.119	-1493
253.182	-1256
253.245	-1095
253.308	-413
253.371	-1541
253.434	-965
253.497	-1124
253.559	-346
253.622	-986
253.685	-1422
253.748	-811
253.811	-929
253.874	-305
253.937	-1675
254.000	-1213
254.062	-722
254.125	-816
254.188	88
254.251	-1388
254.314	-798
254.376	-679
254.439	-222
254.502	-855
254.565	-1464
254.628	239
254.690	-1705
254.753	-1252
254.816	-1501
254.878	-824
254.941	-138
255.004	-446
255.067	-725
255.129	-1396
255.192	-752
255.255	-2244
255.317	-949
255.380	-523
255.443	-1524
255.505	-1106
255.568	-976
255.631	-919
255.693	-687
255.756	-1168
255.819	-151
255.881	-540
255.944	-314
256.006	-870
256.069	-753
256.132	-1333
256.194	-895
256.257	-976
256.319	-155
256.382	-1390
256.444	302
256.507	-941
256.569	-1611
256.632	-530
256.694	-1822
256.757	-772
256.819	1237
256.882	-1818
256.944	-660
257.007	-606
257.069	-1200
257.132	-1389
257.194	-265
257.257	-1336
257.319	-1689
257.381	-1158
257.444	344
257.506	-1032
257.569	1268
257.631	-720
257.693	-1407
257.756	-244
257.818	-1107
257.880	-827
257.943	-324
258.005	-1163
258.067	-1222
258.130	-436
258.192	36
258.254	-1143
258.317	-1317
258.379	-126
258.441	-1145
258.503	-344
258.566	-892
258.628	-783
258.690	-889
258.753	-454
258.815	-841
258.877	-1508
258.939	-987
259.001	-951
259.064	-1318
259.126	-1689
259.188	-432
259.250	-757
259.312	-259
259.375	-1429
259.437	-784
259.499	-549
259.561	-1086
259.623	-822
259.685	-1048
259.747	-899
259.809	545
259.872	-820
259.934	-47
259.996	11
260.058	-220
260.120	-1267
260.182	-1029
260.244	-1396
260.306	-1256
260.368	-63
260.430	-935
260.492	-739
260.554	-420
260.616	-1768
260.678	-597
260.740	-1298
260.802	-1220
260.864	-893
260.926	-1898
260.988	299
261.050	-1006
261.112	-1358
261.174	56
261.236	-973
261.298	-1259
261.359	-729
261.421	-517
261.483	-1467
261.545	183
261.607	-1635
261.669	-448
261.731	-1057
261.793	24
261.854	-1616
261.916	-182
261.978	-1234
262.040	-1005
262.102	-293
262.164	-93
262.225	-587
262.287	-733
262.349	-1130
262.411	-732
262.472	-213
262.534	-1076
262.596	-1366
262.658	-294
262.719	-1662
262.781	-713
262.843	-1957
262.904	-155
262.966	-1365
263.028	-1454
263.090	-581
263.151	-976
263.213	-783
263.275	-1232
263.336	-553
263.398	-446
263.459	-850
263.521	-1232
263.583	-321
263.644	-565
263.706	-846
263.767	-1750
263.829	-791
263.891	-1697
263.952	-659
264.014	-1120
264.075	-1301
264.137	-676
264.198	-554
264.260	-672
264.321	-1583
264.383	-938
264.444	-553
264.506	-1002
264.567	-942
264.629	-278
264.690	-2416
264.752	-1018
264.813	-841
264.875	-1122
264.936	-492
264.998	-1382
265.059	393
265.120	-1462
265.182	-1477
265.243	-458
265.305	-220
265.366	-770
265.427	-1571
265.489	508
265.550	-1801
265.611	-908
265.673	-1288
265.734	-1043
265.795	-396
265.857	-992
265.918	-1121
265.979	-1116
266.040	-653
266.102	-601
266.163	-928
266.224	-467
266.286	-821
266.347	-994
266.408	-1108
266.469	-461
266.530	-410
266.592	-836
266.653	-215
266.714	-806
266.775	-970
266.836	-1001
266.898	-1002
266.959	-1116
267.020	-941
267.081	869
267.142	-667
267.203	-799
267.264	-1753
267.326	591
267.387	-916
267.448	-461
267.509	-599
267.570	-511
267.631	-365
267.692	-991
267.753	-712
267.814	-1013
267.875	-1259
267.936	-1361
267.997	-967
268.058	-1511
268.119	-503
268.180	-1027
268.241	-1331
268.302	-929
268.363	-1621
268.424	-548
268.485	-812
268.546	-1319
268.607	-431
268.668	-1137
268.729	-1142
268.790	-569
268.851	-587
268.912	-1422
268.972	-499
269.033	-1215
269.094	-1884
269.155	-651
269.216	-1375
269.277	-516
269.338	-965
269.398	-1113
269.459	-2051
269.520	-1667
269.581	-1151
269.642	-925
269.702	-1819
269.763	-1018
269.824	-684
269.885	-1217
269.945	-332
270.006	-820
270.067	-1694
270.128	-1479
270.188	-1113
270.249	-1381
270.310	-869
270.370	-483
270.431	-753
270.492	-1429
270.553	-633
270.613	-473
270.674	-721
270.734	-1189
270.795	-658
270.856	-1289
270.916	-1677
270.977	-1305
271.038	-635
271.098	-1084
271.159	-1142
271.219	-793
271.280	-1167
271.340	-359
271.401	-2008
271.462	-998
271.522	-1442
271.583	-138
271.643	-637
271.704	-409
271.764	-987
271.825	-993
271.885	-333
271.946	389
272.006	-303
272.066	-853
272.127	584
272.187	1739
272.248	-623
272.308	-564
272.369	473
272.429	-462
272.489	-798
272.550	-211
272.610	-860
272.671	-374
272.731	-608
272.791	-1146
272.852	-1480
272.912	-305
272.972	-922
273.033	-814
273.093	-492
273.153	-991
273.214	-701
273.274	-645
273.334	-397
273.394	175
273.455	-116
273.515	775
273.575	15
273.635	-529
273.696	1209
273.756	898
273.816	247
273.876	777
273.936	-497
273.997	-409
274.057	-1678
274.117	-567
274.177	-615
274.237	-86
274.297	-425
274.358	-435
274.418	-680
274.478	-380
274.538	-756
274.598	-2066
274.658	-917
274.718	-411
274.778	74
274.838	-979
274.898	-1303
274.958	34
275.018	-579
275.078	-218
275.138	-771
275.198	-1473
275.258	-892
275.318	-349
275.378	-842
275.438	-1291
275.498	-487
275.558	-713
275.618	-395
275.678	-637
275.738	-623
275.798	-742
275.858	-998
275.918	-943
275.978	-1004
276.038	-608
276.098	-691
276.157	-815
276.217	-439
276.277	-737
276.337	-967
276.397	-502
276.457	-448
276.517	-857
276.576	-421
276.636	-833
276.696	-678
276.756	364
276.815	-1351
276.875	-600
276.935	-649
276.995	-469
277.055	-871
277.114	-762
277.174	-934
277.234	-1247
277.293	-491
277.353	-1265
277.413	-157
277.472	62
277.532	-726
277.592	-167
277.651	1735
277.711	5024
277.771	910
277.830	5421
277.890	5284
277.950	2246
278.009	10274
278.069	4974
278.128	3753
278.188	6823
278.248	2214
278.307	6373
278.367	5310
278.426	106
278.486	-498
278.545	-645
278.605	-824
278.664	-606
278.724	-881
278.783	438
278.843	834
278.902	-275
278.962	-426
279.021	89
279.081	1550
279.140	325
279.199	45
279.259	657
279.318	1654
279.378	2413
279.437	3334
279.496	9798
279.556	51567
279.615	40519
279.675	9498
279.734	4667
279.793	3368
279.853	4868
279.912	2649
279.971	2047
280.031	1631
280.090	2269
280.149	3767
280.208	5867
280.268	34025
280.327	34354
280.386	7448
280.445	2574
280.505	1053
280.564	1244
280.623	818
280.682	1155
280.742	1294
280.801	1069
280.860	353
280.919	830
280.978	-461
281.037	-1019
281.097	-626
281.156	-183
281.215	-191
281.274	-480
281.333	-164
281.392	399
281.451	-485
281.510	157
281.569	-347
281.628	-738
281.688	-526
281.747	116
281.806	-282
281.865	-149
281.924	-1545
281.983	-37
282.042	-837
282.101	-692
282.160	-657
282.219	-267
282.278	-459
282.337	-115
282.396	-609
282.454	-785
282.513	-861
282.572	675
282.631	-702
282.690	33
282.749	-842
282.808	-1010
282.867	533
282.926	-850
282.985	98
283.043	-250
283.102	-753
283.161	146
283.220	474
283.279	322
283.338	-421
283.396	-566
283.455	51
283.514	269
283.573	310
283.631	449
283.690	543
283.749	-513
283.808	415
283.866	553
283.925	-460
283.984	717
284.043	70
284.101	1361
284.160	197
284.219	1083
284.277	631
284.336	1610
284.395	2174
284.453	2197
284.512	2197
284.570	2516
284.629	3396
284.688	4169
284.746	4880
284.805	6343
284.863	7581
284.922	10525
284.981	12861
285.039	16874
285.098	22209
285.156	23839
285.215	26222
285.273	22395
285.332	22240
285.390	23682
285.449	19473
285.507	15090
285.566	11613
285.624	9428
285.683	7314
285.741	5621
285.799	4478
285.858	4267
285.916	3290
285.975	2291
286.033	1931
286.091	1020
286.150	909
286.208	1820
286.267	797
286.325	574
286.383	301
286.442	389
286.500	253
286.558	71
286.616	158
286.675	475
286.733	421
286.791	271
286.850	700
286.908	-572
286.966	367
287.024	-585
287.083	-753
287.141	-124
287.199	504
287.257	146
287.315	459
287.374	-925
287.432	-397
287.490	312
287.548	-602
287.606	-412
287.664	122
287.723	-215
287.781	-138
287.839	-91
287.897	-810
287.955	-751
288.013	-397
288.071	468
288.129	594
288.187	6358
288.245	1953
288.303	-268
288.361	-532
288.419	-842
288.477	-1234
288.535	-1220
288.593	-308
288.651	-714
288.709	-274
288.767	-268
288.825	-462
288.883	-12
288.941	-221
288.999	-210
289.057	-235
289.115	-302
289.173	-794
289.231	-1276
289.289	-917
289.346	-311
289.404	58
289.462	-708
289.520	-816
289.578	-515
289.636	-489
289.694	-744
289.751	-577
289.809	-1093
289.867	-1373
289.925	-229
289.983	-569
290.040	135
290.098	-45
290.156	-791
290.214	-1218
290.271	-721
290.329	-390
290.387	-1174
290.444	89
290.502	-602
290.560	-212
290.617	-552
290.675	-645
290.733	-1146
290.790	-1336
290.848	-662
290.906	-736
290.963	-939
291.021	-999
291.078	-1469
291.136	-932
291.194	-827
291.251	-211
291.309	-497
291.366	121
291.424	-537
291.481	-504
291.539	-103
291.596	-220
291.654	-937
291.711	-299
291.769	-231
291.826	-1123
291.884	-486
291.941	-12
291.999	-547
292.056	-395
292.114	-582
292.171	-541
292.228	-548
292.286	-712
292.343	-410
292.401	-1084
292.458	-245
292.515	-821
292.573	-472
292.630	-395
292.687	-1011
292.745	-418
292.802	-1271
292.859	102
292.917	646
292.974	-101
293.031	-302
293.089	-601
293.146	14
293.203	-430
293.260	-831
293.318	-280
293.375	-637
293.432	-1407
293.489	-98
293.546	167
293.604	-314
293.661	389
293.718	2104
293.775	158
293.832	441
293.889	1031
293.947	797
294.004	-699
294.061	-505
294.118	-928
294.175	-143
294.232	747
294.289	535
294.346	-376
294.403	-836
294.460	-883
294.517	-1395
294.574	-927
294.631	-1102
294.688	-669
294.745	-319
294.802	581
294.859	-436
294.916	-1296
294.973	-748
295.030	-907
295.087	-1023
295.144	-1090
295.201	-616
295.258	-1189
295.315	363
295.372	-304
295.429	211
295.486	-185
295.542	-1178
295.599	-1124
295.656	-798
295.713	-847
295.770	-268
295.827	-758
295.883	-104
295.940	-1133
295.997	393
296.054	-1158
296.111	-704
296.167	-160
296.224	-888
296.281	-1452
296.338	-650
296.394	-1259
296.451	-316
296.508	-755
296.564	-16
296.621	-79
296.678	229
296.734	361
296.791	-477
296.848	-438
296.904	-1356
296.961	-680
297.018	387
297.074	-525
297.131	-820
297.187	-814
297.244	-620
297.301	635
297.357	1504
297.414	-1136
297.470	-397
297.527	-1311
297.583	-799
297.640	-558
297.696	-355
297.753	-1338
297.809	-1066
297.866	-1620
297.922	-437
297.979	-906
298.035	-1447
298.092	-1108
298.148	-522
298.204	-1054
298.261	-266
298.317	-10
298.374	581
298.430	320
298.486	-772
298.543	-1406
298.599	-135
298.656	-1383
298.712	-957
298.768	-354
298.824	-1080
298.881	-2052
298.937	-549
298.993	-718
299.050	-911
299.106	-1396
299.162	-338
299.218	-143
299.275	-1752
299.331	-916
299.387	-741
299.443	1014
299.500	4347
299.556	3523
299.612	360
299.668	571
299.724	2571
299.780	5194
299.837	918
299.893	684
299.949	2658
300.005	4614
300.061	2350
300.117	5626
300.173	2882
300.229	-253
300.285	-386
300.341	-54
300.397	-313
300.453	-603
300.510	-709
300.566	-73
300.622	85
300.678	5139
300.734	8796
300.790	3539
300.845	2139
300.901	2359
300.957	6059
301.013	2777
301.069	48
301.125	-638
301.181	-1049
301.237	-433
301.293	-1233
301.349	-971
301.405	-783
301.461	-470
301.516	-815
301.572	-903
301.628	-1051
301.684	-936
301.740	-538
301.796	-267
301.851	-885
301.907	-1181
301.963	-640
302.019	545
302.074	3317
302.130	3118
302.186	991
302.242	-309
302.297	-678
302.353	-562
302.409	-649
302.464	-1220
302.520	-486
302.576	-505
302.631	835
302.687	-1008
302.743	-1247
302.798	-1081
302.854	-1644
302.910	-1254
302.965	-1140
303.021	-1165
303.076	-682
303.132	-602
303.187	-1070
303.243	-1407
303.299	-873
303.354	-1293
303.410	-879
303.465	-1047
303.521	-1785
303.576	-1194
303.632	-1355
303.687	-663
303.743	-291
303.798	533
303.853	-550
303.909	-1521
303.964	-1257
304.020	-913
304.075	-1025
304.130	-1198
304.186	-638
304.241	-106
304.297	-655
304.352	-1421
304.358	-1388
304.407	-1121
304.449	-868
304.463	-778
304.518	-934
304.539	-688
304.573	-329
304.629	-658
304.630	-655
304.684	-522
304.720	-731
304.739	-855
304.794	1254
304.811	919
304.850	147
304.902	-345
304.905	-376
304.960	-588
304.992	-602
305.015	-607
305.071	-783
305.083	-793
305.126	-902
305.173	-553
305.181	-483
305.236	-1248
305.264	-999
305.292	-776
305.347	-1102
305.354	-1006
305.402	-369
305.445	-211
305.457	-195
305.512	-256
305.535	-692
305.567	-1126
305.622	-426
305.626	-434
305.678	-770
305.716	-85
305.733	209
305.788	-256
305.807	-271
305.843	-240
305.897	299
305.898	308
305.953	973
305.988	146
306.008	-378
306.063	-176
306.078	-61
306.118	356
306.168	-973
306.173	-1104
306.228	-471
306.259	-397
306.283	-306
306.338	-984
306.349	-930
306.393	-733
306.440	-431
306.448	-347
306.503	-99
306.530	-167
306.558	-405
306.613	-600
306.620	-583
306.668	-132
306.711	-72
306.723	-153
306.778	-203
306.801	-187
306.833	-12
306.888	-301
306.892	-301
306.943	-183
306.982	-325
306.997	-399
307.052	-118
307.072	-85
307.107	-133
307.162	-589
307.163	-590
307.217	-99
307.253	-176
307.272	-342
307.327	-526
307.343	-458
307.381	-189
307.434	-345
307.436	-348
307.491	-219
307.524	-226
307.546	-175
307.600	249
307.614	215
307.655	-153
307.704	-421
307.710	-416
307.765	-259
307.795	-246
307.819	-353
307.874	-53
307.885	-168
307.929	-355
307.975	204
307.984	307
308.038	470
308.065	633
308.093	1231
308.148	2634
308.156	3060
308.202	5060
308.246	6406
308.257	6349
308.312	3234
308.336	1950
308.366	1151
308.421	638
308.426	610
308.475	433
308.517	365
308.530	376
308.585	403
308.607	502
308.639	697
308.694	492
308.697	512
308.748	880
308.787	982
308.803	994
308.857	523
308.877	728
308.912	1349
308.967	1519
308.967	1533
309.021	3305
309.058	4137
309.076	4540
309.130	6913
309.148	7407
309.185	10589
309.238	15894
309.239	15970
309.293	20902
309.328	22034
309.348	20060
309.402	11065
309.418	8794
309.457	7048
309.508	5458
309.511	5468
309.566	6612
309.598	7962
309.620	10432
309.674	17922
309.688	19953
309.729	19133
309.778	14907
309.783	14491
309.837	8785
309.868	5701
309.892	4677
309.946	3588
309.959	3361
310.001	2755
310.049	2401
310.055	2331
310.109	1843
310.139	1346
310.163	885
310.218	458
310.229	311
310.272	817
310.319	1368
310.326	1275
310.381	743
310.409	440
310.435	548
310.489	409
310.499	468
310.543	308
310.589	-20
310.598	42
310.652	530
310.679	753
310.706	624
310.760	199
310.769	152
310.814	581
310.859	973
310.868	961
310.923	776
310.948	671
310.977	662
311.031	760
311.038	777
311.085	958
311.128	910
311.139	951
311.193	1306
311.218	1410
311.247	1282
311.301	1162
311.308	1125
311.356	826
311.398	567
311.410	555
311.464	514
311.488	457
311.518	574
311.572	800
311.578	819
311.626	534
311.668	310
311.680	470
311.734	1132
311.758	1387
311.788	996
311.842	382
311.847	312
311.896	805
311.937	1218
311.950	1070
312.004	406
312.027	126
312.058	391
312.112	845
312.117	887
312.165	602
312.207	351
312.297	681
312.386	1623
312.476	1214
312.566	1152
312.656	658
312.745	690
312.835	1538
312.925	988
313.015	1231
313.104	1117
313.194	1375
313.284	649
313.374	1201
313.463	1568
313.553	1455
313.643	629
313.732	1878
313.822	364
313.912	2080
314.001	1670
314.091	1960
314.180	1092
314.270	2376
314.360	1272
314.449	1441
314.539	916
314.628	2137
314.718	671
314.808	1744
314.897	2073
314.987	2621
315.076	2714
315.166	2425
315.255	1837
315.345	2162
315.434	1328
315.524	2008
315.613	1759
315.703	1510
315.792	3980
315.881	11153
315.971	3265
316.060	2850
316.150	1921
316.239	1640
316.328	639
316.418	1885
316.507	1289
316.597	2449
316.686	1611
316.775	2352
316.865	1567
316.954	1974
317.043	1319
317.133	1676
317.222	1099
317.311	1274
317.400	42
317.490	2365
317.579	1390
317.668	1664
317.757	2087
317.847	7172
317.936	17158
318.025	5766
318.114	4901
318.203	2487
318.293	1432
318.382	2328
318.471	3300
318.560	2100
318.649	2807
318.738	1709
318.828	393
318.917	1725
319.006	1548
319.095	781
319.184	2324
319.273	1291
319.362	1085
319.451	1618
319.540	1611
319.629	1100
319.718	1289
319.807	994
319.896	1635
319.985	2873
320.074	1380
320.163	1893
320.252	1777
320.341	2001
320.430	1100
320.519	1450
320.608	1308
320.697	1869
320.786	2290
320.875	2986
320.964	3366
321.053	2796
321.142	2822
321.230	4253
321.319	3299
321.408	4708
321.497	4299
321.586	4007
321.675	2410
321.764	2831
321.852	2886
321.941	2836
322.030	1827
322.119	2782
322.207	3451
322.296	4901
322.385	4774
322.474	6863
322.562	6012
322.651	5329
322.740	2619
322.829	3102
322.917	1720
323.006	2360
323.095	1319
323.183	2935
323.272	2022
323.361	2578
323.449	1889
323.538	1794
323.626	2171
323.715	1816
323.804	514
323.892	1792
323.981	509
324.069	2114
324.158	1562
324.246	1754
324.335	1797
324.424	1750
324.512	586
324.601	1331
324.689	1801
324.778	1142
324.866	820
324.954	1995
325.043	628
325.131	49
325.220	1469
325.308	1783
325.397	1147
325.485	1052
325.574	1120
325.662	859
325.750	399
325.839	2009
325.927	1246
326.015	1672
326.104	945
326.192	1981
326.280	1548
326.369	1580
326.457	853
326.545	1720
326.634	706
326.722	1310
326.810	1046
326.898	1750
326.987	1577
327.075	1151
327.163	991
327.251	845
327.340	779
327.428	2405
327.516	2506
327.604	1794
327.692	1454
327.781	1669
327.869	1168
327.957	741
328.045	613
328.133	2041
328.221	437
328.309	1301
328.397	1501
328.485	1612
328.574	2441
328.662	3247
328.750	1997
328.838	1844
328.926	1292
329.014	1313
329.102	824
329.190	1668
329.278	555
329.366	1548
329.454	778
329.542	1281
329.630	626
329.718	1259
329.806	499
329.893	2275
329.981	963
330.069	1585
330.157	803
330.245	1606
330.333	1759
330.421	1357
330.509	567
330.597	1790
330.684	572
330.772	2059
330.860	856
330.948	1746
331.036	401
331.123	864
331.211	949
331.299	1424
331.387	1191
331.475	1604
331.562	951
331.650	1335
331.738	791
331.825	1751
331.913	1553
332.001	830
332.089	1033
332.176	1609
332.264	677
332.352	1076
332.439	1040
332.527	1891
332.614	1470
332.702	1152
332.790	917
332.877	1848
332.965	2419
333.052	2658
333.140	2286
333.228	7189
333.315	2190
333.403	1879
333.490	1212
333.578	3350
333.665	9934
333.753	4730
333.840	1213
333.928	2191
334.015	1595
334.103	2024
334.190	3160
334.278	4367
334.365	6208
334.452	7634
334.540	3409
334.627	2884
334.715	4205
334.802	5874
334.889	10088
334.977	17191
335.064	10961
335.151	4474
335.239	3085
335.326	2369
335.413	2786
335.501	3222
335.588	2816
335.675	2636
335.762	3198
335.850	5439
335.937	6232
336.024	12337
336.111	21492
336.199	24152
336.286	9847
336.373	5150
336.460	2719
336.547	2742
336.635	1850
336.722	2033
336.809	1377
336.896	2216
336.983	2210
337.070	2810
337.157	1773
337.245	1998
337.332	1725
337.419	1751
337.506	1450
337.593	1286
337.680	2035
337.767	3303
337.854	1551
337.941	1869
338.028	1572
338.115	992
338.202	2093
338.289	1546
338.376	1318
338.463	2121
338.550	723
338.637	2030
338.724	956
338.811	1900
338.898	516
338.984	1685
339.071	930
339.158	1964
339.245	1572
339.332	1786
339.419	857
339.506	1935
339.593	131
339.679	1553
339.766	860
339.853	1104
339.940	924
340.027	1307
340.113	693
340.200	1694
340.287	831
340.374	496
340.460	1322
340.547	210
340.634	1522
340.720	2273
340.807	789
340.894	1939
340.980	1625
341.067	1922
341.154	2046
341.240	1378
341.327	1148
341.414	2013
341.500	394
341.587	1936
341.674	1384
341.760	2091
341.847	970
341.933	1257
342.020	84
342.106	1002
342.193	1599
342.279	2111
342.366	1179
342.452	1691
342.539	1013
342.625	981
342.712	1552
342.798	1607
342.885	485
342.971	733
343.058	406
343.144	1517
343.230	2029
343.317	1435
343.403	553
343.490	1480
343.576	580
343.662	1759
343.749	1257
343.835	1725
343.921	1244
344.008	3472
344.094	5531
344.180	2257
344.267	994
344.353	1210
344.439	981
344.525	1038
344.612	1608
344.698	832
344.784	451
344.870	2565
344.957	738
345.043	1804
345.129	495
345.215	1767
345.301	1067
345.387	1577
345.474	850
345.560	1064
345.646	466
345.732	1233
345.818	654
345.904	1239
345.990	1191
346.076	1525
346.162	1295
346.249	2091
346.335	1041
346.421	1868
346.507	695
346.593	2475
346.679	-82
346.765	2645
346.851	2025
346.937	1265
347.023	1997
347.108	1547
347.194	778
347.280	1644
347.366	1340
347.452	4271
347.538	3812
347.624	4405
347.710	1545
347.796	1419
347.882	1611
347.967	1675
348.053	743
348.139	922
348.225	597
348.311	691
348.397	961
348.482	2156
348.568	1009
348.654	2618
348.740	6341
348.825	5171
348.911	3027
348.997	1910
349.083	3226
349.168	1399
349.254	1452
349.340	1781
349.425	1303
349.511	1215
349.597	1095
349.682	1769
349.768	2123
349.854	2254
349.939	1645
350.025	1563
350.110	1085
350.196	1036
350.282	8
350.367	2065
350.453	717
350.538	1653
350.624	82
350.709	1864
350.795	798
350.880	1585
350.966	2388
351.051	1816
351.137	1111
351.222	1609
351.308	1391
351.393	1917
351.479	893
351.564	850
351.649	1273
351.735	2011
351.820	143
351.906	1416
351.991	650
352.076	1381
352.162	1484
352.247	918
352.332	680
352.418	1193
352.503	846
352.588	1641
352.673	1338
352.759	1751
352.844	721
352.929	768
353.014	989
353.100	2085
353.185	1266
353.270	802
353.355	1749
353.441	1455
353.526	817
353.611	1212
353.696	224
353.781	2415
353.866	530
353.952	2406
354.037	689
354.122	1846
354.207	1246
354.292	1529
354.377	1059
354.462	1463
354.547	0
354.632	1883
354.717	1445
354.802	492
354.887	679
354.972	1868
355.057	995
355.142	835
355.227	1081
355.312	1367
355.397	246
355.482	1625
355.567	414
355.652	1634
355.737	1099
355.822	2036
355.907	99
355.991	2890
356.076	359
356.161	2294
356.246	840
356.331	2573
356.416	290
356.501	3814
356.585	1827
356.670	1596
356.755	2599
356.840	1425
356.924	1758
357.009	5252
357.094	3046
357.179	1612
357.263	814
357.348	2490
357.433	1516
357.517	1768
357.602	957
357.687	1150
357.771	1306
357.856	1875
357.941	1652
358.025	2769
358.110	7965
358.195	4622
358.279	765
358.364	1824
358.448	1689
358.533	3140
358.617	1638
358.702	3110
358.787	1757
358.871	1373
358.956	1212
359.040	1472
359.125	791
359.209	1816
359.294	1167
359.378	2666
359.462	2190
359.547	2014
359.631	1055
359.716	136
359.800	1157
359.885	2915
359.969	85
360.053	2186
360.138	785
360.222	1515
360.306	616
360.391	1513
360.475	1263
360.559	1073
360.644	1470
360.728	927
360.812	2525
360.896	4253
360.981	1005
361.065	1484
361.149	1960
361.233	1631
361.318	627
361.402	1557
361.486	1436
361.570	1848
361.654	1336
361.739	1178
361.823	2700
361.907	5671
361.991	911
362.075	2960
362.159	1755
362.243	5542
362.327	14219
362.411	27187
362.495	9020
362.580	4166
362.664	3519
362.748	4229
362.832	5823
362.916	10793
363.000	38674
363.084	63114
363.168	22324
363.252	6957
363.336	3946
363.420	3543
363.503	2504
363.587	2694
363.671	1969
363.755	2077
363.839	3074
363.923	2286
364.007	3423
364.091	4189
364.175	4484
364.258	16646
364.342	38365
364.426	89033
364.510	44247
364.594	12527
364.677	6220
364.761	3606
364.845	3824
364.929	2297
365.013	1506
365.096	1897
365.180	597
365.264	2035
365.347	3210
365.431	1656
365.515	783
365.598	1043
365.682	2993
365.766	1865
365.849	1541
365.933	1861
366.017	3335
366.100	603
366.184	1027
366.267	2919
366.351	1958
366.435	1406
366.518	1430
366.602	1733
366.685	1062
366.769	1783
366.852	1163
366.936	2451
367.019	1377
367.103	719
367.186	2464
367.270	2069
367.353	1357
367.436	2863
367.520	1316
367.603	3070
367.687	1377
367.770	1584
367.853	2623
367.937	2914
368.020	2657
368.104	1034
368.187	2076
368.270	1897
368.353	1272
368.437	1105
368.520	1629
368.603	1277
368.687	555
368.770	2789
368.853	1387
368.936	2788
369.020	2056
369.103	1552
369.186	399
369.269	1091
369.352	2508
369.436	1657
369.519	1493
369.602	370
369.685	2472
369.768	525
369.851	2058
369.934	1439
370.018	851
370.101	764
370.184	2879
370.267	1873
370.350	1465
370.433	1701
370.516	3757
370.599	7720
370.682	1239
370.765	3477
370.848	3732
370.931	2159
371.014	3092
371.097	1413
371.180	2429
371.263	3508
371.346	859
371.429	2214
371.511	1342
371.594	2668
371.677	2957
371.760	4097
371.843	2679
371.926	5796
372.009	9943
372.091	9074
372.174	3252
372.257	5640
372.340	3701
372.423	3853
372.505	4785
372.588	3156
372.671	3423
372.754	1644
372.836	2224
372.919	3901
373.002	4133
373.085	2672
373.167	3401
373.250	2587
373.332	2805
373.415	6049
373.498	6422
373.580	5163
373.663	11338
373.746	11643
373.828	2559
373.911	3871
373.993	1397
374.076	3267
374.159	1844
374.241	2639
374.324	2090
374.406	3345
374.489	2363
374.571	7075
374.654	2409
374.736	2776
374.819	4034
374.901	7188
374.983	6651
375.066	3382
375.148	2566
375.231	2784
375.313	3284
375.395	2844
375.478	2872
375.560	3153
375.643	1625
375.725	2167
375.807	3123
375.890	5276
375.972	1532
376.054	2546
376.136	3000
376.219	1783
376.301	2379
376.383	3559
376.465	2287
376.548	1437
376.630	1878
376.712	4265
376.794	2330
376.877	1584
376.959	445
377.041	2021
377.123	685
377.205	1496
377.287	565
377.369	2099
377.452	700
377.534	1747
377.616	1705
377.698	2497
377.780	1108
377.862	2195
377.944	2991
378.026	1079
378.108	2054
378.190	1183
378.272	2117
378.354	2002
378.436	666
378.518	1062
378.600	1028
378.682	1332
378.764	1565
378.846	1949
378.928	1180
379.010	815
379.091	1853
379.173	2248
379.255	441
379.337	1380
379.419	983
379.501	3153
379.583	1572
379.664	1384
379.746	21
379.828	3695
379.910	1678
379.991	3598
380.073	1233
380.155	1920
380.237	1406
380.318	2305
380.400	1421
380.482	2500
380.564	2208
380.645	1387
380.727	1727
380.809	2648
380.890	1487
380.972	1206
381.053	1953
381.135	3005
381.217	2162
381.298	3914
381.380	2459
381.461	2189
381.543	2511
381.624	3745
381.706	2313
381.787	3239
381.869	3139
381.951	3336
382.032	5257
382.113	7078
382.195	1612
382.276	4478
382.358	2322
382.439	4730
382.521	5538
382.602	8272
382.684	5807
382.765	10267
382.846	26762
382.928	69282
383.009	36239
383.090	25819
383.172	81409
383.253	111713
383.334	33634
383.416	13208
383.497	9423
383.578	11508
383.659	20847
383.741	68179
383.822	148483
383.903	74699
383.984	17873
384.066	12371
384.147	5505
384.228	6248
384.309	3881
384.390	4970
384.471	4358
384.553	3881
384.634	3455
384.715	4625
384.796	3129
384.877	2877
384.958	3930
385.039	2148
385.120	2226
385.201	4337
385.282	2879
385.363	3806
385.444	3120
385.525	4010
385.606	3852
385.687	4694
385.768	3137
385.849	2376
385.930	5153
386.011	8105
386.092	2449
386.173	3627
386.254	2077
386.335	4224
386.416	2522
386.496	2821
386.577	3005
386.658	2368
386.739	1496
386.820	3845
386.901	1390
386.981	3265
387.062	3294
387.143	2900
387.224	4662
387.304	6243
387.385	6091
387.466	3276
387.547	6054
387.627	4430
387.708	4746
387.789	5222
387.869	4350
387.950	4514
388.031	2265
388.111	1729
388.192	2872
388.273	4498
388.353	2562
388.434	1748
388.514	2446
388.595	4166
388.676	3251
388.756	3495
388.837	3102
388.917	2612
388.998	556
389.078	2759
389.159	1988
389.239	1084
389.320	3252
389.400	435
389.480	1905
389.561	2444
389.641	1865
389.722	2586
389.802	1184
389.883	3391
389.963	3715
390.043	2413
390.124	444
390.204	2934
390.284	2339
390.365	1490
390.445	2450
390.525	1739
390.605	1521
390.686	789
390.766	2768
390.846	3033
390.927	1143
391.007	1162
391.087	2588
391.167	1299
391.247	648
391.328	2998
391.408	2613
391.488	2767
391.568	513
391.648	2480
391.728	2008
391.808	3987
391.888	1820
391.969	3227
392.049	2161
392.129	3198
392.209	2471
392.289	4832
392.369	3292
392.449	3721
392.529	3384
392.609	4700
392.689	4627
392.769	6112
392.849	6130
392.929	9498
393.009	11013
393.089	15530
393.169	30517
393.248	84553
393.328	212312
393.408	207981
393.488	81762
393.568	30170
393.648	15385
393.728	9453
393.807	6521
393.887	7304
393.967	5833
394.047	4857
394.127	2431
394.206	4358
394.286	5049
394.366	15500
394.446	16043
394.525	4656
394.605	2273
394.685	2911
394.764	4128
394.844	6334
394.924	7030
395.003	2826
395.083	2351
395.163	2670
395.242	1718
395.322	2370
395.402	259
395.481	4125
395.561	2326
395.640	10559
395.720	20817
395.799	8156
395.879	2362
395.958	2327
396.038	5469
396.117	21145
396.197	20996
396.276	7463
396.356	3236
396.435	5770
396.515	6949
396.594	10229
396.673	23448
396.753	81484
396.832	189218
396.912	128856
396.991	36249
397.070	15307
397.150	7908
397.229	9459
397.308	16701
397.388	30328
397.467	12845
397.546	4702
397.625	1702
397.705	4364
397.784	2736
397.863	2037
397.942	1902
398.022	1480
398.101	1066
398.180	2564
398.259	1211
398.338	1863
398.417	1755
398.497	1097
398.576	2720
398.655	1468
398.734	2340
398.813	1651
398.892	687
398.971	2488
399.050	1169
399.129	652
399.208	1489
399.287	1801
399.366	605
399.445	857
399.524	1001
399.603	-305
399.682	1279
399.761	942
399.840	1606
399.919	2522
399.998	920
400.077	923
400.156	-316
400.235	3574
400.313	630
400.392	-197
400.471	1688
400.550	1901
400.629	-330
400.708	1216
400.786	-115
400.865	1485
400.944	36
401.023	3032
401.102	396
401.180	1860
401.259	1185
401.338	1264
401.416	65
401.495	-507
401.574	854
401.652	235
401.731	1699
401.810	-55
401.888	-113
401.967	470
402.046	998
402.124	1631
402.203	-619
402.281	1927
402.360	250
402.438	1604
402.517	-889
402.596	681
402.674	121
402.753	399
402.831	1094
402.910	1934
402.988	-128
403.066	2594
403.145	2128
403.223	2116
403.302	857
403.380	2430
403.459	1357
403.537	843
403.615	1139
403.694	165
403.772	796
403.850	1166
403.929	244
404.007	411
404.085	2202
404.164	1141
404.242	-159
404.320	1677
404.398	1450
404.477	1876
404.555	3016
404.633	2699
404.711	1188
404.789	2446
404.868	701
404.946	240
405.024	166
405.102	1140
405.180	390
405.258	112
405.336	1114
405.415	-686
405.493	424
405.571	1247
405.649	354
405.727	547
405.805	1465
405.883	1265
405.961	1049
406.039	-263
406.117	-848
406.195	1619
406.273	-8
406.351	2791
406.429	2103
406.507	392
406.585	-701
406.663	808
406.740	543
406.818	-489
406.896	303
406.974	1670
407.052	-219
407.130	1834
407.208	1331
407.285	1311
407.363	-279
407.441	687
407.519	369
407.596	767
407.674	1085
407.752	1904
407.830	2292
407.907	1552
407.985	-488
408.063	535
408.141	-255
408.218	1734
408.296	-401
408.373	929
408.451	1090
408.529	480
408.606	474
408.684	715
408.762	843
408.839	783
408.917	756
408.994	616
409.072	1082
409.149	2004
409.227	4069
409.304	6918
409.382	5737
409.459	6899
409.537	10324
409.614	7595
409.692	4675
409.769	5873
409.846	9828
409.924	12168
410.001	5777
410.079	3796
410.156	4001
410.233	2537
410.311	750
410.388	1453
410.465	1302
410.543	1789
410.620	2414
410.697	2257
410.775	1332
410.852	1388
410.929	2694
411.006	2830
411.083	1296
411.161	2612
411.238	1893
411.315	1588
411.392	1347
411.469	1779
411.547	580
411.624	305
411.701	349
411.778	1096
411.855	264
411.932	574
412.009	679
412.086	1382
412.163	150
412.240	251
412.317	1242
412.394	537
412.471	1458
412.548	610
412.625	-154
412.702	1062
412.779	243
412.856	1166
412.933	116
413.010	654
413.087	714
413.164	-116
413.241	1045
413.318	648
413.395	1163
413.471	570
413.548	698
413.625	1277
413.702	-876
413.779	372
413.855	247
413.932	466
414.009	181
414.086	1269
414.162	444
414.239	1588
414.316	408
414.393	2738
414.469	-592
414.546	460
414.623	105
414.699	595
414.776	-359
414.853	-22
414.929	540
415.006	492
415.082	-134
415.159	1157
415.236	629
415.312	1032
415.389	357
415.465	406
415.542	-259
415.618	-422
415.695	972
415.771	162
415.848	621
415.924	207
416.000	578
416.077	1704
416.153	-587
416.230	-178
416.306	228
416.383	-209
416.459	450
416.535	33
416.612	556
416.688	-135
416.764	257
416.841	449
416.917	-406
416.993	680
417.069	151
417.146	-197
417.222	0
417.298	495
417.374	-169
417.451	801
417.527	-64
417.603	-339
417.679	-515
417.755	677
417.831	-413
417.908	782
417.984	-181
418.060	-84
418.136	755
418.212	175
418.288	-154
418.364	1987
418.440	-1139
418.516	909
418.592	242
418.668	-103
418.744	-587
418.820	641
418.896	93
418.972	-164
419.048	-147
419.124	1981
419.200	-382
419.276	742
419.352	-161
419.428	693
419.504	-695
419.579	261
419.655	111
419.731	713
419.807	568
419.883	116
419.959	-67
420.034	972
420.110	387
420.186	341
420.262	600
420.337	370
420.413	655
420.489	857
420.565	1379
420.640	1867
420.716	1471
420.792	1092
420.867	1777
420.943	1417
421.019	1737
421.094	1643
421.170	1530
421.245	2226
421.321	1827
421.397	1900
421.472	3082
421.548	3765
421.623	4035
421.699	4828
421.774	5594
421.850	4870
421.925	6651
422.001	8505
422.076	10135
422.152	12551
422.227	15586
422.302	25118
422.378	34703
422.453	57969
422.529	93561
422.604	116574
422.679	101008
422.755	111868
422.830	93374
422.905	59971
422.981	38371
423.056	27714
423.131	20671
423.207	15044
423.282	11030
423.357	9764
423.432	6620
423.508	7427
423.583	4668
423.658	6031
423.733	4230
423.808	4114
423.883	4350
423.959	4433
424.034	5313
424.109	5137
424.184	2864
424.259	1927
424.334	2056
424.409	2621
424.484	967
424.559	2579
424.634	1398
424.709	1306
424.784	1337
424.859	747
424.934	327
425.009	1705
425.084	1611
425.159	1287
425.234	1473
425.309	1635
425.384	838
425.459	524
425.534	644
425.609	213
425.683	350
425.758	1431
425.833	544
425.908	1040
425.983	-704
426.058	1695
426.132	1421
426.207	717
426.282	1248
426.357	-33
426.431	29
426.506	747
426.581	420
426.655	664
426.730	775
426.805	400
426.879	837
426.954	696
427.029	-274
427.103	1049
427.178	718
427.253	1313
427.327	175
427.402	-167
427.476	-308
427.551	-128
427.625	266
427.700	729
427.774	-336
427.849	629
427.923	-170
427.998	1410
428.072	287
428.147	2271
428.221	12552
428.296	41035
428.370	20637
428.444	2902
428.519	34
428.593	105
428.667	-227
428.742	838
428.816	3787
428.890	24045
428.965	35733
429.039	7717
429.113	862
429.188	137
429.262	78
429.336	461
429.410	-259
429.485	425
429.559	-286
429.633	786
429.707	295
429.781	3143
429.855	22001
429.930	32266
430.004	6715
430.078	3372
430.152	13366
430.226	53298
430.300	49860
430.374	8956
430.448	1963
430.522	1566
430.596	1282
430.670	6718
430.744	30718
430.818	30548
430.892	3938
430.966	915
431.040	-37
431.114	-127
431.188	-374
431.262	-281
431.336	-439
431.410	119
431.484	-302
431.557	663
431.631	-225
431.705	1803
431.779	9419
431.853	38959
431.927	22093
432.000	2890
432.074	290
432.148	-134
432.222	-721
432.295	-811
432.369	-503
432.443	-542
432.516	419
432.590	1343
432.664	-452
432.737	-543
432.811	-622
432.885	-772
432.958	57
433.032	-697
433.106	-914
433.179	460
433.253	255
433.326	-403
433.400	-247
433.473	382
433.547	-1257
433.620	379
433.694	-258
433.767	193
433.841	-1150
433.914	-203
433.988	-698
434.061	-397
434.134	-643
434.208	428
434.281	-1029
434.355	-426
434.428	-400
434.501	-142
434.575	-191
434.648	-77
434.721	-509
434.795	-93
434.868	-447
434.941	-495
435.014	-836
435.088	-1343
435.161	399
435.234	-22
435.307	753
435.381	1082
435.454	1816
435.527	5475
435.600	4490
435.673	3351
435.746	969
435.819	1416
435.892	893
435.966	809
436.039	-1211
436.112	861
436.185	-344
436.258	133
436.331	-1172
436.404	-244
436.477	-1291
436.550	-106
436.623	-124
436.696	-508
436.769	-445
436.842	-658
436.915	-1199
436.987	45
437.060	-561
437.133	-322
437.206	-501
437.279	-49
437.352	-363
437.425	-1132
437.498	-541
437.570	-458
437.643	-980
437.716	-534
437.789	-640
437.861	-252
437.934	-442
438.007	532
438.080	-1133
438.152	-186
438.225	-233
438.298	123
438.370	654
438.443	872
438.516	-694
438.588	2
438.661	-1074
438.734	-21
438.806	-1045
438.879	150
438.951	-274
439.024	-363
439.096	-1279
439.169	123
439.241	-1455
439.314	1
439.386	-981
439.459	146
439.531	-477
439.604	-690
439.676	224
439.749	58
439.821	-542
439.893	546
439.966	-1167
440.038	157
440.110	-634
440.183	-194
440.255	-939
440.327	891
440.400	264
440.472	-26
440.544	-196
440.617	-356
440.689	1428
440.761	345
440.833	-723
440.905	314
440.978	-471
441.050	143
441.122	-339
441.194	-673
441.266	-933
441.338	-993
441.411	-265
441.483	124
441.555	-214
441.627	107
441.699	53
441.771	209
441.843	-355
441.915	-241
441.987	-215
442.059	797
442.131	-152
442.203	-6
442.275	511
442.347	1683
442.419	4642
442.491	29078
442.563	60597
442.635	21732
442.706	2588
442.778	1570
442.850	227
442.922	434
442.994	47
443.066	409
443.137	1040
443.209	2304
443.281	2748
443.353	7765
443.425	32767
443.496	93996
443.568	92003
443.640	34560
443.711	6252
443.783	2395
443.855	1041
443.926	587
443.998	-289
444.070	65
444.141	657
444.213	838
444.285	313
444.356	917
444.428	-440
444.499	138
444.571	-232
444.642	854
444.714	-71
444.785	299
444.857	-498
444.928	1083
445.000	816
445.071	1494
445.143	1507
445.214	2587
445.285	5169
445.357	16440
445.428	60752
445.500	111207
445.571	81141
445.642	53230
445.714	15977
445.785	5389
445.856	1189
445.928	608
445.999	177
446.070	-89
446.141	272
446.213	278
446.284	-458
446.355	521
446.426	-97
446.497	-510
446.569	-996
446.640	-662
446.711	-313
446.782	-547
446.853	-416
446.924	539
446.995	-1022
447.066	524
447.138	-792
447.209	-84
447.280	-1677
447.351	-404
447.422	-986
447.493	-727
447.564	-1299
447.635	-816
447.706	-1099
447.777	-1135
447.847	-686
447.918	-397
447.989	-422
448.060	146
448.131	-890
448.202	-409
448.273	-1032
448.344	-609
448.414	-639
448.485	108
448.556	-338
448.627	-1610
448.698	304
448.768	-614
448.839	-766
448.910	-320
448.981	-1135
449.051	-404
449.122	-1534
449.193	2
449.263	-923
449.334	-710
449.405	-417
449.475	-744
449.546	-648
449.616	-196
449.687	-380
449.758	-271
449.828	-1577
449.899	-1025
449.969	-1311
450.040	-628
450.110	-884
450.181	-245
450.251	-833
450.322	-362
450.392	-759
450.463	-350
450.533	-68
450.604	-586
450.674	-1133
450.744	41
450.815	-728
450.885	30
450.955	128
451.026	-431
451.096	-1415
451.166	433
451.237	-239
451.307	11
451.377	-634
451.447	-471
451.518	-1033
451.588	-261
451.658	-434
451.728	-360
451.799	-1272
451.869	-1280
451.939	-1031
452.009	-221
452.079	-1325
452.149	-307
452.219	-988
452.289	-549
452.360	-1385
452.430	-325
452.500	-900
452.570	547
452.640	2554
452.710	10121
452.780	9279
452.850	2956
452.920	150
452.990	272
453.060	-711
453.129	-23
453.199	-1040
453.269	157
453.339	-342
453.409	-834
453.479	-368
453.549	-155
453.619	-530
453.688	-364
453.758	-158
453.828	-824
453.898	-831
453.968	89
454.037	-1114
454.087	-936
454.107	-878
454.168	-1143
454.177	-1197
454.247	46
454.249	23
454.316	-920
454.330	-781
454.386	-269
454.411	-479
454.456	-929
454.492	-50
454.525	734
454.574	-252
454.595	-696
454.655	-483
454.665	-473
454.734	-529
454.736	-505
454.804	-39
454.817	-146
454.873	-652
454.898	-569
454.943	-482
454.979	-638
455.013	-761
455.060	-330
455.082	-180
455.141	-770
455.152	-898
455.221	170
455.222	166
455.291	-1371
455.303	-1179
455.360	-322
455.384	-559
455.430	-1093
455.465	-367
455.499	303
455.546	-181
455.569	-444
455.627	-22
455.638	55
455.707	-13
455.708	1
455.777	275
455.789	114
455.846	-816
455.869	-510
455.916	23
455.950	-73
455.985	-151
456.031	-179
456.054	-259
456.112	65
456.124	182
456.193	209
456.193	192
456.262	-82
456.274	3
456.332	444
456.355	218
456.401	-202
456.436	178
456.470	486
456.516	561
456.540	577
456.597	397
456.609	330
456.678	204
456.678	187
456.747	800
456.759	535
456.817	-422
456.840	-19
456.886	433
456.920	213
456.955	262
457.001	924
457.024	1032
457.082	579
457.093	507
457.162	963
457.163	978
457.232	632
457.243	724
457.301	1171
457.324	1090
457.370	937
457.405	1289
457.439	1710
457.485	1576
457.508	1415
457.566	1973
457.577	2247
457.646	3195
457.647	3239
457.715	10012
457.727	11290
457.784	19936
457.808	25869
457.853	30373
457.889	32703
457.922	29668
457.969	17776
457.991	19317
458.050	29699
458.060	31517
458.129	53367
458.130	53994
458.198	40891
458.211	35253
458.267	17192
458.292	10712
458.336	7963
458.372	8558
458.405	14656
458.453	24420
458.474	31546
458.533	56119
458.543	57152
458.611	77293
458.614	77539
458.680	35844
458.694	25522
458.749	10945
458.775	7604
458.818	5256
458.855	4038
458.887	3179
458.936	2758
458.955	2712
459.016	2676
459.024	2674
459.093	2436
459.097	2426
459.162	2013
459.177	2108
459.230	2624
459.257	2519
459.299	2090
459.338	2272
459.368	2573
459.418	2574
459.437	2407
459.499	2185
459.505	2229
459.574	2371
459.579	2398
459.643	2000
459.659	1898
459.711	1978
459.740	2260
459.780	2430
459.820	2256
459.849	2175
459.900	2286
459.917	2328
459.981	2062
459.986	2012
460.054	2363
460.061	2312
460.123	2003
460.141	2017
460.191	2368
460.222	2456
460.260	2113
460.302	2357
460.328	2850
460.382	2985
460.397	2818
460.462	2100
460.465	2121
460.534	3836
460.543	3942
460.602	7579
460.623	9013
460.671	12693
460.703	15872
460.739	13789
460.783	9700
460.808	7818
460.864	3277
460.876	3116
460.944	2678
460.945	2670
461.013	2975
461.024	2986
461.081	2558
461.104	2615
461.150	3087
461.184	3088
461.218	2992
461.264	2810
461.286	2622
461.345	2229
461.355	2257
461.423	2674
461.425	2667
461.491	1749
461.505	1839
461.559	2628
461.585	2615
461.628	2620
461.665	2971
461.696	3073
461.745	2728
461.764	2595
461.825	2528
461.832	2565
461.901	2531
461.905	2586
461.969	2484
461.985	2254
462.037	3255
462.065	3980
462.105	3215
462.145	2340
462.173	2561
462.225	3118
462.241	3060
462.305	2397
462.310	2397
462.378	2871
462.385	2910
462.446	3278
462.465	3418
462.514	3498
462.545	3440
462.582	3025
462.625	2631
462.650	2559
462.705	2170
462.718	2215
462.785	3242
462.786	3241
462.854	2408
462.865	2277
462.922	2633
462.945	2784
462.990	3031
463.025	3269
463.058	3253
463.104	3155
463.126	3003
463.184	2880
463.194	3016
463.262	3251
463.264	3288
463.330	3453
463.344	3352
463.398	3620
463.424	3802
463.466	3087
463.504	2343
463.533	2658
463.583	3233
463.601	3373
463.663	3922
463.669	3849
463.737	2909
463.743	2804
463.805	3524
463.823	3869
463.873	3544
463.903	3128
463.940	3123
463.982	3186
464.008	3051
464.062	2750
464.076	2808
464.142	3152
464.144	3150
464.211	2750
464.221	2707
464.279	2878
464.301	2925
464.347	2968
464.381	2949
464.414	2831
464.461	2755
464.482	2945
464.540	3419
464.550	3366
464.617	2770
464.620	2756
464.685	3841
464.699	3948
464.753	3227
464.779	3115
464.820	3480
464.859	3544
464.888	2906
464.938	2033
464.956	2593
465.018	4552
465.023	4559
465.091	4365
465.098	4336
465.158	3694
465.177	3605
465.226	3649
465.257	3435
465.293	3464
465.336	3625
465.361	3614
465.416	3575
465.428	3622
465.495	3912
465.496	3917
465.563	3386
465.575	3361
465.631	4595
465.654	5036
465.698	4516
465.734	4131
465.765	4236
465.813	4248
465.833	4088
465.893	3682
465.900	3736
465.968	4129
465.972	4146
466.035	3944
466.052	3878
466.102	3952
466.131	4023
466.170	3624
466.210	3098
466.237	3374
466.290	4018
466.304	3972
466.369	3566
466.372	3614
466.439	4850
466.449	5026
466.506	4554
466.528	4360
466.573	4566
466.607	4655
466.641	4746
466.687	4957
466.708	4904
466.766	4620
466.775	4546
466.842	3941
466.845	3903
466.909	3958
466.925	3972
466.977	4537
467.004	4813
467.044	4662
467.083	4515
467.111	4291
467.163	3805
467.178	3921
467.242	4388
467.245	4425
467.312	5045
467.321	5119
467.379	4612
467.400	4414
467.446	4543
467.480	4623
467.559	4558
467.638	4523
467.717	4897
467.796	5205
467.875	4564
467.955	4570
468.034	6725
468.113	6699
468.192	7189
468.271	8742
468.350	12842
468.429	19505
468.508	20788
468.588	12750
468.667	6331
468.746	5127
468.825	6490
468.904	5603
468.983	4290
469.062	4498
469.141	5815
469.220	4388
469.299	5193
469.378	3599
469.456	4931
469.535	4640
469.614	4096
469.693	4828
469.772	5269
469.851	6014
469.930	5020
470.009	5682
470.088	6356
470.166	6917
470.245	12105
470.324	13927
470.403	8243
470.482	5870
470.560	5675
470.639	4459
470.718	4944
470.797	4061
470.875	5175
470.954	5181
471.033	4768
471.111	4093
471.190	4856
471.269	4192
471.347	4312
471.426	4278
471.505	5164
471.583	4257
471.662	4855
471.740	4880
471.819	5545
471.898	4094
471.976	4026
472.055	3830
472.133	5043
472.212	4966
472.290	5211
472.369	3957
472.447	4583
472.526	4519
472.604	4545
472.683	4340
472.761	4978
472.839	5303
472.918	5894
472.996	3667
473.075	5148
473.153	5095
473.231	4243
473.310	5820
473.388	5656
473.466	4263
473.545	5143
473.623	5186
473.701	4675
473.780	5720
473.858	3842
473.936	5829
474.014	4922
474.093	4997
474.171	5816
474.249	6245
474.327	5625
474.405	4062
474.484	5752
474.562	4819
474.640	4947
474.718	4710
474.796	4230
474.874	5252
474.952	5565
475.030	4645
475.108	5210
475.187	5063
475.265	5366
475.343	6265
475.421	6011
475.499	4092
475.577	5217
475.655	5115
475.733	5327
475.811	4984
475.889	5068
475.966	5502
476.044	5169
476.122	4563
476.200	4918
476.278	4063
476.356	4848
476.434	4515
476.512	5914
476.590	4784
476.667	5452
476.745	4474
476.823	5863
476.901	4173
476.979	4322
477.056	4436
477.134	4323
477.212	4277
477.290	4875
477.367	3573
477.445	4958
477.523	3782
477.601	4638
477.678	4478
477.756	5994
477.834	4608
477.911	5165
477.989	5119
478.066	4532
478.144	4060
478.222	5286
478.299	4405
478.377	4858
478.454	4515
478.532	5104
478.609	4036
478.687	5035
478.764	3852
478.842	5019
478.919	4282
478.997	4558
479.074	4117
479.152	3852
479.229	4410
479.307	4378
479.384	4507
479.461	4311
479.539	3971
479.616	4532
479.694	4414
479.771	4975
479.848	4098
479.926	3356
480.003	6044
480.080	4807
480.157	4582
480.235	4548
480.312	4947
480.389	4087
480.467	4585
480.544	4592
480.621	5170
480.698	5387
480.775	4267
480.853	4419
480.930	4797
481.007	4728
481.084	4030
481.161	4440
481.238	5256
481.315	3620
481.392	3360
481.470	5419
481.547	4919
481.624	4839
481.701	4246
481.778	4558
481.855	4519
481.932	5541
482.009	5585
482.086	5258
482.163	6268
482.240	8140
482.317	6932
482.393	6489
482.470	5860
482.547	6130
482.624	5059
482.701	6062
482.778	4780
482.855	4766
482.932	5219
483.009	5425
483.085	5889
483.162	5970
483.239	8086
483.316	6326
483.393	7036
483.469	6304
483.546	4585
483.623	5134
483.699	5116
483.776	3498
483.853	4506
483.930	4310
484.006	4307
484.083	5858
484.160	5729
484.236	7229
484.313	5511
484.389	5929
484.466	6345
484.543	7832
484.619	10916
484.696	13694
484.772	7438
484.849	6954
484.925	6074
485.002	5994
485.078	6311
485.155	4341
485.231	4688
485.308	4441
485.384	4717
485.461	4806
485.537	3673
485.614	5813
485.690	5166
485.766	4839
485.843	4358
485.919	4427
485.995	5198
486.072	4445
486.148	5075
486.224	4518
486.301	5022
486.377	5288
486.453	4427
486.530	5457
486.606	6607
486.682	5065
486.758	5236
486.835	5072
486.911	3707
486.987	7029
487.063	5649
487.139	6527
487.215	5883
487.292	8817
487.368	9937
487.444	12537
487.520	16270
487.596	23010
487.672	63332
487.748	209522
487.824	294951
487.900	73599
487.976	19280
488.052	11994
488.128	8686
488.204	7098
488.280	7534
488.356	6607
488.432	6290
488.508	6426
488.584	5765
488.660	5376
488.736	4922
488.812	4753
488.888	4981
488.964	5179
489.039	4845
489.115	6173
489.191	5878
489.267	5256
489.343	3622
489.418	4825
489.494	4884
489.570	3902
489.646	6489
489.722	4232
489.797	4706
489.873	4721
489.949	5897
490.024	5204
490.100	4989
490.176	4831
490.251	5251
490.327	5063
490.403	5033
490.478	5391
490.554	5006
490.629	5438
490.705	4589
490.781	4777
490.856	4290
490.932	5134
491.007	4758
491.083	4346
491.158	4981
491.234	4349
491.309	5439
491.385	4637
491.460	4649
491.536	5147
491.611	4014
491.686	5445
491.762	4493
491.837	5015
491.913	5584
491.988	5425
492.063	5253
492.139	5655
492.214	4356
492.289	5524
492.365	3513
492.440	5400
492.515	4369
492.590	4378
492.666	4792
492.741	5573
492.816	4450
492.891	4464
492.967	4412
493.042	5313
493.117	3395
493.192	5049
493.267	5526
493.342	6537
493.418	6681
493.493	5424
493.568	5342
493.643	4749
493.718	5311
493.793	4884
493.868	5140
493.943	5126
494.018	5013
494.093	4797
494.168	6012
494.243	5304
494.318	5591
494.393	6359
494.468	4819
494.543	6459
494.618	5040
494.693	5582
494.768	6180
494.842	5944
494.917	6202
494.992	5593
495.067	5623
495.142	5243
495.217	5324
495.292	6295
495.366	5232
495.441	5123
495.516	6032
495.591	6662
495.665	5962
495.740	7400
495.815	5691
495.890	5812
495.964	3945
496.039	8158
496.114	7098
496.188	7705
496.263	7458
496.338	6952
496.412	4718
496.487	6871
496.561	5825
496.636	5864
496.710	6108
496.785	6652
496.860	5618
496.934	5799
497.009	6236
497.083	5468
497.158	5930
497.232	7163
497.307	8090
497.381	8155
497.455	7928
497.530	5429
497.604	5688
497.679	5822
497.753	5903
497.827	5857
497.902	5397
497.976	6223
498.050	7174
498.125	10688
498.199	10050
498.273	7123
498.348	7052
498.422	8746
498.496	8919
498.570	9800
498.645	6397
498.719	4181
498.793	5172
498.867	5042
498.941	4297
499.016	6650
499.090	8286
499.164	7120
499.238	6986
499.312	6009
499.386	7027
499.460	7408
499.534	8888
499.609	10745
499.683	7122
499.757	5084
499.831	4942
499.905	6938
499.979	5503
500.053	4729
500.127	4935
500.201	5631
500.275	6152
500.349	6351
500.422	6519
500.496	8630
500.570	9489
500.644	14249
500.718	13161
500.792	5908
500.866	4431
500.940	3754
501.013	3488
501.087	3661
501.161	3638
501.235	1871
501.309	6093
501.382	5151
501.456	6042
501.530	5085
501.603	2570
501.677	4346
501.751	3120
501.825	4707
501.898	3830
501.972	3619
502.046	3493
502.119	2709
502.193	3679
502.266	4569
502.340	3870
502.413	3654
502.487	3619
502.561	2602
502.634	3725
502.708	3919
502.781	2957
502.855	4252
502.928	2577
503.002	4972
503.075	3094
503.149	4469
503.222	4450
503.295	3565
503.369	4550
503.442	4156
503.516	5197
503.589	6130
503.662	6109
503.736	6784
503.809	9833
503.882	10855
503.956	16030
504.029	36656
504.102	118621
504.175	164071
504.249	47472
504.322	15627
504.395	8938
504.468	6576
504.542	4975
504.615	4030
504.688	5171
504.761	2929
504.834	5623
504.907	3760
504.980	3986
505.053	3371
505.127	761
505.200	5873
505.273	2248
505.346	3066
505.419	2378
505.492	4819
505.565	3131
505.638	3652
505.711	3007
505.784	2480
505.857	2661
505.930	4867
506.003	1586
506.076	5293
506.149	1881
506.221	1057
506.294	4260
506.367	2217
506.440	2758
506.513	4406
506.586	2962
506.659	1979
506.731	3438
506.804	2118
506.877	1658
506.950	3268
507.022	3232
507.095	1996
507.168	3298
507.241	4019
507.313	1883
507.386	2392
507.459	3544
507.531	2463
507.604	2525
507.677	3971
507.749	1687
507.822	4100
507.894	2622
507.967	3949
508.040	2658
508.112	2633
508.185	3132
508.257	1870
508.330	4673
508.402	2821
508.475	3082
508.547	3291
508.620	2705
508.692	2731
508.765	3381
508.837	2068
508.909	3082
508.982	2043
509.054	3486
509.127	2871
509.199	1566
509.271	1956
509.344	3275
509.416	2922
509.488	2162
509.560	3457
509.633	2401
509.705	2772
509.777	2354
509.849	3381
509.922	1767
509.994	2656
510.066	3931
510.138	959
510.210	4669
510.283	2350
510.355	3033
510.427	3816
510.499	2254
510.571	3347
510.643	1759
510.715	4478
510.787	918
510.859	5245
510.931	3205
511.003	2917
511.076	3647
511.148	2345
511.219	1802
511.291	3885
511.363	3320
511.435	3095
511.507	1852
511.579	3851
511.651	3559
511.723	3277
511.795	2682
511.867	1786
511.939	2329
512.010	2226
512.082	3803
512.154	2225
512.226	2514
512.298	3905
512.369	2118
512.441	4373
512.513	3296
512.585	1836
512.656	3871
512.728	2995
512.800	2002
512.871	3541
512.943	2754
513.015	1200
513.086	2922
513.158	2972
513.230	1699
513.301	2200
513.373	3710
513.444	2890
513.516	2699
513.588	2551
513.659	3456
513.731	2945
513.802	1565
513.874	4777
513.945	3164
514.016	1952
514.088	3476
514.159	2499
514.231	3153
514.302	3406
514.374	3479
514.445	1875
514.516	4426
514.588	2711
514.659	3282
514.730	1923
514.802	3682
514.873	1355
514.944	5763
515.016	3306
515.087	2632
515.158	3096
515.229	3615
515.301	2289
515.372	4107
515.443	3222
515.514	2906
515.585	1952
515.656	4396
515.728	4766
515.799	2562
515.870	4191
515.941	4243
516.012	2823
516.083	5195
516.154	3797
516.225	5448
516.296	7776
516.367	5820
516.438	8152
516.509	10431
516.580	18407
516.651	69444
516.722	215102
516.793	65754
516.864	13992
516.935	13810
517.006	17574
517.077	22500
517.148	55490
517.219	274883
517.289	348023
517.360	41801
517.431	13860
517.502	7830
517.573	9084
517.643	7973
517.714	7015
517.785	8840
517.856	9138
517.926	12548
517.997	15221
518.068	17554
518.138	26498
518.209	43425
518.280	177042
518.350	552486
518.421	179195
518.492	30863
518.562	20855
518.633	23183
518.703	29069
518.774	73204
518.845	209952
518.915	178420
518.986	40242
519.056	16566
519.127	11874
519.197	8602
519.268	6578
519.338	7427
519.408	4252
519.479	4088
519.549	3904
519.620	6427
519.690	3781
519.760	3789
519.831	3983
519.901	3031
519.971	3943
520.042	2920
520.112	2306
520.182	3971
520.253	4075
520.323	1934
520.393	1924
520.463	5278
520.534	981
520.604	5283
520.674	4055
520.744	2703
520.814	2505
520.885	4100
520.955	3203
521.025	4027
521.095	3446
521.165	4516
521.235	2368
521.305	1798
521.375	3191
521.445	3701
521.515	2243
521.585	4016
521.655	1058
521.725	3649
521.795	4666
521.865	1403
521.935	6242
522.005	2346
522.075	2932
522.145	4564
522.215	1722
522.285	3427
522.355	2423
522.424	4614
522.494	2071
522.564	2883
522.634	2477
522.704	4388
522.774	2826
522.843	3103
522.913	3648
522.983	2972
523.053	2104
523.122	4596
523.192	3448
523.262	2453
523.331	2811
523.401	4678
523.471	3892
523.540	3775
523.610	2474
523.680	3519
523.749	3265
523.819	4152
523.888	2692
523.958	3493
524.027	3707
524.097	4149
524.166	3850
524.236	2724
524.305	5450
524.375	2229
524.444	2345
524.514	5903
524.583	2998
524.653	1585
524.722	4319
524.791	2000
524.861	5094
524.930	3199
524.999	2530
525.069	4515
525.138	4029
525.207	3454
525.277	5039
525.346	3505
525.415	6602
525.484	4991
525.554	5400
525.623	8758
525.692	9990
525.761	13034
525.830	15746
525.900	19504
525.969	32530
526.038	61484
526.107	136962
526.176	374849
526.245	259835
526.314	73631
526.383	190816
526.452	229923
526.522	358625
526.591	278664
526.660	41331
526.729	26629
526.797	30371
526.867	43113
526.935	138377
527.004	521087
527.073	274992
527.142	34011
527.211	15464
527.280	10611
527.349	8067
527.418	5745
527.487	7929
527.555	5127
527.624	4189
527.693	3820
527.762	5688
527.831	3510
527.899	5648
527.968	4947
528.037	1937
528.106	5207
528.174	4413
528.243	4923
528.312	3190
528.380	3771
528.449	3157
528.518	5633
528.586	2364
528.655	4457
528.723	4630
528.792	3700
528.861	3449
528.929	1836
528.998	4249
529.066	3269
529.135	4365
529.203	2760
529.272	3814
529.340	4780
529.409	5891
529.477	2826
529.545	2654
529.614	6228
529.682	2407
529.751	4093
529.819	7406
529.887	4469
529.956	4097
530.024	6344
530.092	3966
530.161	5749
530.229	3936
530.297	4203
530.365	4943
530.434	4651
530.502	3440
530.570	5693
530.638	3712
530.707	4628
530.775	6156
530.843	4020
530.911	5688
530.979	5195
531.047	4269
531.115	5408
531.183	5392
531.252	5774
531.320	4859
531.388	3717
531.456	6081
531.524	3389
531.592	5878
531.660	7531
531.728	4999
531.796	4646
531.864	5289
531.932	5144
532.000	4726
532.067	5131
532.135	5354
532.203	7311
532.271	5772
532.339	7001
532.407	6933
532.475	6954
532.542	7262
532.610	6689
532.678	5238
532.746	9022
532.814	10162
532.881	6632
532.949	8306
533.017	7153
533.084	6992
533.152	5697
533.220	6151
533.287	5235
533.355	6595
533.423	6794
533.490	6181
533.558	7047
533.625	7277
533.693	5788
533.761	7458
533.828	7030
533.896	5587
533.963	7903
534.031	7220
534.098	10377
534.166	11383
534.233	10457
534.300	12936
534.368	11515
534.435	10985
534.503	12174
534.570	13519
534.637	14520
534.705	16769
534.772	20208
534.840	37123
534.907	170586
534.974	177031
535.041	23471
535.109	12960
535.176	10926
535.243	11668
535.310	10716
535.378	9990
535.445	10028
535.512	10851
535.579	11021
535.646	10845
535.714	11104
535.781	12172
535.848	11971
535.915	11611
535.982	10615
536.049	10293
536.116	11770
536.183	11076
536.250	10140
536.317	10922
536.384	11586
536.451	12336
536.518	12405
536.585	10489
536.652	12710
536.719	12390
536.786	9673
536.853	11729
536.920	12915
536.987	11404
537.053	10260
537.120	13632
537.187	13574
537.254	12952
537.321	12135
537.388	13368
537.454	11906
537.521	12799
537.588	12482
537.654	12504
537.721	12528
537.788	14901
537.855	13155
537.921	13645
537.988	11460
538.055	12284
538.121	10715
538.188	10128
538.254	10603
538.321	11726
538.388	12612
538.454	14230
538.521	14030
538.587	12882
538.654	12653
538.720	11881
538.787	13258
538.853	14163
538.920	12077
538.986	11471
539.053	11639
539.119	12757
539.185	12120
539.252	14030
539.318	13314
539.385	16080
539.451	12360
539.517	13202
539.583	13743
539.650	12349
539.716	12064
539.782	12014
539.849	11463
539.915	13150
539.981	11549
540.047	12229
540.114	11484
540.180	14268
540.246	12705
540.312	14473
540.378	13259
540.444	14388
540.510	14413
540.576	14575
540.643	12894
540.709	11342
540.775	12424
540.841	12911
540.907	12411
540.973	14049
541.039	13072
541.105	12956
541.171	14303
541.237	14258
541.303	13699
541.369	16327
541.435	12892
541.500	13665
541.566	11507
541.632	12612
541.698	12347
541.764	14180
541.830	12316
541.896	12644
541.961	13593
542.027	12315
542.093	14925
542.159	14344
542.224	11840
542.290	14134
542.356	12392
542.421	12818
542.487	13016
542.553	11394
542.618	12267
542.684	11675
542.750	12372
542.815	14345
542.881	12619
542.947	14617
543.012	14401
543.078	12083
543.143	11641
543.209	12112
543.274	12077
543.340	11798
543.405	12010
543.471	12842
543.536	13200
543.602	14310
543.667	12162
543.732	14722
543.798	12649
543.863	14115
543.928	14031
543.994	13255
544.059	13120
544.124	14714
544.190	14277
544.255	14793
544.320	15445
544.386	13848
544.451	16021
544.516	14489
544.581	14681
544.646	13938
544.712	16335
544.777	15462
544.842	15007
544.907	15278
544.972	15635
545.037	16357
545.102	16701
545.168	16255
545.233	17330
545.298	18432
545.363	16144
545.428	17703
545.493	19344
545.558	17620
545.623	18473
545.688	17282
545.753	20004
545.818	19734
545.883	21043
545.947	21289
546.012	22752
546.077	21472
546.142	24667
546.207	24488
546.272	26298
546.337	25578
546.401	28180
546.466	29695
546.531	29074
546.596	32941
546.661	33514
546.725	36496
546.790	37904
546.855	42132
546.919	45499
546.984	52393
547.049	55165
547.113	62301
547.178	70341
547.243	79194
547.307	92004
547.372	102930
547.436	101811
547.501	107560
547.565	116927
547.630	105943
547.695	101103
547.759	103112
547.823	103417
547.888	105996
547.952	109701
548.017	113010
548.081	113944
548.146	112443
548.210	116816
548.274	128541
548.339	125254
548.403	112514
548.468	105270
548.532	105021
548.596	107719
548.660	107680
548.725	118756
548.789	128196
548.853	123702
548.917	120761
548.982	113942
549.046	104511
549.110	94458
549.174	97598
549.238	113371
549.303	126344
549.367	128974
549.431	120688
549.495	114629
549.559	115239
549.623	134909
549.687	145536
549.751	141254
549.815	170333
549.879	171282
549.943	165764
550.007	173266
550.071	169449
550.135	152584
550.199	148172
550.263	144371
550.327	136306
550.391	138433
550.455	156140
550.519	161646
550.582	171249
550.646	192883
550.710	194899
550.774	190683
550.838	194018
550.901	197192
550.965	209864
551.029	214712
551.093	226652
551.156	235684
551.220	249027
551.284	269197
551.347	224049
551.411	201328
551.475	199520
551.538	208039
551.602	195169
551.666	186035
551.729	176335
551.793	173624
551.856	170534
551.920	169093
551.983	168969
552.047	166420
552.110	167716
552.174	166937
552.237	171462
552.301	160418
552.364	153498
552.428	148539
552.491	154139
552.554	158201
552.618	156272
552.681	160496
552.745	155580
552.808	165390
552.871	175748
552.934	163493
552.998	158746
553.061	154546
553.124	148165
553.187	146908
553.251	151746
553.314	152515
553.377	154220
553.440	162383
553.503	166118
553.567	164863
553.630	166937
553.693	165875
553.756	167660
553.819	162840
553.882	157182
553.945	158684
554.008	159476
554.071	160950
554.134	162326
554.197	154695
554.260	152265
554.323	154930
554.386	155591
554.449	160743
554.512	160541
554.575	152433
554.638	151319
554.701	150641
554.764	148991
554.827	143496
554.889	139666
554.952	131798
555.015	129525
555.078	132894
555.141	133438
555.203	130756
555.266	131336
555.329	129939
555.391	125069
555.454	121841
555.517	118409
555.580	111720
555.642	108468
555.705	107595
555.768	105819
555.830	104449
555.893	98650
555.955	96609
556.018	94223
556.080	95293
556.143	97311
556.206	95698
556.268	93016
556.330	89742
556.393	87180
556.455	84667
556.518	82813
556.580	81010
556.643	77703
556.705	76564
556.767	74632
556.830	74846
556.892	71911
556.955	70206
557.017	67950
557.079	67771
557.142	65202
557.204	63978
557.266	63712
557.328	58863
557.391	57339
557.453	54914
557.515	55273
557.577	55914
557.639	54820
557.701	53906
557.764	53265
557.826	54800
557.888	55596
557.950	55111
558.012	59045
558.074	70536
558.136	133873
558.198	253242
558.260	93618
558.322	53933
558.384	53649
558.446	55461
558.508	58193
558.570	62595
558.632	68728
558.694	80888
558.756	128610
558.818	336649
558.880	617349
558.942	244804
559.003	264179
559.065	121110
559.127	60966
559.189	57085
559.251	63543
559.312	86007
559.374	189234
559.436	484257
559.498	215575
559.559	61766
559.621	56381
559.683	63267
559.744	97800
559.806	281708
559.868	343303
559.929	79277
559.991	60798
560.052	96432
560.114	243326
560.176	140590
560.237	149966
560.299	203579
560.360	47145
560.422	27810
560.483	25941
560.545	24523
560.606	23894
560.667	23926
560.729	22992
560.790	20279
560.852	21959
560.913	20857
560.974	19829
561.036	20221
561.097	19937
561.158	19958
561.220	18897
561.281	17216
561.342	18301
561.403	17602
561.465	17724
561.526	18061
561.587	17879
561.648	16434
561.709	17128
561.771	17153
561.832	16335
561.893	15519
561.954	15983
562.015	14952
562.076	14616
562.137	15010
562.198	14536
562.259	14726
562.320	14205
562.381	15169
562.442	14763
562.503	14084
562.564	14295
562.625	14262
562.686	14642
562.747	13626
562.808	13721
562.869	13331
562.930	12808
562.991	13373
563.051	13452
563.112	12617
563.173	12524
563.234	12240
563.294	12695
563.355	11644
563.416	13002
563.477	11478
563.537	11423
563.598	11523
563.659	12964
563.720	11026
563.780	12012
563.841	11546
563.901	11787
563.962	12050
564.023	12485
564.083	11272
564.144	11464
564.204	11618
564.265	10977
564.325	11917
564.386	10790
564.446	11056
564.507	10636
564.567	10721
564.628	11255
564.688	10721
564.749	10731
564.809	11232
564.869	11224
564.930	9628
564.990	12097
565.050	9794
565.111	11706
565.171	10887
565.231	10932
565.292	11101
565.352	10444
565.412	10842
565.472	10587
565.532	11306
565.593	10514
565.653	10132
565.713	10519
565.773	10414
565.833	11268
565.893	12042
565.953	9964
566.013	10296
566.074	10757
566.134	10320
566.194	10622
566.254	9906
566.314	9772
566.374	8351
566.434	9729
566.494	9359
566.554	10545
566.614	9854
566.673	11062
566.733	10601
566.793	9843
566.853	9985
566.913	10909
566.973	10590
567.033	9974
567.092	10027
567.152	10515
567.212	10568
567.272	9917
567.331	10391
567.391	10890
567.451	11987
567.511	10511
567.570	10854
567.630	11743
567.690	9708
567.749	9890
567.809	10914
567.868	9145
567.928	9252
567.988	10108
568.047	10123
568.107	10404
568.166	9372
568.226	10209
568.285	10720
568.345	11182
568.404	11323
568.464	10636
568.523	10015
568.582	9535
568.642	9911
568.701	9697
568.761	9235
568.820	10451
568.879	9755
568.939	10049
568.998	10210
569.057	11013
569.116	10048
569.176	9666
569.235	10147
569.294	10073
569.353	8939
569.413	9695
569.472	10145
569.531	9611
569.590	8897
569.649	9823
569.708	9283
569.767	9815
569.827	9434
569.886	9753
569.945	9490
570.004	9581
570.063	9647
570.122	9373
570.181	10001
570.240	10199
570.299	9892
570.358	10615
570.417	10748
570.475	10743
570.534	11519
570.593	10542
570.652	11556
570.711	10295
570.770	10541
570.829	10375
570.887	10911
570.946	10881
571.005	10297
571.064	9951
571.122	11438
571.181	9713
571.240	8480
571.299	9280
571.357	10403
571.416	9576
571.475	9853
571.533	10669
571.592	10306
571.650	10523
571.709	10700
571.768	11660
571.826	10871
571.885	11311
571.943	9172
572.002	9787
572.060	9862
572.119	9572
572.177	9427
572.236	10683
572.294	10671
572.352	10819
572.411	10972
572.469	10089
572.528	10306
572.586	9473
572.644	9587
572.703	9361
572.761	8970
572.819	9681
572.877	8531
572.936	8655
572.994	9190
573.052	8479
573.110	8193
573.169	9064
573.227	9121
573.285	9317
573.343	8754
573.401	8917
573.459	8921
573.517	8864
573.576	9218
573.634	8475
573.692	8892
573.750	7895
573.808	7832
573.866	7716
573.924	8105
573.982	8770
574.040	8056
574.098	8841
574.155	8047
574.213	9184
574.271	7310
574.329	8711
574.387	7247
574.445	7513
574.503	7165
574.560	7207
574.618	7015
574.676	7873
574.734	7243
574.792	7281
574.849	6832
574.907	6735
574.965	6769
575.022	6040
575.080	5522
575.138	6687
575.195	6567
575.253	6085
575.311	6061
575.368	6117
575.426	5910
575.483	7443
575.541	6828
575.598	6341
575.656	5882
575.713	5784
575.771	6969
575.828	5873
575.886	6975
575.943	6139
576.001	5895
576.058	5987
576.115	5576
576.173	5795
576.230	6031
576.287	6131
576.345	5978
576.402	6517
576.459	5710
576.517	5892
576.574	6181
576.631	6079
576.688	6184
576.746	5609
576.803	5842
576.860	5296
576.917	6404
576.974	6051
577.031	6735
577.089	5620
577.146	5210
577.203	5493
577.260	5671
577.317	5387
577.374	4878
577.431	6029
577.488	5153
577.545	5114
577.602	5474
577.659	6055
577.716	5952
577.773	5489
577.830	5019
577.886	6356
577.943	5225
578.000	5007
578.057	4350
578.114	5275
578.171	4472
578.227	5574
578.284	5504
578.341	5381
578.398	6252
578.454	4815
578.511	5452
578.568	5526
578.625	5228
578.681	5267
578.738	5105
578.794	6355
578.851	5338
578.908	5665
578.964	4779
579.021	5168
579.077	5305
579.134	5553
579.190	5433
579.247	5065
579.303	5253
579.360	4793
579.416	5918
579.473	5823
579.529	5848
579.586	5416
579.642	5699
579.698	5596
579.755	5680
579.811	5383
579.867	5632
579.924	5110
579.980	5096
580.036	6188
580.093	5900
580.149	6245
580.205	5655
580.261	5881
580.317	7047
580.374	6171
580.430	6222
580.486	6395
580.542	6279
580.598	5829
580.619	5796
580.654	5745
580.692	5696
580.710	5681
580.765	5664
580.767	5671
580.823	5946
580.838	5937
580.879	5927
580.911	6333
580.935	6638
580.984	5714
580.991	5597
581.047	5741
581.057	5866
581.103	6472
581.130	6093
581.159	5677
581.203	5366
581.215	5303
581.270	5693
581.276	5702
581.326	5796
581.349	5774
581.382	5776
581.422	5648
581.438	5589
581.494	5834
581.494	5824
581.550	5420
581.567	5469
581.606	5559
581.640	5217
581.661	5006
581.713	6389
581.717	6504
581.773	6142
581.786	6015
581.829	5626
581.859	5315
581.885	5053
581.932	5175
581.940	5208
581.996	5986
582.004	5941
582.052	5621
582.077	5317
582.107	5050
582.150	5432
582.163	5515
582.219	4704
582.223	4784
582.274	5898
582.296	5655
582.330	5191
582.368	5674
582.386	5970
582.441	5730
582.441	5730
582.497	5305
582.514	5304
582.552	5574
582.587	5565
582.608	5469
582.659	5115
582.663	5097
582.719	5967
582.732	5827
582.774	5360
582.805	5093
582.830	4930
582.877	5146
582.885	5161
582.941	5458
582.950	5490
582.996	5511
583.023	5440
583.052	5575
583.095	5394
583.107	5335
583.162	6197
583.168	6180
583.218	5788
583.240	5695
583.273	5664
583.313	5019
583.328	4739
583.384	5415
583.385	5387
583.439	4701
583.458	4772
583.494	4840
583.531	5135
583.549	5369
583.603	4990
583.605	4965
583.660	5132
583.676	5370
583.715	6106
583.748	5595
583.770	5361
583.820	6166
583.825	6209
583.881	5908
583.893	5786
583.936	5496
583.965	5208
583.991	4938
584.038	5124
584.046	5170
584.101	4960
584.110	5093
584.156	5662
584.183	5424
584.211	5113
584.255	5378
584.266	5479
584.321	5139
584.328	5189
584.376	5603
584.400	5615
584.431	5682
584.472	5772
584.486	5719
584.541	5952
584.545	5933
584.596	5792
584.617	5724
584.651	5758
584.689	6424
584.706	6513
584.761	6076
584.762	6075
584.816	6435
584.834	6794
584.871	7291
584.906	7382
584.926	7408
584.978	7741
584.980	7757
585.035	8236
585.051	8459
585.090	9129
585.123	9762
585.145	10153
585.195	10388
585.200	10440
585.254	12398
585.267	12969
585.309	14546
585.340	15194
585.364	15919
585.412	18502
585.419	18924
585.473	23860
585.484	25223
585.528	32024
585.556	40268
585.583	54197
585.628	89649
585.637	100675
585.692	208982
585.700	224066
585.747	270167
585.772	212946
585.801	122115
585.845	44221
585.856	33853
585.910	19164
585.917	17901
585.965	13978
585.989	12764
586.019	11978
586.061	11655
586.074	11497
586.128	11101
586.133	10995
586.183	9941
586.205	9806
586.237	9711
586.277	9444
586.292	9429
586.346	10309
586.349	10320
586.401	9899
586.421	9721
586.455	9682
586.493	10476
586.509	10742
586.564	9975
586.565	9987
586.618	10666
586.637	11069
586.672	12256
586.709	13741
586.727	14196
586.781	15248
586.781	15239
586.835	11873
586.853	11522
586.889	10996
586.925	10740
586.944	10681
586.996	10386
586.998	10374
587.052	9831
587.068	9819
587.106	10171
587.140	10579
587.161	10723
587.212	10876
587.215	10867
587.269	10589
587.284	10677
587.323	11089
587.356	11316
587.377	11419
587.427	11729
587.431	11727
587.485	11848
587.499	11860
587.539	12665
587.571	13122
587.593	13083
587.643	13789
587.648	13846
587.702	13384
587.715	13464
587.755	13897
587.786	14464
587.810	14488
587.858	13817
587.864	13833
587.917	14298
587.930	14353
587.971	13865
588.001	13722
588.025	13828
588.073	14137
588.079	14183
588.133	14368
588.145	14484
588.187	14368
588.217	14145
588.241	14331
588.288	15021
588.295	15029
588.348	15248
588.360	15219
588.402	15162
588.431	14997
588.456	15057
588.503	16088
588.510	16160
588.564	16677
588.575	16738
588.617	17485
588.646	18181
588.671	18725
588.718	20151
588.725	20458
588.778	23922
588.789	25005
588.832	34046
588.861	41777
588.886	58217
588.932	99609
588.939	103259
588.993	125590
589.004	121590
589.047	61638
589.075	32649
589.100	25533
589.147	19077
589.154	18825
589.207	17458
589.218	17356
589.261	17958
589.290	18496
589.314	18905
589.361	19757
589.368	20220
589.421	25904
589.433	27439
589.475	43742
589.504	58289
589.528	74390
589.576	109413
589.582	106684
589.635	51252
589.647	41605
589.689	25099
589.718	17343
589.742	16472
589.790	14935
589.795	14893
589.849	14881
589.861	14926
589.902	14698
589.932	14448
589.955	14304
590.004	14434
590.009	14512
590.062	15121
590.075	15304
590.115	14609
590.146	14192
590.168	14333
590.218	14446
590.222	14427
590.275	14680
590.289	14685
590.328	15091
590.360	15543
590.381	15705
590.431	16169
590.435	16141
590.488	15523
590.503	15434
590.541	15799
590.574	16218
590.594	16192
590.645	16090
590.647	16105
590.700	16947
590.716	17227
590.753	17667
590.787	18227
590.806	18279
590.859	18309
590.859	18299
590.912	18987
590.930	19182
590.965	18876
591.001	18808
591.018	18624
591.071	17867
591.072	17882
591.124	18029
591.143	18123
591.177	18292
591.214	18499
591.230	18663
591.283	19424
591.285	19468
591.336	19329
591.356	19273
591.389	19216
591.427	19116
591.442	18911
591.495	18287
591.498	18264
591.547	18554
591.569	18721
591.600	18741
591.640	18739
591.653	18803
591.706	19300
591.711	19364
591.759	19071
591.782	19000
591.811	19976
591.853	21444
591.864	21418
591.917	21392
591.924	21395
591.969	20966
591.995	20771
592.022	20864
592.066	21159
592.075	21277
592.127	22106
592.137	22286
592.180	22265
592.208	22281
592.233	22585
592.279	23316
592.285	23416
592.338	24446
592.350	24707
592.390	23983
592.421	23502
592.443	23771
592.491	24474
592.495	24471
592.548	24903
592.562	25059
592.600	24914
592.633	24847
592.653	24503
592.704	23575
592.705	23746
592.775	25717
592.846	24950
592.916	25858
592.987	27219
593.058	27249
593.128	27401
593.199	27318
593.270	27007
593.341	27646
593.411	28926
593.482	29769
593.553	31754
593.623	31754
593.694	32040
593.764	32632
593.835	31527
593.906	33011
593.976	32873
594.047	33675
594.117	36299
594.188	35993
594.258	36674
594.329	36901
594.399	37159
594.470	38014
594.540	40521
594.611	42165
594.681	39882
594.751	40863
594.822	43173
594.892	43855
594.963	45773
595.033	45796
595.103	48153
595.174	48358
595.244	48812
595.314	51064
595.384	52854
595.455	53993
595.525	55102
595.595	57620
595.665	57839
595.736	55992
595.806	57722
595.876	57944
595.946	57841
596.016	61226
596.087	62573
596.157	63076
596.227	63337
596.297	67270
596.367	70405
596.437	74985
596.507	74289
596.577	75137
596.647	77943
596.717	81515
596.787	82955
596.857	81941
596.927	83143
596.997	84311
597.067	84847
597.137	86474
597.207	85657
597.277	86422
597.347	83579
597.417	79591
597.487	81084
597.557	83204
597.626	85030
597.696	86195
597.766	84746
597.836	79543
597.906	76116
597.975	75258
598.045	74684
598.115	80368
598.185	85915
598.254	98254
598.324	104157
598.394	105744
598.464	100817
598.533	98620
598.603	92927
598.672	91665
598.742	92939
598.812	93523
598.881	96070
598.951	94642
599.020	96947
599.090	101117
599.159	101524
599.229	96981
599.299	95329
599.368	98411
599.437	96754
599.507	88436
599.576	85264
599.646	83698
599.715	84082
599.785	81960
599.854	79742
599.924	79269
599.993	77726
600.062	80557
600.132	82354
600.201	87390
600.270	101518
600.340	107180
600.409	104368
600.478	104203
600.547	106631
600.617	94359
600.686	74471
600.755	67626
600.824	65049
600.894	62479
600.963	63254
601.032	62437
601.101	59774
601.170	56892
601.239	55449
601.308	55602
601.378	54805
601.447	55737
601.516	55543
601.585	57761
601.654	55764
601.723	56862
601.792	59400
601.861	60986
601.930	63037
601.999	63925
602.068	63098
602.137	64007
602.206	65115
602.275	65729
602.343	65917
602.412	68338
602.481	67277
602.550	68426
602.619	71212
602.688	71840
602.756	70793
602.825	73116
602.894	74148
602.963	75664
603.032	76958
603.100	77278
603.169	77292
603.238	77631
603.307	79210
603.375	79644
603.444	81186
603.513	83547
603.581	83437
603.650	84292
603.719	83729
603.787	86731
603.856	89219
603.924	91347
603.993	93455
604.061	97769
604.130	102725
604.198	104535
604.267	104848
604.335	107660
604.404	110645
604.472	112095
604.541	111849
604.609	112282
604.678	111819
604.746	114571
604.815	116967
604.883	118784
604.951	119794
605.020	120985
605.088	122526
605.156	127454
605.225	128005
605.293	127978
605.361	127532
605.429	129230
605.498	133001
605.566	135962
605.634	143811
605.702	148192
605.771	153078
605.839	153023
605.907	149019
605.975	144281
606.043	141976
606.111	140731
606.180	142645
606.248	141094
606.316	138658
606.384	136897
606.452	141404
606.520	142954
606.588	150713
606.656	150172
606.724	146567
606.792	138960
606.860	125087
606.928	114261
606.996	110600
607.064	107942
607.132	110320
607.200	119321
607.267	122401
607.335	124518
607.403	127674
607.471	121367
607.539	119406
607.607	118824
607.674	104731
607.742	104882
607.810	103546
607.878	104502
607.946	106489
608.013	112432
608.081	113431
608.149	114818
608.216	119660
608.284	123965
608.352	124266
608.419	121880
608.487	118755
608.555	117461
608.622	122282
608.690	129529
608.757	142100
608.825	145292
608.893	141588
608.960	130442
609.028	126053
609.095	128136
609.163	125205
609.230	112944
609.298	104177
609.365	110049
609.432	119500
609.500	130336
609.567	148692
609.635	168071
609.702	174061
609.769	164106
609.837	125835
609.904	111786
609.971	112195
610.039	121195
610.106	140317
610.173	220612
610.241	399978
610.308	225512
610.375	128334
610.442	118244
610.509	114330
610.577	115550
610.644	119428
610.711	121045
610.778	125856
610.845	130232
610.912	138921
610.980	143817
611.047	144168
611.114	141483
611.181	137064
611.248	137884
611.315	145475
611.382	147693
611.449	153436
611.516	156586
611.583	153162
611.650	153897
611.717	155630
611.784	156745
611.851	160125
611.918	165514
611.984	181793
612.051	222352
612.118	340549
612.185	611729
612.252	389007
612.319	204320
612.386	190611
612.452	176481
612.519	171109
612.586	169894
612.653	172470
612.719	180376
612.786	173677
612.853	161165
612.919	160385
612.986	162737
613.053	152142
613.120	143939
613.186	138495
613.253	142417
613.319	139833
613.386	142680
613.453	143965
613.519	143433
613.586	141584
613.652	143992
613.719	142584
613.785	146665
613.852	145341
613.918	143724
613.985	146172
614.051	149299
614.118	149784
614.184	143545
614.250	145494
614.317	146761
614.383	145478
614.449	149258
614.516	148468
614.582	147876
614.648	145143
614.715	145085
614.781	140937
614.847	141925
614.914	141301
614.980	137198
615.046	139041
615.112	143453
615.179	141166
615.245	144055
615.311	140824
615.377	143608
615.443	144124
615.509	147068
615.575	149193
615.642	147821
615.708	151312
615.774	155853
615.840	160724
615.906	166934
615.972	182410
616.038	231794
616.104	383486
616.170	666967
616.236	509776
616.302	239078
616.368	210585
616.434	170947
616.500	165647
616.565	178994
616.631	202791
616.697	175664
616.763	183564
616.829	244366
616.895	367860
616.961	317762
617.026	175676
617.092	150593
617.158	147493
617.224	146380
617.289	137150
617.355	132512
617.421	130010
617.487	132576
617.552	124727
617.618	124647
617.684	124159
617.749	127400
617.815	121011
617.880	120539
617.946	118572
618.012	122035
618.077	124201
618.143	119391
618.208	121221
618.274	129471
618.339	127209
618.405	106694
618.470	109393
618.536	107703
618.601	108034
618.667	99496
618.732	97052
618.798	93729
618.863	94241
618.928	92646
618.994	94176
619.059	93709
619.124	93690
619.190	93895
619.255	92513
619.320	94782
619.386	95561
619.451	92048
619.516	90105
619.581	90761
619.647	95281
619.712	95506
619.777	91113
619.842	91867
619.907	92895
619.972	94584
620.038	94307
620.103	92205
620.168	91670
620.233	95501
620.298	93438
620.363	95306
620.428	97856
620.493	100432
620.558	101057
620.623	103675
620.688	101479
620.753	100082
620.818	102901
620.883	103125
620.948	102366
621.013	101624
621.078	100150
621.143	100799
621.207	103099
621.272	99330
621.337	96950
621.402	97075
621.467	94449
621.532	96330
621.596	96165
621.661	93104
621.726	93142
621.791	93782
621.855	93778
621.920	93520
621.985	95324
622.049	97951
622.114	95988
622.179	99159
622.243	99909
622.308	102822
622.373	108219
622.437	103845
622.502	97984
622.566	97825
622.631	97594
622.695	100560
622.760	98546
622.824	97930
622.889	98694
622.953	98376
623.018	106419
623.082	105217
623.147	103677
623.211	102371
623.276	102021
623.340	97842
623.404	95629
623.469	95979
623.533	96257
623.597	95395
623.662	95023
623.726	87018
623.790	83323
623.854	80720
623.919	84797
623.983	84530
624.047	84604
624.111	86644
624.176	87230
624.240	86884
624.304	90169
624.368	86738
624.432	86698
624.496	88991
624.560	94242
624.625	93644
624.689	93847
624.753	97393
624.817	93089
624.881	89602
624.945	81596
625.009	81244
625.073	83109
625.137	83069
625.201	87623
625.265	87009
625.329	83842
625.393	84753
625.456	85361
625.520	87987
625.584	87703
625.648	92454
625.712	91666
625.776	91558
625.839	85919
625.903	74448
625.967	69359
626.031	75634
626.095	87493
626.158	78575
626.222	63822
626.286	62501
626.349	57678
626.413	54229
626.477	55348
626.540	55035
626.604	53000
626.668	54916
626.731	52666
626.795	52748
626.858	53405
626.922	51743
626.986	51789
627.049	50075
627.113	53526
627.176	51417
627.240	48686
627.303	51120
627.366	48726
627.430	50331
627.493	48652
627.557	47408
627.620	49825
627.684	51304
627.747	51074
627.810	44197
627.874	42550
627.937	40611
628.000	42416
628.064	41150
628.127	36042
628.190	36294
628.253	35536
628.317	33333
628.380	32374
628.443	31536
628.506	30076
628.569	30942
628.632	27608
628.696	30056
628.759	27270
628.822	26757
628.885	26087
628.948	25534
629.011	25249
629.074	24894
629.137	23401
629.200	22918
629.263	24029
629.326	21929
629.389	22642
629.452	21550
629.515	21526
629.578	21354
629.641	21887
629.704	21807
629.767	20785
629.830	20528
629.892	19974
629.955	20254
630.018	21843
630.081	20018
630.144	20527
630.207	18181
630.269	21004
630.332	18596
630.395	19799
630.458	19293
630.520	16770
630.583	19205
630.646	18850
630.708	18208
630.771	18653
630.834	21025
630.896	18840
630.959	19156
631.021	17584
631.084	17821
631.146	18874
631.209	19339
631.272	18050
631.334	18863
631.397	18740
631.459	17844
631.522	19428
631.584	19208
631.646	21749
631.709	19927
631.771	19641
631.834	20155
631.896	19327
631.958	17650
632.021	18844
632.083	17326
632.145	17523
632.208	17871
632.270	17603
632.332	17267
632.395	16768
632.457	18065
632.519	16337
632.581	17847
632.643	15886
632.706	18847
632.768	16010
632.830	17448
632.892	17128
632.954	17262
633.016	18354
633.078	17689
633.141	17162
633.203	16746
633.265	17251
633.327	17231
633.389	16684
633.451	17893
633.513	16742
633.575	18651
633.637	16152
633.698	17358
633.760	18620
633.822	18864
633.884	18117
633.946	18765
634.008	18576
634.070	20292
634.132	19884
634.193	20238
634.255	22776
634.317	22718
634.379	23089
634.441	19845
634.502	18859
634.564	18420
634.626	17127
634.687	16143
634.749	15777
634.811	17008
634.873	16648
634.934	16513
634.996	16656
635.057	15842
635.119	14534
635.181	16656
635.242	17044
635.304	14859
635.365	18481
635.427	15671
635.488	16376
635.550	16186
635.611	16681
635.673	14178
635.734	17590
635.796	17027
635.857	19414
635.918	18669
635.980	21931
636.041	20350
636.102	23534
636.164	22915
636.225	22016
636.286	18024
636.348	17307
636.409	16178
636.470	15678
636.531	15692
636.593	15647
636.654	15531
636.715	15142
636.776	15033
636.838	13430
636.899	14997
636.960	14459
637.021	13974
637.082	13445
637.143	15046
637.204	12815
637.265	13653
637.326	13001
637.387	14520
637.448	12542
637.509	14432
637.570	13489
637.631	14672
637.692	13051
637.753	11580
637.814	13725
637.875	13071
637.936	14070
637.997	12773
638.058	12429
638.119	13860
638.179	12172
638.240	13283
638.301	13143
638.362	10884
638.423	12013
638.483	13505
638.544	10918
638.605	11798
638.666	11264
638.726	13337
638.787	12708
638.848	12273
638.908	12232
638.969	12064
639.030	10496
639.090	11155
639.151	11456
639.211	12564
639.272	12475
639.332	11314
639.393	11303
639.453	11710
639.514	11836
639.574	12788
639.635	10250
639.695	11964
639.756	10291
639.816	11262
639.877	10227
639.937	11611
639.997	11050
640.058	9891
640.118	9427
640.178	11287
640.239	10452
640.299	10690
640.359	10634
640.420	11499
640.480	12725
640.540	13948
640.600	13501
640.661	11886
640.721	11262
640.781	12279
640.841	8941
640.901	11155
640.961	10993
641.021	11584
641.082	10970
641.142	10930
641.202	10972
641.262	9122
641.322	11723
641.382	9336
641.442	10903
641.502	10385
641.562	11508
641.622	10615
641.682	10304
641.742	12365
641.802	10978
641.861	10652
641.921	9393
641.981	10879
642.041	9981
642.101	9266
642.161	8168
642.221	9509
642.280	10211
642.340	9281
642.400	8154
642.460	11189
642.519	10043
642.579	9166
642.639	10684
642.698	8884
642.758	11484
642.818	10130
642.877	9719
642.937	9384
642.997	10162
643.056	10085
643.116	8618
643.175	12294
643.235	10485
643.294	10337
643.354	10022
643.414	11361
643.473	12922
643.532	14574
643.592	17084
643.651	27449
643.711	44684
643.770	82990
643.830	192729
643.889	327852
643.948	79606
644.008	22393
644.067	14789
644.126	12814
644.186	11974
644.245	11008
644.304	9137
644.363	11902
644.423	7997
644.482	9344
644.541	10233
644.600	9215
644.659	13181
644.719	14426
644.778	20976
644.837	35472
644.896	70472
644.955	141883
645.014	40105
645.073	12130
645.132	11045
645.191	11410
645.250	9581
645.309	11704
645.368	11328
645.427	16138
645.486	24908
645.545	37849
645.604	12560
645.663	9604
645.722	8912
645.781	11721
645.840	10886
645.898	13208
645.957	17306
646.016	24649
646.075	42632
646.134	78727
646.192	206199
646.251	245451
646.310	41932
646.369	17252
646.427	14689
646.486	10781
646.545	9044
646.603	9427
646.662	9653
646.721	9451
646.779	8399
646.838	7863
646.896	11203
646.955	13828
647.014	22262
647.072	40885
647.131	102589
647.189	40344
647.248	9930
647.306	8583
647.365	7625
647.423	6737
647.481	8453
647.540	5903
647.598	6892
647.657	6861
647.715	7133
647.773	5663
647.832	7827
647.890	5324
647.948	5587
648.007	5741
648.065	4765
648.123	4788
648.181	7067
648.240	5845
648.298	4804
648.356	4946
648.414	6174
648.472	5172
648.531	5254
648.589	5790
648.647	5020
648.705	4893
648.763	4991
648.821	5928
648.879	5278
648.937	5928
648.995	6825
649.053	8577
649.111	11751
649.169	20303
649.227	36255
649.285	75592
649.343	195210
649.401	74427
649.459	12583
649.516	8124
649.574	5893
649.632	7033
649.690	7856
649.748	9906
649.806	13415
649.863	27498
649.921	74435
649.979	39367
650.037	7082
650.094	3378
650.152	4486
650.210	3119
650.268	3958
650.325	2693
650.383	3198
650.440	2782
650.498	3697
650.556	3817
650.613	2782
650.671	3638
650.728	2150
650.786	3674
650.843	5069
650.901	2552
650.958	3101
651.016	2799
651.073	2615
651.131	2290
651.188	2160
651.246	2176
651.303	1801
651.360	2645
651.418	2310
651.475	2767
651.532	1663
651.590	2997
651.647	2540
651.704	2252
651.762	1821
651.819	2793
651.876	1671
651.933	1645
651.990	3020
652.048	1516
652.105	1580
652.162	3038
652.219	1688
652.276	2588
652.333	2212
652.390	553
652.448	1734
652.505	2367
652.562	1720
652.619	2151
652.676	1535
652.733	3086
652.790	1261
652.847	591
652.904	2142
652.961	861
653.017	1379
653.074	2411
653.131	1774
653.188	614
653.245	1244
653.302	1719
653.359	1006
653.415	1964
653.472	673
653.529	2282
653.586	667
653.642	827
653.699	1967
653.756	665
653.813	952
653.869	1597
653.926	1167
653.983	342
654.039	2439
654.096	1350
654.152	2219
654.209	550
654.266	1107
654.322	377
654.379	1752
654.435	2117
654.492	310
654.548	1301
654.605	1
654.661	1982
654.717	1171
654.774	1998
654.830	1791
654.887	1600
654.943	710
655.000	1112
655.056	1366
655.112	758
655.168	365
655.225	1796
655.281	1387
655.337	1309
655.394	54
655.450	1607
655.506	1034
655.562	1138
655.618	1691
655.675	834
655.731	1424
655.787	1271
655.843	1819
655.899	550
655.955	1543
656.011	2107
656.067	529
656.123	2161
656.179	1633
656.235	2820
656.291	919
656.347	2168
656.403	570
656.459	1566
656.515	1124
656.571	248
656.627	995
656.683	1332
656.739	958
656.795	1656
656.850	1049
656.906	1284
656.962	2475
657.018	676
657.074	1448
657.129	3236
657.185	6131
657.241	14316
657.297	5666
657.352	1700
657.408	403
657.464	1615
657.519	1099
657.575	45
657.630	1303
657.686	1361
657.742	677
657.797	408
657.853	-144
657.908	1932
657.964	-41
658.019	999
658.075	416
658.130	1200
658.186	-124
658.241	1625
658.297	-139
658.352	723
658.407	564
658.463	436
658.518	333
658.573	137
658.629	596
658.684	-161
658.739	42
658.795	436
658.850	1025
658.905	-462
658.960	547
659.016	159
659.071	1090
659.126	-555
659.181	-362
659.236	2023
659.291	629
659.346	357
659.401	732
659.457	1411
659.512	-272
659.567	1489
659.622	200
659.677	-389
659.732	-377
659.787	283
659.842	491
659.897	300
659.952	446
660.007	10
660.061	-73
660.116	440
660.171	-378
660.226	640
660.281	1077
660.336	-166
660.391	1142
660.445	-279
660.500	1015
660.555	539
660.610	-738
660.664	404
660.719	-130
660.774	201
660.828	498
660.883	137
660.938	413
660.992	-517
661.047	1093
661.101	653
661.156	48
661.211	367
661.265	-482
661.320	158
661.374	245
661.429	105
661.483	-384
661.538	-550
661.592	-13
661.647	592
661.701	1130
661.755	315
661.810	218
661.864	285
661.919	28
661.973	927
662.027	777
662.081	-415
662.136	-299
662.190	861
662.244	1003
662.299	506
662.353	-280
662.407	-380
662.461	506
662.515	-128
662.569	-1033
662.624	1113
662.678	601
662.732	-223
662.786	177
662.840	-266
662.894	-35
662.948	330
663.002	559
663.056	205
663.110	-374
663.164	-593
663.218	-309
663.272	15
663.326	595
663.380	-108
663.434	-99
663.488	-155
663.542	182
663.595	199
663.649	-511
663.703	702
663.757	112
663.811	-191
663.864	-800
663.918	-24
663.972	-537
664.026	-75
664.079	-1
664.133	323
664.187	116
664.240	348
664.294	-453
664.348	240
664.401	-71
664.455	-481
664.508	-95
664.562	-169
664.615	383
664.669	450
664.722	-227
664.776	-686
664.829	317
664.883	130
664.936	116
664.990	-24
665.043	865
665.097	-6
665.150	353
665.203	-319
665.257	6
665.310	-30
665.363	344
665.417	149
665.470	-317
665.523	492
665.576	738
665.630	308
665.683	-48
665.736	-14
665.789	-87
665.842	265
665.895	571
665.949	67
666.002	158
666.055	605
666.108	351
666.161	-261
666.214	446
666.267	650
666.320	1196
666.373	236
666.426	279
666.479	-55
666.532	-410
666.585	-315
666.638	1014
666.691	530
666.744	398
666.796	-115
666.849	919
666.902	934
666.955	-52
667.008	293
667.060	734
667.113	298
667.166	1372
667.219	1276
667.271	103
667.324	505
667.377	432
667.430	325
667.482	938
667.535	76
667.587	182
667.640	433
667.693	-99
667.745	78
667.798	372
667.850	970
667.903	330
667.955	281
668.008	134
668.060	348
668.113	274
668.165	858
668.218	581
668.270	620
668.322	50
668.375	486
668.427	-644
668.479	189
668.532	43
668.584	698
668.636	-296
668.689	808
668.741	-566
668.793	1105
668.845	438
668.898	606
668.950	828
669.002	723
669.054	-263
669.106	-233
669.158	195
669.211	662
669.263	-168
669.315	396
669.367	-10
669.419	-420
669.471	313
669.523	249
669.575	-111
669.627	-29
669.679	78
669.731	-314
669.783	442
669.835	123
669.886	-73
669.938	-405
669.990	527
670.042	250
670.094	196
670.146	687
670.197	126
670.249	71
670.301	-531
670.353	149
670.404	708
670.456	-155
670.508	15
670.560	740
670.611	1392
670.663	1311
670.715	4888
670.766	6158
670.818	1660
670.869	469
670.921	234
670.972	817
671.024	-412
671.075	-125
671.127	155
671.178	-7
671.230	908
671.281	784
671.333	1073
671.384	865
671.436	1595
671.487	3665
671.538	5200
671.590	9876
671.641	15741
671.692	31536
671.744	59322
671.795	31278
671.846	8133
671.897	2698
671.949	1660
672.000	1473
672.051	677
672.102	1249
672.153	-846
672.204	857
672.256	353
672.307	247
672.358	-56
672.409	291
672.460	-301
672.511	-557
672.562	-250
672.613	318
672.664	-330
672.715	-325
672.766	-359
672.817	32
672.868	-745
672.919	-231
672.970	-338
673.021	-740
673.071	-393
673.122	244
673.173	-436
673.224	-655
673.275	-938
673.326	62
673.376	-79
673.427	-195
673.478	-714
673.528	-166
673.579	-305
673.630	-223
673.680	200
673.731	-491
673.782	-1202
673.832	-513
673.883	-336
673.934	-376
673.984	-785
674.035	318
674.085	-297
674.136	281
674.186	-557
674.237	-566
674.287	-141
674.338	-468
674.388	-507
674.438	-1314
674.489	-939
674.539	493
674.589	-1269
674.640	445
674.690	-535
674.740	-497
674.791	-501
674.841	-122
674.891	-578
674.942	-391
674.992	-502
675.042	-154
675.092	-1153
675.142	-562
675.193	-1392
675.243	-318
675.293	-568
675.343	-467
675.393	-639
675.443	-255
675.493	-656
675.543	-1233
675.593	-680
675.643	-314
675.693	-194
675.743	-680
675.793	-131
675.843	-1106
675.893	-1007
675.943	307
675.993	-306
676.043	-804
676.093	467
676.142	-72
676.192	-37
676.242	-588
676.292	-957
676.341	-221
676.391	-461
676.441	-1515
676.491	-870
676.540	-785
676.590	-1200
676.640	-268
676.689	-612
676.739	-1094
676.789	-104
676.838	-914
676.888	-452
676.937	-1346
676.987	-1310
677.037	-86
677.086	-793
677.136	-477
677.185	-1431
677.235	-576
677.284	-440
677.333	-1169
677.383	-1336
677.432	-1336
677.482	-1132
677.531	-312
677.580	-1424
677.630	-266
677.679	-1012
677.728	-336
677.778	-1188
677.827	-436
677.876	-709
677.925	-402
677.975	-673
678.024	-406
678.073	-573
678.122	-1076
678.171	-862
678.220	-791
678.269	-318
678.319	-587
678.368	-402
678.417	-438
678.466	287
678.515	-508
678.564	-180
678.613	-990
678.662	-1493
678.711	-842
678.760	-1109
678.809	-372
678.857	-899
678.906	-510
678.955	-1636
679.004	-838
679.053	-892
679.102	-1107
679.151	-1190
679.199	-737
679.248	-275
679.297	-608
679.346	-971
679.394	-1029
679.443	-728
679.492	-1086
679.540	-1585
679.589	-456
679.638	-403
679.686	331
679.735	114
679.784	-996
679.832	-266
679.881	-959
679.929	-170
679.978	-1571
680.026	-827
680.075	-675
680.123	-1541
680.172	-197
680.220	-1611
680.268	-1333
680.317	-1039
680.365	-1302
680.414	-1355
680.462	-694
680.510	-1077
680.559	-929
680.607	-465
680.655	-598
680.703	-1284
680.752	-1282
680.800	-563
680.848	-389
680.896	-1438
680.945	-951
680.993	-1353
681.041	-1267
681.089	-1111
681.137	-1209
681.185	-1391
681.233	-584
681.258	-363
681.281	-167
681.329	-1124
681.377	-733
681.380	-710
681.425	-525
681.473	-1034
681.502	-731
681.521	-554
681.569	-628
681.617	-585
681.624	-627
681.665	-966
681.713	-206
681.745	-384
681.761	-493
681.809	-1080
681.857	-894
681.867	-840
681.904	-723
681.952	-775
681.989	-1028
682.000	-1119
682.048	-1322
682.096	-515
682.111	-571
682.143	-736
682.191	-422
682.233	-495
682.239	-515
682.286	-376
682.334	-737
682.354	-664
682.382	-620
682.430	226
682.476	205
682.477	193
682.525	3
682.572	-1113
682.598	-905
682.620	-737
682.667	-639
682.715	-163
682.720	-145
682.763	-126
682.810	-480
682.841	-627
682.857	-723
682.905	-407
682.952	161
682.963	220
683.000	397
683.047	-987
683.085	976
683.095	1504
683.142	-350
683.190	1077
683.206	714
683.237	-21
683.284	400
683.328	-21
683.332	-67
683.379	92
683.426	29
683.449	-19
683.473	-39
683.521	270
683.568	960
683.571	922
683.615	195
683.662	747
683.693	530
683.709	395
683.757	-153
683.804	952
683.814	611
683.851	-559
683.898	-209
683.936	-20
683.945	16
683.992	556
684.039	-169
684.057	58
684.086	406
684.133	467
684.179	80
684.180	57
684.227	2
684.274	315
684.300	295
684.321	301
684.368	41
684.415	686
684.422	709
684.462	720
684.509	259
684.543	362
684.556	412
684.603	656
684.649	-137
684.665	207
684.696	889
684.743	1328
684.786	974
684.790	934
684.837	894
684.883	770
684.908	990
684.930	1211
684.977	282
685.023	388
685.029	512
685.070	1368
685.117	1292
685.150	1075
685.164	979
685.210	859
685.257	1817
685.272	1731
685.303	1503
685.350	771
685.393	1220
685.396	1247
685.443	983
685.490	1186
685.514	994
685.536	824
685.583	1042
685.629	779
685.636	751
685.675	654
685.722	1107
685.757	816
685.768	710
685.815	1152
685.861	1477
685.878	1211
685.908	741
685.954	1193
686.000	1225
686.000	1221
686.047	1435
686.093	1147
686.121	1308
686.139	1463
686.185	1801
686.232	1647
686.242	1595
686.278	1342
686.324	1745
686.363	1567
686.370	1538
686.416	1824
686.463	1920
686.484	1809
686.509	1616
686.555	1036
686.601	1646
686.606	1637
686.647	1719
686.693	1909
686.727	1849
686.739	1775
686.785	1790
686.831	1630
686.848	1831
686.877	2197
686.923	1080
686.969	1182
686.969	1184
687.015	1361
687.061	1825
687.090	2163
687.107	2250
687.153	2268
687.199	1915
687.211	1888
687.245	1901
687.291	2012
687.332	2032
687.336	2034
687.382	2341
687.428	2231
687.453	2084
687.474	1878
687.520	2349
687.565	1793
687.574	1722
687.611	1822
687.657	2352
687.695	2601
687.702	2585
687.748	2431
687.794	2382
687.816	2270
687.839	2166
687.885	2425
687.931	2340
687.937	2313
687.976	2267
688.022	2203
688.058	2738
688.067	2863
688.113	2679
688.158	2369
688.179	2307
688.204	2264
688.249	2905
688.295	2798
688.300	2789
688.340	2688
688.386	2892
688.421	2701
688.431	2661
688.477	2675
688.522	2892
688.542	2816
688.567	2785
688.613	2937
688.658	3100
688.663	3111
688.703	3004
688.749	2740
688.784	2638
688.794	2685
688.839	3025
688.884	3274
688.905	3435
688.930	3408
688.975	3244
689.020	2814
689.026	2814
689.065	3091
689.110	2766
689.146	3004
689.155	3043
689.201	2992
689.246	2848
689.267	2867
689.291	2975
689.336	3152
689.381	3485
689.388	3450
689.426	3239
689.471	3219
689.509	3289
689.516	3316
689.561	3356
689.606	3435
689.630	3434
689.651	3341
689.696	2788
689.741	2590
689.750	2702
689.785	3365
689.830	2761
689.871	3155
689.875	3194
689.920	3566
689.965	3441
689.992	3275
690.010	3150
690.054	3321
690.099	3542
690.112	3642
690.144	3799
690.189	2876
690.233	3132
690.233	3141
690.278	3361
690.323	3140
690.354	3501
690.367	3673
690.412	4007
690.457	3770
690.474	3977
690.501	4157
690.546	3845
690.590	3746
690.595	3657
690.635	3109
690.680	3758
690.716	3861
690.724	3861
690.769	3698
690.813	3742
690.836	3544
690.857	3558
690.902	3561
690.946	3936
690.957	4030
690.991	4248
691.035	4250
691.077	4454
691.080	4464
691.124	4450
691.168	3989
691.198	3853
691.213	3799
691.257	3783
691.301	3878
691.318	3806
691.346	3824
691.390	3764
691.434	3742
691.439	3704
691.478	3323
691.522	3629
691.559	3441
691.567	3466
691.611	3458
691.655	4103
691.680	4101
691.699	4014
691.743	4034
691.787	3873
691.800	3898
691.831	4050
691.875	3552
691.919	3542
691.921	3533
691.964	3547
692.008	3754
692.041	3832
692.052	3900
692.096	3671
692.139	3893
692.162	3964
692.183	3932
692.227	3988
692.271	3729
692.282	3662
692.315	3628
692.359	3870
692.402	3905
692.403	3916
692.447	3900
692.490	4038
692.523	3933
692.534	3916
692.578	4258
692.622	4097
692.643	4195
692.666	4197
692.709	4040
692.753	3840
692.763	3794
692.797	3878
692.840	4146
692.884	4247
692.884	4258
692.928	4051
692.971	3967
693.004	4089
693.015	4194
693.059	4062
693.102	4347
693.124	4479
693.146	4561
693.189	4509
693.233	4522
693.245	4500
693.276	4438
693.320	4293
693.363	4083
693.365	4074
693.407	4314
693.450	4326
693.485	4351
693.493	4415
693.537	4508
693.580	4892
693.605	4981
693.624	4838
693.667	4695
693.710	4290
693.725	4223
693.753	4649
693.797	4999
693.840	5558
693.845	5596
693.883	5150
693.926	4772
693.966	4249
693.970	4264
694.013	4300
694.056	4576
694.086	4598
694.099	4595
694.142	4352
694.185	4455
694.206	4418
694.229	4406
694.272	4599
694.315	4795
694.326	4680
694.358	4479
694.401	4600
694.444	4912
694.446	4903
694.487	4918
694.530	4797
694.566	4729
694.573	4720
694.616	4518
694.659	4592
694.686	4577
694.702	4672
694.745	4783
694.787	4988
694.806	5027
694.830	4982
694.873	4745
694.916	4736
694.926	4681
694.959	5108
695.002	5977
695.044	6459
695.046	6462
695.087	6205
695.130	6106
695.166	5797
695.172	5808
695.215	5938
695.258	6096
695.286	6072
695.301	5960
695.343	5731
695.386	5585
695.406	5356
695.428	5819
695.471	6783
695.514	7820
695.526	8179
695.556	8933
695.599	9575
695.641	10304
695.646	10356
695.684	9474
695.726	8429
695.766	7499
695.769	7519
695.811	7227
695.854	7207
695.886	7317
695.896	7437
695.938	7487
695.981	7794
696.005	7798
696.023	8132
696.065	9001
696.108	9994
696.125	10305
696.150	10131
696.192	9908
696.235	9606
696.245	9538
696.277	9828
696.319	9963
696.361	10268
696.365	10258
696.404	10016
696.446	9591
696.485	9397
696.488	9453
696.530	9758
696.572	10017
696.604	10220
696.614	10227
696.656	10080
696.698	9958
696.724	9855
696.740	9924
696.783	10049
696.825	10220
696.844	10206
696.867	10233
696.909	10323
696.951	10434
696.964	10433
696.992	10409
697.034	10222
697.076	10151
697.083	10085
697.118	10447
697.160	11115
697.202	11615
697.203	11595
697.244	11348
697.286	11172
697.323	10910
697.327	10932
697.369	10891
697.411	10792
697.442	10659
697.453	10708
697.494	10874
697.536	11058
697.562	11081
697.578	11080
697.620	11062
697.661	10968
697.682	10917
697.703	11300
697.744	11957
697.786	12721
697.801	12926
697.828	12946
697.869	12875
697.911	12927
697.921	12884
697.952	12602
697.994	12213
698.035	11809
698.040	11727
698.077	12081
698.118	12444
698.160	12775
698.160	12739
698.201	13076
698.243	13412
698.279	13756
698.284	13830
698.325	14039
698.367	14306
698.399	14457
698.408	14482
698.449	14420
698.491	14362
698.518	14262
698.532	14301
698.573	14327
698.614	14358
698.638	14314
698.656	14534
698.697	14987
698.738	15418
698.757	15581
698.779	15418
698.820	15026
698.862	14627
698.877	14443
698.903	14795
698.944	15281
698.985	15767
698.996	15860
699.026	15411
699.067	14727
699.116	13873
699.235	14862
699.354	14516
699.474	13084
699.593	14058
699.713	14231
699.832	14322
699.951	15241
700.070	13411
700.190	13114
700.309	12689
700.428	12574
700.547	11863
700.667	12715
700.786	11931
700.905	12548
701.024	12139
701.143	11705
701.262	12220
701.381	12747
701.500	12252
701.619	13463
701.738	12569
701.857	12830
701.976	11588
702.095	12127
702.214	12702
702.333	11813
702.452	11768
702.571	12513
702.690	12130
702.809	12254
702.928	11434
703.047	10275
703.165	11303
703.284	11258
703.403	11335
703.522	10899
703.640	10512
703.759	9758
703.878	10124
703.997	10406
704.115	10695
704.234	10261
704.353	10460
704.471	9390
704.590	9619
704.708	9320
704.827	9468
704.946	9397
705.064	10079
705.183	9199
705.301	9445
705.420	9676
705.538	8611
705.656	8329
705.775	7735
705.893	8564
706.012	8908
706.130	8728
706.249	9948
706.367	8477
706.485	8271
706.604	7784
706.722	7485
706.840	9355
706.958	8334
707.077	7543
707.195	7838
707.313	8484
707.431	7136
707.549	7352
707.668	7221
707.786	8195
707.904	7688
708.022	7497
708.140	6600
708.258	6624
708.376	8161
708.494	5853
708.612	7255
708.730	6793
708.848	6718
708.966	7681
709.084	7005
709.202	7210
709.320	6792
709.438	6886
709.556	7114
709.674	5918
709.791	6467
709.909	5730
710.027	7033
710.145	5478
710.263	5925
710.380	5641
710.498	5936
710.616	5538
710.733	5721
710.851	5734
710.969	6376
711.086	5591
711.204	6185
711.322	5950
711.439	5551
711.557	5106
711.674	5310
711.792	4696
711.909	5441
712.027	4831
712.144	4778
712.262	5340
712.379	5365
712.497	4612
712.614	5531
712.732	4985
712.849	5109
712.966	6028
713.084	5990
713.201	4205
713.318	5132
713.436	5398
713.553	4874
713.670	5858
713.787	5075
713.905	4484
714.022	5618
714.139	5161
714.256	6730
714.373	9511
714.490	17693
714.608	51389
714.725	193904
714.842	140283
714.959	14778
715.076	6220
715.193	6125
715.310	5360
715.427	4499
715.544	5311
715.661	4629
715.778	3380
715.895	4650
716.011	4542
716.128	4791
716.245	4504
716.362	4937
716.479	4150
716.596	4126
716.713	4100
716.829	3678
716.946	4115
717.063	4830
717.180	3221
717.296	4349
717.413	3764
717.530	3541
717.646	2730
717.763	4090
717.880	3874
717.996	3483
718.113	3796
718.229	3301
718.346	3749
718.462	2835
718.579	3435
718.695	2905
718.812	3704
718.928	2887
719.045	2671
719.161	3764
719.277	2259
719.394	3880
719.510	3199
719.626	4172
719.743	4909
719.859	7834
719.975	17094
720.092	73292
720.208	122865
720.324	13014
720.440	4361
720.557	4077
720.673	3404
720.789	2777
720.905	3622
721.021	3011
721.137	2852
721.253	2604
721.369	2151
721.486	3210
721.602	2562
721.718	2612
721.834	3066
721.950	2543
722.066	1857
722.181	2415
722.297	3225
722.413	2449
722.529	2650
722.645	2589
722.761	2263
722.877	2746
722.993	3107
723.108	2682
723.224	2548
723.340	2694
723.456	2107
723.571	2867
723.687	2265
723.803	3682
723.918	1698
724.034	1662
724.150	2424
724.265	2939
724.381	1072
724.497	1703
724.612	1947
724.728	2801
724.843	2164
724.959	1632
725.074	2759
725.190	2872
725.305	2586
725.421	1506
725.536	2058
725.651	2587
725.767	2410
725.882	3457
725.997	2111
726.113	2375
726.228	2331
726.343	2169
726.459	2573
726.574	1991
726.689	2200
726.804	2313
726.920	1802
727.035	1735
727.150	2194
727.265	1703
727.380	2405
727.495	2987
727.610	2638
727.725	1642
727.841	2518
727.956	2395
728.071	2124
728.186	1887
728.301	1448
728.416	2299
728.531	2442
728.645	1463
728.760	2084
728.875	1656
728.990	1746
729.105	1924
729.220	1381
729.335	2226
729.449	2005
729.564	1997
729.679	1461
729.794	1679
729.908	1892
730.023	1769
730.138	2655
730.253	2561
730.367	1615
730.482	1765
730.596	1876
730.711	3513
730.826	3439
730.940	3639
731.055	2933
731.169	4149
731.284	3139
731.398	2554
731.513	3557
731.627	4052
731.742	5955
731.856	6632
731.970	5185
732.085	7286
732.199	9717
732.313	15382
732.428	42779
732.542	124976
732.656	56920
732.771	12873
732.885	9262
732.999	8078
733.113	9847
733.227	9632
733.342	9374
733.456	9281
733.570	9212
733.684	8360
733.798	8666
733.912	8265
734.026	7614
734.140	8931
734.254	7097
734.368	7931
734.482	8271
734.596	7783
734.710	7175
734.824	8123
734.938	7363
735.052	7287
735.166	7182
735.280	7742
735.393	7394
735.507	6952
735.621	7310
735.735	6122
735.849	7722
735.962	6084
736.076	7528
736.190	7114
736.303	7057
736.417	6407
736.531	6072
736.644	6925
736.758	5820
736.872	5867
736.985	6342
737.099	6418
737.212	4984
737.326	6416
737.439	6330
737.553	5314
737.666	6115
737.780	5365
737.893	6497
738.007	4962
738.120	5748
738.233	5188
738.347	6312
738.460	6030
738.573	5342
738.687	5596
738.800	5561
738.913	5675
739.026	5364
739.140	5798
739.253	5875
739.366	4837
739.479	4627
739.592	4998
739.705	4309
739.818	6034
739.932	4726
740.045	5082
740.158	4595
740.271	5987
740.384	4459
740.497	4247
740.610	4457
740.723	4369
740.836	4854
740.949	5350
741.062	4800
741.174	4288
741.287	4019
741.400	5095
741.513	3912
741.626	4827
741.739	4122
741.851	4011
741.964	4911
742.077	4301
742.189	2742
742.302	4927
742.415	4058
742.527	3737
742.640	4075
742.753	2855
742.865	4185
742.978	4172
743.090	3680
743.203	3874
743.316	4003
743.428	3443
743.541	3347
743.653	3190
743.766	3491
743.878	3819
743.990	3540
744.103	4986
744.215	4719
744.327	3487
744.440	4858
744.552	2991
744.664	2811
744.777	3896
744.889	1959
745.001	3567
745.113	3978
745.226	3555
745.338	2854
745.450	3757
745.562	3405
745.674	2441
745.786	3085
745.898	3635
746.010	3227
746.122	3993
746.234	3740
746.347	3820
746.459	3460
746.570	3099
746.682	4724
746.794	5409
746.906	2600
747.018	1970
747.130	3696
747.242	2442
747.354	3104
747.466	2848
747.577	2522
747.689	3038
747.801	3223
747.913	2637
748.024	2502
748.136	2337
748.248	2510
748.359	2650
748.471	2510
748.583	2154
748.694	2181
748.806	2871
748.918	1955
749.029	1991
749.141	2760
749.252	3031
749.364	2179
749.475	2332
749.587	2143
749.698	2090
749.809	2656
749.921	2086
750.032	3010
750.144	2412
750.255	1723
750.366	2435
750.478	2256
750.589	2368
750.700	1623
750.811	2466
750.923	2135
751.034	1586
751.145	3093
751.256	1889
751.367	2433
751.479	1872
751.590	1159
751.701	2076
751.812	1290
751.923	2554
752.034	2422
752.145	2333
752.256	2034
752.367	1459
752.478	1842
752.589	1920
752.700	1929
752.811	1177
752.922	1066
753.032	1601
753.143	2290
753.254	1920
753.365	1771
753.476	2279
753.586	1973
753.697	1050
753.808	2001
753.919	1847
754.029	2242
754.140	1195
754.251	1870
754.361	1997
754.472	2062
754.582	2083
754.693	1480
754.804	1451
754.914	1813
755.025	1210
755.135	1384
755.246	1649
755.356	1310
755.466	1982
755.577	1039
755.687	1926
755.798	1284
755.908	2599
756.018	1151
756.129	1399
756.239	1046
756.349	2426
756.460	1696
756.570	2586
756.680	991
756.790	2093
756.900	1245
757.011	1481
757.121	1249
757.231	819
757.341	2130
757.451	866
757.561	1055
757.671	1642
757.781	1180
757.891	1692
758.001	928
758.111	1468
758.221	2104
758.331	1616
758.441	1271
758.551	591
758.661	1149
758.771	1619
758.880	493
758.990	1160
759.100	541
759.210	1843
759.320	1791
759.429	1288
759.539	1514
759.649	1824
759.758	2277
759.868	2467
759.978	1220
760.087	1562
760.197	2012
760.307	1677
760.416	1276
760.526	882
760.635	1436
760.745	2212
760.854	1917
760.964	2951
761.073	3001
761.182	2880
761.292	1522
761.401	1037
761.511	1008
761.620	1434
761.729	1423
761.839	1023
761.948	1071
762.057	603
762.166	1669
762.276	579
762.385	1970
762.494	759
762.603	801
762.712	1595
762.822	432
762.931	316
763.040	1201
763.149	1162
763.258	965
763.367	949
763.476	1145
763.585	927
763.694	1197
763.803	614
763.912	1140
764.021	1626
764.130	1636
764.238	-87
764.347	803
764.456	1464
764.565	714
764.674	998
764.783	1213
764.891	736
765.000	1152
765.109	1697
765.217	1039
765.326	1731
765.435	1564
765.543	1866
765.652	1907
765.761	2326
765.869	3283
765.978	5286
766.086	9424
766.195	18433
766.303	51433
766.412	124325
766.520	83450
766.629	24157
766.737	9711
766.846	4830
766.954	3569
767.062	4165
767.171	3061
767.279	2478
767.387	2030
767.496	1010
767.604	1803
767.712	1637
767.820	233
767.928	1429
768.037	540
768.145	816
768.253	1017
768.361	363
768.469	1514
768.577	1030
768.685	2167
768.793	1053
768.901	1223
769.009	1434
769.117	698
769.225	1304
769.333	2352
769.441	4482
769.549	7687
769.657	18453
769.765	60441
769.873	95153
769.981	29741
770.088	8273
770.196	4175
770.304	3892
770.412	2437
770.519	2721
770.627	2468
770.735	2137
770.842	2188
770.950	2113
771.058	2248
771.165	3325
771.273	3581
771.380	3191
771.488	5191
771.595	5795
771.703	3562
771.810	4588
771.918	4201
772.025	5799
772.133	6657
772.240	5620
772.348	7638
772.455	7364
772.562	6280
772.670	5243
772.777	6672
772.884	6208
772.991	4800
773.099	6288
773.206	5159
773.313	6749
773.420	5889
773.528	4879
773.635	5326
773.742	6975
773.849	5250
773.956	5424
774.063	5833
774.170	4683
774.277	5504
774.384	4317
774.491	3835
774.598	5319
774.705	5103
774.812	5505
774.919	5630
775.026	5037
775.133	5316
775.239	5012
775.346	5413
775.453	5408
775.560	4019
775.667	4995
775.773	5249
775.880	5414
775.987	4461
776.093	4956
776.200	4699
776.307	4070
776.413	4708
776.520	5457
776.627	5006
776.733	3670
776.840	2544
776.946	6657
777.053	5572
777.159	6406
777.266	4587
777.372	6072
777.478	6081
777.585	5712
777.691	2814
777.798	4436
777.904	3357
778.010	3644
778.117	3995
778.223	2703
778.329	4170
778.435	3077
778.542	4563
778.648	3333
778.754	2746
778.860	4086
778.966	3846
779.072	3232
779.178	3397
779.284	2831
779.391	2782
779.497	2188
779.603	4878
779.708	1484
779.815	3539
779.920	4491
780.026	3426
780.132	3657
780.238	2747
780.344	2512
780.450	4517
780.556	1692
780.661	2452
780.767	4696
780.873	1874
780.979	3447
781.085	3027
781.190	3089
781.296	2847
781.402	3166
781.507	2773
781.613	2351
781.719	3096
781.824	3431
781.930	2637
782.035	3194
782.141	3283
782.246	1401
782.352	2358
782.457	2718
782.563	2372
782.668	2414
782.773	1706
782.879	1081
782.984	2388
783.090	2487
783.195	2094
783.300	2619
783.405	2195
783.511	761
783.616	1456
783.721	1825
783.826	2066
783.932	2238
784.037	1684
784.142	1996
784.247	1828
784.352	1746
784.457	1504
784.562	2844
784.667	2810
784.772	1555
784.877	1091
784.982	2750
785.087	2152
785.192	1815
785.297	1838
785.402	2005
785.507	1805
785.611	2219
785.716	1154
785.821	1327
785.926	1413
786.031	1262
786.135	1485
786.240	2486
786.345	147
786.450	2240
786.554	674
786.659	784
786.763	248
786.868	2070
786.973	2962
787.077	1661
787.182	1795
787.286	1928
787.391	1575
787.495	1310
787.600	1072
787.704	1041
787.809	1568
787.913	1353
788.017	1467
788.122	2176
788.226	1134
788.330	254
788.435	806
788.539	2087
788.643	1421
788.747	509
788.852	1320
788.956	785
789.060	2326
789.164	1406
789.268	1068
789.372	2135
789.476	1363
789.580	290
789.684	1126
789.788	1609
789.892	1590
789.996	1152
790.100	1070
790.204	2031
790.308	1854
790.412	620
790.516	405
790.620	617
790.724	2002
790.828	1065
790.931	-47
791.035	2561
791.139	797
791.242	480
791.346	1573
791.450	1342
791.554	257
791.657	169
791.761	1921
791.864	2146
791.968	1159
792.072	1146
792.175	1142
792.279	724
792.382	1187
792.486	987
792.589	1062
792.693	1448
792.796	-70
792.899	1729
793.003	1944
793.106	-358
793.209	716
793.313	2005
793.416	-740
793.519	909
793.623	984
793.726	1049
793.829	-63
793.932	586
794.035	-983
794.138	2409
794.242	2064
794.345	413
794.448	324
794.551	-303
794.654	1787
794.757	1115
794.860	614
794.963	781
795.066	151
795.169	1975
795.272	156
795.375	1456
795.477	659
795.580	971
795.683	-666
795.786	1747
795.889	-569
795.991	1027
796.094	1422
796.197	-478
796.300	2346
796.402	20
796.505	-400
796.608	-272
796.710	475
796.813	1125
796.915	364
797.018	463
797.120	919
797.223	-646
797.326	2046
797.428	175
797.530	-381
797.633	373
797.735	1218
797.838	113
797.940	764
798.042	178
798.145	-30
798.247	329
798.349	-433
798.452	1465
798.554	221
798.656	-260
798.758	1156
798.860	664
798.962	-105
799.065	-69
799.167	-910
799.269	588
799.371	732
799.473	1380
799.575	-361
799.677	704
799.779	2095
799.881	-1375
799.983	901
800.085	436
800.187	799
800.289	-430
800.390	-221
800.492	1129
800.594	1341
800.696	-389
800.798	526
800.899	-319
801.001	-51
801.103	339
801.205	-237
801.306	1455
801.408	-738
801.509	-363
801.611	219
801.713	446
801.814	-453
801.916	510
802.017	-149
802.119	-540
802.220	-87
802.322	-1867
802.423	1628
802.525	-1323
802.626	-249
802.727	1280
802.829	697
802.930	-2064
803.031	1863
803.133	368
803.234	198
803.335	291
803.436	-806
803.538	578
803.639	-997
803.740	414
803.841	212
803.942	1140
804.043	406
804.144	-1199
804.245	-165
804.346	-805
804.447	-427
804.548	-620
804.649	738
804.750	314
804.851	-646
804.952	86
805.053	946
805.154	-159
805.255	771
805.355	929
805.456	-552
805.557	-1012
805.658	-584
805.758	1122
805.859	160
805.960	160
806.061	-490
806.161	289
806.262	568
806.362	-497
806.463	-741
806.564	-1
806.664	514
806.765	-539
806.865	-145
806.966	-499
807.066	-1232
807.166	754
807.267	578
807.367	-787
807.468	947
807.568	-937
807.668	1311
807.769	175
807.869	-421
807.969	362
808.069	750
808.170	476
808.270	-544
808.370	819
808.470	-82
808.570	-1205
808.670	-384
808.770	-457
808.870	293
808.970	-12
809.070	658
809.170	-1089
809.271	623
809.370	-479
809.470	361
809.570	-785
809.670	-1439
809.770	-199
809.870	764
809.970	-750
810.070	-162
810.169	451
810.269	-1257
810.369	411
810.469	282
810.568	-529
810.668	-912
810.768	-403
810.867	271
810.967	-837
811.066	-68
811.166	-224
811.265	505
811.365	-464
811.464	-485
811.564	881
811.663	58
811.763	-1628
811.862	126
811.962	1056
812.061	-217
812.160	-489
812.260	-151
812.359	339
812.458	-31
812.557	441
812.657	-613
812.756	-182
812.855	-421
812.954	-515
813.053	18
813.153	-233
813.252	-1675
813.351	-249
813.450	-336
813.549	-994
813.648	253
813.747	-1182
813.846	1224
813.945	-377
814.044	455
814.143	-2
814.242	399
814.341	-853
814.439	349
814.538	170
814.637	-244
814.736	404
814.835	880
814.933	277
815.032	934
815.131	1810
815.229	3666
815.328	5946
815.427	3364
815.525	2817
815.624	3083
815.722	2439
815.821	3662
815.919	3604
816.018	2436
816.116	5038
816.215	3265
816.313	3724
816.412	4244
816.510	4396
816.609	5635
816.707	5867
816.805	4193
816.904	4355
817.002	4388
817.100	5105
817.198	5568
817.296	3122
817.395	4131
817.493	5332
817.591	3738
817.689	3601
817.787	3999
817.885	4103
817.983	3967
818.081	3795
818.179	3415
818.277	5710
818.375	4493
818.473	3716
818.571	3322
818.669	4835
818.767	4611
818.865	4419
818.963	3495
819.061	3924
819.158	3559
819.256	5256
819.354	3875
819.452	6036
819.549	3294
819.647	4796
819.745	2824
819.842	3800
819.940	3585
820.038	2317
820.135	2512
820.233	5260
820.330	4122
820.428	2443
820.525	4514
820.623	2469
820.720	2634
820.818	3440
820.915	3359
821.012	3581
821.110	1688
821.207	4181
821.304	2582
821.402	3353
821.499	3935
821.596	3795
821.693	2282
821.791	3081
821.888	3262
821.985	3750
822.082	1731
822.179	4091
822.276	2230
822.373	1913
822.470	2903
822.567	2937
822.664	1828
822.761	3057
822.858	2477
822.955	2340
823.052	1964
823.149	1789
823.246	2872
823.343	1320
823.440	3067
823.536	1997
823.633	2242
823.730	1641
823.827	2833
823.923	2420
824.020	3423
824.117	2766
824.213	1902
824.310	2137
824.407	1804
824.503	3318
824.600	2318
824.696	1475
824.793	3413
824.889	2206
824.986	2128
825.082	1286
825.179	2367
825.275	2210
825.371	2162
825.468	1604
825.564	-212
825.660	2197
825.757	2920
825.853	2718
825.949	962
826.045	1512
826.142	2180
826.238	2691
826.334	2102
826.430	1510
826.526	380
826.622	324
826.718	2121
826.814	2637
826.910	2721
827.006	356
827.102	445
827.198	3251
827.294	2909
827.390	1788
827.486	1030
827.582	267
827.678	834
827.774	2757
827.869	618
827.965	2030
828.061	809
828.157	2748
828.252	1674
828.348	737
828.444	1472
828.539	520
828.635	1279
828.731	2142
828.826	473
828.922	1195
829.017	1365
829.113	1525
829.208	-160
829.304	926
829.399	2633
829.495	1637
829.590	1961
829.685	1266
829.781	1374
829.876	1707
829.971	-923
830.066	740
830.162	938
830.257	2176
830.352	1522
830.447	1126
830.543	1560
830.638	858
830.733	2450
830.828	618
830.923	1913
831.018	1858
831.113	1983
831.208	-276
831.303	537
831.398	-71
831.493	968
831.588	2503
831.683	399
831.778	935
831.873	585
831.967	1646
832.062	1525
832.157	102
832.252	573
832.346	641
832.441	1852
832.536	384
832.631	1126
832.725	596
832.820	0
832.914	884
833.009	713
833.104	-200
833.198	-277
833.293	521
833.387	1569
833.482	1170
833.576	-8
833.670	926
833.765	86
833.859	1097
833.954	692
834.048	309
834.142	174
834.237	-509
834.331	273
834.425	1094
834.519	306
834.613	989
834.708	221
834.802	716
834.896	698
834.990	528
835.084	-353
835.178	-138
835.272	249
835.366	478
835.460	477
835.554	59
835.648	-559
835.742	-1005
835.836	784
835.930	-833
836.024	912
836.117	1911
836.211	-543
836.305	793
836.399	618
836.493	-870
836.586	1277
836.680	48
836.774	-381
836.867	464
836.961	-581
837.055	367
837.148	-565
837.242	1614
837.335	-339
837.429	-869
837.522	-317
837.616	194
837.709	587
837.803	-112
837.896	1409
837.989	820
838.083	-67
838.176	-355
838.269	-960
838.363	487
838.456	-641
838.549	1073
838.642	-138
838.735	598
838.829	767
838.922	-385
839.015	801
839.108	-706
839.201	455
839.294	997
839.387	-402
839.480	-882
839.573	113
839.666	-915
839.759	-86
839.852	-411
839.945	1047
840.038	-413
840.131	-311
840.223	-146
840.316	260
840.409	436
840.502	834
840.594	867
840.687	-1005
840.780	-253
840.873	-1106
840.965	-259
841.058	-221
841.150	847
841.243	-1088
841.336	752
841.428	588
841.521	-403
841.613	-350
841.706	547
841.798	362
841.890	174
841.983	-636
842.075	-631
842.167	462
842.260	-109
842.352	629
842.444	473
842.537	114
842.629	245
842.721	-743
842.813	689
842.905	-629
842.997	534
843.090	-46
843.182	199
843.274	-985
843.366	729
843.458	-217
843.550	389
843.642	-628
843.734	-79
843.826	-683
843.918	70
844.009	73
844.101	-931
844.193	260
844.285	-331
844.377	1038
844.469	293
844.560	-357
844.652	-352
844.744	-582
844.835	-755
844.927	-38
845.019	-1383
845.110	-187
845.202	1120
845.293	-711
845.385	-447
845.476	-292
845.568	892
845.659	-469
845.751	194
845.842	68
845.934	-80
846.025	-1544
846.116	286
846.208	-368
846.299	-544
846.390	-735
846.482	327
846.573	-354
846.664	-292
846.755	-661
846.846	-300
846.937	-1284
847.029	181
847.120	-930
847.211	-664
847.302	124
847.393	-500
847.484	864
847.575	-471
847.666	-1030
847.757	-874
847.847	188
847.938	529
848.029	140
848.120	-460
848.211	-78
848.302	-1474
848.392	-1049
848.483	183
848.574	-958
848.664	253
848.755	-192
848.846	-682
848.936	-1222
849.027	-372
849.118	-1080
849.208	-1468
849.299	97
849.389	596
849.480	1606
849.570	3409
849.661	7512
849.751	11220
849.841	3409
849.932	199
850.022	-562
850.112	52
850.203	5
850.293	-608
850.383	-771
850.474	-267
850.564	-1300
850.654	80
850.744	-215
850.834	-1090
850.924	-1061
851.014	664
851.104	-52
851.194	-404
851.284	-629
851.374	-724
851.464	-550
851.554	-924
851.644	-136
851.734	778
851.824	-328
851.914	-671
852.004	-324
852.094	-685
852.183	-768
852.273	-508
852.363	9
852.452	-158
852.542	-946
852.632	-1017
852.721	-1014
852.811	-1242
852.901	-301
852.990	-403
853.080	-440
853.169	-591
853.259	-697
853.348	-562
853.438	574
853.527	265
853.617	-570
853.706	2416
853.795	4242
853.885	9853
853.974	17418
854.063	34197
854.152	43289
854.242	12162
854.331	2408
854.420	-134
854.509	286
854.598	314
854.687	-426
854.777	442
854.866	-562
854.955	-513
855.044	-1178
855.133	-598
855.222	-1180
855.311	-784
855.400	-551
855.488	-388
855.577	-236
855.666	-1062
855.755	-625
855.844	-373
855.933	-918
856.021	-89
856.110	-824
856.199	-948
856.288	-821
856.376	-831
856.465	-1006
856.554	-66
856.642	-232
856.731	-18
856.819	-588
856.908	-515
856.996	-366
857.085	-554
857.173	-799
857.262	-698
857.350	-747
857.438	-574
857.527	-902
857.615	-199
857.703	-545
857.792	-1407
857.880	-946
857.968	-886
858.056	-931
858.145	134
858.233	-1056
858.321	-599
858.409	-340
858.497	-357
858.585	-1499
858.673	-722
858.761	-772
858.849	-629
858.937	-674
859.025	-326
859.113	-458
859.201	-1028
859.289	-19
859.377	-625
859.465	-946
859.552	-1814
859.640	-783
859.728	311
859.816	-429
859.903	-101
859.991	-1132
860.079	6
860.166	-694
860.254	-654
860.342	-316
860.429	-197
860.517	-846
860.604	-412
860.692	-1273
860.779	-376
860.867	-270
860.954	-532
861.042	135
861.129	-144
861.216	-619
861.304	-315
861.391	-458
861.478	-475
861.565	-830
861.653	449
861.740	-1217
861.827	-346
861.914	-843
862.001	-889
862.089	-33
862.176	-114
862.263	-872
862.350	-487
862.437	-796
862.524	-672
862.611	-1208
862.698	-232
862.785	-114
862.871	-87
862.958	-25
863.045	-754
863.132	149
863.219	-558
863.306	-390
863.392	-486
863.479	-707
863.566	-693
863.652	-88
863.739	-636
863.826	-134
863.912	-1138
863.999	-1435
864.086	-775
864.172	-385
864.259	-88
864.345	-478
864.432	354
864.518	679
864.604	494
864.691	156
864.777	-123
864.863	1555
864.950	1994
865.036	2484
865.122	6399
865.209	6702
865.295	5767
865.381	4749
865.467	4227
865.553	5346
865.639	4337
865.726	5431
865.812	8246
865.898	12499
865.984	17613
866.070	29947
866.156	26999
866.242	8661
866.328	5173
866.414	4183
866.499	4398
866.585	4294
866.671	3960
866.757	4221
866.843	4132
866.928	4193
867.014	4370
867.100	4076
867.186	3791
867.271	3594
867.357	4305
867.442	2779
867.528	3732
867.614	3244
867.699	2888
867.785	3912
867.870	2958
867.956	3759
868.041	3196
868.127	3486
868.212	3222
868.297	4016
868.383	3621
868.468	3859
868.553	4003
868.639	2987
868.724	3584
868.809	3495
868.894	2759
868.979	2826
869.065	3800
869.150	1676
869.235	3519
869.320	3074
869.405	3632
869.490	3601
869.575	3125
869.660	2048
869.745	3472
869.830	3527
869.915	3088
870.000	2244
870.085	2595
870.169	4610
870.254	4187
870.339	1501
870.424	2045
870.509	3054
870.593	3575
870.678	3098
870.763	2912
870.847	1562
870.932	2797
871.016	3279
871.101	1521
871.186	2804
871.270	3306
871.355	1996
871.439	2695
871.523	3856
871.608	2799
871.692	2312
871.777	3364
871.861	3320
871.945	1588
872.030	2456
872.114	2891
872.198	2060
872.282	2053
872.367	2481
872.451	3272
872.535	2581
872.619	1830
872.703	2313
872.787	2757
872.871	1671
872.955	1177
873.039	637
873.123	2815
873.207	2645
873.291	1345
873.375	1340
873.459	2381
873.543	2033
873.627	2090
873.711	1779
873.794	2508
873.878	2050
873.962	427
874.045	1162
874.129	1287
874.137	1285
874.213	1263
874.245	1327
874.296	1430
874.352	681
874.380	316
874.460	2082
874.464	2154
874.547	1031
874.568	1352
874.631	2267
874.676	2145
874.714	2047
874.784	2141
874.798	2162
874.881	2811
874.892	2587
874.965	1094
874.999	1475
875.048	1947
875.107	2197
875.131	2302
875.215	358
875.215	359
875.298	964
875.323	1084
875.381	1384
875.430	2007
875.465	2397
875.538	1169
875.548	1006
875.631	612
875.646	704
875.714	1186
875.753	1634
875.798	2160
875.861	2010
875.881	1941
875.964	1477
875.968	1442
876.047	902
876.076	962
876.130	1041
876.183	1835
876.213	2300
876.291	2195
876.296	2176
876.379	1492
876.398	1393
876.462	1183
876.506	845
876.545	549
876.613	1171
876.628	1316
876.711	1886
876.721	1914
876.794	2203
876.828	2051
876.877	1631
876.935	1230
876.960	1127
877.043	1421
877.043	1421
877.125	1872
877.150	2139
877.208	2328
877.258	1709
877.291	1494
877.365	1384
877.374	1352
877.456	455
877.472	560
877.539	1195
877.579	1656
877.622	1991
877.687	1654
877.704	1599
877.787	1583
877.794	1644
877.869	2302
877.901	2216
877.952	1995
878.008	1276
878.034	862
878.115	1086
878.117	1105
878.199	1167
878.222	1274
878.282	1355
878.329	1927
878.364	2395
878.437	2354
878.447	2300
878.529	1003
878.544	1020
878.611	1349
878.651	1572
878.694	1947
878.758	1749
878.776	1614
878.858	1805
878.865	1796
878.941	1588
878.972	1152
879.023	634
879.078	1273
879.105	1625
879.185	1404
879.187	1400
879.269	2604
879.292	2494
879.351	2004
879.399	1594
879.433	1342
879.506	1643
879.516	1715
879.598	1689
879.613	1645
879.680	1542
879.720	1791
879.762	1987
879.827	2042
879.844	1995
879.926	1732
879.933	1676
880.007	1520
880.040	1607
880.089	1798
880.147	2281
880.171	2406
880.253	2534
880.254	2531
880.335	2696
880.360	2807
880.417	3652
880.467	4816
880.499	5342
880.574	5352
880.580	5225
880.662	3863
880.680	3289
880.744	1948
880.787	1551
880.825	1540
880.893	1998
880.907	2009
880.989	1479
881.000	1493
881.070	2210
881.106	2284
881.152	1959
881.213	1684
881.233	1632
881.315	1766
881.319	1740
881.396	1758
881.426	1746
881.478	1651
881.532	2269
881.559	2710
881.639	2168
881.641	2132
881.722	1937
881.745	1635
881.803	1854
881.852	2195
881.885	2258
881.958	2232
881.966	2184
882.047	1801
882.064	1707
882.129	1465
882.171	1213
882.210	1153
882.277	993
882.291	1015
882.372	1956
882.383	1995
882.454	2260
882.489	2216
882.535	2195
882.596	2553
882.616	2525
882.697	2400
882.702	2357
882.778	1911
882.808	1907
882.859	1760
882.914	1300
882.940	1299
883.020	1794
883.021	1808
883.102	2727
883.127	2992
883.183	3184
883.233	3186
883.264	2816
883.339	2276
883.345	2218
883.426	628
883.445	433
883.507	1339
883.551	1937
883.587	2071
883.657	2355
883.668	2487
883.749	3036
883.763	3101
883.830	2056
883.869	1560
883.910	1561
883.975	1669
883.991	1795
884.072	2292
884.081	2360
884.152	3087
884.187	3309
884.233	3386
884.292	3364
884.314	2991
884.394	1528
884.398	1459
884.475	988
884.504	815
884.555	1401
884.610	1835
884.636	1749
884.716	1773
884.716	1790
884.797	3516
884.821	3929
884.877	3357
884.927	2630
884.958	2351
885.033	1694
885.038	1651
885.118	1305
885.139	1163
885.199	1366
885.244	1442
885.279	1917
885.350	3177
885.359	3275
885.439	3773
885.456	3777
885.520	2388
885.561	1711
885.600	1922
885.667	2430
885.680	2526
885.760	2821
885.773	2808
885.840	2047
885.878	1819
885.920	1930
885.984	1945
886.000	2093
886.080	2908
886.089	2984
886.160	2772
886.195	2579
886.240	2593
886.300	2606
886.320	2653
886.400	2956
886.406	2955
886.480	1690
886.511	1166
886.560	1388
886.616	1673
886.640	1803
886.720	2296
886.722	2297
886.800	2222
886.827	2236
886.879	2747
886.932	3151
886.959	3246
887.038	3270
887.039	3281
887.119	3442
887.143	3477
887.198	3021
887.248	2569
887.278	2645
887.354	2771
887.358	2796
887.437	3015
887.459	3133
887.517	3391
887.564	3442
887.596	3057
887.669	2236
887.676	2194
887.755	1631
887.774	1475
887.835	1326
887.880	1273
887.914	1982
887.985	3307
887.994	3322
888.073	3412
888.090	3406
888.153	4266
888.195	4753
888.232	3840
888.300	2306
888.311	2393
888.391	2948
888.405	3013
888.470	1887
888.510	1195
888.549	1746
888.615	2767
888.628	2864
888.708	3278
888.720	3335
888.787	3262
888.825	3197
888.866	2568
888.930	1575
888.945	1793
889.024	2940
889.035	3086
889.103	3186
889.140	3184
889.182	2891
889.245	2514
889.261	2750
889.340	3795
889.349	3904
889.419	2978
889.454	2509
889.498	2235
889.559	1829
889.577	2045
889.656	2991
889.664	3078
889.735	3359
889.768	3483
889.814	3421
889.873	3313
889.978	2828
890.083	2571
890.187	2711
890.292	3677
890.397	2619
890.501	3108
890.606	2405
890.710	2421
890.815	4105
890.919	2648
891.024	3107
891.128	2450
891.233	1585
891.337	3337
891.442	3074
891.546	2891
891.650	2822
891.755	2567
891.859	3081
891.963	3643
892.068	2187
892.172	2040
892.276	1495
892.380	2559
892.484	3321
892.589	3708
892.693	1911
892.797	2030
892.901	1579
893.005	2537
893.109	4090
893.213	4148
893.317	2199
893.421	2026
893.525	1834
893.629	1361
893.733	2931
893.837	2381
893.941	2132
894.045	2596
894.148	1335
894.252	1934
894.356	3147
894.460	4354
894.564	2673
894.667	3449
894.771	1940
894.875	1842
894.978	1797
895.082	2684
895.186	3162
895.289	2847
895.393	1691
895.496	2902
895.600	1875
895.703	913
895.807	1439
895.910	2771
896.014	2112
896.117	2574
896.221	2414
896.324	2830
896.427	1909
896.531	1415
896.634	1850
896.737	2296
896.840	2788
896.944	3123
897.047	2951
897.150	2686
897.253	1589
897.356	1885
897.460	1769
897.563	1977
897.666	2920
897.769	2911
897.872	2469
897.975	2513
898.078	2018
898.181	1099
898.284	1672
898.387	3384
898.490	3726
898.593	1597
898.695	1656
898.798	2166
898.901	2055
899.004	2806
899.107	1580
899.209	2054
899.312	4054
899.415	2667
899.518	713
899.620	1723
899.723	2210
899.826	2101
899.928	1248
900.031	2451
900.133	2175
900.236	1916
900.338	1356
900.441	2511
900.543	2120
900.646	2323
900.748	1668
900.851	3166
900.953	911
901.055	1309
901.158	1493
901.260	2085
901.362	2141
901.465	2014
901.567	1973
901.669	2462
901.771	1588
901.873	2178
901.976	2064
902.078	2151
902.180	1294
902.282	1140
902.384	1643
902.486	2885
902.588	1956
902.690	1157
902.792	1007
902.894	1988
902.996	2230
903.098	2397
903.200	1643
903.302	924
903.404	1736
903.505	1951
903.607	1455
903.709	3826
903.811	2963
903.913	2600
904.014	1025
904.116	1622
904.218	2197
904.319	2268
904.421	2855
904.523	2563
904.624	1229
904.726	1662
904.827	1625
904.929	1551
905.030	1807
905.132	2467
905.233	2148
905.335	1739
905.436	1166
905.537	1269
905.639	716
905.740	1885
905.841	2974
905.943	2011
906.044	1439
906.145	1760
906.247	564
906.348	1944
906.449	1564
906.550	2580
906.651	2082
906.752	2037
906.854	1018
906.955	1366
907.056	1257
907.157	2233
907.258	2542
907.359	805
907.460	664
907.561	1119
907.662	1318
907.762	1962
907.863	1096
907.964	3110
908.065	2552
908.166	1748
908.267	1299
908.367	1567
908.468	1222
908.569	2012
908.670	1875
908.770	1811
908.871	1809
908.971	2352
909.072	709
909.173	1529
909.273	1259
909.374	2362
909.474	1403
909.575	1231
909.675	860
909.776	2162
909.876	2066
909.977	1511
910.077	2430
910.177	3003
910.278	1829
910.378	1677
910.478	1314
910.579	2330
910.679	2083
910.779	2544
910.879	2183
910.980	1690
911.080	1904
911.180	1252
911.280	761
911.380	1309
911.480	950
911.580	858
911.680	981
911.780	1893
911.880	1887
911.980	1520
912.080	1190
912.180	2158
912.280	1317
912.380	1752
912.480	1415
912.580	1828
912.679	918
912.779	1804
912.879	1427
912.979	1813
913.078	1124
913.178	1278
913.278	913
913.377	786
913.477	896
913.577	1174
913.676	2173
913.776	3066
913.875	1639
913.975	2004
914.074	1706
914.174	1992
914.273	990
914.373	2166
914.472	1622
914.572	695
914.671	936
914.770	1012
914.870	1033
914.969	1564
915.068	1902
915.167	2178
915.267	891
915.366	2378
915.465	2043
915.564	2009
915.663	1575
915.763	2042
915.862	3006
915.961	2579
916.060	1016
916.159	1322
916.258	1291
916.357	1390
916.456	2079
916.555	2895
916.654	1721
916.752	2210
916.851	2049
916.950	1701
917.049	1257
917.148	977
917.247	1835
917.345	1852
917.444	960
917.543	1665
917.642	1506
917.740	1909
917.839	2732
917.937	3780
918.036	2280
918.135	1971
918.233	1777
918.332	1633
918.430	1799
918.529	1981
918.627	1962
918.726	2935
918.824	1716
918.923	1664
919.021	1177
919.119	2097
919.218	776
919.316	1575
919.414	1537
919.512	2998
919.611	2048
919.709	2029
919.807	2823
919.905	3654
920.003	2700
920.102	2597
920.200	2134
920.298	3152
920.396	2900
920.494	4102
920.592	1521
920.690	2965
920.788	2042
920.886	2677
920.984	2624
921.082	2495
921.180	3823
921.277	4050
921.375	3817
921.473	5165
921.571	5799
921.669	5061
921.766	4306
921.864	5425
921.962	4872
922.060	5489
922.157	4498
922.255	5339
922.352	4815
922.450	6637
922.548	6116
922.645	7035
922.743	8812
922.840	13616
922.938	14389
923.035	13535
923.133	13144
923.230	15010
923.327	16407
923.425	16905
923.522	15693
923.619	15531
923.717	12948
923.814	13301
923.911	12732
924.008	14593
924.106	12628
924.203	12714
924.300	13206
924.397	11794
924.494	13151
924.591	12442
924.688	11672
924.786	12291
924.883	13072
924.979	12669
925.077	11909
925.173	11542
925.270	12709
925.367	12022
925.464	13169
925.561	13602
925.658	12954
925.755	10109
925.852	13024
925.948	12595
926.045	11428
926.142	14234
926.239	11484
926.335	9133
926.432	11844
926.529	12493
926.625	12902
926.722	10423
926.818	10517
926.915	12451
927.011	11293
927.108	11058
927.204	12045
927.301	10609
927.397	11931
927.494	13178
927.590	8654
927.687	9646
927.783	12597
927.879	13115
927.976	9467
928.072	9066
928.168	10910
928.264	11761
928.361	11246
928.457	13110
928.553	9145
928.649	10426
928.745	10528
928.841	10660
928.937	10443
929.033	10584
929.129	9757
929.225	11096
929.321	9883
929.417	9469
929.513	11028
929.609	10132
929.705	9752
929.801	11682
929.897	8760
929.993	8920
930.089	9444
930.184	8428
930.280	9962
930.376	11813
930.471	8805
930.567	8319
930.663	8871
930.758	8603
930.854	9591
930.950	9010
931.045	7388
931.141	8993
931.236	11404
931.332	8994
931.427	7374
931.523	9865
931.618	10155
931.714	6234
931.809	8026
931.905	10149
932.000	7081
932.095	7211
932.191	9467
932.286	11199
932.381	8549
932.476	7142
932.572	8304
932.667	6778
932.762	7025
932.857	9999
932.952	10511
933.047	7750
933.142	8202
933.237	8413
933.332	8531
933.427	9889
933.522	6958
933.617	6432
933.712	8192
933.807	9773
933.902	9074
933.997	10405
934.092	6668
934.187	8186
934.282	8271
934.376	9279
934.471	8377
934.566	7660
934.661	6746
934.755	8912
934.850	9392
934.945	6960
935.039	5892
935.134	5178
935.228	7242
935.323	10865
935.417	6152
935.512	5158
935.606	5834
935.701	8304
935.795	7744
935.890	7728
935.984	5625
936.079	5266
936.173	6694
936.267	6251
936.362	5483
936.456	7532
936.550	9234
936.644	8040
936.738	5350
936.833	5962
936.927	4263
937.021	6809
937.115	7847
937.209	6855
937.303	7007
937.397	5916
937.491	6123
937.585	8389
937.679	7292
937.773	5175
937.867	4997
937.961	5641
938.055	8564
938.149	7401
938.243	3489
938.337	4565
938.430	5306
938.524	7829
938.618	5532
938.712	5042
938.805	5777
938.899	6757
938.993	7930
939.086	5668
939.180	2874
939.274	5563
939.367	5579
939.461	6774
939.554	5215
939.648	4827
939.741	4847
939.835	7301
939.928	7997
940.022	7112
940.115	4306
940.208	7531
940.302	7545
940.395	8158
940.488	4528
940.582	5039
940.675	4600
940.768	6201
940.861	6219
940.954	6978
941.048	3989
941.141	3752
941.234	3578
941.327	4892
941.420	6326
941.513	6353
941.606	3795
941.699	5207
941.792	5954
941.885	5149
941.978	6105
942.071	5232
942.164	3496
942.257	4209
942.349	4994
942.442	4957
942.535	3338
942.628	4465
942.721	4949
942.813	4386
942.906	5385
942.999	5431
943.091	3117
943.184	4734
943.277	3695
943.369	3606
943.462	2601
943.554	5082
943.647	4230
943.739	6094
943.832	6530
943.924	2443
944.017	3107
944.109	3057
944.201	3896
944.294	4649
944.386	4513
944.478	4340
944.571	2992
944.663	3610
944.755	4743
944.847	5607
944.940	4247
945.032	2405
945.124	3310
945.216	5594
945.308	4867
945.400	4722
945.492	3964
945.584	5574
945.676	5483
945.768	4960
945.860	4069
945.952	4638
946.044	4024
946.136	3648
946.228	3224
946.320	3651
946.412	4043
946.503	5331
946.595	5740
946.687	3658
946.779	2568
946.870	3560
946.962	3738
947.054	3783
947.145	4662
947.237	3298
947.329	3543
947.420	4707
947.512	2929
947.603	2414
947.695	3818
947.786	3045
947.878	3534
947.969	3956
948.061	4335
948.152	3982
948.243	2169
948.335	2608
948.426	2282
948.517	4168
948.609	4020
948.700	3672
948.791	3712
948.882	2127
948.973	2335
949.065	4260
949.156	3825
949.247	2901
949.338	3033
949.429	2252
949.520	2572
949.611	3254
949.702	3884
949.793	2769
949.884	3919
949.975	2869
950.066	1635
950.157	2655
950.247	2674
950.338	2008
950.429	2517
950.520	3110
950.611	2167
950.701	2901
950.792	4155
950.883	3910
950.973	3016
951.064	4051
951.155	3179
951.245	3973
951.336	3530
951.427	3500
951.517	4874
951.608	4182
951.698	3187
951.788	2606
951.879	2386
951.969	2676
952.060	2147
952.150	3159
952.240	4312
952.331	2152
952.421	3939
952.511	2161
952.602	1890
952.692	2131
952.782	1476
952.872	2520
952.962	3466
953.052	2897
953.143	1484
953.233	2978
953.323	2650
953.413	3030
953.503	3058
953.593	2767
953.683	2120
953.773	1899
953.863	1615
953.953	2178
954.042	2442
954.132	2852
954.222	3155
954.312	2772
954.402	1781
954.492	2386
954.581	3219
954.671	2393
954.761	1654
954.850	2453
954.940	1120
955.030	1902
955.119	1525
955.209	2751
955.298	2710
955.388	2623
955.477	3879
955.567	1322
955.656	1243
955.746	2142
955.835	1337
955.925	1795
956.014	2340
956.103	2980
956.193	3958
956.282	3491
956.371	2612
956.461	3772
956.550	2924
956.639	2435
956.728	2173
956.817	3193
956.906	1490
956.995	3731
957.085	2211
957.174	3226
957.263	1851
957.352	2391
957.441	2803
957.530	2969
957.619	1439
957.708	2172
957.796	1710
957.885	2963
957.974	1491
958.063	2800
958.152	1140
958.241	1898
958.329	1935
958.418	1905
958.507	1844
958.596	4154
958.684	1546
958.773	3262
958.861	1816
958.950	1457
959.039	1421
959.127	2257
959.216	1801
959.304	1637
959.393	1798
959.481	2379
959.570	1585
959.658	588
959.746	1100
959.835	2063
959.923	1660
960.011	1279
960.100	2616
960.188	2930
960.276	1782
960.365	2158
960.453	1417
960.541	930
960.629	1244
960.717	1367
960.805	853
960.893	2840
960.981	1936
961.069	3620
961.158	2521
961.245	4373
961.333	2992
961.421	999
961.509	1895
961.597	2789
961.685	1610
961.773	3031
961.861	2225
961.949	3458
962.036	988
962.124	2077
962.212	1208
962.299	1991
962.387	488
962.475	1785
962.562	1631
962.650	2617
962.738	1938
962.825	1327
962.913	1192
963.000	1286
963.088	1702
963.175	1830
963.263	1737
963.350	2269
963.438	1453
963.525	952
963.612	1280
963.700	1755
963.787	2585
963.874	1265
963.962	2032
964.049	2073
964.136	1031
964.223	1778
964.310	1616
964.398	2054
964.485	1895
964.572	1672
964.659	1520
964.746	2051
964.833	312
964.920	2383
965.007	1680
965.094	1697
965.181	2194
965.268	3036
965.355	1716
965.441	886
965.528	1002
965.615	3307
965.702	1460
965.789	1048
965.875	1702
965.962	2263
966.049	1559
966.136	3257
966.222	2050
966.309	2612
966.395	1426
966.482	2173
966.569	1823
966.655	2459
966.742	1783
966.828	2368
966.915	1826
967.001	2162
967.087	826
967.174	2293
967.260	2114
967.347	1789
967.433	1265
967.519	2334
967.605	2029
967.692	1663
967.778	1834
967.864	2216
967.950	1876
968.036	2138
968.123	2216
968.209	1684
968.295	508
968.381	3304
968.467	1322
968.553	180
968.639	2215
968.725	1380
968.811	1440
968.897	2702
968.983	1359
969.069	1240
969.154	1677
969.240	2048
969.326	955
969.412	1885
969.497	1763
969.583	1433
969.669	3285
969.755	2432
969.840	1958
969.926	4265
970.012	3447
970.097	4169
970.183	3449
970.268	3409
970.354	2117
970.439	555
970.525	2590
970.610	891
970.696	2227
970.781	2334
970.866	58
970.952	1845
971.037	1120
971.122	1514
971.208	1840
971.293	1771
971.378	1062
971.463	1113
971.549	1513
971.634	2496
971.719	1588
971.804	1947
971.889	2370
971.974	1272
972.059	585
972.144	2587
972.229	1607
972.314	1625
972.399	1264
972.484	1521
972.569	623
972.654	755
972.739	1696
972.824	987
972.908	631
972.993	1781
973.078	964
973.163	1032
973.247	2395
973.332	786
973.417	2847
973.501	1633
973.586	1590
973.671	2315
973.755	1197
973.840	2795
973.924	2681
974.009	4016
974.093	2602
974.178	4207
974.262	1496
974.346	2255
974.431	1597
974.515	1464
974.600	1320
974.684	2099
974.768	1683
974.852	3016
974.937	-62
975.021	2300
975.105	1807
975.189	1161
975.273	966
975.358	1603
975.442	671
975.526	2179
975.610	369
975.694	968
975.778	2321
975.862	1594
975.946	-180
976.030	3345
976.114	807
976.198	1858
976.281	1511
976.365	2417
976.449	712
976.533	1905
976.617	708
976.700	779
976.784	1954
976.868	1582
976.951	1472
977.035	1582
977.119	849
977.202	1963
977.286	2029
977.369	2544
977.453	4359
977.536	3856
977.620	2185
977.703	3600
977.787	1393
977.870	2607
977.953	2830
978.037	581
978.120	1783
978.203	1251
978.287	1495
978.370	1123
978.453	1200
978.536	866
978.620	2426
978.703	2757
978.786	780
978.869	1223
978.952	492
979.035	2810
979.118	2914
979.201	1054
979.284	1167
979.367	1856
979.450	2466
979.533	1394
979.616	1210
979.699	1147
979.782	1107
979.865	1321
979.948	1179
980.030	884
980.113	1485
980.196	889
980.279	2056
980.361	2068
980.444	1624
980.526	2326
980.609	3251
980.692	4226
980.774	3874
980.857	2449
980.939	3012
981.022	2385
981.104	1764
981.187	2325
981.269	2215
981.352	2044
981.434	705
981.516	1380
981.599	2572
981.681	2042
981.763	2069
981.846	2096
981.928	1671
982.010	2381
982.092	1315
982.174	2340
982.256	1744
982.339	1703
982.421	1572
982.503	1177
982.585	1337
982.667	2111
982.749	1715
982.831	1762
982.913	1064
982.995	3100
983.077	1755
983.158	3393
983.240	1247
983.322	3160
983.404	4311
983.486	3514
983.568	3512
983.649	3485
983.731	2872
983.813	3143
983.894	2654
983.976	2406
984.058	1388
984.139	3077
984.221	1075
984.302	3592
984.384	1925
984.465	2170
984.547	2409
984.628	2458
984.710	2512
984.791	2316
984.872	2696
984.954	2804
985.035	1370
985.116	2250
985.198	2005
985.279	3610
985.360	1089
985.441	2427
985.522	3109
985.604	2392
985.685	-208
985.766	2879
985.847	3728
985.928	2032
986.009	1886
986.090	2981
986.171	3043
986.252	1542
986.333	2766
986.414	2630
986.495	1615
986.576	3534
986.656	2915
986.737	3821
986.818	2293
986.899	2555
986.980	2978
987.060	3949
987.141	3230
987.222	4015
987.302	3868
987.383	4788
987.464	3732
987.544	4483
987.625	2703
987.705	4667
987.786	4808
987.866	4368
987.947	3422
988.027	4273
988.108	3172
988.188	3512
988.268	2058
988.349	3527
988.429	3224
988.509	2887
988.589	2756
988.670	2119
988.750	3890
988.830	2349
988.910	4112
988.990	3502
989.070	2558
989.151	3049
989.231	1558
989.311	2892
989.391	2014
989.471	2210
989.551	1864
989.631	2710
989.711	2116
989.791	2998
989.870	1495
989.950	3405
990.030	2816
990.110	2286
990.190	1201
990.269	2312
990.349	2494
990.429	3134
990.509	2526
990.588	1882
990.668	2336
990.747	2101
990.827	2282
990.907	2706
990.986	2425
991.066	2643
991.145	1872
991.225	2485
991.304	2141
991.383	2691
991.463	1371
991.542	2677
991.622	1058
991.701	2040
991.780	2407
991.859	1722
991.939	1109
992.018	1853
992.097	2017
992.176	2118
992.256	659
992.335	1157
992.414	3103
992.493	1538
992.572	1499
992.651	3547
992.730	2093
992.809	1974
992.888	1065
992.967	2213
993.046	2035
993.125	814
993.203	1349
993.282	1523
993.361	1628
993.440	1648
993.519	1217
993.597	1247
993.676	316
993.755	2661
993.834	1198
993.912	722
993.991	2395
994.069	353
994.148	832
994.226	1166
994.305	1461
994.384	1501
994.462	2214
994.540	1474
994.619	477
994.697	1243
994.776	1332
994.854	1912
994.932	585
995.011	971
995.089	539
995.167	1092
995.245	1553
995.324	720
995.402	1499
995.480	381
995.558	616
995.636	949
995.714	1173
995.792	2536
995.870	449
995.948	926
996.026	1149
996.104	174
996.182	1129
996.260	138
996.338	807
996.416	598
996.494	1449
996.572	2266
996.649	-71
996.727	108
996.805	1080
996.883	1034
996.960	463
997.038	2172
997.116	1072
997.193	1311
997.271	769
997.348	897
997.426	965
997.504	1081
997.581	1289
997.658	1208
997.736	-886
997.813	232
997.891	1764
997.968	402
998.046	680
998.123	116
998.200	1012
998.277	496
998.355	918
998.432	-16
998.509	329
998.586	752
998.663	348
998.741	401
998.818	-155
998.895	565
998.972	1212
999.049	1336
999.126	531
999.203	739
999.280	29
999.357	-222
999.434	520
999.511	654
999.587	543
999.664	-181
999.741	-393
999.818	661
999.895	53
999.971	507
1000.048	403
1000.125	1215
1000.202	-82
1000.278	425
1000.355	779
1000.431	-461
1000.508	-170
1000.584	358
1000.661	198
1000.738	362
1000.814	-679
1000.890	762
1000.967	838
1001.043	326
1001.120	-658
1001.196	570
1001.272	-1434
1001.349	928
1001.425	660
1001.501	1223
1001.577	-379
1001.654	869
1001.730	-97
1001.806	963
1001.882	-640
1001.958	453
1002.034	495
1002.110	-376
1002.186	-460
1002.262	-158
1002.338	-814
1002.414	803
1002.490	184
1002.566	239
1002.642	-765
1002.718	-80
1002.794	361
1002.870	169
1002.945	-507
1003.021	-447
1003.097	-521
1003.173	396
1003.248	-808
1003.324	124
1003.400	-141
1003.475	-107
1003.551	-72
1003.626	335
1003.702	-731
1003.777	177
1003.853	-44
1003.928	-192
1004.004	-253
1004.079	492
1004.155	-185
1004.230	-358
1004.305	1431
1004.381	-377
1004.456	-791
1004.531	-839
1004.607	-62
1004.682	-321
1004.757	507
1004.832	198
1004.907	-364
1004.982	-144
1005.057	-78
1005.133	-334
1005.208	-375
1005.283	-325
1005.358	-345
1005.433	-1036
1005.508	-1018
1005.583	-262
1005.657	-673
1005.732	511
1005.807	-1200
1005.882	-412
1005.957	-806
1006.032	-635
1006.106	-508
1006.181	49
1006.256	-216
1006.331	-1401
1006.405	-1009
1006.480	11
1006.554	-188
1006.629	-376
1006.704	-239
1006.778	553
1006.853	-340
1006.927	-522
1007.002	-1474
1007.076	-354
1007.150	-494
1007.225	-94
1007.299	76
1007.373	-38
1007.448	-1065
1007.522	160
1007.596	-824
1007.671	-884
1007.745	-223
1007.819	-1068
1007.893	-758
1007.967	-108
1008.041	-1413
1008.115	-42
1008.190	-1672
1008.264	4
1008.338	-1549
1008.412	-368
1008.486	-19
1008.560	-810
1008.633	-726
1008.707	-625
1008.781	-231
1008.855	-129
1008.929	-609
1009.003	-191
1009.076	-1162
1009.150	-409
1009.224	-747
1009.298	336
1009.371	-980
1009.445	-307
1009.519	-611
1009.592	-894
1009.666	-1198
1009.739	-803
1009.813	-2051
1009.886	-96
1009.960	-2108
1010.033	85
1010.107	-1238
1010.180	-1610
1010.253	-1609
1010.327	-643
1010.400	-1334
1010.473	-530
1010.547	77
1010.620	-1303
1010.693	-844
1010.766	-211
1010.840	571
1010.913	-247
1010.986	-2100
1011.059	-1347
1011.132	-1718
1011.205	-465
1011.278	-570
1011.351	-1035
1011.424	-512
1011.497	-831
1011.570	-1394
1011.643	-1021
1011.716	-1571
1011.789	-591
1011.862	-743
1011.934	-152
1012.007	-1609
1012.080	-98
1012.153	-1425
1012.225	-318
1012.298	-1099
1012.371	-1269
1012.443	-1111
1012.516	-1582
1012.588	-192
1012.661	-1159
1012.733	-1064
1012.806	-540
1012.879	-1290
1012.951	-214
1013.023	-990
1013.096	-406
1013.168	-1298
1013.241	232
1013.313	-1055
1013.385	-1134
1013.458	-1301
1013.530	-564
1013.602	-1245
1013.674	-78
1013.746	-1410
1013.819	-1444
1013.891	-476
1013.963	-1257
1014.035	-1416
1014.107	-242
1014.179	-1318
1014.251	-1535
1014.323	-1439
1014.395	-1101
1014.467	-1082
1014.539	-285
1014.611	-1753
1014.683	-643
1014.754	-661
1014.826	-777
1014.898	-1456
1014.970	-1227
1015.042	32
1015.113	-232
1015.185	-1268
1015.257	-1896
1015.328	-987
1015.400	-1248
1015.471	-1019
1015.543	-1160
1015.615	453
1015.686	-1415
1015.757	-1230
1015.829	-920
1015.901	-1350
1015.972	-554
1016.043	-1404
1016.115	-725
1016.186	-1311
1016.257	-1266
1016.328	-1181
1016.400	-897
1016.471	-1706
1016.542	-483
1016.613	-1710
1016.685	-1899
1016.756	-1004
1016.827	-1545
1016.898	-1584
1016.969	-895
1017.040	-1372
1017.111	-816
1017.182	-1714
1017.253	-555
1017.324	-1519
1017.395	-712
1017.466	-1820
1017.537	-1289
1017.608	-1561
1017.678	-1954
1017.749	-1596
1017.820	-1209
1017.891	-1537
1017.961	-1001
1018.032	-1387
1018.103	-403
1018.173	-2572
1018.244	-1806
1018.315	-1698
1018.385	-874
1018.456	-1610
1018.526	-1188
1018.597	-1720
1018.667	-1429
1018.738	-1970
1018.808	-552
1018.878	-1512
1018.949	-941
1019.019	-1384
1019.089	-405
1019.160	-1166
1019.230	-1785
1019.300	-548
1019.371	-1397
1019.441	-1636
1019.511	-1544
1019.581	-1529
1019.651	-1065
1019.721	-1688
1019.791	-1256
1019.861	-2080
1019.931	-1291
1020.001	-1533
1020.071	-287
1020.141	-1971
1020.211	-1080
1020.281	-1303
1020.351	-927
1020.421	-1318
1020.491	-956
1020.560	-2329
1020.630	-1860
1020.700	-1338
1020.770	-968
1020.839	-2262
1020.909	-686
1020.979	-1954
1021.048	-2109
1021.118	-1571
1021.187	-990
1021.257	-997
1021.326	-988
1021.396	-2036
1021.465	-598
1021.535	-1172
1021.604	-1334
1021.674	-1189
1021.743	-1234
1021.812	-1067
1021.882	-1549
1021.951	-1361
1022.020	-1276
1022.089	-733
1022.159	-1023
1022.228	-1375
1022.297	-1106
1022.366	-1687
1022.435	-1021
1022.504	-743
1022.573	-1092
1022.642	-1126
1022.711	-1611
1022.781	-1953
1022.849	-1720
1022.918	-2019
1022.987	-694
1023.056	-1475
1023.125	-983
1023.194	-1660
1023.263	-1163
1023.331	-594
1023.400	-1355
1023.469	-1674
1023.538	-1462
1023.606	-1245
1023.675	-1023
1023.744	-2118
1023.812	-1966
1023.881	-1753
1023.949	-1147
1024.018	-1596
1024.086	-822
1024.155	-1378
1024.223	-979
1024.292	-1126
1024.360	-1789
1024.429	-1199
1024.497	-2140
1024.565	-1212
1024.634	-1343
1024.702	-1595
1024.770	-1101
1024.838	-1356
1024.907	-560
1024.975	-2200
1025.043	-813
1025.111	-1531
1025.179	-1984
1025.247	-1083
1025.315	-880
1025.383	-1967
1025.451	-1272
1025.519	-615
1025.587	-828
1025.655	-1126
1025.723	-876
1025.791	-1719
1025.859	-1472
1025.927	-1819
1025.995	-1195
1026.062	-1774
1026.130	-961
1026.198	-1380
1026.266	-2016
1026.333	-1368
1026.401	-1104
1026.469	-2116
1026.536	-2254
1026.604	-1458
1026.671	-1237
1026.739	-1509
1026.806	-1172
1026.874	-1800
1026.941	-1272
1027.009	-938
1027.076	-1300
1027.144	-903
1027.211	-1710
1027.278	-2004
1027.345	-1105
1027.413	-1706
1027.480	-1673
1027.547	-2107
1027.614	-1151
1027.682	-1692
1027.749	-1429
1027.816	-1984
1027.883	-1395
1027.950	-1761
1028.017	-1537
1028.084	-1439
1028.151	-1580
1028.218	-2370
1028.285	-1429
1028.352	-1904
1028.419	-1088
1028.486	-1633
1028.553	-1065
1028.619	-1586
1028.686	-1379
1028.753	-2097
1028.820	-1461
1028.886	-2113
1028.953	-1620
1029.020	-1355
1029.086	-1396
1029.153	-2074
1029.220	-1287
1029.286	-1178
1029.353	-726
1029.419	-1755
1029.486	-1034
1029.552	-2025
1029.619	-1454
1029.685	-2478
1029.751	-1513
1029.818	-1055
1029.884	-1539
1029.951	-1159
1030.017	-1770
1030.083	-1895
1030.149	-1125
1030.216	-1373
1030.282	-1204
1030.348	-2059
1030.414	-1248
1030.480	-1747
1030.546	-1048
1030.612	-1969
1030.678	-2279
1030.744	-1589
1030.810	-1941
1030.876	-2049
1030.942	-1777
1031.008	-1064
1031.074	-2262
1031.140	-2453
1031.206	-861
1031.272	-2070
1031.337	-1278
1031.403	-1337
1031.469	-1594
1031.534	-1699
1031.600	-757
1031.666	-2160
1031.731	-1578
1031.797	-2361
1031.863	-810
1031.928	-1742
1031.994	-1528
1032.059	-1562
1032.125	-1515
1032.190	-1952
1032.256	-2327
1032.321	-2525
1032.386	-1619
1032.452	-1380
1032.517	-908
1032.582	-2077
1032.647	-1744
1032.713	-2381
1032.778	-1234
1032.843	-1561
1032.908	-1321
1032.974	-1936
1033.039	-1117
1033.104	-1245
1033.169	-1202
1033.234	-1967
1033.299	-603
1033.364	-713
1033.429	-1206
1033.494	-1171
1033.559	-1546
1033.624	-1835
1033.688	-1478
1033.753	-1623
1033.818	-1838
1033.883	-1856
1033.948	-544
1034.013	-1371
1034.077	173
1034.142	-1104
1034.207	-150
1034.271	-38
1034.336	1011
1034.400	-277
1034.465	-825
1034.530	-1849
1034.594	-1235
1034.658	-1963
1034.723	-1507
1034.787	-1888
1034.852	-944
1034.916	-1961
1034.981	-1440
1035.045	-2406
1035.109	-1606
1035.173	-1440
1035.238	-1490
1035.302	-1451
1035.366	-1948
1035.430	-2440
1035.495	-1702
1035.559	-1439
1035.623	-1822
1035.687	-2052
1035.751	-1390
1035.815	-2330
1035.879	-2134
1035.943	-1663
1036.007	-1761
1036.071	-1937
1036.135	-1491
1036.198	-1802
1036.262	-2286
1036.326	-1525
1036.390	-1743
1036.454	-1709
1036.517	-2014
1036.581	-1773
1036.645	-1619
1036.709	-1818
1036.772	-755
1036.836	-1943
1036.900	-1062
1036.963	-2310
1037.026	-1861
1037.090	-1855
1037.154	-1264
1037.217	-1991
1037.280	-1343
1037.344	-1490
1037.407	-1520
1037.471	-1802
1037.534	-1543
1037.597	-1914
1037.661	-2116
1037.724	-2183
1037.787	-1934
1037.850	-1654
1037.913	-2288
1037.977	-1191
1038.040	-1525
1038.103	-2093
1038.166	-1897
1038.229	-1869
1038.292	-2175
1038.355	-2348
1038.418	-767
1038.481	-1196
1038.544	-1583
1038.607	-1927
1038.670	-1643
1038.732	-1567
1038.795	-1204
1038.858	-2552
1038.921	-1492
1038.984	-1679
1039.046	-1587
1039.109	-1619
1039.172	-1387
1039.234	-1907
1039.297	-1876
1039.360	-1642
1039.422	-1762
1039.485	-2056
1039.547	-1849
1039.610	-1427
1039.672	-1275
1039.734	-2088
1039.797	-1537
1039.859	-1528
1039.922	-1510
1039.984	-1777
1040.046	-1064
1040.109	-2047
1040.171	-2514
1040.233	-1856
1040.295	-1594
1040.358	-2004
1040.420	-938
1040.482	-2064
1040.544	-2153
1040.606	-1505
1040.668	-1634
1040.730	-2418
1040.792	-1284
1040.854	-1785
1040.916	-1910
1040.978	-2316
1041.040	-1186
1041.102	-1644
1041.164	-1883
1041.225	-2668
1041.287	-721
1041.349	-1587
1041.411	-2227
1041.472	-2102
1041.534	-1648
1041.596	-2623
1041.657	-1620
1041.719	-2313
1041.781	-1767
1041.842	-1611
1041.904	-1414
1041.965	-1548
1042.027	-1691
1042.088	-2504
1042.150	-1302
1042.211	-1640
1042.272	-1653
1042.334	-2429
1042.395	-1174
1042.456	-2777
1042.518	-1744
1042.579	-1141
1042.640	-2178
1042.701	-1803
1042.763	-1082
1042.824	-2986
1042.885	-2090
1042.946	-2243
1043.007	-1513
1043.068	-1912
1043.129	-1721
1043.190	-2086
1043.251	-1278
1043.312	-1696
1043.373	-1071
1043.434	-2221
1043.495	-1735
1043.556	-2146
1043.616	-1740
1043.677	-2510
1043.738	-1793
1043.799	-2391
1043.859	-2018
1043.920	-1412
1043.981	-810
1044.041	-2748
1044.102	-1386
1044.162	-2165
1044.223	-1900
1044.284	-1620
1044.344	-1774
1044.405	-2087
1044.465	-1505
1044.525	-1554
1044.586	-1275
1044.646	-2728
1044.707	-1480
1044.767	-1174
1044.827	-1264
1044.887	-1734
1044.948	-964
1045.008	-954
1045.068	-858
1045.128	-2090
1045.188	-2013
1045.249	-1346
1045.309	-1594
1045.369	-1567
1045.429	-1577
1045.489	-1518
1045.549	-1429
1045.609	-2559
1045.669	-1422
1045.729	-2126
1045.789	-1814
1045.848	-2149
1045.908	-1459
1045.968	-608
1046.028	-2005
1046.088	-1066
1046.147	-759
1046.207	-2129
1046.267	-1539
1046.326	-1381
1046.386	-1181
1046.446	-617
1046.505	-780
1046.565	-1637
1046.624	-811
1046.684	-691
1046.743	-468
1046.803	-1269
1046.862	-653
1046.922	0
