'Start Wavelength	183.907
'End Wavelength	1046.922
'Gate Delay	5.000
'Gate Width (ms)	1.050
'Laser Output Level	0.000
'X Position	0.000
'Y Position	0.000
'Z Position	0.000
'Grid Point Number	1.000
'Shot Number	100.000
183.907	913.000
183.977	-82.000
184.047	232
184.116	203
184.186	597
184.256	15
184.325	-396
184.395	-381
184.465	520
184.534	-613
184.604	246
184.674	1140
184.743	-644
184.813	300
184.883	74
184.952	296
185.022	173
185.092	484
185.161	486
185.231	4
185.301	520
185.370	613
185.440	722
185.509	-346
185.579	-16
185.649	278
185.718	74
185.788	435
185.857	200
185.927	-884
185.996	-68
186.066	-209
186.136	1038
186.205	54
186.275	424
186.344	46
186.414	469
186.483	434
186.553	1354
186.622	1726
186.692	29
186.761	99
186.831	519
186.900	-85
186.970	857
187.039	802
187.109	726
187.178	262
187.248	-209
187.317	127
187.387	167
187.456	1188
187.526	318
187.595	687
187.664	405
187.734	626
187.803	502
187.873	686
187.942	294
188.012	762
188.081	131
188.150	669
188.220	768
188.289	1433
188.358	1012
188.428	1382
188.497	-85
188.567	805
188.636	242
188.705	-117
188.775	800
188.844	587
188.913	1080
188.983	827
189.052	104
189.121	546
189.191	478
189.260	574
189.329	400
189.399	481
189.468	-63
189.537	328
189.606	596
189.676	715
189.745	411
189.814	-172
189.883	600
189.953	490
190.022	-41
190.091	-165
190.161	409
190.230	520
190.299	176
190.368	683
190.437	172
190.507	583
190.576	-232
190.645	272
190.714	496
190.783	26
190.853	1025
190.922	1001
190.991	606
191.060	466
191.129	-714
191.198	870
191.268	476
191.337	164
191.406	1246
191.475	705
191.544	608
191.613	1077
191.682	660
191.752	431
191.821	156
191.890	452
191.959	171
192.028	519
192.097	358
192.166	1206
192.235	-130
192.304	1440
192.373	-112
192.442	55
192.511	207
192.580	-143
192.650	-32
192.719	958
192.788	1063
192.857	1048
192.926	295
192.995	569
193.064	1279
193.133	627
193.202	98
193.271	181
193.340	406
193.409	422
193.478	1057
193.547	415
193.615	323
193.684	363
193.753	516
193.822	830
193.891	195
193.960	969
194.029	566
194.098	1341
194.167	230
194.236	1099
194.305	411
194.374	136
194.443	368
194.512	296
194.580	466
194.649	516
194.718	210
194.787	398
194.856	368
194.925	676
194.994	369
195.062	621
195.131	610
195.200	344
195.269	1328
195.338	593
195.407	133
195.475	147
195.544	591
195.613	102
195.682	434
195.751	315
195.819	-295
195.888	698
195.957	444
196.026	827
196.094	943
196.163	32
196.232	565
196.301	744
196.369	387
196.438	0
196.507	28
196.576	-187
196.644	89
196.713	83
196.782	-284
196.850	897
196.919	-412
196.988	681
197.056	555
197.125	783
197.194	230
197.262	-80
197.331	-494
197.400	-294
197.468	586
197.537	656
197.606	586
197.674	120
197.743	-515
197.812	245
197.880	-30
197.949	-101
198.017	725
198.086	-508
198.155	578
198.223	851
198.292	-466
198.360	608
198.429	174
198.497	475
198.566	367
198.635	877
198.703	470
198.772	407
198.840	-300
198.909	-72
198.977	-15
199.046	1084
199.114	791
199.183	962
199.251	538
199.320	415
199.388	425
199.457	50
199.525	-779
199.594	362
199.662	176
199.731	-146
199.799	417
199.867	162
199.936	762
200.004	1235
200.073	470
200.141	101
200.210	480
200.278	322
200.346	1118
200.415	1484
200.483	11
200.552	1526
200.620	836
200.688	963
200.757	731
200.825	858
200.893	892
200.962	632
201.030	423
201.098	-565
201.167	789
201.235	425
201.303	144
201.372	876
201.440	235
201.508	708
201.577	-111
201.645	723
201.713	434
201.781	90
201.850	850
201.918	1154
201.986	576
202.055	1370
202.123	525
202.191	696
202.259	278
202.327	368
202.396	296
202.464	815
202.532	88
202.600	1951
202.669	1492
202.737	250
202.805	-268
202.873	683
202.941	883
203.009	238
203.078	886
203.146	806
203.214	61
203.282	-91
203.350	724
203.418	830
203.487	473
203.555	-152
203.623	382
203.691	452
203.759	303
203.827	249
203.895	963
203.963	179
204.031	761
204.099	1237
204.168	1406
204.236	408
204.304	464
204.372	789
204.440	324
204.508	258
204.576	568
204.644	721
204.712	272
204.780	335
204.848	1249
204.916	159
204.984	29
205.052	844
205.120	825
205.188	259
205.256	-124
205.324	175
205.392	266
205.460	446
205.528	-49
205.596	870
205.664	-250
205.732	-545
205.799	282
205.867	431
205.935	-315
206.003	1044
206.071	222
206.139	313
206.207	-407
206.275	-297
206.343	233
206.411	193
206.478	1265
206.546	161
206.614	679
206.682	112
206.750	837
206.818	1586
206.885	1982
206.953	148
207.021	2309
207.089	252
207.157	289
207.225	866
207.292	-87
207.360	-75
207.428	131
207.496	714
207.563	392
207.631	1090
207.699	138
207.767	-53
207.834	229
207.902	750
207.970	207
208.038	-190
208.105	651
208.173	1295
208.241	133
208.309	735
208.376	341
208.444	345
208.512	444
208.579	-390
208.647	1642
208.715	2367
208.782	112
208.850	990
208.918	50
208.985	1295
209.053	1122
209.120	395
209.188	-153
209.256	1433
209.323	50
209.391	146
209.459	1253
209.526	849
209.594	524
209.661	314
209.729	624
209.796	930
209.864	1435
209.932	-496
209.999	2256
210.067	357
210.134	220
210.202	-47
210.269	1183
210.337	1998
210.404	1854
210.472	655
210.539	587
210.607	313
210.674	341
210.742	809
210.809	544
210.877	69
210.944	1495
211.012	-187
211.079	2357
211.146	855
211.214	664
211.281	1730
211.349	2468
211.416	922
211.484	837
211.551	338
211.618	539
211.686	709
211.753	-173
211.821	1234
211.888	212
211.955	92
212.023	848
212.090	777
212.157	-59
212.225	328
212.292	390
212.359	1074
212.427	355
212.494	-127
212.561	-103
212.629	-122
212.696	272
212.763	591
212.831	-488
212.898	1070
212.965	56
213.032	278
213.100	32
213.167	-88
213.234	1256
213.301	477
213.369	448
213.436	689
213.503	179
213.570	385
213.638	-64
213.705	-614
213.772	-862
213.839	301
213.906	1066
213.973	1087
214.041	396
214.108	601
214.175	-22
214.242	-102
214.309	341
214.376	942
214.444	78
214.511	414
214.578	587
214.645	770
214.712	1469
214.779	531
214.846	425
214.913	1329
214.980	1913
215.048	2787
215.115	3122
215.182	2157
215.249	1496
215.316	3
215.383	1909
215.450	1249
215.517	518
215.584	1021
215.651	772
215.718	106
215.785	1039
215.852	104
215.919	425
215.986	891
216.053	148
216.120	498
216.187	308
216.254	24
216.321	458
216.388	358
216.455	-479
216.522	1028
216.589	282
216.656	462
216.722	306
216.789	155
216.856	-1035
216.923	347
216.990	864
217.057	-112
217.124	202
217.191	-86
217.258	37
217.324	670
217.391	162
217.458	-40
217.525	599
217.592	969
217.659	-246
217.725	1020
217.792	-139
217.859	792
217.926	320
217.993	112
218.059	683
218.126	725
218.193	123
218.260	719
218.327	332
218.393	-73
218.460	108
218.527	-361
218.594	460
218.660	-8
218.727	368
218.794	-592
218.860	1331
218.927	135
218.994	288
219.061	203
219.127	265
219.194	53
219.261	753
219.327	136
219.394	1329
219.461	-45
219.527	938
219.594	1009
219.661	784
219.727	-362
219.794	1416
219.860	1432
219.927	2530
219.994	5025
220.060	6880
220.127	7362
220.193	5158
220.260	3402
220.326	1864
220.393	1501
220.460	81
220.526	-8
220.593	-99
220.659	1433
220.726	495
220.792	-19
220.859	557
220.925	828
220.992	875
221.058	448
221.125	176
221.191	-246
221.258	-524
221.324	408
221.391	403
221.457	103
221.524	159
221.590	522
221.657	180
221.723	-42
221.789	199
221.856	1215
221.922	-242
221.989	1230
222.055	295
222.121	312
222.188	2396
222.254	864
222.321	599
222.387	521
222.453	943
222.520	719
222.586	-73
222.652	363
222.719	-423
222.785	1166
222.851	-228
222.918	689
222.984	180
223.050	209
223.116	-948
223.183	1387
223.249	-248
223.315	-365
223.382	3
223.448	295
223.514	-219
223.580	908
223.647	-399
223.713	-347
223.779	166
223.845	-291
223.911	756
223.978	-234
224.044	169
224.110	188
224.176	403
224.242	1071
224.309	-196
224.375	336
224.441	667
224.507	119
224.573	-576
224.639	673
224.705	-180
224.772	915
224.838	-5
224.904	477
224.970	89
225.036	125
225.102	-1277
225.168	1346
225.234	1175
225.300	1376
225.366	610
225.432	674
225.499	859
225.565	1088
225.631	-12
225.697	338
225.763	1003
225.829	723
225.895	575
225.961	1123
226.027	1315
226.093	-346
226.159	1106
226.225	1609
226.291	651
226.357	179
226.423	343
226.489	596
226.554	513
226.620	533
226.686	651
226.752	655
226.818	1157
226.884	953
226.950	958
227.016	912
227.082	1455
227.148	1025
227.214	1638
227.279	1675
227.345	2420
227.411	3828
227.477	7819
227.543	10991
227.609	13948
227.674	11280
227.740	5944
227.806	3443
227.872	2275
227.938	1865
228.003	1067
228.069	1250
228.135	922
228.201	966
228.267	375
228.332	1004
228.398	-1166
228.464	129
228.530	457
228.595	389
228.661	-651
228.727	-942
228.792	1000
228.858	294
228.924	-1703
228.990	2505
229.055	-181
229.121	269
229.187	336
229.252	33
229.318	-638
229.384	715
229.449	235
229.515	-1171
229.581	-562
229.646	1757
229.712	-208
229.777	-200
229.843	-673
229.909	136
229.974	316
230.040	175
230.105	-21
230.171	-687
230.236	-74
230.302	103
230.368	-354
230.433	-397
230.499	-44
230.564	1126
230.630	-398
230.695	320
230.761	1826
230.826	-753
230.892	1445
230.957	-1369
231.023	-376
231.088	456
231.154	490
231.219	1596
231.284	-385
231.350	1404
231.415	-1051
231.481	1282
231.546	400
231.612	617
231.677	122
231.742	-732
231.808	1440
231.873	-439
231.939	-1370
232.004	1244
232.069	782
232.135	-188
232.200	-105
232.265	809
232.331	578
232.396	477
232.461	-26
232.527	33
232.592	-924
232.657	1302
232.723	682
232.788	270
232.853	938
232.918	965
232.984	-329
233.049	158
233.114	-75
233.179	1740
233.245	1842
233.310	1163
233.375	-739
233.440	1410
233.506	-312
233.571	100
233.636	108
233.701	831
233.766	399
233.832	630
233.897	224
233.962	-855
234.027	1348
234.092	1068
234.157	424
234.222	620
234.288	979
234.353	177
234.418	1290
234.483	782
234.548	1261
234.613	-337
234.678	501
234.743	-352
234.808	1796
234.873	-1674
234.938	1316
235.004	-319
235.069	31
235.134	-25
235.199	594
235.264	750
235.329	-1244
235.394	1116
235.459	1481
235.524	-336
235.589	648
235.654	-128
235.719	-956
235.784	1301
235.849	537
235.913	333
235.978	205
236.043	457
236.108	86
236.173	-85
236.238	702
236.303	-211
236.368	-41
236.433	1491
236.498	-778
236.563	109
236.627	-42
236.692	361
236.757	140
236.822	726
236.887	-598
236.952	600
237.017	-1785
237.081	725
237.146	-957
237.211	1017
237.276	-212
237.341	417
237.405	-783
237.470	76
237.535	1078
237.600	372
237.664	806
237.729	-793
237.794	-1019
237.859	863
237.923	-10
237.988	-436
238.053	1294
238.118	69
238.182	-82
238.247	1780
238.312	-880
238.376	1110
238.441	-1254
238.506	1121
238.570	-400
238.635	1966
238.700	1394
238.764	314
238.829	395
238.893	412
238.958	864
239.023	739
239.087	1523
239.152	1227
239.216	992
239.281	1873
239.346	404
239.410	1291
239.475	1326
239.539	2619
239.604	1137
239.668	4364
239.733	6530
239.797	15210
239.862	23203
239.926	22595
239.991	13117
240.055	6304
240.120	3812
240.184	3306
240.249	1446
240.313	1596
240.378	1497
240.442	890
240.507	430
240.571	893
240.635	404
240.700	574
240.764	70
240.829	1119
240.893	-344
240.957	1547
241.022	851
241.086	1058
241.151	-878
241.215	-703
241.279	1590
241.344	-235
241.408	962
241.472	-519
241.537	986
241.601	297
241.665	-603
241.730	968
241.794	910
241.858	-146
241.922	433
241.987	148
242.051	681
242.115	-648
242.179	36
242.244	211
242.308	517
242.372	-5
242.436	1
242.501	338
242.565	-292
242.629	-164
242.693	1373
242.757	383
242.822	432
242.886	1311
242.950	660
243.014	53
243.078	887
243.142	670
243.206	-8
243.271	1123
243.335	48
243.399	952
243.463	252
243.527	1337
243.591	-873
243.655	130
243.719	-526
243.783	1133
243.847	201
243.911	309
243.975	38
244.040	-729
244.104	1858
244.168	-11
244.232	359
244.296	-12
244.360	-26
244.424	453
244.488	1099
244.552	1536
244.615	-1962
244.679	138
244.743	-319
244.807	-244
244.871	484
244.935	593
244.999	-788
245.063	630
245.127	1644
245.191	410
245.255	462
245.319	499
245.383	-804
245.446	1076
245.510	-1082
245.574	13
245.638	1019
245.702	-1154
245.766	1074
245.829	1538
245.893	328
245.957	76
246.021	1312
246.085	783
246.149	-74
246.212	1328
246.276	271
246.340	-94
246.404	841
246.467	1418
246.531	-834
246.595	1138
246.659	2019
246.722	-433
246.786	1287
246.850	898
246.913	344
246.977	-1047
247.041	280
247.104	160
247.168	1098
247.232	513
247.295	1899
247.359	1654
247.423	873
247.486	159
247.550	1075
247.614	356
247.677	243
247.741	584
247.804	836
247.868	3445
247.932	555
247.995	2407
248.059	394
248.122	-249
248.186	2474
248.249	915
248.313	3386
248.376	3258
248.440	1123
248.503	-634
248.567	1928
248.630	-357
248.694	286
248.757	2108
248.821	3581
248.884	2722
248.948	20
249.011	1857
249.075	2573
249.138	2343
249.202	699
249.265	702
249.328	1124
249.392	-697
249.455	644
249.519	776
249.582	1514
249.645	1721
249.709	1404
249.772	-12
249.835	577
249.899	578
249.962	1763
250.025	836
250.089	891
250.152	1878
250.215	1003
250.279	78
250.342	2069
250.405	246
250.468	276
250.532	459
250.595	665
250.658	-409
250.721	1062
250.785	-156
250.848	1497
250.911	-362
250.974	172
251.038	165
251.101	1215
251.164	372
251.227	1321
251.290	544
251.354	888
251.417	-291
251.480	568
251.543	999
251.606	1326
251.669	1231
251.732	232
251.795	825
251.859	861
251.922	978
251.985	436
252.048	533
252.111	1454
252.174	-947
252.237	441
252.300	2802
252.363	449
252.426	1942
252.489	-96
252.552	610
252.615	-575
252.678	899
252.741	1951
252.804	838
252.867	855
252.930	1883
252.993	168
253.056	965
253.119	304
253.182	581
253.245	561
253.308	1516
253.371	736
253.434	1186
253.497	1389
253.559	1837
253.622	725
253.685	712
253.748	707
253.811	501
253.874	1839
253.937	727
254.000	1060
254.062	1263
254.125	942
254.188	2105
254.251	475
254.314	1372
254.376	149
254.439	1380
254.502	994
254.565	771
254.628	1931
254.690	374
254.753	328
254.816	853
254.878	988
254.941	1065
255.004	1756
255.067	467
255.129	557
255.192	782
255.255	486
255.317	1206
255.380	1256
255.443	860
255.505	1816
255.568	1141
255.631	911
255.693	2396
255.756	1673
255.819	2611
255.881	3655
255.944	2382
256.006	1576
256.069	1586
256.132	592
256.194	948
256.257	1571
256.319	2311
256.382	3076
256.444	6901
256.507	3943
256.569	2966
256.632	1132
256.694	507
256.757	1589
256.819	1528
256.882	575
256.944	1625
257.007	2160
257.069	1084
257.132	621
257.194	1846
257.257	1186
257.319	819
257.381	82
257.444	2533
257.506	1469
257.569	1412
257.631	1868
257.693	1929
257.756	1153
257.818	1010
257.880	1035
257.943	2080
258.005	492
258.067	1376
258.130	910
258.192	1536
258.254	1111
258.317	1242
258.379	1481
258.441	977
258.503	1909
258.566	664
258.628	1983
258.690	334
258.753	1737
258.815	1461
258.877	3
258.939	1498
259.001	1814
259.064	454
259.126	510
259.188	1168
259.250	2049
259.312	1887
259.375	1793
259.437	1369
259.499	1333
259.561	1382
259.623	1648
259.685	1292
259.747	818
259.809	1288
259.872	1432
259.934	1881
259.996	2117
260.058	2037
260.120	810
260.182	896
260.244	1682
260.306	1631
260.368	1328
260.430	853
260.492	2061
260.554	1962
260.616	778
260.678	1525
260.740	1980
260.802	772
260.864	2233
260.926	293
260.988	1918
261.050	1041
261.112	1709
261.174	2658
261.236	2083
261.298	1813
261.359	2262
261.421	2895
261.483	688
261.545	2635
261.607	1410
261.669	2441
261.731	1963
261.793	2951
261.854	469
261.916	1962
261.978	1602
262.040	1854
262.102	2381
262.164	1420
262.225	2345
262.287	2143
262.349	1587
262.411	2194
262.472	2739
262.534	780
262.596	1689
262.658	2352
262.719	659
262.781	2612
262.843	1498
262.904	2167
262.966	1862
263.028	2075
263.090	2083
263.151	1903
263.213	1391
263.275	997
263.336	1760
263.398	2047
263.459	1076
263.521	2298
263.583	1804
263.644	1770
263.706	1574
263.767	1755
263.829	2403
263.891	2225
263.952	1588
264.014	1887
264.075	1904
264.137	2549
264.198	2501
264.260	382
264.321	2271
264.383	1833
264.444	1883
264.506	1775
264.567	1541
264.629	2374
264.690	-38
264.752	2796
264.813	1688
264.875	1538
264.936	2340
264.998	1832
265.059	1879
265.120	3557
265.182	2072
265.243	1765
265.305	2140
265.366	1956
265.427	1844
265.489	4027
265.550	1569
265.611	1950
265.673	1779
265.734	1732
265.795	2552
265.857	1236
265.918	1327
265.979	2697
266.040	1338
266.102	1901
266.163	2183
266.224	2118
266.286	2419
266.347	1800
266.408	2552
266.469	2141
266.530	2491
266.592	1976
266.653	2180
266.714	2226
266.775	2050
266.836	2593
266.898	1706
266.959	1610
267.020	2089
267.081	3049
267.142	2373
267.203	2577
267.264	1546
267.326	3555
267.387	1739
267.448	1576
267.509	1643
267.570	2752
267.631	1277
267.692	2759
267.753	2423
267.814	2096
267.875	1376
267.936	1930
267.997	2730
268.058	2503
268.119	1927
268.180	1729
268.241	1591
268.302	1624
268.363	1655
268.424	2225
268.485	2138
268.546	1650
268.607	1456
268.668	1718
268.729	2071
268.790	2448
268.851	2799
268.912	1723
268.972	2522
269.033	2514
269.094	1706
269.155	2353
269.216	2130
269.277	2191
269.338	2037
269.398	2025
269.459	1882
269.520	2879
269.581	2399
269.642	2183
269.702	961
269.763	2048
269.824	2049
269.885	2411
269.945	2522
270.006	2940
270.067	1692
270.128	2358
270.188	1664
270.249	1626
270.310	1725
270.370	2325
270.431	2708
270.492	2177
270.553	1907
270.613	3071
270.674	2461
270.734	2105
270.795	1966
270.856	2858
270.916	1617
270.977	2167
271.038	2665
271.098	1897
271.159	2039
271.219	2256
271.280	2829
271.340	2823
271.401	2282
271.462	2056
271.522	1995
271.583	3014
271.643	2438
271.704	2969
271.764	3007
271.825	3120
271.885	4509
271.946	5333
272.006	3019
272.066	4272
272.127	7736
272.187	16579
272.248	10825
272.308	3949
272.369	3272
272.429	3872
272.489	2515
272.550	3443
272.610	2917
272.671	2892
272.731	2489
272.791	2631
272.852	2613
272.912	2800
272.972	3201
273.033	2794
273.093	2558
273.153	3426
273.214	2845
273.274	2864
273.334	3946
273.394	3383
273.455	2746
273.515	3620
273.575	3570
273.635	4401
273.696	3526
273.756	4691
273.816	3385
273.876	3175
273.936	3074
273.997	3527
274.057	3153
274.117	2142
274.177	2066
274.237	3633
274.297	4177
274.358	3441
274.418	4059
274.478	3759
274.538	3590
274.598	3198
274.658	4059
274.718	3240
274.778	2967
274.838	3158
274.898	3254
274.958	3771
275.018	5041
275.078	4279
275.138	3137
275.198	3193
275.258	3218
275.318	4056
275.378	3471
275.438	3404
275.498	3570
275.558	3350
275.618	4756
275.678	3295
275.738	4811
275.798	4540
275.858	3872
275.918	3319
275.978	3515
276.038	3340
276.098	3876
276.157	4075
276.217	4357
276.277	4494
276.337	3366
276.397	3591
276.457	4103
276.517	5182
276.576	4062
276.636	2907
276.696	4249
276.756	3316
276.815	4159
276.875	5273
276.935	3687
276.995	4171
277.055	5288
277.114	6912
277.174	4556
277.234	4052
277.293	3924
277.353	3328
277.413	3852
277.472	3478
277.532	3634
277.592	4062
277.651	8134
277.711	17724
277.771	7390
277.830	14346
277.890	15538
277.950	10428
278.009	32370
278.069	17338
278.128	11723
278.188	18330
278.248	10200
278.307	17818
278.367	15794
278.426	6491
278.486	5544
278.545	4498
278.605	4853
278.664	5180
278.724	4571
278.783	4514
278.843	5523
278.902	5250
278.962	4311
279.021	4634
279.081	5979
279.140	5256
279.199	4917
279.259	5082
279.318	6083
279.378	6684
279.437	9304
279.496	22070
279.556	78199
279.615	77245
279.675	19633
279.734	11793
279.793	10257
279.853	16832
279.912	10173
279.971	6918
280.031	6646
280.090	8679
280.149	13068
280.208	13155
280.268	47312
280.327	65835
280.386	16938
280.445	9267
280.505	7356
280.564	6133
280.623	5662
280.682	5671
280.742	5639
280.801	4849
280.860	4834
280.919	4269
280.978	4640
281.037	4476
281.097	4659
281.156	5789
281.215	4947
281.274	4649
281.333	5739
281.392	4850
281.451	5477
281.510	4661
281.569	4800
281.628	4773
281.688	4180
281.747	4481
281.806	4588
281.865	4935
281.924	4082
281.983	4843
282.042	4081
282.101	4501
282.160	4256
282.219	5348
282.278	4222
282.337	4614
282.396	4491
282.454	5157
282.513	4698
282.572	4400
282.631	5049
282.690	4577
282.749	4727
282.808	5016
282.867	3805
282.926	4216
282.985	4916
283.043	4769
283.102	4470
283.161	4265
283.220	4928
283.279	5103
283.338	4987
283.396	4455
283.455	5658
283.514	5201
283.573	5828
283.631	4794
283.690	5664
283.749	5013
283.808	5231
283.866	5827
283.925	5079
283.984	6013
284.043	5538
284.101	6085
284.160	5215
284.219	6733
284.277	5925
284.336	5824
284.395	7563
284.453	6401
284.512	7406
284.570	7163
284.629	7239
284.688	7743
284.746	8626
284.805	8444
284.863	9704
284.922	10892
284.981	13718
285.039	19257
285.098	30198
285.156	63061
285.215	135749
285.273	145156
285.332	88182
285.390	44800
285.449	26643
285.507	19885
285.566	15619
285.624	13169
285.683	12045
285.741	9916
285.799	8667
285.858	7544
285.916	7755
285.975	6769
286.033	6860
286.091	6183
286.150	6264
286.208	6652
286.267	5609
286.325	6571
286.383	6637
286.442	7239
286.500	6443
286.558	7026
286.616	6462
286.675	6435
286.733	5776
286.791	6099
286.850	5950
286.908	5444
286.966	5939
287.024	5335
287.083	5703
287.141	6023
287.199	6224
287.257	6642
287.315	6073
287.374	5202
287.432	6158
287.490	5096
287.548	5527
287.606	5587
287.664	6656
287.723	6136
287.781	6931
287.839	6009
287.897	6008
287.955	5846
288.013	5871
288.071	5601
288.129	5806
288.187	7014
288.245	6415
288.303	6137
288.361	5608
288.419	4896
288.477	6014
288.535	6157
288.593	5783
288.651	5662
288.709	5121
288.767	6237
288.825	4674
288.883	6297
288.941	5719
288.999	6097
289.057	5103
289.115	6301
289.173	5155
289.231	6669
289.289	5615
289.346	5545
289.404	6351
289.462	7285
289.520	6367
289.578	5821
289.636	6631
289.694	6125
289.751	6048
289.809	7005
289.867	5928
289.925	7000
289.983	6285
290.040	7028
290.098	5607
290.156	5892
290.214	5993
290.271	5405
290.329	7697
290.387	6660
290.444	6583
290.502	6034
290.560	6471
290.617	6000
290.675	6115
290.733	6038
290.790	6729
290.848	6878
290.906	6589
290.963	6556
291.021	6246
291.078	6006
291.136	6096
291.194	5896
291.251	5745
291.309	6452
291.366	6288
291.424	5961
291.481	5738
291.539	5374
291.596	7478
291.654	6445
291.711	6313
291.769	6921
291.826	6858
291.884	7369
291.941	6248
291.999	6821
292.056	6318
292.114	6587
292.171	5770
292.228	8491
292.286	8253
292.343	7419
292.401	6467
292.458	7166
292.515	7180
292.573	7496
292.630	7899
292.687	6984
292.745	6683
292.802	6238
292.859	7282
292.917	7565
292.974	6642
293.031	6273
293.089	6916
293.146	6486
293.203	7426
293.260	6925
293.318	5910
293.375	6847
293.432	6782
293.489	6905
293.546	7501
293.604	6887
293.661	7987
293.718	8179
293.775	7804
293.832	8179
293.889	9356
293.947	8152
294.004	6128
294.061	6135
294.118	7449
294.175	7862
294.232	8225
294.289	7481
294.346	7382
294.403	7998
294.460	6464
294.517	7499
294.574	7381
294.631	7949
294.688	7406
294.745	7551
294.802	8783
294.859	7539
294.916	7277
294.973	7330
295.030	5878
295.087	6944
295.144	6548
295.201	6870
295.258	6954
295.315	7541
295.372	7264
295.429	7284
295.486	6987
295.542	6972
295.599	7151
295.656	6229
295.713	6626
295.770	7805
295.827	6566
295.883	6887
295.940	7222
295.997	6484
296.054	6491
296.111	6871
296.167	7631
296.224	6855
296.281	7168
296.338	6847
296.394	6175
296.451	6706
296.508	6359
296.564	7237
296.621	7115
296.678	7642
296.734	10423
296.791	8590
296.848	6678
296.904	6878
296.961	7219
297.018	7732
297.074	7462
297.131	7411
297.187	6982
297.244	6938
297.301	7479
297.357	10307
297.414	7852
297.470	7180
297.527	7440
297.583	7580
297.640	7475
297.696	7076
297.753	7409
297.809	7216
297.866	6532
297.922	7603
297.979	7231
298.035	5983
298.092	7123
298.148	7699
298.204	7690
298.261	7452
298.317	8543
298.374	9216
298.430	9059
298.486	6860
298.543	6881
298.599	7491
298.656	7283
298.712	7617
298.768	7370
298.824	7290
298.881	7282
298.937	7658
298.993	8424
299.050	7893
299.106	7499
299.162	7984
299.218	7932
299.275	9295
299.331	10043
299.387	11304
299.443	16460
299.500	44005
299.556	49847
299.612	24812
299.668	20206
299.724	42399
299.780	62748
299.837	30166
299.893	20408
299.949	33042
300.005	55978
300.061	42879
300.117	60098
300.173	37380
300.229	18625
300.285	14491
300.341	12818
300.397	12202
300.453	11500
300.510	12392
300.566	15888
300.622	23672
300.678	62086
300.734	92534
300.790	48512
300.845	27472
300.901	37010
300.957	61392
301.013	35421
301.069	17706
301.125	13470
301.181	11564
301.237	10297
301.293	9737
301.349	9415
301.405	9380
301.461	8663
301.516	9237
301.572	7887
301.628	7961
301.684	8170
301.740	7936
301.796	8997
301.851	8230
301.907	8585
301.963	8632
302.019	8935
302.074	15284
302.130	18397
302.186	11732
302.242	9094
302.297	8678
302.353	8615
302.409	8347
302.464	8194
302.520	8255
302.576	7450
302.631	10101
302.687	7549
302.743	8044
302.798	7624
302.854	6928
302.910	7800
302.965	7067
303.021	7693
303.076	7560
303.132	7824
303.187	7545
303.243	7434
303.299	7255
303.354	7292
303.410	7549
303.465	7179
303.521	6823
303.576	7350
303.632	7805
303.687	8005
303.743	8118
303.798	8854
303.853	8049
303.909	7777
303.964	7732
304.020	6894
304.075	7511
304.130	7121
304.186	7723
304.241	9026
304.297	8246
304.352	8074
304.358	8177
304.407	9014
304.449	8311
304.463	8079
304.518	6821
304.539	6957
304.573	7174
304.629	7005
304.630	7016
304.684	7670
304.720	7837
304.739	7923
304.794	8791
304.811	8787
304.850	8762
304.902	7412
304.905	7325
304.960	7079
304.992	6927
305.015	6797
305.071	7053
305.083	7075
305.126	7220
305.173	6923
305.181	6872
305.236	6679
305.264	6810
305.292	6917
305.347	6928
305.354	6992
305.402	7406
305.445	7156
305.457	7085
305.512	6528
305.535	6531
305.567	6549
305.622	6190
305.626	6171
305.678	5901
305.716	6372
305.733	6548
305.788	7297
305.807	7033
305.843	6624
305.897	7152
305.898	7155
305.953	7497
305.988	6567
306.008	6008
306.063	5500
306.078	5449
306.118	5365
306.168	5716
306.173	5749
306.228	5543
306.259	5805
306.283	6044
306.338	6167
306.349	6044
306.393	5234
306.440	5325
306.448	5395
306.503	6331
306.530	5911
306.558	5521
306.613	5549
306.620	5512
306.668	4992
306.711	5772
306.723	5977
306.778	6213
306.801	5875
306.833	5470
306.888	5544
306.892	5522
306.943	5310
306.982	5413
306.997	5376
307.052	5243
307.072	5155
307.107	5169
307.162	4770
307.163	4777
307.217	4781
307.253	4639
307.272	4625
307.327	4568
307.343	4610
307.381	4643
307.434	4746
307.436	4749
307.491	4591
307.524	4659
307.546	4629
307.600	4211
307.614	4332
307.655	4665
307.704	4724
307.710	4759
307.765	4543
307.795	4672
307.819	4614
307.874	4510
307.885	4526
307.929	4642
307.975	5428
307.984	5600
308.038	5684
308.065	5291
308.093	4762
308.148	4900
308.156	4920
308.202	4996
308.246	5334
308.257	5397
308.312	5170
308.336	4908
308.366	4422
308.421	4080
308.426	4046
308.475	4017
308.517	3877
308.530	3833
308.585	4115
308.607	4051
308.639	3800
308.694	3683
308.697	3682
308.748	4148
308.787	4645
308.803	4614
308.857	3672
308.877	3720
308.912	4099
308.967	4407
308.967	4421
309.021	5271
309.058	5874
309.076	6020
309.130	7124
309.148	7208
309.185	7939
309.238	10018
309.239	10029
309.293	10889
309.328	11221
309.348	10909
309.402	9041
309.418	8512
309.457	7866
309.508	7259
309.511	7247
309.566	7688
309.598	8393
309.620	9082
309.674	11269
309.688	11991
309.729	12307
309.778	11469
309.783	11329
309.837	9273
309.868	8047
309.892	7462
309.946	6674
309.959	6555
310.001	5924
310.049	5490
310.055	5443
310.109	5192
310.139	5068
310.163	4974
310.218	5068
310.229	4999
310.272	4405
310.319	4288
310.326	4242
310.381	3670
310.409	3607
310.435	3748
310.489	3503
310.499	3578
310.543	3821
310.589	3811
310.598	3812
310.652	4168
310.679	4285
310.706	4367
310.760	4458
310.769	4510
310.814	4598
310.859	4711
310.868	4659
310.923	4343
310.948	4197
310.977	4239
311.031	4502
311.038	4527
311.085	4300
311.128	4208
311.139	4224
311.193	4439
311.218	4467
311.247	4373
311.301	4340
311.308	4361
311.356	4561
311.398	4671
311.410	4523
311.464	4006
311.488	3776
311.518	3747
311.572	3645
311.578	3656
311.626	4158
311.668	4746
311.680	4699
311.734	4437
311.758	4353
311.788	4206
311.842	3978
311.847	3974
311.896	4414
311.937	4869
311.950	4761
312.004	4348
312.027	4198
312.058	3884
312.112	3354
312.117	3322
312.165	3720
312.207	4111
312.297	4543
312.386	3861
312.476	4063
312.566	4306
312.656	4468
312.745	3629
312.835	4516
312.925	4845
313.015	5859
313.104	5492
313.194	5776
313.284	5310
313.374	6088
313.463	6111
313.553	6388
313.643	6581
313.732	6776
313.822	7289
313.912	7552
314.001	8461
314.091	9055
314.180	7974
314.270	8072
314.360	7670
314.449	8385
314.539	8417
314.628	8968
314.718	7606
314.808	9283
314.897	10011
314.987	10615
315.076	10624
315.166	10062
315.255	9519
315.345	9921
315.434	8483
315.524	9313
315.613	10669
315.703	14498
315.792	38149
315.881	108506
315.971	35283
316.060	12373
316.150	9348
316.239	8362
316.328	8399
316.418	9892
316.507	10307
316.597	12121
316.686	11855
316.775	11075
316.865	10063
316.954	9092
317.043	9027
317.133	7504
317.222	7084
317.311	6720
317.400	6269
317.490	8991
317.579	9946
317.668	12224
317.757	19230
317.847	60520
317.936	151423
318.025	49987
318.114	46362
318.203	22424
318.293	10934
318.382	15431
318.471	15955
318.560	13669
318.649	10703
318.738	8609
318.828	6810
318.917	5666
319.006	5170
319.095	5828
319.184	6414
319.273	6446
319.362	6705
319.451	5716
319.540	6436
319.629	5688
319.718	6345
319.807	6735
319.896	5401
319.985	7198
320.074	7384
320.163	7072
320.252	6757
320.341	7320
320.430	8093
320.519	8648
320.608	9252
320.697	10965
320.786	11351
320.875	13566
320.964	14673
321.053	15473
321.142	15820
321.230	16955
321.319	18833
321.408	19393
321.497	19624
321.586	17560
321.675	14957
321.764	14894
321.852	15799
321.941	15682
322.030	16817
322.119	16896
322.207	19975
322.296	22563
322.385	24611
322.474	26338
322.562	26692
322.651	21767
322.740	17677
322.829	15527
322.917	13532
323.006	12215
323.095	11488
323.183	11229
323.272	9928
323.361	9876
323.449	10243
323.538	8952
323.626	7762
323.715	8737
323.804	8489
323.892	7658
323.981	8463
324.069	8202
324.158	7891
324.246	7067
324.335	7103
324.424	7270
324.512	7327
324.601	7181
324.689	6607
324.778	6604
324.866	6963
324.954	6737
325.043	6039
325.131	5348
325.220	6993
325.308	6003
325.397	5798
325.485	6085
325.574	6740
325.662	5939
325.750	5217
325.839	6831
325.927	6626
326.015	5530
326.104	5299
326.192	5637
326.280	5417
326.369	5880
326.457	5726
326.545	6211
326.634	5573
326.722	6192
326.810	6864
326.898	8229
326.987	7871
327.075	6612
327.163	7458
327.251	6755
327.340	7586
327.428	10089
327.516	11213
327.604	9856
327.692	8030
327.781	7002
327.869	6497
327.957	6686
328.045	4920
328.133	5456
328.221	4903
328.309	5800
328.397	6545
328.485	7489
328.574	10765
328.662	13529
328.750	10647
328.838	7539
328.926	6983
329.014	6467
329.102	5329
329.190	6285
329.278	5178
329.366	5922
329.454	5510
329.542	5173
329.630	4959
329.718	5462
329.806	5315
329.893	6527
329.981	4610
330.069	6434
330.157	5969
330.245	6091
330.333	6029
330.421	5599
330.509	4909
330.597	5047
330.684	5448
330.772	5721
330.860	5748
330.948	5499
331.036	5180
331.123	4761
331.211	6403
331.299	5038
331.387	5483
331.475	5474
331.562	5327
331.650	6051
331.738	5506
331.825	5491
331.913	6200
332.001	5844
332.089	5514
332.176	6320
332.264	5827
332.352	5645
332.439	6500
332.527	6373
332.614	5823
332.702	5913
332.790	5845
332.877	6458
332.965	6677
333.052	7310
333.140	6908
333.228	8591
333.315	7234
333.403	7964
333.490	7677
333.578	8313
333.665	11768
333.753	10385
333.840	9517
333.928	12361
334.015	12751
334.103	15671
334.190	19113
334.278	26534
334.365	33708
334.452	33155
334.540	25432
334.627	26118
334.715	32576
334.802	44056
334.889	59272
334.977	69844
335.064	49172
335.151	29953
335.239	23128
335.326	19417
335.413	19392
335.501	20200
335.588	21466
335.675	24741
335.762	29520
335.850	40162
335.937	53068
336.024	76381
336.111	99352
336.199	86928
336.286	46895
336.373	29447
336.460	21944
336.547	18129
336.635	16267
336.722	13827
336.809	11328
336.896	11283
336.983	10770
337.070	10560
337.157	10574
337.245	9626
337.332	10687
337.419	9915
337.506	9679
337.593	9038
337.680	8282
337.767	8909
337.854	7865
337.941	8030
338.028	8288
338.115	7155
338.202	8924
338.289	8704
338.376	7284
338.463	7749
338.550	5810
338.637	6928
338.724	6033
338.811	7415
338.898	6641
338.984	6627
339.071	6495
339.158	5233
339.245	5811
339.332	6082
339.419	5863
339.506	6534
339.593	5089
339.679	6375
339.766	7005
339.853	6391
339.940	5343
340.027	6545
340.113	6044
340.200	5667
340.287	5491
340.374	5376
340.460	5490
340.547	5623
340.634	6330
340.720	6254
340.807	5601
340.894	6171
340.980	5330
341.067	5695
341.154	6686
341.240	5958
341.327	6028
341.414	6284
341.500	5497
341.587	7481
341.674	5801
341.760	6133
341.847	6402
341.933	5743
342.020	5189
342.106	5925
342.193	5690
342.279	5893
342.366	4971
342.452	5873
342.539	5386
342.625	6111
342.712	5988
342.798	5384
342.885	4976
342.971	5339
343.058	5435
343.144	5219
343.230	6043
343.317	6047
343.403	5283
343.490	7106
343.576	5507
343.662	6279
343.749	5391
343.835	4803
343.921	5642
344.008	7590
344.094	8845
344.180	5791
344.267	5420
344.353	5678
344.439	4531
344.525	5319
344.612	5767
344.698	5719
344.784	5057
344.870	6262
344.957	4713
345.043	6494
345.129	4490
345.215	5705
345.301	5400
345.387	5166
345.474	5920
345.560	4471
345.646	4935
345.732	5671
345.818	5251
345.904	5854
345.990	6014
346.076	5462
346.162	5034
346.249	6100
346.335	6292
346.421	7282
346.507	6253
346.593	5823
346.679	5190
346.765	8682
346.851	11820
346.937	9534
347.023	7212
347.108	6645
347.194	6866
347.280	6403
347.366	8777
347.452	22200
347.538	23855
347.624	14444
347.710	8402
347.796	7670
347.882	6059
347.967	6692
348.053	6530
348.139	5669
348.225	6130
348.311	5659
348.397	5877
348.482	7196
348.568	7256
348.654	12690
348.740	31743
348.825	33733
348.911	16600
348.997	9328
349.083	8932
349.168	6496
349.254	6822
349.340	6201
349.425	5804
349.511	6720
349.597	6380
349.682	6162
349.768	6957
349.854	6429
349.939	6856
350.025	6291
350.110	6492
350.196	6564
350.282	5614
350.367	7123
350.453	6717
350.538	5902
350.624	5569
350.709	6558
350.795	5924
350.880	6016
350.966	7025
351.051	7155
351.137	5844
351.222	6050
351.308	6040
351.393	6191
351.479	5269
351.564	5705
351.649	6151
351.735	5832
351.820	6454
351.906	5701
351.991	5103
352.076	5549
352.162	6151
352.247	6176
352.332	5881
352.418	5757
352.503	5782
352.588	6816
352.673	5408
352.759	5768
352.844	5499
352.929	5648
353.014	5340
353.100	6494
353.185	6277
353.270	5238
353.355	6377
353.441	6190
353.526	5292
353.611	5596
353.696	5197
353.781	6771
353.866	5243
353.952	6218
354.037	5240
354.122	5664
354.207	5722
354.292	6183
354.377	6076
354.462	5692
354.547	5117
354.632	6977
354.717	5847
354.802	5411
354.887	5690
354.972	6344
355.057	5643
355.142	5655
355.227	6549
355.312	5912
355.397	5744
355.482	6168
355.567	4681
355.652	7032
355.737	6677
355.822	6256
355.907	5969
355.991	7646
356.076	5692
356.161	6496
356.246	5820
356.331	6767
356.416	5868
356.501	9078
356.585	6699
356.670	6271
356.755	7987
356.840	6524
356.924	7240
357.009	9060
357.094	7151
357.179	6462
357.263	6241
357.348	7342
357.433	6725
357.517	7369
357.602	5957
357.687	6224
357.771	7447
357.856	7230
357.941	6614
358.025	8690
358.110	12516
358.195	9558
358.279	6786
358.364	7527
358.448	7612
358.533	8916
358.617	7445
358.702	7626
358.787	7057
358.871	6918
358.956	6953
359.040	6935
359.125	6377
359.209	8080
359.294	8753
359.378	13263
359.462	11413
359.547	6884
359.631	6822
359.716	6684
359.800	7154
359.885	8232
359.969	6210
360.053	7777
360.138	6648
360.222	6764
360.306	6462
360.391	6983
360.475	7434
360.559	6905
360.644	7973
360.728	6196
360.812	9887
360.896	9867
360.981	7863
361.065	7468
361.149	9142
361.233	8333
361.318	7615
361.402	9134
361.486	9515
361.570	10188
361.654	10452
361.739	10933
361.823	12402
361.907	15392
361.991	15878
362.075	19061
362.159	26353
362.243	49734
362.327	97038
362.411	114022
362.495	51844
362.580	32017
362.664	31198
362.748	38587
362.832	58725
362.916	110972
363.000	220081
363.084	233679
363.168	98911
363.252	45483
363.336	29848
363.420	23754
363.503	19940
363.587	18913
363.671	19294
363.755	20343
363.839	23791
363.923	25854
364.007	33345
364.091	46145
364.175	70611
364.258	134708
364.342	257502
364.426	333882
364.510	186184
364.594	76798
364.677	42634
364.761	27907
364.845	21702
364.929	17503
365.013	13649
365.096	14123
365.180	11937
365.264	12076
365.347	11143
365.431	10578
365.515	9766
365.598	9482
365.682	10552
365.766	9187
365.849	9468
365.933	8827
366.017	11913
366.100	9548
366.184	8991
366.267	10948
366.351	9614
366.435	9015
366.518	7632
366.602	8928
366.685	9392
366.769	9280
366.852	8662
366.936	9126
367.019	7896
367.103	8290
367.186	10186
367.270	8492
367.353	9660
367.436	11580
367.520	10222
367.603	10462
367.687	8920
367.770	9786
367.853	10782
367.937	10465
368.020	9550
368.104	7818
368.187	8918
368.270	8253
368.353	7538
368.437	7349
368.520	8357
368.603	7517
368.687	6114
368.770	7391
368.853	6202
368.936	7753
369.020	8030
369.103	6813
369.186	7128
369.269	6959
369.352	7474
369.436	6871
369.519	6204
369.602	5687
369.685	7858
369.768	6282
369.851	8048
369.934	6045
370.018	6055
370.101	5752
370.184	8850
370.267	8176
370.350	6992
370.433	8806
370.516	24659
370.599	61243
370.682	27245
370.765	11064
370.848	9345
370.931	7074
371.014	8229
371.097	5778
371.180	7553
371.263	7234
371.346	4823
371.429	7884
371.511	5363
371.594	5911
371.677	7231
371.760	7554
371.843	6881
371.926	10199
372.009	11673
372.091	10564
372.174	6454
372.257	7961
372.340	6937
372.423	7354
372.505	9227
372.588	6712
372.671	8242
372.754	7080
372.836	7671
372.919	7794
373.002	7033
373.085	7176
373.167	8297
373.250	8238
373.332	8689
373.415	12247
373.498	15623
373.580	27664
373.663	88732
373.746	72923
373.828	17875
373.911	11736
373.993	8925
374.076	9487
374.159	8855
374.241	8801
374.324	10026
374.406	10212
374.489	9672
374.571	13128
374.654	9855
374.736	9235
374.819	10245
374.901	14196
374.983	12983
375.066	12166
375.148	11409
375.231	10721
375.313	11645
375.395	12478
375.478	11019
375.560	11697
375.643	10645
375.725	11429
375.807	11290
375.890	12717
375.972	8231
376.054	10243
376.136	8835
376.219	8516
376.301	10435
376.383	8223
376.465	8505
376.548	7686
376.630	7781
376.712	9136
376.794	7084
376.877	7422
376.959	6405
377.041	8197
377.123	6361
377.205	7338
377.287	6344
377.369	8149
377.452	7477
377.534	8623
377.616	7555
377.698	7413
377.780	6128
377.862	7444
377.944	8828
378.026	6688
378.108	7796
378.190	7707
378.272	7743
378.354	7794
378.436	6166
378.518	6396
378.600	7084
378.682	7866
378.764	6873
378.846	8040
378.928	6683
379.010	5846
379.091	8179
379.173	7341
379.255	6741
379.337	6178
379.419	6338
379.501	7517
379.583	6679
379.664	7192
379.746	5829
379.828	8367
379.910	6116
379.991	7804
380.073	6305
380.155	7217
380.237	6753
380.318	6652
380.400	6410
380.482	7635
380.564	6623
380.645	6357
380.727	6247
380.809	7578
380.890	6329
380.972	6101
381.053	6757
381.135	7050
381.217	5899
381.298	7867
381.380	6537
381.461	6909
381.543	7792
381.624	7479
381.706	7390
381.787	7294
381.869	7940
381.951	8380
382.032	9401
382.113	11760
382.195	6889
382.276	9789
382.358	7669
382.439	8818
382.521	10192
382.602	11014
382.684	10332
382.765	12855
382.846	24329
382.928	41412
383.009	25148
383.090	28745
383.172	71495
383.253	82427
383.334	27609
383.416	15505
383.497	14337
383.578	16395
383.659	26717
383.741	75281
383.822	136113
383.903	61509
383.984	20715
384.066	17533
384.147	14041
384.228	14890
384.309	15805
384.390	15456
384.471	15396
384.553	14202
384.634	12467
384.715	13169
384.796	11661
384.877	11313
384.958	11909
385.039	10568
385.120	10760
385.201	12423
385.282	11562
385.363	12941
385.444	13166
385.525	14159
385.606	15130
385.687	15009
385.768	13574
385.849	14289
385.930	17058
386.011	18316
386.092	15496
386.173	16354
386.254	14512
386.335	15382
386.416	13745
386.496	14846
386.577	14081
386.658	14665
386.739	12650
386.820	16392
386.901	15441
386.981	18195
387.062	19268
387.143	19392
387.224	21975
387.304	23988
387.385	25005
387.466	22266
387.547	25105
387.627	25274
387.708	25489
387.789	25323
387.869	22619
387.950	22219
388.031	20660
388.111	17215
388.192	19353
388.273	20613
388.353	17973
388.434	14423
388.514	13760
388.595	15216
388.676	13696
388.756	13114
388.837	13628
388.917	13900
388.998	11288
389.078	13503
389.159	12091
389.239	9978
389.320	14023
389.400	10978
389.480	12829
389.561	12233
389.641	13005
389.722	13225
389.802	10277
389.883	13205
389.963	13470
390.043	13016
390.124	10872
390.204	12677
390.284	12331
390.365	11502
390.445	12815
390.525	12131
390.605	12366
390.686	12131
390.766	13382
390.846	13468
390.927	12915
391.007	12917
391.087	14082
391.167	14374
391.247	13999
391.328	16121
391.408	15063
391.488	16893
391.568	15292
391.648	16987
391.728	18049
391.808	19472
391.888	18319
391.969	20688
392.049	20809
392.129	24565
392.209	24680
392.289	28697
392.369	29500
392.449	33061
392.529	35337
392.609	42299
392.689	47340
392.769	56144
392.849	67410
392.929	89326
393.009	118148
393.089	174464
393.169	289055
393.248	506687
393.328	742697
393.408	687297
393.488	430190
393.568	248853
393.648	150024
393.728	101044
393.807	72427
393.887	58437
393.967	48644
394.047	40009
394.127	35083
394.206	31520
394.286	28530
394.366	26918
394.446	26597
394.525	21874
394.605	21767
394.685	22623
394.764	25390
394.844	42309
394.924	50089
395.003	27360
395.083	19863
395.163	19385
395.242	18161
395.322	18385
395.402	17419
395.481	21121
395.561	25976
395.640	62800
395.720	110426
395.799	58095
395.879	29082
395.958	24889
396.038	27177
396.117	31474
396.197	33437
396.276	38009
396.356	43013
396.435	56991
396.515	79762
396.594	121865
396.673	230500
396.753	466725
396.832	678786
396.912	510897
396.991	253279
397.070	130889
397.150	83320
397.229	71223
397.308	110153
397.388	164404
397.467	86331
397.546	40260
397.625	27294
397.705	25662
397.784	21244
397.863	20369
397.942	17716
398.022	17223
398.101	14767
398.180	16025
398.259	14131
398.338	14095
398.417	13347
398.497	12374
398.576	12723
398.655	10140
398.734	12176
398.813	10322
398.892	10145
398.971	10843
399.050	9560
399.129	9635
399.208	9722
399.287	10446
399.366	7610
399.445	8764
399.524	8956
399.603	7932
399.682	9042
399.761	8518
399.840	8860
399.919	9002
399.998	7486
400.077	6849
400.156	6780
400.235	9916
400.313	6412
400.392	6392
400.471	7508
400.550	8176
400.629	5751
400.708	7238
400.786	5400
400.865	6931
400.944	5591
401.023	8035
401.102	5965
401.180	6585
401.259	6032
401.338	6313
401.416	6930
401.495	5241
401.574	7130
401.652	5115
401.731	6194
401.810	4900
401.888	5574
401.967	5367
402.046	5631
402.124	5949
402.203	4934
402.281	6339
402.360	4739
402.438	5873
402.517	3818
402.596	5901
402.674	4851
402.753	5520
402.831	6210
402.910	8455
402.988	7181
403.066	9203
403.145	8101
403.223	8934
403.302	8283
403.380	9822
403.459	8569
403.537	7593
403.615	7173
403.694	6194
403.772	8129
403.850	7308
403.929	6115
404.007	6401
404.085	7316
404.164	6488
404.242	6791
404.320	7953
404.398	6786
404.477	6081
404.555	8901
404.633	7439
404.711	6593
404.789	6464
404.868	4908
404.946	5610
405.024	5334
405.102	5244
405.180	4905
405.258	4445
405.336	5457
405.415	5080
405.493	5220
405.571	6278
405.649	4583
405.727	5309
405.805	7562
405.883	6726
405.961	7130
406.039	5130
406.117	4874
406.195	5555
406.273	3530
406.351	5624
406.429	6020
406.507	4610
406.585	4561
406.663	4990
406.740	4900
406.818	5019
406.896	4475
406.974	6220
407.052	3805
407.130	6310
407.208	6551
407.285	6624
407.363	5725
407.441	6574
407.519	8030
407.596	12532
407.674	46427
407.752	138069
407.830	83990
407.907	17256
407.985	7064
408.063	6745
408.141	5753
408.218	7443
408.296	4895
408.373	6475
408.451	6926
408.529	7307
408.606	7515
408.684	8035
408.762	9614
408.839	9372
408.917	10153
408.994	10566
409.072	12051
409.149	15648
409.227	23898
409.304	32586
409.382	36211
409.459	41984
409.537	50940
409.614	46578
409.692	39371
409.769	41344
409.846	54143
409.924	59240
410.001	45576
410.079	37939
410.156	29717
410.233	23907
410.311	18810
410.388	17050
410.465	15717
410.543	14056
410.620	13596
410.697	12901
410.775	12253
410.852	11706
410.929	13864
411.006	13362
411.083	11547
411.161	10675
411.238	11470
411.315	10390
411.392	9401
411.469	9987
411.547	8849
411.624	7244
411.701	7490
411.778	7331
411.855	7609
411.932	6930
412.009	6911
412.086	7696
412.163	6594
412.240	6285
412.317	7132
412.394	6263
412.471	6461
412.548	6337
412.625	6083
412.702	5540
412.779	6219
412.856	5314
412.933	4914
413.010	5612
413.087	5638
413.164	4704
413.241	5083
413.318	4032
413.395	5363
413.471	5025
413.548	5217
413.625	5577
413.702	3058
413.779	4816
413.855	4764
413.932	4145
414.009	4058
414.086	5034
414.162	5036
414.239	5682
414.316	4890
414.393	5806
414.469	4170
414.546	3824
414.623	3928
414.699	4070
414.776	4434
414.853	3915
414.929	5191
415.006	3899
415.082	4527
415.159	4125
415.236	4441
415.312	4895
415.389	4357
415.465	3764
415.542	4737
415.618	4226
415.695	4160
415.771	3469
415.848	3971
415.924	4897
416.000	4588
416.077	5183
416.153	4084
416.230	4431
416.306	4218
416.383	4349
416.459	4738
416.535	3998
416.612	3915
416.688	3932
416.764	4258
416.841	3919
416.917	4196
416.993	4883
417.069	4402
417.146	4168
417.222	4276
417.298	4030
417.374	3662
417.451	4705
417.527	2881
417.603	4192
417.679	4107
417.755	4725
417.831	3695
417.908	4822
417.984	4897
418.060	4504
418.136	4805
418.212	5071
418.288	5194
418.364	4681
418.440	4184
418.516	5727
418.592	5062
418.668	5836
418.744	4537
418.820	5547
418.896	6505
418.972	5253
419.048	5544
419.124	6910
419.200	4753
419.276	6513
419.352	5284
419.428	6391
419.504	5933
419.579	7264
419.655	6060
419.731	7234
419.807	7879
419.883	7365
419.959	7644
420.034	7997
420.110	8993
420.186	8472
420.262	8797
420.337	9919
420.413	9962
420.489	11244
420.565	12887
420.640	12043
420.716	13569
420.792	13528
420.867	15318
420.943	15580
421.019	16440
421.094	17101
421.170	18582
421.245	20191
421.321	22861
421.397	29292
421.472	61127
421.548	120276
421.623	71684
421.699	40667
421.774	42104
421.850	46909
421.925	55128
422.001	65417
422.076	79134
422.152	97896
422.227	126102
422.302	166024
422.378	223607
422.453	303938
422.529	361055
422.604	311580
422.679	241426
422.755	324444
422.830	363468
422.905	290922
422.981	220876
423.056	167799
423.131	131058
423.207	102478
423.282	84346
423.357	70035
423.432	58676
423.508	50636
423.583	44189
423.658	39344
423.733	35557
423.808	33147
423.883	31711
423.959	34393
424.034	36389
424.109	33421
424.184	25787
424.259	21854
424.334	19814
424.409	17638
424.484	16400
424.559	15003
424.634	13792
424.709	13418
424.784	13328
424.859	12023
424.934	11145
425.009	11318
425.084	10694
425.159	9739
425.234	10958
425.309	8797
425.384	9545
425.459	8639
425.534	8735
425.609	8613
425.683	7832
425.758	8799
425.833	7482
425.908	8258
425.983	7237
426.058	8788
426.132	7142
426.207	7712
426.282	8296
426.357	6137
426.431	6617
426.506	6674
426.581	6271
426.655	7097
426.730	6089
426.805	5511
426.879	6640
426.954	5778
427.029	5986
427.103	5900
427.178	6260
427.253	5789
427.327	5419
427.402	4763
427.476	5241
427.551	5955
427.625	5522
427.700	5915
427.774	5528
427.849	6494
427.923	6124
427.998	7856
428.072	10495
428.147	22803
428.221	81354
428.296	181739
428.370	96977
428.444	22725
428.519	10937
428.593	9690
428.667	10311
428.742	12969
428.816	37264
428.890	126442
428.965	156363
429.039	46136
429.113	14186
429.188	8613
429.262	7693
429.336	7695
429.410	7415
429.485	7847
429.559	8131
429.633	9935
429.707	12639
429.781	34064
429.855	120622
429.930	142949
430.004	48728
430.078	38848
430.152	104346
430.226	249642
430.300	214390
430.374	70121
430.448	27770
430.522	18390
430.596	20316
430.670	52825
430.744	152046
430.818	137321
430.892	34229
430.966	12154
431.040	7918
431.114	6151
431.188	5892
431.262	6269
431.336	6154
431.410	6518
431.484	5625
431.557	8067
431.631	8228
431.705	19503
431.779	70101
431.853	181101
431.927	113474
432.000	27028
432.074	9360
432.148	7033
432.222	4775
432.295	4012
432.369	3332
432.443	3440
432.516	3526
432.590	4245
432.664	2959
432.737	2137
432.811	1658
432.885	2372
432.958	3885
433.032	1829
433.106	2254
433.179	3406
433.253	3104
433.326	1915
433.400	3236
433.473	3292
433.547	2883
433.620	2888
433.694	3065
433.767	3146
433.841	3211
433.914	3643
433.988	3509
434.061	4376
434.134	3718
434.208	4212
434.281	2717
434.355	2912
434.428	3113
434.501	3668
434.575	2830
434.648	2786
434.721	3010
434.795	3512
434.868	3447
434.941	3534
435.014	3510
435.088	5057
435.161	6730
435.234	7567
435.307	8131
435.381	10808
435.454	17409
435.527	26445
435.600	28539
435.673	25318
435.746	20615
435.819	16408
435.892	13605
435.966	11577
436.039	10559
436.112	9144
436.185	7126
436.258	6212
436.331	5286
436.404	5335
436.477	4881
436.550	4925
436.623	4616
436.696	3349
436.769	4332
436.842	3972
436.915	3284
436.987	2967
437.060	3362
437.133	3269
437.206	3007
437.279	3218
437.352	3074
437.425	2856
437.498	3023
437.570	2913
437.643	2463
437.716	3658
437.789	2251
437.861	2112
437.934	2928
438.007	2268
438.080	2227
438.152	2442
438.225	2997
438.298	3389
438.370	4483
438.443	4405
438.516	2753
438.588	3300
438.661	2976
438.734	2498
438.806	2262
438.879	3445
438.951	2523
439.024	3370
439.096	2585
439.169	2500
439.241	2949
439.314	2098
439.386	2810
439.459	2876
439.531	2242
439.604	2390
439.676	3531
439.749	2941
439.821	1747
439.893	3183
439.966	3507
440.038	2391
440.110	3576
440.183	2992
440.255	2293
440.327	3684
440.400	3566
440.472	4252
440.544	3931
440.617	3431
440.689	4808
440.761	3650
440.833	3403
440.905	3874
440.978	3890
441.050	3708
441.122	4154
441.194	3695
441.266	3627
441.338	3614
441.411	3783
441.483	4779
441.555	4992
441.627	4681
441.699	4419
441.771	5818
441.843	6582
441.915	6783
441.987	7158
442.059	7892
442.131	9557
442.203	11574
442.275	16812
442.347	27480
442.419	63756
442.491	193805
442.563	304700
442.635	154142
442.706	50190
442.778	25648
442.850	18435
442.922	16471
442.994	16076
443.066	18551
443.137	21948
443.209	30585
443.281	48560
443.353	96167
443.425	231169
443.496	431563
443.568	427364
443.640	230073
443.711	88692
443.783	43475
443.855	28482
443.926	19934
443.998	16182
444.070	14180
444.141	11782
444.213	11027
444.285	10375
444.356	9777
444.428	10585
444.499	10306
444.571	10680
444.642	11287
444.714	11271
444.785	12662
444.857	14665
444.928	17268
445.000	20284
445.071	25158
445.143	33531
445.214	50431
445.285	84311
445.357	175224
445.428	364195
445.500	480095
445.571	445779
445.642	330517
445.714	160556
445.785	68964
445.856	37685
445.928	25732
445.999	19676
446.070	15524
446.141	13491
446.213	11785
446.284	9117
446.355	8809
446.426	6782
446.497	6918
446.569	6278
446.640	5484
446.711	5749
446.782	5560
446.853	5105
446.924	4872
446.995	4464
447.066	4269
447.138	4419
447.209	4001
447.280	2731
447.351	3452
447.422	3040
447.493	3017
447.564	3278
447.635	3018
447.706	2395
447.777	3104
447.847	2313
447.918	2041
447.989	3139
448.060	2528
448.131	2221
448.202	2509
448.273	2187
448.344	2421
448.414	3315
448.485	2722
448.556	2774
448.627	2765
448.698	3647
448.768	3008
448.839	1796
448.910	2318
448.981	2561
449.051	2677
449.122	1920
449.193	2225
449.263	2764
449.334	2403
449.405	1809
449.475	2717
449.546	3369
449.616	4368
449.687	4246
449.758	3275
449.828	2415
449.899	2629
449.969	2522
450.040	2952
450.110	2791
450.181	2321
450.251	2357
450.322	2405
450.392	2139
450.463	2264
450.533	3415
450.604	2462
450.674	3210
450.744	4807
450.815	5259
450.885	5892
450.955	5838
451.026	6002
451.096	4838
451.166	5094
451.237	6459
451.307	8345
451.377	7211
451.447	5710
451.518	5253
451.588	3936
451.658	4008
451.728	3034
451.799	2845
451.869	3591
451.939	3438
452.009	3028
452.079	3354
452.149	4854
452.219	4044
452.289	5207
452.360	5611
452.430	6929
452.500	9499
452.570	15328
452.640	33568
452.710	69025
452.780	81941
452.850	57180
452.920	32857
452.990	20918
453.060	13578
453.129	10228
453.199	7496
453.269	7318
453.339	6231
453.409	5176
453.479	4624
453.549	3844
453.619	3731
453.688	3021
453.758	2970
453.828	3024
453.898	3557
453.968	2516
454.037	2480
454.087	2501
454.107	2464
454.168	2767
454.177	2753
454.247	2103
454.249	2149
454.316	2040
454.330	2250
454.386	2844
454.411	2528
454.456	1825
454.492	2594
454.525	3216
454.574	3176
454.595	3092
454.655	3173
454.665	3118
454.734	3937
454.736	4017
454.804	4561
454.817	4513
454.873	4173
454.898	4075
454.943	3685
454.979	3095
455.013	2470
455.060	3218
455.082	3473
455.141	3881
455.152	3910
455.221	4403
455.222	4452
455.291	4398
455.303	4532
455.360	4719
455.384	4971
455.430	5066
455.465	4780
455.499	4470
455.546	4141
455.569	3930
455.627	5246
455.638	5452
455.707	4881
455.708	4935
455.777	4547
455.789	4566
455.846	4590
455.869	4511
455.916	4077
455.950	4753
455.985	5381
456.031	4981
456.054	4690
456.112	4809
456.124	4806
456.193	6102
456.193	6044
456.262	6060
456.274	6224
456.332	6836
456.355	6836
456.401	6745
456.436	6839
456.470	6802
456.516	6850
456.540	6745
456.597	7393
456.609	7479
456.678	7888
456.678	7826
456.747	8069
456.759	8110
456.817	8419
456.840	8502
456.886	8336
456.920	9214
456.955	10083
457.001	10150
457.024	10017
457.082	10631
457.093	10672
457.162	11253
457.163	11327
457.232	12616
457.243	12846
457.301	13474
457.324	13991
457.370	15232
457.405	16172
457.439	17313
457.485	19761
457.508	21192
457.566	25778
457.577	27831
457.646	41492
457.647	41868
457.715	93846
457.727	104832
457.784	182957
457.808	229683
457.853	278664
457.889	318628
457.922	303192
457.969	234793
457.991	246618
458.050	284139
458.060	294580
458.129	441094
458.130	446080
458.198	420079
458.211	397625
458.267	263267
458.292	195401
458.336	150329
458.372	134967
458.405	164385
458.453	224655
458.474	274674
458.533	451706
458.543	462115
458.611	609066
458.614	613483
458.680	428163
458.694	369227
458.749	217446
458.775	156121
458.818	104015
458.855	77944
458.887	63848
458.936	49332
458.955	45154
459.016	36339
459.024	35387
459.093	30760
459.097	30544
459.162	26712
459.177	26106
459.230	23998
459.257	23340
459.299	22515
459.338	21500
459.368	20873
459.418	20333
459.437	20108
459.499	19419
459.505	19351
459.574	18910
459.579	18963
459.643	18077
459.659	17759
459.711	18002
459.740	18244
459.780	18192
459.820	18342
459.849	18283
459.900	18341
459.917	18202
459.981	17510
459.986	17482
460.054	17882
460.061	17946
460.123	18041
460.141	18055
460.191	18478
460.222	18698
460.260	19273
460.302	20251
460.328	21327
460.382	24187
460.397	25845
460.462	32803
460.465	34246
460.534	68703
460.543	73494
460.602	182329
460.623	223475
460.671	327878
460.703	416116
460.739	361444
460.783	270132
460.808	224321
460.864	71149
460.876	60217
460.944	29802
460.945	29523
461.013	22478
461.024	21644
461.081	19793
461.104	19377
461.150	19356
461.184	19282
461.218	19305
461.264	19487
461.286	19029
461.345	17748
461.355	17656
461.423	17405
461.425	17389
461.491	16270
461.505	16245
461.559	16335
461.585	16116
461.628	16106
461.665	16573
461.696	16670
461.745	16388
461.764	16330
461.825	16141
461.832	16160
461.901	16206
461.905	16244
461.969	16057
461.985	15932
462.037	16793
462.065	17342
462.105	16642
462.145	16084
462.173	16544
462.225	17072
462.241	17048
462.305	17113
462.310	17208
462.378	18391
462.385	18583
462.446	19693
462.465	19887
462.514	18765
462.545	18203
462.582	17806
462.625	17055
462.650	16773
462.705	16092
462.718	16165
462.785	17008
462.786	17006
462.854	15951
462.865	15818
462.922	16337
462.945	16611
462.990	16526
463.025	16206
463.058	16605
463.104	17479
463.126	17216
463.184	16167
463.194	16222
463.262	16510
463.264	16516
463.330	16161
463.344	16022
463.398	16787
463.424	17168
463.466	16693
463.504	16154
463.533	16382
463.583	17174
463.601	17207
463.663	16712
463.669	16689
463.737	16364
463.743	16347
463.805	17611
463.823	17898
463.873	17340
463.903	16989
463.940	16693
463.982	16288
464.008	16698
464.062	17619
464.076	17617
464.142	17258
464.144	17288
464.211	17677
464.221	17773
464.279	17578
464.301	17384
464.347	17670
464.381	17781
464.414	17178
464.461	16523
464.482	16736
464.540	17088
464.550	17152
464.617	17333
464.620	17326
464.685	17855
464.699	17894
464.753	17569
464.779	17353
464.820	17624
464.859	17864
464.888	17512
464.938	16909
464.956	17496
465.018	19368
465.023	19309
465.091	18306
465.098	18180
465.158	18928
465.177	19093
465.226	18668
465.257	18335
465.293	18450
465.336	18480
465.361	18628
465.416	19104
465.428	19118
465.495	18806
465.496	18830
465.563	17750
465.575	17575
465.631	18619
465.654	18963
465.698	18812
465.734	18678
465.765	18868
465.813	18939
465.833	18934
465.893	18877
465.900	18925
465.968	19132
465.972	19108
466.035	18438
466.052	18226
466.102	18876
466.131	19203
466.170	19117
466.210	18906
466.237	19157
466.290	19641
466.304	19688
466.369	19499
466.372	19530
466.439	19581
466.449	19529
466.506	19861
466.528	19934
466.573	20485
466.607	20868
466.641	21057
466.687	21219
466.708	21504
466.766	22076
466.775	22071
466.842	21772
466.845	21713
466.909	22058
466.925	22089
466.977	23222
467.004	23764
467.044	23792
467.083	23699
467.111	23699
467.163	23577
467.178	24031
467.242	25685
467.245	25707
467.312	25126
467.321	24999
467.379	25990
467.400	26272
467.446	27224
467.480	27813
467.559	28616
467.638	29503
467.717	31264
467.796	34882
467.875	37975
467.955	40107
468.034	45782
468.113	53736
468.192	65903
468.271	82402
468.350	111509
468.429	139866
468.508	137839
468.588	94748
468.667	62791
468.746	49616
468.825	41234
468.904	37769
468.983	33666
469.062	31024
469.141	30733
469.220	29145
469.299	27675
469.378	25352
469.456	26936
469.535	26682
469.614	26279
469.693	24071
469.772	25277
469.851	26517
469.930	26593
470.009	24986
470.088	27078
470.166	28259
470.245	32686
470.324	33255
470.403	31638
470.482	28597
470.560	27231
470.639	25938
470.718	26209
470.797	25620
470.875	25413
470.954	23245
471.033	24412
471.111	23041
471.190	24194
471.269	22959
471.347	22548
471.426	23539
471.505	23572
471.583	22952
471.662	23435
471.740	23825
471.819	23542
471.898	23122
471.976	24459
472.055	28007
472.133	45520
472.212	63729
472.290	30909
472.369	21512
472.447	23835
472.526	22945
472.604	23858
472.683	23244
472.761	23891
472.839	25278
472.918	25976
472.996	24939
473.075	24580
473.153	24341
473.231	25466
473.310	25238
473.388	26689
473.466	26159
473.545	25545
473.623	27285
473.701	26757
473.780	27913
473.858	25839
473.936	30178
474.014	30369
474.093	45736
474.171	63581
474.249	36522
474.327	27435
474.405	27203
474.484	28401
474.562	27424
474.640	26115
474.718	24540
474.796	25809
474.874	24261
474.952	24210
475.030	24262
475.108	24665
475.187	24027
475.265	24610
475.343	24204
475.421	26417
475.499	24134
475.577	24143
475.655	23531
475.733	23275
475.811	22823
475.889	22756
475.966	23539
476.044	22606
476.122	22392
476.200	23476
476.278	21289
476.356	21501
476.434	22071
476.512	22544
476.590	22952
476.667	21919
476.745	22225
476.823	21873
476.901	22923
476.979	21837
477.056	22175
477.134	22199
477.212	21248
477.290	22004
477.367	21098
477.445	21826
477.523	20274
477.601	20800
477.678	20674
477.756	21520
477.834	20940
477.911	21764
477.989	22455
478.066	23108
478.144	23523
478.222	23290
478.299	32445
478.377	49649
478.454	45145
478.532	22920
478.609	21892
478.687	23237
478.764	21156
478.842	23397
478.919	21835
478.997	22436
479.074	21331
479.152	22325
479.229	22836
479.307	21141
479.384	21794
479.461	22803
479.539	22660
479.616	22405
479.694	22569
479.771	23445
479.848	22377
479.926	21914
480.003	24795
480.080	23851
480.157	25557
480.235	25452
480.312	25401
480.389	27393
480.467	27916
480.544	29226
480.621	32614
480.698	32577
480.775	33508
480.853	31529
480.930	31972
481.007	38903
481.084	83275
481.161	155410
481.238	69603
481.315	29944
481.392	30026
481.470	31282
481.547	29908
481.624	30868
481.701	33098
481.778	33809
481.855	35563
481.932	38250
482.009	41004
482.086	45121
482.163	49388
482.240	53188
482.317	54457
482.393	48278
482.470	45486
482.547	45282
482.624	42991
482.701	42334
482.778	42278
482.855	44111
482.932	45766
483.009	52342
483.085	76316
483.162	126354
483.239	104468
483.316	62895
483.393	58634
483.469	52216
483.546	45921
483.623	42843
483.699	38645
483.776	36927
483.853	35276
483.930	35403
484.006	34170
484.083	37031
484.160	37728
484.236	39128
484.313	39885
484.389	43305
484.466	52268
484.543	63931
484.619	75328
484.696	73611
484.772	52599
484.849	41515
484.925	37022
485.002	35216
485.078	31490
485.155	30007
485.231	29430
485.308	29186
485.384	30691
485.461	36005
485.537	34903
485.614	29445
485.690	26423
485.766	26308
485.843	27045
485.919	26339
485.995	26680
486.072	27402
486.148	27118
486.224	27001
486.301	26953
486.377	27702
486.453	27984
486.530	29460
486.606	31021
486.682	31954
486.758	36767
486.835	48738
486.911	49534
486.987	46237
487.063	53018
487.139	85290
487.215	139897
487.292	111513
487.368	98750
487.444	127430
487.520	198976
487.596	336611
487.672	598572
487.748	1399513
487.824	1799279
487.900	1058560
487.976	383387
488.052	199117
488.128	126371
488.204	87862
488.280	71685
488.356	59081
488.432	50791
488.508	46822
488.584	40682
488.660	39617
488.736	36572
488.812	32813
488.888	31700
488.964	32056
489.039	31914
489.115	40042
489.191	52721
489.267	40672
489.343	29668
489.418	27021
489.494	27274
489.570	26403
489.646	28343
489.722	27401
489.797	27973
489.873	29442
489.949	29158
490.024	28207
490.100	28521
490.176	29022
490.251	28303
490.327	27409
490.403	27312
490.478	27104
490.554	26023
490.629	27101
490.705	26123
490.781	25941
490.856	25641
490.932	25863
491.007	24686
491.083	23697
491.158	23264
491.234	22516
491.309	22678
491.385	21760
491.460	21088
491.536	23102
491.611	20767
491.686	22193
491.762	21105
491.837	22309
491.913	21382
491.988	21275
492.063	20622
492.139	20538
492.214	20126
492.289	20118
492.365	18833
492.440	19765
492.515	19616
492.590	18751
492.666	19177
492.741	20435
492.816	19193
492.891	19777
492.967	19095
493.042	20343
493.117	18940
493.192	19821
493.267	19879
493.342	22768
493.418	22885
493.493	19371
493.568	18895
493.643	18001
493.718	18309
493.793	17581
493.868	17681
493.943	18933
494.018	18705
494.093	18140
494.168	18272
494.243	18029
494.318	18466
494.393	18532
494.468	16474
494.543	19271
494.618	16580
494.693	18141
494.768	18273
494.842	16867
494.917	18480
494.992	17853
495.067	16774
495.142	18431
495.217	17259
495.292	18023
495.366	17686
495.441	18485
495.516	20148
495.591	18981
495.665	22400
495.740	25252
495.815	21647
495.890	21635
495.964	21940
496.039	31847
496.114	63651
496.188	148200
496.263	84136
496.338	24942
496.412	19442
496.487	20006
496.561	20181
496.636	21369
496.710	28731
496.785	37786
496.860	21640
496.934	17932
497.009	17963
497.083	18125
497.158	18339
497.232	18090
497.307	17643
497.381	17881
497.455	17158
497.530	18430
497.604	17340
497.679	17943
497.753	17268
497.827	16515
497.902	16743
497.976	17408
498.050	17442
498.125	18143
498.199	17875
498.273	16834
498.348	16655
498.422	17240
498.496	18103
498.570	18102
498.645	17757
498.719	16344
498.793	18781
498.867	18268
498.941	17992
499.016	17519
499.090	18028
499.164	19150
499.238	19125
499.312	19130
499.386	18790
499.460	21140
499.534	20846
499.609	20787
499.683	19581
499.757	20673
499.831	19759
499.905	19855
499.979	17932
500.053	18714
500.127	19459
500.201	18820
500.275	21353
500.349	19960
500.422	18757
500.496	20702
500.570	20290
500.644	21717
500.718	21362
500.792	21633
500.866	22068
500.940	21825
501.013	22366
501.087	22250
501.161	22196
501.235	21750
501.309	25761
501.382	22286
501.456	23808
501.530	22591
501.603	20317
501.677	21062
501.751	20418
501.825	22737
501.898	21657
501.972	21880
502.046	21027
502.119	20730
502.193	20620
502.266	19629
502.340	20524
502.413	20284
502.487	21999
502.561	20668
502.634	23023
502.708	23573
502.781	22973
502.855	24069
502.928	22963
503.002	23847
503.075	23526
503.149	24943
503.222	25985
503.295	27397
503.369	30343
503.442	32839
503.516	40017
503.589	47017
503.662	55666
503.736	69546
503.809	90484
503.882	124711
503.956	192576
504.029	379061
504.102	890998
504.175	1177866
504.249	592793
504.322	268127
504.395	151393
504.468	99787
504.542	71128
504.615	54451
504.688	46267
504.761	38445
504.834	35850
504.907	31068
504.980	28654
505.053	26593
505.127	22228
505.200	24859
505.273	20875
505.346	20972
505.419	19757
505.492	22294
505.565	20302
505.638	19248
505.711	17479
505.784	17526
505.857	15790
505.930	18552
506.003	15558
506.076	18715
506.149	14619
506.221	13827
506.294	17102
506.367	14232
506.440	13965
506.513	14856
506.586	14973
506.659	14072
506.731	15242
506.804	14308
506.877	12952
506.950	14113
507.022	14676
507.095	12992
507.168	14584
507.241	15214
507.313	13275
507.386	12443
507.459	14418
507.531	13154
507.604	12564
507.677	14654
507.749	12301
507.822	14470
507.894	12491
507.967	14416
508.040	12228
508.112	14037
508.185	14111
508.257	12454
508.330	15324
508.402	12812
508.475	12718
508.547	13604
508.620	12174
508.692	12607
508.765	12961
508.837	12409
508.909	13331
508.982	12634
509.054	13228
509.127	13162
509.199	12929
509.271	11497
509.344	12597
509.416	13309
509.488	11977
509.560	13386
509.633	12396
509.705	12387
509.777	12649
509.849	13451
509.922	11401
509.994	12084
510.066	13332
510.138	10839
510.210	13306
510.283	12988
510.355	12785
510.427	12230
510.499	12122
510.571	13304
510.643	11503
510.715	13796
510.787	10561
510.859	13618
510.931	12173
511.003	13117
511.076	12876
511.148	11578
511.219	10853
511.291	12723
511.363	13419
511.435	12140
511.507	10708
511.579	13616
511.651	13259
511.723	12309
511.795	12342
511.867	11985
511.939	12408
512.010	12409
512.082	12386
512.154	11256
512.226	11869
512.298	14289
512.369	12187
512.441	13592
512.513	14187
512.585	12025
512.656	13878
512.728	11528
512.800	13016
512.871	14426
512.943	13653
513.015	11350
513.086	13793
513.158	13340
513.230	12125
513.301	13454
513.373	13406
513.444	13195
513.516	12923
513.588	12778
513.659	13685
513.731	13343
513.802	11426
513.874	14740
513.945	13711
514.016	12588
514.088	13722
514.159	12745
514.231	12760
514.302	13366
514.374	12751
514.445	11737
514.516	15621
514.588	12661
514.659	12939
514.730	13320
514.802	13695
514.873	11542
514.944	16254
515.016	13939
515.087	12553
515.158	12531
515.229	14658
515.301	12779
515.372	13760
515.443	14692
515.514	16226
515.585	20549
515.656	21534
515.728	18485
515.799	14900
515.870	16787
515.941	15396
516.012	14198
516.083	16815
516.154	14935
516.225	16868
516.296	20034
516.367	18500
516.438	19510
516.509	21550
516.580	27125
516.651	64317
516.722	173218
516.793	66465
516.864	27623
516.935	27351
517.006	31749
517.077	35917
517.148	68568
517.219	276904
517.289	363384
517.360	57687
517.431	29174
517.502	24957
517.573	25769
517.643	25872
517.714	27082
517.785	29342
517.856	31698
517.926	38227
517.997	44159
518.068	51374
518.138	65474
518.209	90769
518.280	240603
518.350	686894
518.421	284463
518.492	142537
518.562	173865
518.633	238958
518.703	383168
518.774	758251
518.845	1378372
518.915	1210476
518.986	490809
519.056	237557
519.127	146563
519.197	103616
519.268	73280
519.338	59061
519.408	47067
519.479	40851
519.549	34868
519.620	33546
519.690	29266
519.760	27854
519.831	25022
519.901	22832
519.971	22467
520.042	21490
520.112	18322
520.182	18913
520.253	19888
520.323	17744
520.393	17023
520.463	19109
520.534	14739
520.604	20459
520.674	18101
520.744	15633
520.814	15894
520.885	17072
520.955	15684
521.025	15651
521.095	15754
521.165	18409
521.235	15610
521.305	15692
521.375	16499
521.445	16954
521.515	15784
521.585	17662
521.655	15601
521.725	17038
521.795	17315
521.865	13924
521.935	18563
522.005	17273
522.075	17122
522.145	21528
522.215	26301
522.285	20844
522.355	17862
522.424	20471
522.494	27410
522.564	22195
522.634	17443
522.704	18815
522.774	17742
522.843	20580
522.913	28265
522.983	23254
523.053	17137
523.122	19051
523.192	17648
523.262	18094
523.331	16894
523.401	19147
523.471	19260
523.540	19226
523.610	19473
523.680	21303
523.749	25059
523.819	38366
523.888	38271
523.958	24386
524.027	20295
524.097	20061
524.166	20999
524.236	19719
524.305	22238
524.375	20417
524.444	19459
524.514	22666
524.583	20806
524.653	21154
524.722	23343
524.791	21705
524.861	25756
524.930	23999
524.999	23691
525.069	26928
525.138	26061
525.207	28627
525.277	32948
525.346	34383
525.415	40527
525.484	45443
525.554	56136
525.623	80034
525.692	119490
525.761	111508
525.830	126838
525.900	169086
525.969	277379
526.038	528658
526.107	990162
526.176	1806575
526.245	1447553
526.314	663259
526.383	1258418
526.452	1415177
526.522	1660429
526.591	1421464
526.660	438315
526.729	272564
526.797	280521
526.867	411964
526.935	999457
527.004	1895512
527.073	1405341
527.142	425775
527.211	185312
527.280	117698
527.349	85317
527.418	64810
527.487	55418
527.555	43860
527.624	42009
527.693	36206
527.762	37133
527.831	32241
527.899	31445
527.968	28764
528.037	25431
528.106	26009
528.174	25228
528.243	24409
528.312	24126
528.380	22535
528.449	21108
528.518	23932
528.586	20735
528.655	22622
528.723	22118
528.792	20500
528.861	20681
528.929	18382
528.998	20905
529.066	19341
529.135	19672
529.203	18826
529.272	17608
529.340	18886
529.409	19752
529.477	18039
529.545	15983
529.614	19980
529.682	16317
529.751	17870
529.819	22276
529.887	18599
529.956	17400
530.024	19030
530.092	17187
530.161	18390
530.229	18661
530.297	17155
530.365	18656
530.434	18868
530.502	17374
530.570	20126
530.638	17995
530.707	19129
530.775	20960
530.843	18122
530.911	19507
530.979	20539
531.047	19010
531.115	19414
531.183	19351
531.252	19955
531.320	19359
531.388	17948
531.456	20209
531.524	18868
531.592	20807
531.660	20352
531.728	19052
531.796	18580
531.864	19963
531.932	19181
532.000	19744
532.067	19072
532.135	20918
532.203	24071
532.271	23751
532.339	25835
532.407	25947
532.475	24863
532.542	23953
532.610	24503
532.678	23161
532.746	26337
532.814	27776
532.881	26551
532.949	27763
533.017	26903
533.084	23380
533.152	23241
533.220	22333
533.287	21485
533.355	22972
533.423	24165
533.490	23633
533.558	25809
533.625	26370
533.693	23921
533.761	25916
533.828	25593
533.896	25143
533.963	28238
534.031	30437
534.098	37686
534.166	43321
534.233	43894
534.300	48416
534.368	49908
534.435	51935
534.503	55025
534.570	63590
534.637	75668
534.705	89887
534.772	121955
534.840	266574
534.907	1013810
534.974	1004815
535.041	167149
535.109	77162
535.176	57532
535.243	50216
535.310	47839
535.378	43507
535.445	43430
535.512	45337
535.579	43973
535.646	41930
535.714	44167
535.781	45813
535.848	45613
535.915	44520
535.982	41927
536.049	41671
536.116	43821
536.183	40539
536.250	39881
536.317	40823
536.384	42145
536.451	44575
536.518	43661
536.585	42677
536.652	45445
536.719	45622
536.786	41479
536.853	41786
536.920	44710
536.987	43827
537.053	41554
537.120	46359
537.187	48368
537.254	49023
537.321	48291
537.388	49282
537.454	48198
537.521	46943
537.588	47025
537.654	48287
537.721	51790
537.788	50423
537.855	46776
537.921	49253
537.988	46422
538.055	45965
538.121	42570
538.188	41352
538.254	40520
538.321	41958
538.388	46114
538.454	52217
538.521	52116
538.587	50850
538.654	48453
538.720	48440
538.787	48762
538.853	49379
538.920	47037
538.986	42893
539.053	41737
539.119	46144
539.185	44819
539.252	48003
539.318	48537
539.385	54854
539.451	49855
539.517	49202
539.583	49829
539.650	47161
539.716	46001
539.782	43977
539.849	45634
539.915	46542
539.981	45774
540.047	44411
540.114	46012
540.180	49065
540.246	50366
540.312	53707
540.378	50551
540.444	49862
540.510	50258
540.576	50454
540.643	47952
540.709	46447
540.775	46787
540.841	46442
540.907	45790
540.973	46044
541.039	46761
541.105	48367
541.171	51207
541.237	53099
541.303	50449
541.369	52260
541.435	51457
541.500	48228
541.566	44946
541.632	45880
541.698	47727
541.764	51128
541.830	48636
541.896	46875
541.961	48279
542.027	47344
542.093	53038
542.159	53540
542.224	47061
542.290	49609
542.356	47949
542.421	46784
542.487	45005
542.553	45278
542.618	46319
542.684	47419
542.750	48258
542.815	48626
542.881	47592
542.947	50596
543.012	51814
543.078	46468
543.143	45329
543.209	48321
543.274	44758
543.340	47993
543.405	48231
543.471	48933
543.536	51473
543.602	50332
543.667	47873
543.732	50106
543.798	49349
543.863	51592
543.928	50706
543.994	49936
544.059	50103
544.124	52003
544.190	53872
544.255	54198
544.320	53265
544.386	52531
544.451	55610
544.516	53699
544.581	53969
544.646	55806
544.712	56568
544.777	55831
544.842	55896
544.907	57466
544.972	58544
545.037	64636
545.102	68982
545.168	62642
545.233	62147
545.298	63502
545.363	61866
545.428	66510
545.493	66067
545.558	64718
545.623	64588
545.688	65574
545.753	69272
545.818	72404
545.883	75406
545.947	76705
546.012	79936
546.077	81661
546.142	88613
546.207	88809
546.272	95264
546.337	95397
546.401	98383
546.466	103303
546.531	107264
546.596	115755
546.661	119913
546.725	125977
546.790	133730
546.855	146590
546.919	160381
546.984	178263
547.049	190758
547.113	215930
547.178	237964
547.243	266505
547.307	306736
547.372	335316
547.436	333092
547.501	354440
547.565	375666
547.630	341510
547.695	333753
547.759	334457
547.823	342192
547.888	348234
547.952	362567
548.017	388039
548.081	437598
548.146	387464
548.210	383637
548.274	412992
548.339	399498
548.403	364888
548.468	346404
548.532	351006
548.596	358805
548.660	357568
548.725	386422
548.789	412367
548.853	394843
548.917	381205
548.982	369476
549.046	332931
549.110	307105
549.174	323756
549.238	372776
549.303	402870
549.367	410064
549.431	388034
549.495	367706
549.559	371938
549.623	428720
549.687	453111
549.751	446018
549.815	527758
549.879	528812
549.943	514103
550.007	534061
550.071	525879
550.135	476062
550.199	459351
550.263	452731
550.327	433612
550.391	472419
550.455	512355
550.519	514182
550.582	545365
550.646	604353
550.710	612776
550.774	607282
550.838	623447
550.901	650584
550.965	687311
551.029	724882
551.093	789624
551.156	871656
551.220	960419
551.284	970181
551.347	783156
551.411	672431
551.475	634562
551.538	643947
551.602	598403
551.666	570410
551.729	539185
551.793	524592
551.856	514065
551.920	508062
551.983	508157
552.047	497922
552.110	510131
552.174	526889
552.237	517987
552.301	481332
552.364	460664
552.428	451757
552.491	466249
552.554	467031
552.618	468544
552.681	475883
552.745	454051
552.808	474030
552.871	494612
552.934	484275
552.998	469969
553.061	460264
553.124	442551
553.187	444591
553.251	455332
553.314	450451
553.377	458718
553.440	491207
553.503	498848
553.567	485106
553.630	485488
553.693	483741
553.756	482976
553.819	470394
553.882	458252
553.945	461999
554.008	469992
554.071	468398
554.134	468305
554.197	440856
554.260	433378
554.323	439642
554.386	445516
554.449	464130
554.512	458027
554.575	443692
554.638	439803
554.701	437390
554.764	432218
554.827	418115
554.889	405768
554.952	383628
555.015	379590
555.078	384539
555.141	387513
555.203	380968
555.266	376954
555.329	374789
555.391	362455
555.454	359284
555.517	349471
555.580	341078
555.642	326431
555.705	322033
555.768	318323
555.830	307880
555.893	295990
555.955	288994
556.018	283910
556.080	285071
556.143	293975
556.206	286186
556.268	280793
556.330	274494
556.393	265760
556.455	261735
556.518	255948
556.580	246104
556.643	239814
556.705	234906
556.767	232904
556.830	227980
556.892	223347
556.955	220445
557.017	214556
557.079	215676
557.142	211134
557.204	210535
557.266	214204
557.328	195297
557.391	185557
557.453	182301
557.515	183440
557.577	183710
557.639	186269
557.701	186991
557.764	189655
557.826	193390
557.888	203199
557.950	213608
558.012	238542
558.074	318654
558.136	670793
558.198	1208472
558.260	472596
558.322	238079
558.384	227829
558.446	234941
558.508	253530
558.570	281183
558.632	334223
558.694	442225
558.756	730397
558.818	1456953
558.880	1883741
558.942	1330478
559.003	1336093
559.065	673513
559.127	334860
559.189	308861
559.251	341399
559.312	482735
559.374	989393
559.436	1668218
559.498	1092551
559.559	403978
559.621	316259
559.683	356774
559.744	552796
559.806	1281716
559.868	1407526
559.929	518930
559.991	360609
560.052	568159
560.114	1224776
560.176	781138
560.237	830520
560.299	1049480
560.360	281497
560.422	139159
560.483	112716
560.545	101672
560.606	97223
560.667	91231
560.729	86931
560.790	80468
560.852	78626
560.913	76437
560.974	74211
561.036	72820
561.097	73961
561.158	70252
561.220	69709
561.281	66954
561.342	65075
561.403	66033
561.465	64842
561.526	64377
561.587	64242
561.648	60017
561.709	59938
561.771	59963
561.832	58833
561.893	57679
561.954	56819
562.015	57361
562.076	55716
562.137	55049
562.198	55474
562.259	54280
562.320	54282
562.381	54704
562.442	54315
562.503	52727
562.564	51610
562.625	52073
562.686	51460
562.747	48382
562.808	51095
562.869	48360
562.930	48910
562.991	47169
563.051	47442
563.112	47003
563.173	48059
563.234	45709
563.294	46321
563.355	43994
563.416	44992
563.477	45802
563.537	45118
563.598	43784
563.659	44376
563.720	43414
563.780	44564
563.841	44229
563.901	44331
563.962	43046
564.023	42428
564.083	42692
564.144	41563
564.204	41694
564.265	41455
564.325	41292
564.386	41155
564.446	40307
564.507	39493
564.567	38957
564.628	40271
564.688	38027
564.749	38410
564.809	38019
564.869	40125
564.930	38668
564.990	38679
565.050	39382
565.111	39567
565.171	38401
565.231	38872
565.292	39314
565.352	37960
565.412	38541
565.472	38318
565.532	37180
565.593	37258
565.653	37383
565.713	37612
565.773	38914
565.833	39570
565.893	40440
565.953	35873
566.013	35084
566.074	35444
566.134	34760
566.194	34437
566.254	34522
566.314	35267
566.374	34733
566.434	35518
566.494	34842
566.554	34763
566.614	35025
566.673	36318
566.733	39191
566.793	37379
566.853	37636
566.913	37140
566.973	35819
567.033	37585
567.092	36320
567.152	38332
567.212	37504
567.272	38828
567.331	38400
567.391	39593
567.451	40511
567.511	40930
567.570	39122
567.630	39544
567.690	36154
567.749	36609
567.809	37093
567.868	37835
567.928	36679
567.988	37535
568.047	38694
568.107	39147
568.166	37802
568.226	37218
568.285	37620
568.345	37764
568.404	38460
568.464	38606
568.523	36795
568.582	38087
568.642	37494
568.701	36854
568.761	34219
568.820	34859
568.879	36137
568.939	38550
568.998	37610
569.057	37426
569.116	37827
569.176	37896
569.235	37990
569.294	37737
569.353	35049
569.413	36207
569.472	34341
569.531	36183
569.590	34315
569.649	35227
569.708	34214
569.767	35201
569.827	33989
569.886	35358
569.945	34860
570.004	35794
570.063	35152
570.122	38026
570.181	37127
570.240	38112
570.299	39433
570.358	38354
570.417	38077
570.475	39171
570.534	38116
570.593	38411
570.652	37341
570.711	38790
570.770	37906
570.829	36965
570.887	37398
570.946	39611
571.005	38015
571.064	39019
571.122	39476
571.181	38809
571.240	39549
571.299	37190
571.357	36392
571.416	36601
571.475	38087
571.533	39963
571.592	42947
571.650	42578
571.709	45147
571.768	51271
571.826	52768
571.885	48499
571.943	43636
572.002	39731
572.060	37935
572.119	36843
572.177	38056
572.236	37722
572.294	38954
572.352	42040
572.411	42165
572.469	40029
572.528	37564
572.586	36689
572.644	35945
572.703	36981
572.761	36391
572.819	35258
572.877	33718
572.936	33834
572.994	34902
573.052	35671
573.110	35882
573.169	39469
573.227	38319
573.285	38920
573.343	36830
573.401	35808
573.459	36793
573.517	38412
573.576	41791
573.634	41293
573.692	39759
573.750	40638
573.808	38630
573.866	37123
573.924	36234
573.982	34914
574.040	36092
574.098	37274
574.155	35491
574.213	36310
574.271	38772
574.329	43192
574.387	39804
574.445	34134
574.503	35190
574.560	33833
574.618	34677
574.676	34652
574.734	34197
574.792	33865
574.849	31861
574.907	28657
574.965	28275
575.022	27646
575.080	27265
575.138	27291
575.195	25612
575.253	26165
575.311	26807
575.368	27279
575.426	25769
575.483	27849
575.541	28226
575.598	29452
575.656	28558
575.713	31325
575.771	33114
575.828	30938
575.886	28371
575.943	28061
576.001	24938
576.058	26011
576.115	26273
576.173	27375
576.230	28014
576.287	28286
576.345	27894
576.402	28823
576.459	31042
576.517	28539
576.574	27060
576.631	26138
576.688	24358
576.746	24561
576.803	24547
576.860	23580
576.917	24795
576.974	25556
577.031	25308
577.089	24615
577.146	23652
577.203	22766
577.260	23938
577.317	23397
577.374	22586
577.431	23466
577.488	23131
577.545	22812
577.602	22907
577.659	23728
577.716	23794
577.773	24050
577.830	23969
577.886	23005
577.943	21299
578.000	21746
578.057	22805
578.114	21765
578.171	21900
578.227	23456
578.284	22326
578.341	23219
578.398	21672
578.454	22495
578.511	23053
578.568	24000
578.625	23836
578.681	23775
578.738	22690
578.794	23867
578.851	23699
578.908	25172
578.964	22464
579.021	23950
579.077	23321
579.134	23734
579.190	24077
579.247	22470
579.303	23264
579.360	22819
579.416	22786
579.473	23434
579.529	23239
579.586	23440
579.642	24628
579.698	23740
579.755	24760
579.811	24487
579.867	24631
579.924	24447
579.980	23990
580.036	24564
580.093	24004
580.149	25803
580.205	25519
580.261	26146
580.317	26157
580.374	28241
580.430	28401
580.486	27790
580.542	25482
580.598	27045
580.619	27071
580.654	27150
580.692	26671
580.710	26484
580.765	27118
580.767	27171
580.823	27436
580.838	27527
580.879	27880
580.911	28035
580.935	28212
580.984	27617
580.991	27573
581.047	28799
581.057	28456
581.103	27052
581.130	26997
581.159	27002
581.203	26011
581.215	25774
581.270	24895
581.276	24806
581.326	24231
581.349	24642
581.382	25285
581.422	25084
581.438	25041
581.494	24778
581.494	24747
581.550	23676
581.567	23968
581.606	24563
581.640	23989
581.661	23702
581.713	25676
581.717	25855
581.773	24474
581.786	24401
581.829	24115
581.859	24432
581.885	24792
581.932	25293
581.940	25414
581.996	26198
582.004	26054
582.052	25113
582.077	24528
582.107	23966
582.150	24443
582.163	24574
582.219	23691
582.223	23649
582.274	23417
582.296	23950
582.330	24777
582.368	23807
582.386	23453
582.441	24994
582.441	25004
582.497	23821
582.514	23862
582.552	24103
582.587	23157
582.608	22589
582.659	23463
582.663	23537
582.719	24626
582.732	24381
582.774	23653
582.805	23869
582.830	24039
582.877	24236
582.885	24260
582.941	23134
582.950	23080
582.996	22828
583.023	22575
583.052	22463
583.095	23991
583.107	24352
583.162	23179
583.168	23158
583.218	23027
583.240	23034
583.273	23016
583.313	22722
583.328	22668
583.384	23138
583.385	23127
583.439	22618
583.458	22572
583.494	22479
583.531	22743
583.549	22899
583.603	23568
583.605	23585
583.660	23171
583.676	23349
583.715	23899
583.748	23547
583.770	23326
583.820	23771
583.825	23770
583.881	23634
583.893	23657
583.936	24152
583.965	23999
583.991	23626
584.038	23436
584.046	23483
584.101	24161
584.110	24243
584.156	24534
584.183	24712
584.211	24762
584.255	24747
584.266	24782
584.321	25170
584.328	25242
584.376	25434
584.400	25714
584.431	26345
584.472	26665
584.486	26698
584.541	27821
584.545	27842
584.596	28303
584.617	28739
584.651	29429
584.689	30130
584.706	30343
584.761	32047
584.762	32079
584.816	34625
584.834	35122
584.871	35993
584.906	37398
584.926	38231
584.978	40787
584.980	40882
585.035	46286
585.051	47881
585.090	52454
585.123	57306
585.145	60554
585.195	68144
585.200	68934
585.254	81284
585.267	84797
585.309	96288
585.340	105917
585.364	114636
585.412	137449
585.419	141060
585.473	178144
585.484	189801
585.528	249615
585.556	310107
585.583	398489
585.628	618162
585.637	677275
585.692	1187853
585.700	1245956
585.747	1415572
585.772	1266610
585.801	965890
585.845	507817
585.856	420554
585.910	217625
585.917	200941
585.965	138242
585.989	117907
586.019	100510
586.061	83226
586.074	78938
586.128	67363
586.133	66695
586.183	61378
586.205	59079
586.237	56399
586.277	54557
586.292	53885
586.346	51793
586.349	51731
586.401	49980
586.421	49411
586.455	48690
586.493	48416
586.509	48645
586.564	49445
586.565	49527
586.618	53014
586.637	54877
586.672	60606
586.709	70196
586.727	74712
586.781	84448
586.781	84400
586.835	68698
586.853	64199
586.889	56154
586.925	50851
586.944	48863
586.996	47118
586.998	47074
587.052	44480
587.068	44251
587.106	44366
587.140	44284
587.161	44137
587.212	44273
587.215	44249
587.269	44511
587.284	44381
587.323	44558
587.356	45458
587.377	46105
587.427	48009
587.431	48011
587.485	47426
587.499	47235
587.539	47779
587.571	48890
587.593	49968
587.643	52094
587.648	52187
587.702	52979
587.715	53294
587.755	53403
587.786	53101
587.810	53207
587.858	54100
587.864	54095
587.917	54054
587.930	53839
587.971	53550
588.001	53809
588.025	53587
588.073	53464
588.079	53439
588.133	52616
588.145	52656
588.187	53120
588.217	53456
588.241	54030
588.288	55445
588.295	55488
588.348	55822
588.360	55839
588.402	55963
588.431	56134
588.456	56640
588.503	58220
588.510	58549
588.564	62223
588.575	63009
588.617	65176
588.646	66508
588.671	67605
588.718	70488
588.725	71350
588.778	81133
588.789	83778
588.832	112117
588.861	136214
588.886	191257
588.932	317963
588.939	329321
588.993	408174
589.004	400826
589.047	207006
589.075	105977
589.100	86160
589.147	66821
589.154	66363
589.207	63601
589.218	63337
589.261	64141
589.290	64905
589.314	65728
589.361	68865
589.368	70570
589.421	86653
589.433	91162
589.475	141299
589.504	182262
589.528	234337
589.576	347597
589.582	337525
589.635	169966
589.647	138691
589.689	88226
589.718	62147
589.742	60577
589.790	58260
589.795	58107
589.849	56932
589.861	56761
589.902	56413
589.932	56250
589.955	56033
590.004	55501
590.009	55428
590.062	54744
590.075	54599
590.115	54403
590.146	54529
590.168	54425
590.218	54633
590.222	54741
590.275	56067
590.289	56504
590.328	57507
590.360	58308
590.381	58438
590.431	58654
590.435	58696
590.488	60307
590.503	60562
590.541	60543
590.574	61046
590.594	61639
590.645	63203
590.647	63262
590.700	65332
590.716	66085
590.753	67397
590.787	68608
590.806	69011
590.859	70346
590.859	70340
590.912	71706
590.930	72206
590.965	72803
591.001	73498
591.018	72912
591.071	70785
591.072	70790
591.124	70257
591.143	70248
591.177	71139
591.214	72253
591.230	72448
591.283	72992
591.285	73028
591.336	71905
591.356	71581
591.389	71216
591.427	70770
591.442	70765
591.495	70765
591.498	70804
591.547	71220
591.569	71533
591.600	72392
591.640	73396
591.653	73487
591.706	74036
591.711	74118
591.759	75683
591.782	76696
591.811	78862
591.853	81923
591.864	81613
591.917	80014
591.924	79822
591.969	80452
591.995	80881
592.022	81683
592.066	83105
592.075	83313
592.127	84832
592.137	85139
592.180	86060
592.208	86690
592.233	87551
592.279	89392
592.285	89616
592.338	91742
592.350	92246
592.390	91444
592.421	90927
592.443	91752
592.491	93722
592.495	93721
592.548	94227
592.562	94409
592.600	94642
592.633	94902
592.653	94783
592.704	94040
592.705	94632
592.775	97592
592.846	100537
592.916	100163
592.987	102007
593.058	102524
593.128	105560
593.199	105382
593.270	106837
593.341	108241
593.411	113056
593.482	117033
593.553	117958
593.623	120621
593.694	123261
593.764	125543
593.835	126721
593.906	126742
593.976	129888
594.047	135680
594.117	140663
594.188	144391
594.258	141937
594.329	143862
594.399	148632
594.470	153599
594.540	157841
594.611	160480
594.681	158633
594.751	159968
594.822	163941
594.892	173136
594.963	177088
595.033	180283
595.103	186385
595.174	188212
595.244	192346
595.314	199130
595.384	203202
595.455	209668
595.525	215075
595.595	222776
595.665	223401
595.736	218938
595.806	225295
595.876	227474
595.946	228467
596.016	239361
596.087	245659
596.157	243615
596.227	246508
596.297	260366
596.367	279983
596.437	293476
596.507	288500
596.577	289193
596.647	301263
596.717	316333
596.787	321573
596.857	318638
596.927	321434
596.997	323851
597.067	327719
597.137	330795
597.207	333799
597.277	335846
597.347	323519
597.417	311908
597.487	309161
597.557	319647
597.626	328353
597.696	333661
597.766	330903
597.836	310524
597.906	293040
597.975	287985
598.045	293314
598.115	308933
598.185	331503
598.254	372288
598.324	398176
598.394	403104
598.464	391271
598.533	383009
598.603	355871
598.672	348674
598.742	355544
598.812	356990
598.881	367918
598.951	364698
599.020	373627
599.090	384685
599.159	391323
599.229	370651
599.299	368440
599.368	378394
599.437	368835
599.507	340143
599.576	327652
599.646	322980
599.715	320406
599.785	315099
599.854	306881
599.924	301728
599.993	299251
600.062	307036
600.132	315229
600.201	337908
600.270	392397
600.340	407356
600.409	400834
600.478	395221
600.547	405275
600.617	359752
600.686	286013
600.755	260485
600.824	247079
600.894	239980
600.963	242984
601.032	237452
601.101	227916
601.170	218058
601.239	210635
601.308	207592
601.378	209609
601.447	209343
601.516	211542
601.585	211708
601.654	215157
601.723	214714
601.792	222799
601.861	229262
601.930	236978
601.999	238897
602.068	236587
602.137	240697
602.206	246820
602.275	246979
602.343	250961
602.412	249404
602.481	254347
602.550	257504
602.619	264728
602.688	268049
602.756	269043
602.825	271897
602.894	279927
602.963	288779
603.032	290696
603.100	289342
603.169	291518
603.238	295023
603.307	298485
603.375	300378
603.444	304244
603.513	310147
603.581	315969
603.650	320766
603.719	317405
603.787	331841
603.856	341632
603.924	346119
603.993	361278
604.061	374774
604.130	392416
604.198	396045
604.267	404435
604.335	409032
604.404	416324
604.472	422433
604.541	427321
604.609	431468
604.678	428285
604.746	429602
604.815	447795
604.883	452027
604.951	455151
605.020	460957
605.088	471769
605.156	482043
605.225	490804
605.293	488091
605.361	491692
605.429	495483
605.498	506447
605.566	519609
605.634	546421
605.702	566228
605.771	580185
605.839	581933
605.907	569539
605.975	549945
606.043	543815
606.111	545493
606.180	538698
606.248	537294
606.316	532649
606.384	528365
606.452	536011
606.520	554313
606.588	570782
606.656	577529
606.724	563585
606.792	533863
606.860	481007
606.928	441692
606.996	424384
607.064	420594
607.132	432294
607.200	457080
607.267	473062
607.335	484787
607.403	491989
607.471	473637
607.539	461742
607.607	458751
607.674	406975
607.742	408016
607.810	402566
607.878	404370
607.946	417487
608.013	436221
608.081	441545
608.149	446125
608.216	464992
608.284	478082
608.352	476414
608.419	470586
608.487	458291
608.555	456124
608.622	468576
608.690	503673
608.757	550240
608.825	557004
608.893	544549
608.960	510562
609.028	490879
609.095	492005
609.163	491520
609.230	433513
609.298	404211
609.365	428640
609.432	458879
609.500	503058
609.567	571955
609.635	648265
609.702	673135
609.769	636026
609.837	494163
609.904	441835
609.971	458511
610.039	502847
610.106	624934
610.173	1003309
610.241	1574156
610.308	1134836
610.375	604236
610.442	502259
610.509	468763
610.577	463425
610.644	467904
610.711	483385
610.778	489836
610.845	512609
610.912	541168
610.980	560786
611.047	556583
611.114	547017
611.181	533773
611.248	533034
611.315	561926
611.382	575995
611.449	597247
611.516	601641
611.583	594435
611.650	602161
611.717	609305
611.784	625480
611.851	649303
611.918	676426
611.984	775052
612.051	980648
612.118	1435645
612.185	1910774
612.252	1626714
612.319	1015881
612.386	830153
612.452	737883
612.519	694320
612.586	672224
612.653	680645
612.719	701598
612.786	666619
612.853	626373
612.919	617115
612.986	627844
613.053	590576
613.120	553655
613.186	537548
613.253	541836
613.319	543460
613.386	547916
613.453	555560
613.519	555032
613.586	542727
613.652	549746
613.719	544885
613.785	554954
613.852	559298
613.918	555883
613.985	562636
614.051	581554
614.118	573648
614.184	552633
614.250	552703
614.317	566451
614.383	561665
614.449	572312
614.516	566139
614.582	568993
614.648	560848
614.715	556923
614.781	545533
614.847	546731
614.914	539106
614.980	528075
615.046	530731
615.112	547525
615.179	552175
615.245	556666
615.311	547314
615.377	560849
615.443	563706
615.509	572983
615.575	594259
615.642	591320
615.708	606501
615.774	633072
615.840	671154
615.906	710254
615.972	824782
616.038	1084604
616.104	1592665
616.170	1997431
616.236	1827023
616.302	1308962
616.368	1072808
616.434	852471
616.500	760118
616.565	818120
616.631	982672
616.697	860078
616.763	860681
616.829	1148829
616.895	1605887
616.961	1532736
617.026	978138
617.092	712047
617.158	636936
617.224	602108
617.289	552548
617.355	523082
617.421	516232
617.487	508150
617.552	483284
617.618	482646
617.684	482131
617.749	481481
617.815	460986
617.880	452780
617.946	452148
618.012	460472
618.077	466791
618.143	449523
618.208	454451
618.274	487146
618.339	481144
618.405	403098
618.470	406319
618.536	404090
618.601	398798
618.667	370995
618.732	352673
618.798	350441
618.863	347158
618.928	346477
618.994	347532
619.059	343661
619.124	347281
619.190	345406
619.255	344874
619.320	344992
619.386	348509
619.451	342181
619.516	333897
619.581	337124
619.647	349941
619.712	350922
619.777	332397
619.842	335234
619.907	343305
619.972	345553
620.038	342604
620.103	336239
620.168	337805
620.233	342770
620.298	345127
620.363	348867
620.428	358639
620.493	364718
620.558	368246
620.623	374037
620.688	373495
620.753	371128
620.818	378191
620.883	377824
620.948	376929
621.013	373106
621.078	365160
621.143	371548
621.207	375505
621.272	368666
621.337	357583
621.402	356631
621.467	352400
621.532	352871
621.596	354774
621.661	341999
621.726	342428
621.791	347023
621.855	344513
621.920	341398
621.985	348579
622.049	354619
622.114	352823
622.179	359979
622.243	365636
622.308	379496
622.373	388921
622.437	381686
622.502	363554
622.566	360586
622.631	361757
622.695	368281
622.760	363105
622.824	362373
622.889	365732
622.953	366413
623.018	386427
623.082	387936
623.147	387135
623.211	377314
623.276	376836
623.340	364169
623.404	356816
623.469	356323
623.533	361971
623.597	350329
623.662	350299
623.726	323016
623.790	308670
623.854	300627
623.919	306328
623.983	307236
624.047	314841
624.111	318956
624.176	322213
624.240	326607
624.304	332321
624.368	323601
624.432	325766
624.496	331665
624.560	350930
624.625	350438
624.689	349360
624.753	364685
624.817	346880
624.881	338752
624.945	307046
625.009	299558
625.073	305924
625.137	315726
625.201	328671
625.265	328853
625.329	313228
625.393	317909
625.456	321940
625.520	332915
625.584	334741
625.648	342835
625.712	350803
625.776	344949
625.839	325065
625.903	277147
625.967	264069
626.031	282987
626.095	333349
626.158	302460
626.222	243308
626.286	230959
626.349	222377
626.413	205517
626.477	205484
626.540	210723
626.604	209201
626.668	204060
626.731	202530
626.795	202249
626.858	201485
626.922	198648
626.986	196418
627.049	199032
627.113	205766
627.176	198509
627.240	192900
627.303	193733
627.366	190306
627.430	195389
627.493	189984
627.557	187566
627.620	192885
627.684	200587
627.747	199695
627.810	181984
627.874	166691
627.937	158825
628.000	166744
628.064	159223
628.127	143869
628.190	143429
628.253	139133
628.317	132929
628.380	127007
628.443	123670
628.506	124480
628.569	121538
628.632	113548
628.696	115188
628.759	113129
628.822	107434
628.885	105191
628.948	103375
629.011	103932
629.074	100240
629.137	97295
629.200	94664
629.263	93644
629.326	92121
629.389	92586
629.452	91799
629.515	90428
629.578	87622
629.641	90660
629.704	90215
629.767	89124
629.830	85284
629.892	84693
629.955	84416
630.018	86974
630.081	84693
630.144	84911
630.207	81723
630.269	84777
630.332	80981
630.395	81288
630.458	78616
630.520	75554
630.583	78343
630.646	78642
630.708	79007
630.771	81084
630.834	86232
630.896	83137
630.959	83027
631.021	81529
631.084	81028
631.146	82212
631.209	82541
631.272	82138
631.334	85801
631.397	85538
631.459	87397
631.522	93575
631.584	97036
631.646	103144
631.709	107077
631.771	105397
631.834	101412
631.896	96079
631.958	90246
632.021	87424
632.083	80960
632.145	81597
632.208	78655
632.270	79836
632.332	78502
632.395	76115
632.457	78364
632.519	76395
632.581	76105
632.643	73116
632.706	75732
632.768	72439
632.830	74968
632.892	77160
632.954	77895
633.016	79317
633.078	76593
633.141	77987
633.203	76049
633.265	77270
633.327	76040
633.389	77354
633.451	78918
633.513	76897
633.575	81776
633.637	79012
633.698	81644
633.760	88186
633.822	90459
633.884	94011
633.946	96239
634.008	101778
634.070	104994
634.132	111464
634.193	122615
634.255	131832
634.317	133881
634.379	131343
634.441	117532
634.502	107030
634.564	98151
634.626	89351
634.687	85076
634.749	80245
634.811	81741
634.873	78291
634.934	78501
634.996	78766
635.057	79320
635.119	80048
635.181	83094
635.242	84375
635.304	81452
635.365	86537
635.427	80588
635.488	83275
635.550	82202
635.611	84654
635.673	86782
635.734	94912
635.796	99275
635.857	110017
635.918	117745
635.980	130967
636.041	137957
636.102	146752
636.164	145999
636.225	139223
636.286	121537
636.348	109011
636.409	98356
636.470	90195
636.531	87081
636.593	81453
636.654	79357
636.715	75757
636.776	74800
636.838	70449
636.899	69614
636.960	68664
637.021	67172
637.082	66102
637.143	64766
637.204	61929
637.265	63538
637.326	64652
637.387	66097
637.448	63277
637.509	64695
637.570	64364
637.631	63796
637.692	59434
637.753	58470
637.814	60236
637.875	58037
637.936	59711
637.997	60185
638.058	59610
638.119	58282
638.179	59016
638.240	58534
638.301	58596
638.362	55780
638.423	54500
638.483	56385
638.544	52735
638.605	56571
638.666	55730
638.726	55959
638.787	55945
638.848	55298
638.908	52931
638.969	51012
639.030	50639
639.090	49813
639.151	50936
639.211	53046
639.272	54731
639.332	54064
639.393	56761
639.453	60546
639.514	61797
639.574	53675
639.635	49156
639.695	49795
639.756	47516
639.816	49004
639.877	48281
639.937	48474
639.997	49209
640.058	47987
640.118	47826
640.178	49965
640.239	48506
640.299	50146
640.359	52127
640.420	56077
640.480	62382
640.540	71976
640.600	73122
640.661	70845
640.721	71629
640.781	89148
640.841	87995
640.901	56245
640.961	53146
641.021	56481
641.082	59517
641.142	52285
641.202	49532
641.262	45731
641.322	48503
641.382	45849
641.442	46266
641.502	45805
641.562	48307
641.622	50087
641.682	55384
641.742	63034
641.802	58304
641.861	50626
641.921	46489
641.981	45994
642.041	43565
642.101	42667
642.161	42730
642.221	43251
642.280	43546
642.340	43635
642.400	44198
642.460	45084
642.519	46147
642.579	46517
642.639	46920
642.698	44404
642.758	48963
642.818	47941
642.877	46182
642.937	47060
642.997	47287
643.056	47280
643.116	46519
643.175	49981
643.235	49923
643.294	51089
643.354	54261
643.414	58615
643.473	68638
643.532	80147
643.592	104571
643.651	152260
643.711	244149
643.770	444971
643.830	899556
643.889	1224047
643.948	507274
644.008	173202
644.067	105438
644.126	77340
644.186	65786
644.245	59012
644.304	53810
644.363	54543
644.423	49675
644.482	50723
644.541	54925
644.600	56683
644.659	70394
644.719	84269
644.778	120145
644.837	196373
644.896	388710
644.955	699059
645.014	244768
645.073	90465
645.132	67920
645.191	60004
645.250	57677
645.309	59989
645.368	67040
645.427	90229
645.486	161218
645.545	236801
645.604	76832
645.663	53016
645.722	53263
645.781	54222
645.840	62180
645.898	73419
645.957	98417
646.016	138683
646.075	231400
646.134	422738
646.192	902920
646.251	985777
646.310	299051
646.369	123004
646.427	98945
646.486	73025
646.545	57076
646.603	52450
646.662	48346
646.721	46547
646.779	46651
646.838	48652
646.896	57627
646.955	78569
647.014	123536
647.072	231381
647.131	527816
647.189	232653
647.248	57995
647.306	44984
647.365	39801
647.423	35666
647.481	36276
647.540	34232
647.598	34749
647.657	34794
647.715	35410
647.773	32949
647.832	33902
647.890	28932
647.948	30037
648.007	29930
648.065	28683
648.123	29013
648.181	29858
648.240	28579
648.298	28266
648.356	27187
648.414	28799
648.472	27862
648.531	27266
648.589	26077
648.647	27182
648.705	27442
648.763	28394
648.821	30128
648.879	30223
648.937	34531
648.995	39528
649.053	50509
649.111	69730
649.169	110777
649.227	190206
649.285	389145
649.343	816913
649.401	388737
649.459	93062
649.516	54723
649.574	41715
649.632	42954
649.690	46612
649.748	58951
649.806	87523
649.863	162623
649.921	410682
649.979	233937
650.037	48145
650.094	30051
650.152	27973
650.210	26744
650.268	28744
650.325	36359
650.383	45735
650.440	23630
650.498	20289
650.556	20736
650.613	19834
650.671	20144
650.728	20729
650.786	23893
650.843	35466
650.901	23445
650.958	18485
651.016	18217
651.073	17133
651.131	16934
651.188	16539
651.246	16103
651.303	16186
651.360	15748
651.418	16410
651.475	15588
651.532	15129
651.590	16169
651.647	14965
651.704	15387
651.762	14720
651.819	14214
651.876	14448
651.933	14516
651.990	15845
652.048	13124
652.105	13368
652.162	14517
652.219	13300
652.276	13726
652.333	14590
652.390	12528
652.448	14198
652.505	13007
652.562	13342
652.619	13206
652.676	12559
652.733	14105
652.790	12111
652.847	11812
652.904	13073
652.961	11677
653.017	12023
653.074	13870
653.131	12305
653.188	12605
653.245	12899
653.302	12181
653.359	12386
653.415	13035
653.472	11808
653.529	13125
653.586	12063
653.642	12215
653.699	13830
653.756	12194
653.813	12178
653.869	13631
653.926	13052
653.983	12316
654.039	13367
654.096	11938
654.152	12592
654.209	10449
654.266	12121
654.322	11642
654.379	11380
654.435	11983
654.492	12023
654.548	11903
654.605	11971
654.661	16257
654.717	13237
654.774	12074
654.830	12947
654.887	13856
654.943	16067
655.000	22412
655.056	15845
655.112	12778
655.168	12290
655.225	13147
655.281	13652
655.337	11989
655.394	11434
655.450	11829
655.506	11885
655.562	10767
655.618	12031
655.675	11269
655.731	12555
655.787	11836
655.843	13468
655.899	12077
655.955	13786
656.011	13416
656.067	13125
656.123	13682
656.179	15193
656.235	15979
656.291	14815
656.347	16460
656.403	14678
656.459	13793
656.515	11978
656.571	11358
656.627	12157
656.683	12194
656.739	12696
656.795	11394
656.850	11578
656.906	12049
656.962	12376
657.018	13332
657.074	16749
657.129	22173
657.185	35964
657.241	77267
657.297	37204
657.352	13803
657.408	10977
657.464	12059
657.519	10683
657.575	9746
657.630	9765
657.686	10533
657.742	9784
657.797	9781
657.853	10748
657.908	11207
657.964	9366
658.019	9998
658.075	9872
658.130	10632
658.186	9778
658.241	9909
658.297	8602
658.352	9028
658.407	9760
658.463	8025
658.518	10253
658.573	9216
658.629	8638
658.684	9416
658.739	9850
658.795	9044
658.850	10334
658.905	10081
658.960	8532
659.016	8809
659.071	9545
659.126	9050
659.181	9179
659.236	10505
659.291	9889
659.346	8903
659.401	9456
659.457	9310
659.512	8560
659.567	9833
659.622	8471
659.677	8584
659.732	8037
659.787	8893
659.842	9047
659.897	9090
659.952	9452
660.007	8863
660.061	9118
660.116	8574
660.171	8138
660.226	8844
660.281	10198
660.336	7969
660.391	9568
660.445	8927
660.500	8159
660.555	9029
660.610	9117
660.664	8520
660.719	8517
660.774	8482
660.828	8521
660.883	8567
660.938	9026
660.992	7841
661.047	8983
661.101	7260
661.156	9109
661.211	7287
661.265	8402
661.320	8333
661.374	8733
661.429	8789
661.483	9546
661.538	8934
661.592	11098
661.647	14956
661.701	21080
661.755	12508
661.810	8844
661.864	8150
661.919	7888
661.973	8528
662.027	8209
662.081	8261
662.136	8876
662.190	8531
662.244	8262
662.299	8309
662.353	8932
662.407	7253
662.461	8868
662.515	7579
662.569	7336
662.624	8152
662.678	8261
662.732	7988
662.786	8085
662.840	7439
662.894	7848
662.948	7751
663.002	7806
663.056	8177
663.110	7566
663.164	8615
663.218	8217
663.272	8490
663.326	8004
663.380	8747
663.434	8189
663.488	7978
663.542	8581
663.595	9372
663.649	8423
663.703	8648
663.757	7779
663.811	7555
663.864	8448
663.918	8505
663.972	7059
664.026	7893
664.079	8446
664.133	8569
664.187	8919
664.240	9738
664.294	10863
664.348	10202
664.401	8824
664.455	8395
664.508	7739
664.562	7967
664.615	8565
664.669	8063
664.722	8050
664.776	7464
664.829	8843
664.883	7740
664.936	7567
664.990	8481
665.043	8828
665.097	8351
665.150	9480
665.203	7944
665.257	8857
665.310	9349
665.363	8370
665.417	9119
665.470	9072
665.523	9036
665.576	9508
665.630	8971
665.683	9253
665.736	9894
665.789	8732
665.842	8191
665.895	8335
665.949	8758
666.002	9818
666.055	8499
666.108	10071
666.161	9925
666.214	9338
666.267	9709
666.320	10019
666.373	9391
666.426	10068
666.479	10322
666.532	10132
666.585	11227
666.638	10645
666.691	10123
666.744	10075
666.796	9054
666.849	9609
666.902	10067
666.955	9647
667.008	8809
667.060	9795
667.113	9063
667.166	9593
667.219	9915
667.271	10073
667.324	10322
667.377	9481
667.430	9325
667.482	8194
667.535	8954
667.587	9331
667.640	8514
667.693	8991
667.745	8520
667.798	9619
667.850	9658
667.903	9306
667.955	9626
668.008	9076
668.060	8753
668.113	9021
668.165	8677
668.218	8974
668.270	9251
668.322	8714
668.375	9461
668.427	8844
668.479	8058
668.532	9248
668.584	7217
668.636	8226
668.689	9346
668.741	8918
668.793	8145
668.845	9295
668.898	9032
668.950	8295
669.002	8538
669.054	7734
669.106	8676
669.158	8624
669.211	7696
669.263	7221
669.315	8592
669.367	8123
669.419	7779
669.471	9255
669.523	8538
669.575	7753
669.627	6957
669.679	8633
669.731	7890
669.783	7544
669.835	7639
669.886	8253
669.938	7440
669.990	7727
670.042	7697
670.094	7584
670.146	7650
670.197	6806
670.249	8120
670.301	8302
670.353	7343
670.404	9275
670.456	8065
670.508	8369
670.560	10535
670.611	11107
670.663	14078
670.715	27364
670.766	31377
670.818	12359
670.869	9592
670.921	10597
670.972	10903
671.024	10317
671.075	8833
671.127	9506
671.178	10573
671.230	11572
671.281	13896
671.333	15311
671.384	18001
671.436	24258
671.487	32936
671.538	46559
671.590	71324
671.641	115430
671.692	200093
671.744	329038
671.795	247848
671.846	118271
671.897	61561
671.949	40207
672.000	28349
672.051	22014
672.102	17755
672.153	14309
672.204	12357
672.256	12565
672.307	11389
672.358	10555
672.409	9351
672.460	8472
672.511	7964
672.562	7844
672.613	6692
672.664	7670
672.715	8527
672.766	6442
672.817	7183
672.868	6718
672.919	6631
672.970	5844
673.021	7062
673.071	5719
673.122	5547
673.173	6117
673.224	5915
673.275	6218
673.326	5854
673.376	5930
673.427	6145
673.478	5686
673.528	6833
673.579	5969
673.630	5490
673.680	6651
673.731	5921
673.782	6252
673.832	5614
673.883	6192
673.934	5540
673.984	6773
674.035	6458
674.085	6263
674.136	6047
674.186	6770
674.237	6356
674.287	6255
674.338	6867
674.388	6843
674.438	6710
674.489	7611
674.539	7962
674.589	7152
674.640	6972
674.690	6936
674.740	6611
674.791	6554
674.841	5711
674.891	6284
674.942	4320
674.992	4819
675.042	5865
675.092	5053
675.142	3791
675.193	4751
675.243	4649
675.293	5136
675.343	4876
675.393	5818
675.443	5382
675.493	5589
675.543	4894
675.593	5508
675.643	5192
675.693	5038
675.743	5508
675.793	3842
675.843	4026
675.893	4742
675.943	3878
675.993	4483
676.043	4443
676.093	4818
676.142	4156
676.192	4937
676.242	4725
676.292	3890
676.341	4269
676.391	4029
676.441	3388
676.491	3773
676.540	4093
676.590	4267
676.640	4229
676.689	3196
676.739	3130
676.789	2914
676.838	3863
676.888	2724
676.937	3225
676.987	4448
677.037	3367
677.086	3279
677.136	3898
677.185	3630
677.235	3518
677.284	3248
677.333	3392
677.383	3688
677.432	2499
677.482	3472
677.531	3255
677.580	3116
677.630	2999
677.679	2963
677.728	3649
677.778	4063
677.827	2676
677.876	3797
677.925	3714
677.975	4682
678.024	4430
678.073	3953
678.122	4466
678.171	4824
678.220	5405
678.269	7401
678.319	7512
678.368	6766
678.417	6159
678.466	5048
678.515	4544
678.564	3562
678.613	2238
678.662	3049
678.711	2904
678.760	4436
678.809	3686
678.857	3972
678.906	4658
678.955	4472
679.004	4870
679.053	6990
679.102	6480
679.151	4489
679.199	3523
679.248	3468
679.297	2767
679.346	3045
679.394	2525
679.443	3513
679.492	2385
679.540	3622
679.589	2589
679.638	3179
679.686	4481
679.735	3951
679.784	5041
679.832	6208
679.881	5550
679.929	4034
679.978	2641
680.026	3520
680.075	3925
680.123	2032
680.172	2773
680.220	3225
680.268	3178
680.317	2252
680.365	2541
680.414	2196
680.462	3388
680.510	3386
680.559	2735
680.607	2079
680.655	3075
680.703	3622
680.752	3042
680.800	3442
680.848	2513
680.896	2481
680.945	3064
680.993	1901
681.041	1638
681.089	2346
681.137	3402
681.185	1533
681.233	2308
681.258	2636
681.281	2906
681.329	2027
681.377	2691
681.380	2740
681.425	2911
681.473	3609
681.502	3566
681.521	3462
681.569	4178
681.617	3264
681.624	3271
681.665	2988
681.713	3215
681.745	4008
681.761	4331
681.809	2659
681.857	4549
681.867	4462
681.904	3967
681.952	4146
681.989	4132
682.000	4076
682.048	4634
682.096	3417
682.111	3525
682.143	3680
682.191	3751
682.233	5043
682.239	5186
682.286	4135
682.334	3937
682.354	3986
682.382	3998
682.430	5007
682.476	4338
682.477	4285
682.525	4259
682.572	4334
682.598	4332
682.620	4323
682.667	5043
682.715	5989
682.720	5957
682.763	5198
682.810	5055
682.841	5312
682.857	5400
682.905	4676
682.952	4659
682.963	4872
683.000	5419
683.047	4493
683.085	6471
683.095	6987
683.142	6691
683.190	6053
683.206	6279
683.237	6528
683.284	5757
683.328	5780
683.332	5764
683.379	5502
683.426	5559
683.449	6044
683.473	6458
683.521	6247
683.568	6181
683.571	6208
683.615	6135
683.662	6779
683.693	6174
683.709	5744
683.757	6520
683.804	6774
683.814	6481
683.851	5486
683.898	7097
683.936	6789
683.945	6680
683.992	6813
684.039	6417
684.057	6833
684.086	7404
684.133	7679
684.179	6363
684.180	6296
684.227	6912
684.274	6675
684.300	7319
684.321	7886
684.368	7216
684.415	7984
684.422	7954
684.462	7368
684.509	7616
684.543	7774
684.556	7856
684.603	8046
684.649	7973
684.665	7945
684.696	7745
684.743	7807
684.786	7866
684.790	7856
684.837	7500
684.883	7701
684.908	8062
684.930	8355
684.977	8476
685.023	8215
685.029	8246
685.070	8401
685.117	8664
685.150	8585
685.164	8487
685.210	8409
685.257	9031
685.272	9018
685.303	9050
685.350	9208
685.393	9142
685.396	9094
685.443	8339
685.490	8768
685.514	8656
685.536	8780
685.583	8629
685.629	9202
685.636	9230
685.675	9042
685.722	8892
685.757	8377
685.768	8247
685.815	8911
685.861	9345
685.878	9254
685.908	9047
685.954	9317
686.000	9765
686.000	9762
686.047	9658
686.093	10018
686.121	9838
686.139	9705
686.185	10410
686.232	9954
686.242	9925
686.278	9799
686.324	10602
686.363	10216
686.370	10128
686.416	10071
686.463	10050
686.484	10157
686.509	10326
686.555	10127
686.601	10009
686.606	10031
686.647	10052
686.693	10205
686.727	10094
686.739	10094
686.785	10219
686.831	10266
686.848	10488
686.877	10852
686.923	10864
686.969	10345
686.969	10342
687.015	11094
687.061	11689
687.090	12473
687.107	12675
687.153	12419
687.199	11758
687.211	11543
687.245	11212
687.291	12007
687.332	11641
687.336	11635
687.382	12989
687.428	13231
687.453	13674
687.474	14212
687.520	14956
687.565	16324
687.574	16521
687.611	19311
687.657	23062
687.695	26785
687.702	28226
687.748	39358
687.794	50493
687.816	52520
687.839	45437
687.885	34216
687.931	22988
687.937	21551
687.976	19413
688.022	16701
688.058	14200
688.067	14056
688.113	13774
688.158	13088
688.179	12791
688.204	12774
688.249	12816
688.295	13404
688.300	13345
688.340	12973
688.386	13595
688.421	13123
688.431	13036
688.477	13475
688.522	13541
688.542	14013
688.567	14704
688.613	14460
688.658	14731
688.663	14791
688.703	14877
688.749	13600
688.784	14047
688.794	14212
688.839	14608
688.884	14668
688.905	14546
688.930	14550
688.975	14267
689.020	14549
689.026	14565
689.065	15429
689.110	16328
689.146	17335
689.155	17619
689.201	19463
689.246	19982
689.267	20050
689.291	18618
689.336	17154
689.381	15093
689.388	14646
689.426	14153
689.471	14636
689.509	14777
689.516	14808
689.561	14994
689.606	14686
689.630	14576
689.651	14545
689.696	14430
689.741	14689
689.750	14775
689.785	15018
689.830	15089
689.871	14787
689.875	14787
689.920	14231
689.965	14413
689.992	14507
690.010	14551
690.054	14148
690.099	14702
690.112	14576
690.144	14397
690.189	13943
690.233	14254
690.233	14275
690.278	14399
690.323	14543
690.354	14529
690.367	14598
690.412	14726
690.457	14829
690.474	14937
690.501	14760
690.546	14758
690.590	13885
690.595	13794
690.635	13660
690.680	13711
690.716	13732
690.724	13756
690.769	13716
690.813	14094
690.836	14097
690.857	14458
690.902	15105
690.946	15676
690.957	15807
690.991	15657
691.035	15171
691.077	15212
691.080	15264
691.124	15343
691.168	15885
691.198	15914
691.213	15824
691.257	15881
691.301	15491
691.318	15502
691.346	15811
691.390	15793
691.434	15813
691.439	15831
691.478	15774
691.522	15915
691.559	15165
691.567	15175
691.611	16139
691.655	16477
691.680	16757
691.699	16694
691.743	16364
691.787	16325
691.800	16052
691.831	15795
691.875	16164
691.919	16390
691.921	16367
691.964	16388
692.008	16063
692.041	15795
692.052	15842
692.096	16436
692.139	16771
692.162	16978
692.183	16822
692.227	16531
692.271	15838
692.282	15727
692.315	16002
692.359	15614
692.402	16089
692.403	16123
692.447	16179
692.490	16240
692.523	16132
692.534	16206
692.578	16527
692.622	16693
692.643	16789
692.666	16742
692.709	16560
692.753	16369
692.763	16340
692.797	16546
692.840	16584
692.884	16668
692.884	16702
692.928	16562
692.971	16469
693.004	16418
693.015	16499
693.059	16545
693.102	16551
693.124	16531
693.146	16517
693.189	16497
693.233	16392
693.245	16329
693.276	16512
693.320	17012
693.363	17079
693.365	17050
693.407	16887
693.450	16812
693.485	16551
693.493	16597
693.537	16720
693.580	16947
693.605	17017
693.624	16969
693.667	16349
693.710	16432
693.725	16337
693.753	16360
693.797	16321
693.840	16273
693.845	16242
693.883	16460
693.926	16443
693.966	16355
693.970	16420
694.013	17105
694.056	17590
694.086	17730
694.099	17635
694.142	17450
694.185	17385
694.206	17091
694.229	17377
694.272	18385
694.315	19201
694.326	19267
694.358	18667
694.401	18270
694.444	17821
694.446	17748
694.487	18044
694.530	18600
694.566	18872
694.573	18894
694.616	18520
694.659	18737
694.686	18572
694.702	18695
694.745	19278
694.787	19108
694.806	19304
694.830	19240
694.873	18816
694.916	18200
694.926	18081
694.959	19027
695.002	20127
695.044	21024
695.046	21028
695.087	21099
695.130	20754
695.166	20526
695.172	20653
695.215	21129
695.258	21628
695.286	21942
695.301	22118
695.343	22473
695.386	22803
695.406	22909
695.428	24097
695.471	26132
695.514	28568
695.526	29148
695.556	30437
695.599	32174
695.641	33580
695.646	33687
695.684	32235
695.726	30680
695.766	28932
695.769	28962
695.811	28268
695.854	28038
695.886	27581
695.896	27796
695.938	28288
695.981	29018
696.005	29394
696.023	30205
696.065	31858
696.108	33523
696.125	34151
696.150	34510
696.192	35063
696.235	35424
696.245	35483
696.277	35540
696.319	35332
696.361	35201
696.365	35096
696.404	34880
696.446	34719
696.485	34529
696.488	34598
696.530	34229
696.572	33930
696.604	33668
696.614	33755
696.656	33673
696.698	33708
696.724	33613
696.740	33912
696.783	34530
696.825	35097
696.844	35288
696.867	35366
696.909	35298
696.951	35227
696.964	35148
696.992	35553
697.034	35997
697.076	36259
697.083	36255
697.118	37615
697.160	39057
697.202	40458
697.203	40398
697.244	39798
697.286	39064
697.323	38314
697.327	38426
697.369	38629
697.411	38771
697.442	38796
697.453	38872
697.494	38789
697.536	38634
697.562	38482
697.578	38662
697.620	38868
697.661	39126
697.682	39139
697.703	39897
697.744	41260
697.786	42573
697.801	42924
697.828	42662
697.869	42058
697.911	41523
697.921	41304
697.952	41320
697.994	41110
698.035	40919
698.040	40796
698.077	41377
698.118	41881
698.160	42388
698.160	42283
698.201	43210
698.243	44025
698.279	44697
698.284	44951
698.325	46208
698.367	47514
698.399	48369
698.408	48546
698.449	48821
698.491	49117
698.518	49169
698.532	49366
698.573	49598
698.614	49867
698.638	49875
698.656	49812
698.697	49374
698.738	48924
698.757	48596
698.779	48813
698.820	48979
698.862	49149
698.877	49087
698.903	49167
698.944	49098
698.985	49025
698.996	48881
699.026	49001
699.067	48997
699.116	48868
699.235	49383
699.354	47912
699.474	44676
699.593	45259
699.713	43948
699.832	46222
699.951	48158
700.070	47137
700.190	42827
700.309	42617
700.428	40680
700.547	41874
700.667	40157
700.786	40510
700.905	36836
701.024	41159
701.143	37490
701.262	41965
701.381	41464
701.500	43279
701.619	39785
701.738	41935
701.857	39640
701.976	37338
702.095	39896
702.214	41975
702.333	38560
702.452	41299
702.571	41545
702.690	40510
702.809	39555
702.928	39196
703.047	35721
703.165	37570
703.284	36466
703.403	36511
703.522	35312
703.640	34989
703.759	34114
703.878	33602
703.997	35835
704.115	36494
704.234	35752
704.353	37840
704.471	33275
704.590	33158
704.708	32217
704.827	32352
704.946	31286
705.064	32952
705.183	30982
705.301	33349
705.420	30830
705.538	29736
705.656	28339
705.775	28824
705.893	29644
706.012	29559
706.130	27952
706.249	30730
706.367	28301
706.485	30745
706.604	29226
706.722	34807
706.840	57076
706.958	133144
707.077	66377
707.195	31113
707.313	27279
707.431	25656
707.549	26072
707.668	23946
707.786	27674
707.904	25672
708.022	27246
708.140	26849
708.258	25494
708.376	28329
708.494	24084
708.612	28423
708.730	29568
708.848	28279
708.966	27166
709.084	27274
709.202	26184
709.320	23139
709.438	23853
709.556	24255
709.674	21854
709.791	23004
709.909	22073
710.027	21770
710.145	20263
710.263	21240
710.380	21428
710.498	20479
710.616	20602
710.733	20136
710.851	19816
710.969	19980
711.086	18799
711.204	21636
711.322	20273
711.439	20656
711.557	17905
711.674	20715
711.792	20303
711.909	18576
712.027	18245
712.144	19592
712.262	19505
712.379	21002
712.497	19064
712.614	19519
712.732	19529
712.849	18004
712.966	19858
713.084	21999
713.201	19206
713.318	22077
713.436	23085
713.553	24487
713.670	28415
713.787	26553
713.905	24525
714.022	27782
714.139	32781
714.256	45465
714.373	75987
714.490	155644
714.608	447976
714.725	1527148
714.842	1203013
714.959	168174
715.076	66170
715.193	44675
715.310	34905
715.427	25705
715.544	25667
715.661	25371
715.778	20274
715.895	22322
716.011	21728
716.128	20878
716.245	19408
716.362	18909
716.479	16178
716.596	18778
716.713	20610
716.829	18319
716.946	14331
717.063	16452
717.180	14803
717.296	15806
717.413	14983
717.530	14925
717.646	12590
717.763	14903
717.880	13889
717.996	13960
718.113	13848
718.229	13859
718.346	12715
718.462	14148
718.579	13021
718.695	14249
718.812	13156
718.928	14240
719.045	13122
719.161	15125
719.277	15489
719.394	17750
719.510	16909
719.626	22239
719.743	32608
719.859	62286
719.975	150171
720.092	612363
720.208	1048074
720.324	131159
720.440	36952
720.557	24767
720.673	19755
720.789	16417
720.905	14125
721.021	14731
721.137	12778
721.253	13209
721.369	12276
721.486	13458
721.602	11417
721.718	12132
721.834	12255
721.950	11905
722.066	10846
722.181	11209
722.297	10474
722.413	11758
722.529	11250
722.645	12508
722.761	11682
722.877	14213
722.993	18087
723.108	30094
723.224	22886
723.340	15576
723.456	11148
723.571	11751
723.687	10655
723.803	11589
723.918	10705
724.034	11023
724.150	9692
724.265	10205
724.381	9649
724.497	9771
724.612	9978
724.728	9795
724.843	8915
724.959	9459
725.074	9647
725.190	10667
725.305	8824
725.421	10472
725.536	10083
725.651	10945
725.767	9449
725.882	10518
725.997	10094
726.113	10078
726.228	9659
726.343	10738
726.459	8832
726.574	10429
726.689	9837
726.804	9687
726.920	8654
727.035	9566
727.150	9137
727.265	10169
727.380	10108
727.495	9680
727.610	8908
727.725	9355
727.841	9801
727.956	10172
728.071	9638
728.186	9924
728.301	8107
728.416	10500
728.531	8759
728.645	8996
728.760	8851
728.875	10447
728.990	9376
729.105	9525
729.220	9239
729.335	10372
729.449	9673
729.564	10042
729.679	8816
729.794	10784
729.908	10248
730.023	10504
730.138	9097
730.253	10832
730.367	9891
730.482	11361
730.596	11345
730.711	17442
730.826	33091
730.940	43909
731.055	15461
731.169	16174
731.284	16177
731.398	18083
731.513	19618
731.627	23011
731.742	30054
731.856	38041
731.970	43442
732.085	63892
732.199	104204
732.313	202680
732.428	521714
732.542	1182177
732.656	589285
732.771	141187
732.885	71295
732.999	54733
733.113	48193
733.227	43034
733.342	38728
733.456	36271
733.570	34041
733.684	31242
733.798	29024
733.912	30843
734.026	29216
734.140	29935
734.254	26865
734.368	28050
734.482	26423
734.596	27587
734.710	25699
734.824	26163
734.938	25526
735.052	27586
735.166	25329
735.280	24948
735.393	25038
735.507	24847
735.621	22698
735.735	22628
735.849	24603
735.962	22581
736.076	24279
736.190	23017
736.303	22821
736.417	22959
736.531	21060
736.644	22012
736.758	21122
736.872	21317
736.985	21800
737.099	20645
737.212	20187
737.326	19459
737.439	22481
737.553	20714
737.666	20018
737.780	19133
737.893	20918
738.007	20207
738.120	20504
738.233	18457
738.347	19866
738.460	18078
738.573	21021
738.687	18337
738.800	18608
738.913	21365
739.026	19043
739.140	17626
739.253	18661
739.366	18930
739.479	18736
739.592	19894
739.705	16922
739.818	21384
739.932	16266
740.045	18974
740.158	17581
740.271	18595
740.384	16940
740.497	15744
740.610	17865
740.723	16786
740.836	16809
740.949	18091
741.062	18452
741.174	17232
741.287	17144
741.400	17183
741.513	14110
741.626	18845
741.739	15312
741.851	16610
741.964	15926
742.077	15254
742.189	15646
742.302	19001
742.415	15554
742.527	15391
742.640	14975
742.753	13998
742.865	15202
742.978	16084
743.090	14056
743.203	16933
743.316	14381
743.428	15187
743.541	14228
743.653	13610
743.766	14213
743.878	15572
743.990	13374
744.103	19040
744.215	18249
744.327	13817
744.440	16635
744.552	13801
744.664	12616
744.777	15958
744.889	11982
745.001	13368
745.113	13694
745.226	12909
745.338	11839
745.450	15800
745.562	12686
745.674	12940
745.786	15581
745.898	13906
746.010	11763
746.122	13398
746.234	13912
746.347	13789
746.459	13958
746.570	13122
746.682	18213
746.794	22308
746.906	12439
747.018	12931
747.130	12885
747.242	11336
747.354	11977
747.466	13671
747.577	11272
747.689	12662
747.801	13165
747.913	11429
748.024	10359
748.136	12262
748.248	10405
748.359	12237
748.471	11519
748.583	9548
748.694	9674
748.806	11559
748.918	9516
749.029	10799
749.141	11324
749.252	11923
749.364	9857
749.475	9517
749.587	9019
749.698	9846
749.809	10250
749.921	11061
750.032	8562
750.144	9798
750.255	8934
750.366	9706
750.478	8375
750.589	10730
750.700	8602
750.811	10379
750.923	8517
751.034	9434
751.145	11105
751.256	9849
751.367	7628
751.479	9806
751.590	7673
751.701	8856
751.812	7510
751.923	9384
752.034	11172
752.145	10080
752.256	9635
752.367	8643
752.478	9632
752.589	10197
752.700	9357
752.811	8857
752.922	9201
753.032	10639
753.143	10288
753.254	10087
753.365	12707
753.476	11593
753.586	8774
753.697	9059
753.808	8788
753.919	9322
754.029	8816
754.140	8795
754.251	8022
754.361	8712
754.472	8794
754.582	8547
754.693	8645
754.804	10708
754.914	7898
755.025	7781
755.135	8034
755.246	9896
755.356	7220
755.466	8471
755.577	6641
755.687	8375
755.798	7468
755.908	8110
756.018	7845
756.129	8973
756.239	8111
756.349	9693
756.460	11349
756.570	13972
756.680	8636
756.790	8961
756.900	7865
757.011	7246
757.121	6915
757.231	8241
757.341	7933
757.451	7153
757.561	8184
757.671	8337
757.781	8059
757.891	8288
758.001	6869
758.111	8940
758.221	10497
758.331	11382
758.441	11168
758.551	11658
758.661	11987
758.771	13427
758.880	10470
758.990	11108
759.100	10281
759.210	10223
759.320	11073
759.429	12885
759.539	14310
759.649	16327
759.758	20089
759.868	22325
759.978	19915
760.087	22469
760.197	22956
760.307	22603
760.416	19376
760.526	17662
760.635	17917
760.745	20786
760.854	22742
760.964	28936
761.073	26205
761.182	25048
761.292	19634
761.401	17056
761.511	12972
761.620	11450
761.729	9979
761.839	9179
761.948	9151
762.057	10593
762.166	10720
762.276	8670
762.385	9480
762.494	9039
762.603	8687
762.712	8675
762.822	8089
762.931	7609
763.040	6112
763.149	6183
763.258	6500
763.367	5962
763.476	6771
763.585	6689
763.694	6026
763.803	6070
763.912	6432
764.021	7009
764.130	5509
764.238	8342
764.347	7557
764.456	9487
764.565	7209
764.674	6104
764.783	5515
764.891	6234
765.000	6505
765.109	6492
765.217	5134
765.326	6843
765.435	4777
765.543	6295
765.652	3967
765.761	5535
765.869	5582
765.978	6526
766.086	6418
766.195	6942
766.303	10331
766.412	32066
766.520	23059
766.629	7131
766.737	5836
766.846	5497
766.954	4485
767.062	6418
767.171	6164
767.279	8940
767.387	5397
767.496	5518
767.604	4380
767.712	5909
767.820	4669
767.928	5652
768.037	4156
768.145	6301
768.253	4191
768.361	3912
768.469	4429
768.577	6089
768.685	5763
768.793	6531
768.901	4405
769.009	5979
769.117	5166
769.225	5685
769.333	6030
769.441	7361
769.549	6129
769.657	7368
769.765	11587
769.873	24125
769.981	8358
770.088	6703
770.196	6105
770.304	6629
770.412	6861
770.519	7869
770.627	7681
770.735	8085
770.842	6846
770.950	7427
771.058	8149
771.165	10305
771.273	11414
771.380	11925
771.488	17121
771.595	20139
771.703	15683
771.810	15178
771.918	15514
772.025	20205
772.133	22316
772.240	19771
772.348	22538
772.455	21907
772.562	20972
772.670	19316
772.777	20480
772.884	19815
772.991	17560
773.099	20417
773.206	17243
773.313	19105
773.420	19100
773.528	18390
773.635	17053
773.742	20565
773.849	17612
773.956	19388
774.063	16834
774.170	17870
774.277	18349
774.384	16565
774.491	16598
774.598	17754
774.705	16669
774.812	17102
774.919	16185
775.026	17521
775.133	16985
775.239	17300
775.346	14710
775.453	16408
775.560	14948
775.667	17382
775.773	14401
775.880	17222
775.987	15742
776.093	17446
776.200	16788
776.307	13334
776.413	13503
776.520	18759
776.627	14095
776.733	14082
776.840	13022
776.946	22378
777.053	23672
777.159	30597
777.266	20083
777.372	27371
777.478	23217
777.585	16886
777.691	11699
777.798	16948
777.904	12612
778.010	13131
778.117	13713
778.223	13125
778.329	13444
778.435	11216
778.542	14258
778.648	13221
778.754	11223
778.860	14294
778.966	12131
779.072	12494
779.178	12209
779.284	10690
779.391	11490
779.497	12470
779.603	12527
779.708	10348
779.815	10706
779.920	13306
780.026	9998
780.132	11930
780.238	10614
780.344	10595
780.450	14037
780.556	8972
780.661	10135
780.767	13490
780.873	8243
780.979	10796
781.085	11071
781.190	10243
781.296	10144
781.402	11618
781.507	10495
781.613	8264
781.719	10720
781.824	12630
781.930	9705
782.035	11515
782.141	12114
782.246	8592
782.352	9670
782.457	9933
782.563	9764
782.668	11152
782.773	7947
782.879	9011
782.984	9420
783.090	10088
783.195	10281
783.300	11594
783.405	7847
783.511	7357
783.616	8780
783.721	10594
783.826	8684
783.932	8941
784.037	8866
784.142	10182
784.247	8193
784.352	9958
784.457	5712
784.562	9684
784.667	9701
784.772	7590
784.877	5610
784.982	10477
785.087	8848
785.192	7196
785.297	6890
785.402	9770
785.507	9012
785.611	8077
785.716	6571
785.821	8573
785.926	8304
786.031	8816
786.135	7319
786.240	8534
786.345	6402
786.450	7339
786.554	7568
786.659	7223
786.763	6788
786.868	8222
786.973	8121
787.077	7603
787.182	6396
787.286	9501
787.391	8922
787.495	5445
787.600	4905
787.704	6823
787.809	7224
787.913	7256
788.017	6997
788.122	9318
788.226	6159
788.330	4490
788.435	6984
788.539	8037
788.643	6086
788.747	4865
788.852	6712
788.956	6960
789.060	7077
789.164	7699
789.268	5748
789.372	8252
789.476	5546
789.580	5459
789.684	6125
789.788	7956
789.892	6034
789.996	5168
790.100	4669
790.204	6652
790.308	7474
790.412	5369
790.516	4415
790.620	6186
790.724	7558
790.828	5777
790.931	4290
791.035	7494
791.139	4971
791.242	6883
791.346	5818
791.450	6762
791.554	4494
791.657	4426
791.761	5647
791.864	7160
791.968	6989
792.072	5953
792.175	4811
792.279	5790
792.382	5237
792.486	5341
792.589	4450
792.693	6645
792.796	3641
792.899	6013
793.003	6371
793.106	4521
793.209	5000
793.313	4697
793.416	2442
793.519	6046
793.623	6978
793.726	5794
793.829	4697
793.932	3749
794.035	3371
794.138	7243
794.242	6157
794.345	4583
794.448	4139
794.551	3804
794.654	7194
794.757	6077
794.860	3674
794.963	5945
795.066	4042
795.169	7112
795.272	4074
795.375	6617
795.477	3679
795.580	4881
795.683	3629
795.786	5639
795.889	3909
795.991	5727
796.094	5411
796.197	5120
796.300	6737
796.402	5871
796.505	4090
796.608	3821
796.710	5348
796.813	6584
796.915	6319
797.018	7535
797.120	6248
797.223	5282
797.326	6745
797.428	4307
797.530	4265
797.633	5794
797.735	7187
797.838	6646
797.940	6086
798.042	5459
798.145	4216
798.247	5087
798.349	2812
798.452	6456
798.554	6138
798.656	7959
798.758	8806
798.860	6767
798.962	4487
799.065	4853
799.167	4048
799.269	6638
799.371	8178
799.473	11338
799.575	7522
799.677	5778
799.779	5515
799.881	4060
799.983	5770
800.085	4494
800.187	5098
800.289	3609
800.390	3406
800.492	6348
800.594	4417
800.696	3211
800.798	3767
800.899	4372
801.001	3694
801.103	5184
801.205	5112
801.306	6616
801.408	4239
801.509	5018
801.611	4499
801.713	4359
801.814	2810
801.916	3313
802.017	3563
802.119	2713
802.220	3282
802.322	2682
802.423	5018
802.525	2750
802.626	2760
802.727	5203
802.829	4814
802.930	1902
803.031	4969
803.133	3656
803.234	3321
803.335	4914
803.436	2196
803.538	4715
803.639	2693
803.740	5083
803.841	2699
803.942	4749
804.043	4290
804.144	3463
804.245	3704
804.346	4028
804.447	2411
804.548	4022
804.649	5205
804.750	3649
804.851	3512
804.952	3774
805.053	3300
805.154	1873
805.255	4290
805.355	3903
805.456	1603
805.557	3658
805.658	2412
805.758	4829
805.859	2941
805.960	2612
806.061	2664
806.161	2683
806.262	2205
806.362	2059
806.463	2025
806.564	4141
806.664	2720
806.765	3045
806.865	2451
806.966	2883
807.066	2828
807.166	3610
807.267	3173
807.367	3112
807.468	2912
807.568	1094
807.668	2978
807.769	4323
807.869	2325
807.969	3837
808.069	2701
808.170	2887
808.270	2543
808.370	3815
808.470	2583
808.570	2636
808.670	2376
808.770	3279
808.870	2719
808.970	3473
809.070	1470
809.170	2640
809.271	2995
809.370	3364
809.470	2220
809.570	2271
809.670	1734
809.770	2574
809.870	3540
809.970	3172
810.070	2661
810.169	3460
810.269	1242
810.369	3649
810.469	2356
810.568	3659
810.668	2310
810.768	3250
810.867	2445
810.967	1361
811.066	1335
811.166	2432
811.265	3193
811.365	2438
811.464	1530
811.564	2953
811.663	2990
811.763	2355
811.862	3254
811.962	3635
812.061	1473
812.160	2855
812.260	2025
812.359	2549
812.458	2020
812.557	3653
812.657	1904
812.756	3442
812.855	2945
812.954	2141
813.053	2716
813.153	3210
813.252	1947
813.351	3658
813.450	2676
813.549	3286
813.648	2776
813.747	2533
813.846	2770
813.945	2640
814.044	3405
814.143	3156
814.242	2806
814.341	3316
814.439	3630
814.538	3899
814.637	3423
814.736	4667
814.835	4163
814.933	4563
815.032	5448
815.131	7636
815.229	15238
815.328	20660
815.427	14402
815.525	12941
815.624	11830
815.722	13002
815.821	12748
815.919	13798
816.018	11404
816.116	13415
816.215	13944
816.313	14661
816.412	16988
816.510	16888
816.609	19424
816.707	21548
816.805	17511
816.904	18778
817.002	18562
817.100	20109
817.198	21025
817.296	18916
817.395	19235
817.493	18017
817.591	15628
817.689	16708
817.787	16350
817.885	15677
817.983	13557
818.081	15909
818.179	15768
818.277	20870
818.375	18078
818.473	16914
818.571	12967
818.669	16891
818.767	17855
818.865	13833
818.963	10971
819.061	14969
819.158	13466
819.256	18465
819.354	14839
819.452	21027
819.549	16928
819.647	16441
819.745	11468
819.842	13088
819.940	13699
820.038	12596
820.135	11561
820.233	15198
820.330	13347
820.428	11896
820.525	13689
820.623	11387
820.720	10463
820.818	12842
820.915	13359
821.012	12659
821.110	11258
821.207	13169
821.304	12189
821.402	13583
821.499	15502
821.596	14092
821.693	11707
821.791	12441
821.888	10647
821.985	13191
822.082	9976
822.179	13697
822.276	12065
822.373	10296
822.470	9755
822.567	12034
822.664	9515
822.761	11473
822.858	11015
822.955	10280
823.052	8556
823.149	11357
823.246	10840
823.343	8585
823.440	9074
823.536	11858
823.633	10395
823.730	8732
823.827	10634
823.923	10432
824.020	9655
824.117	13417
824.213	11497
824.310	9055
824.407	7120
824.503	10817
824.600	8372
824.696	9216
824.793	10891
824.889	11517
824.986	8289
825.082	6990
825.179	7007
825.275	12325
825.371	11224
825.468	7892
825.564	6271
825.660	11289
825.757	11968
825.853	9275
825.949	6442
826.045	8418
826.142	8197
826.238	10080
826.334	9589
826.430	8347
826.526	4943
826.622	6461
826.718	9141
826.814	10719
826.910	8550
827.006	5300
827.102	5293
827.198	9860
827.294	9640
827.390	10103
827.486	6438
827.582	5802
827.678	6356
827.774	11782
827.869	6060
827.965	7011
828.061	5843
828.157	10997
828.252	8836
828.348	7743
828.444	6399
828.539	7675
828.635	8039
828.731	9139
828.826	7480
828.922	9359
829.017	10197
829.113	10658
829.208	7376
829.304	9419
829.399	11786
829.495	8589
829.590	8462
829.685	8023
829.781	9125
829.876	9293
829.971	3438
830.066	6010
830.162	7983
830.257	11932
830.352	7501
830.447	6441
830.543	6742
830.638	8828
830.733	9708
830.828	7897
830.923	8805
831.018	9305
831.113	9212
831.208	5957
831.303	4613
831.398	5463
831.493	7790
831.588	11652
831.683	5871
831.778	5822
831.873	6124
831.967	9882
832.062	8375
832.157	7308
832.252	6448
832.346	7339
832.441	8721
832.536	7667
832.631	6410
832.725	5884
832.820	5875
832.914	6436
833.009	4753
833.104	4108
833.198	5307
833.293	6453
833.387	7166
833.482	8002
833.576	7611
833.670	8562
833.765	7918
833.859	10211
833.954	7832
834.048	6582
834.142	5289
834.237	5347
834.331	5296
834.425	7773
834.519	4403
834.613	5712
834.708	3681
834.802	5674
834.896	5218
834.990	6121
835.084	4321
835.178	6054
835.272	5331
835.366	8321
835.460	7710
835.554	6208
835.648	4516
835.742	3155
835.836	3468
835.930	4681
836.024	5364
836.117	5745
836.211	4948
836.305	4370
836.399	3548
836.493	4885
836.586	5126
836.680	5187
836.774	4002
836.867	5108
836.961	4002
837.055	4263
837.148	3443
837.242	5343
837.335	4740
837.429	4905
837.522	3272
837.616	4124
837.709	3751
837.803	3502
837.896	6252
837.989	5964
838.083	3091
838.176	2936
838.269	1893
838.363	4551
838.456	3491
838.549	5512
838.642	3258
838.735	4258
838.829	4993
838.922	4083
839.015	3611
839.108	3136
839.201	3255
839.294	5348
839.387	2665
839.480	3479
839.573	3273
839.666	3021
839.759	4176
839.852	3619
839.945	4322
840.038	4150
840.131	2317
840.223	2853
840.316	4193
840.409	5745
840.502	4345
840.594	6080
840.687	1873
840.780	3020
840.873	1417
840.965	2848
841.058	4191
841.150	5564
841.243	1540
841.336	3978
841.428	2829
841.521	3259
841.613	3033
841.706	4355
841.798	3005
841.890	3949
841.983	2277
842.075	3563
842.167	2230
842.260	3892
842.352	4965
842.444	4549
842.537	1742
842.629	2682
842.721	2198
842.813	4392
842.905	2787
842.997	4546
843.090	3687
843.182	2418
843.274	1694
843.366	2376
843.458	2829
843.550	5206
843.642	3037
843.734	4337
843.826	1974
843.918	2681
844.009	2976
844.101	3267
844.193	3107
844.285	4492
844.377	5070
844.469	5296
844.560	4012
844.652	4212
844.744	3227
844.835	3659
844.927	3799
845.019	4153
845.110	3305
845.202	4610
845.293	2366
845.385	2592
845.476	2597
845.568	4065
845.659	2229
845.751	3333
845.842	2042
845.934	3759
846.025	2783
846.116	3766
846.208	2522
846.299	3037
846.390	2197
846.482	3472
846.573	3514
846.664	3099
846.755	2691
846.846	3064
846.937	1051
847.029	2891
847.120	2252
847.211	2762
847.302	3721
847.393	3424
847.484	3473
847.575	1356
847.666	2135
847.757	2535
847.847	3287
847.938	4529
848.029	3320
848.120	2541
848.211	2137
848.302	2471
848.392	2143
848.483	5347
848.574	2803
848.664	3581
848.755	3129
848.846	3371
848.936	2968
849.027	4591
849.118	4882
849.208	6144
849.299	9698
849.389	18085
849.480	32573
849.570	64148
849.661	123155
849.751	173333
849.841	63169
849.932	15283
850.022	7211
850.112	7625
850.203	6156
850.293	4152
850.383	3856
850.474	4017
850.564	2606
850.654	3537
850.744	3036
850.834	3639
850.924	3633
851.014	4737
851.104	3591
851.194	3127
851.284	2775
851.374	3306
851.464	2593
851.554	4365
851.644	3502
851.734	3849
851.824	3231
851.914	3787
852.004	4028
852.094	3679
852.183	2973
852.273	4136
852.363	2681
852.452	4658
852.542	3356
852.632	4410
852.721	4173
852.811	5090
852.901	5664
852.990	7100
853.080	6348
853.169	7983
853.259	7548
853.348	11442
853.438	12808
853.527	17581
853.617	23866
853.706	41225
853.795	70566
853.885	127934
853.974	212243
854.063	343471
854.152	389294
854.242	198911
854.331	78204
854.420	39548
854.509	25566
854.598	19768
854.687	14497
854.777	11779
854.866	9250
854.955	8916
855.044	6248
855.133	6452
855.222	5540
855.311	5071
855.400	4393
855.488	4746
855.577	3552
855.666	4030
855.755	3717
855.844	3647
855.933	3512
856.021	4068
856.110	2732
856.199	3241
856.288	1513
856.376	3229
856.465	2231
856.554	3581
856.642	3899
856.731	3964
856.819	2944
856.908	2610
856.996	2831
857.085	2669
857.173	1666
857.262	3208
857.350	2327
857.438	2583
857.527	1813
857.615	3132
857.703	3091
857.792	2702
857.880	2064
857.968	2548
858.056	2483
858.145	3310
858.233	2617
858.321	2638
858.409	2320
858.497	2751
858.585	1484
858.673	2722
858.761	1949
858.849	2440
858.937	1267
859.025	2588
859.113	2724
859.201	2616
859.289	4342
859.377	2868
859.465	2447
859.552	1932
859.640	2360
859.728	2714
859.816	1752
859.903	2524
859.991	1823
860.079	2969
860.166	2079
860.254	3464
860.342	2794
860.429	3355
860.517	2232
860.604	2681
860.692	1674
860.779	1851
860.867	2739
860.954	2958
861.042	2864
861.129	3874
861.216	2660
861.304	3947
861.391	2779
861.478	3255
861.565	1608
861.653	2900
861.740	1274
861.827	3057
861.914	1573
862.001	2618
862.089	2477
862.176	4188
862.263	1745
862.350	3827
862.437	2254
862.524	2954
862.611	1989
862.698	3990
862.785	3972
862.871	5629
862.958	3735
863.045	3886
863.132	3858
863.219	3080
863.306	2257
863.392	3838
863.479	2267
863.566	3560
863.652	3119
863.739	2932
863.826	3385
863.912	4485
863.999	3068
864.086	3890
864.172	4063
864.259	5147
864.345	4660
864.432	5156
864.518	4372
864.604	5365
864.691	4450
864.777	6927
864.863	7513
864.950	11099
865.036	15143
865.122	24304
865.209	24041
865.295	22387
865.381	22969
865.467	25280
865.553	26539
865.639	35186
865.726	49185
865.812	82171
865.898	129616
865.984	189058
866.070	289262
866.156	259636
866.242	111784
866.328	50828
866.414	32195
866.499	26534
866.585	23112
866.671	21292
866.757	18940
866.843	18948
866.928	16892
867.014	18122
867.100	16106
867.186	16243
867.271	14991
867.357	16988
867.442	15206
867.528	16300
867.614	14761
867.699	16783
867.785	15850
867.870	17290
867.956	17165
868.041	15071
868.127	15364
868.212	16043
868.297	14731
868.383	15189
868.468	14548
868.553	15742
868.639	13090
868.724	14337
868.809	13740
868.894	13225
868.979	12646
869.065	12652
869.150	11079
869.235	13781
869.320	12849
869.405	12154
869.490	14217
869.575	11960
869.660	10322
869.745	14966
869.830	14098
869.915	12496
870.000	11438
870.085	12309
870.169	15192
870.254	14442
870.339	8881
870.424	11552
870.509	11335
870.593	14908
870.678	12926
870.763	11664
870.847	9939
870.932	13315
871.016	11754
871.101	9624
871.186	12499
871.270	14198
871.355	8248
871.439	10838
871.523	12182
871.608	9790
871.692	9664
871.777	13649
871.861	10658
871.945	11032
872.030	11478
872.114	10393
872.198	8600
872.282	10625
872.367	9825
872.451	9542
872.535	9398
872.619	10750
872.703	10651
872.787	12180
872.871	9838
872.955	8330
873.039	6780
873.123	11153
873.207	10142
873.291	6786
873.375	8778
873.459	11317
873.543	9478
873.627	9608
873.711	7654
873.794	11715
873.878	9267
873.962	8272
874.045	8710
874.129	9596
874.137	9564
874.213	9248
874.245	9119
874.296	8913
874.352	7993
874.380	7549
874.460	9286
874.464	9357
874.547	6940
874.568	7878
874.631	10658
874.676	9697
874.714	8860
874.784	9736
874.798	9926
874.881	7408
874.892	7342
874.965	6935
874.999	7947
875.048	9246
875.107	9062
875.131	8996
875.215	6155
875.215	6155
875.298	6488
875.323	7285
875.381	9187
875.430	10482
875.465	11287
875.538	9071
875.548	8760
875.631	6949
875.646	6689
875.714	5740
875.753	6876
875.798	8147
875.861	9445
875.881	9801
875.964	8072
875.968	7972
876.047	6385
876.076	7048
876.130	8307
876.183	8646
876.213	8831
876.291	9290
876.296	9303
876.379	7161
876.398	7208
876.462	7315
876.506	6045
876.545	5102
876.613	6914
876.628	7328
876.711	7839
876.721	8051
876.794	9602
876.828	8985
876.877	7663
876.935	7193
876.960	7229
877.043	6845
877.043	6852
877.125	8692
877.150	9011
877.208	9405
877.258	7927
877.291	6944
877.365	5972
877.374	5868
877.456	6612
877.472	6506
877.539	6520
877.579	8076
877.622	9535
877.687	8094
877.704	7711
877.787	7924
877.794	7957
877.869	8295
877.901	8298
877.952	7719
878.008	5641
878.034	5011
878.115	6403
878.117	6433
878.199	6591
878.222	6963
878.282	8249
878.329	9023
878.364	9234
878.437	8598
878.447	8427
878.529	5445
878.544	5423
878.611	6269
878.651	6546
878.694	7107
878.758	8148
878.776	8295
878.858	8058
878.865	8064
878.941	7115
878.972	6416
879.023	6163
879.078	6847
879.105	7348
879.185	8608
879.187	8618
879.269	8855
879.292	8594
879.351	7996
879.399	7602
879.433	7167
879.506	6543
879.516	6568
879.598	7399
879.613	7180
879.680	5926
879.720	6982
879.762	8092
879.827	6605
879.844	6224
879.926	6902
879.933	6886
880.007	6522
880.040	6371
880.089	6487
880.147	7053
880.171	7438
880.253	9424
880.254	9417
880.335	7341
880.360	7852
880.417	10400
880.467	10425
880.499	9808
880.574	10063
880.580	10152
880.662	9445
880.680	9295
880.744	7274
880.787	6246
880.825	6489
880.893	7796
880.907	7837
880.989	6740
881.000	6801
881.070	8488
881.106	8615
881.152	7736
881.213	6543
881.233	6430
881.315	6945
881.319	6957
881.396	7412
881.426	7317
881.478	7375
881.532	8948
881.559	9530
881.639	8348
881.641	8309
881.722	7614
881.745	7317
881.803	7686
881.852	8023
881.885	7781
881.958	6736
881.966	6696
882.047	7851
882.064	7640
882.129	5891
882.171	5262
882.210	4991
882.277	4621
882.291	4967
882.372	8322
882.383	8586
882.454	9266
882.489	9378
882.535	9190
882.596	9239
882.616	9206
882.697	8849
882.702	8758
882.778	6295
882.808	5838
882.859	6027
882.914	5934
882.940	6158
883.020	7268
883.021	7283
883.102	7624
883.127	8046
883.183	10081
883.233	10549
883.264	8904
883.339	5654
883.345	5584
883.426	4471
883.445	4438
883.507	5624
883.551	6146
883.587	6924
883.657	9440
883.668	9705
883.749	9472
883.763	9501
883.830	7182
883.869	5868
883.910	5596
883.975	5914
883.991	6229
884.072	6968
884.081	7073
884.152	9207
884.187	10207
884.233	10810
884.292	10914
884.314	9777
884.394	5002
884.398	4823
884.475	4527
884.504	4273
884.555	4841
884.610	5397
884.636	5860
884.716	7632
884.716	7663
884.797	10721
884.821	11302
884.877	9817
884.927	8660
884.958	7901
885.033	5781
885.038	5716
885.118	4840
885.139	4623
885.199	5138
885.244	5666
885.279	6635
885.350	8495
885.359	8849
885.439	12214
885.456	12528
885.520	9146
885.561	7680
885.600	7276
885.667	6399
885.680	6708
885.760	8387
885.773	8582
885.840	6436
885.878	5504
885.920	6255
885.984	7115
886.000	7158
886.080	7714
886.089	7708
886.160	8492
886.195	8895
886.240	8497
886.300	7878
886.320	8043
886.400	8942
886.406	8933
886.480	6565
886.511	5913
886.560	6313
886.616	6583
886.640	6545
886.720	6188
886.722	6166
886.800	6567
886.827	6875
886.879	7600
886.932	8158
886.959	8840
887.038	10701
887.039	10707
887.119	9301
887.143	8905
887.198	8071
887.248	7175
887.278	7337
887.354	7912
887.358	7947
887.437	8018
887.459	8173
887.517	8467
887.564	8329
887.596	7577
887.669	5956
887.676	5842
887.755	4415
887.774	4086
887.835	5141
887.880	5950
887.914	6907
887.985	8563
887.994	8744
888.073	10475
888.090	10758
888.153	12244
888.195	13169
888.232	10870
888.300	6762
888.311	6726
888.391	6211
888.405	6143
888.470	6235
888.510	6160
888.549	6334
888.615	6883
888.628	7337
888.708	9751
888.720	10116
888.787	9528
888.825	9090
888.866	7542
888.930	5270
888.945	5696
889.024	7844
889.035	8116
889.103	8934
889.140	9318
889.182	8261
889.245	6752
889.261	7107
889.340	8661
889.349	8828
889.419	7278
889.454	6471
889.498	6070
889.559	5527
889.577	6054
889.656	8307
889.664	8518
889.735	8372
889.768	8268
889.814	8275
889.873	8235
889.978	7160
890.083	6447
890.187	8223
890.292	9174
890.397	7880
890.501	7173
890.606	5538
890.710	7675
890.815	11432
890.919	7813
891.024	8823
891.128	7016
891.233	6506
891.337	9251
891.442	9005
891.546	8085
891.650	6217
891.755	5211
891.859	8610
891.963	10999
892.068	8686
892.172	6507
892.276	4158
892.380	6875
892.484	9785
892.589	11090
892.693	8774
892.797	5792
892.901	5175
893.005	6465
893.109	11586
893.213	10263
893.317	7755
893.421	4606
893.525	4450
893.629	6536
893.733	10154
893.837	7875
893.941	6901
894.045	4396
894.148	4130
894.252	4728
894.356	10076
894.460	10567
894.564	6988
894.667	7507
894.771	4373
894.875	4820
894.978	6884
895.082	7863
895.186	8830
895.289	6047
895.393	5721
895.496	8532
895.600	5837
895.703	4772
895.807	6826
895.910	6969
896.014	7049
896.117	5065
896.221	7464
896.324	6874
896.427	5066
896.531	4403
896.634	6697
896.737	5311
896.840	6745
896.944	7923
897.047	8311
897.150	6584
897.253	4906
897.356	3952
897.460	3991
897.563	5619
897.666	9405
897.769	8142
897.872	4771
897.975	5407
898.078	6489
898.181	4574
898.284	5822
898.387	8763
898.490	8284
898.593	5273
898.695	3756
898.798	5311
898.901	4916
899.004	5905
899.107	5765
899.209	6024
899.312	10057
899.415	5641
899.518	4552
899.620	4253
899.723	4610
899.826	5901
899.928	4782
900.031	6343
900.133	8509
900.236	5112
900.338	4382
900.441	4393
900.543	5896
900.646	5742
900.748	5439
900.851	7441
900.953	4520
901.055	3329
901.158	5442
901.260	4641
901.362	3617
901.465	3798
901.567	7049
901.669	7268
901.771	5337
901.873	6242
901.976	5150
902.078	6189
902.180	4110
902.282	3743
902.384	6257
902.486	8608
902.588	7318
902.690	4092
902.792	4459
902.894	5982
902.996	7543
903.098	6469
903.200	3953
903.302	3658
903.404	4020
903.505	3657
903.607	5543
903.709	9716
903.811	7987
903.913	5571
904.014	3396
904.116	2995
904.218	4125
904.319	5666
904.421	10551
904.523	8785
904.624	5387
904.726	4698
904.827	4478
904.929	4675
905.030	5912
905.132	8824
905.233	6568
905.335	4342
905.436	3644
905.537	3651
905.639	4838
905.740	5352
905.841	7120
905.943	6482
906.044	5827
906.145	4948
906.247	3431
906.348	4542
906.449	5139
906.550	6696
906.651	4179
906.752	4470
906.854	4288
906.955	3905
907.056	5208
907.157	7258
907.258	6733
907.359	3318
907.460	3358
907.561	3674
907.662	3563
907.762	4991
907.863	6263
907.964	6220
908.065	4872
908.166	3702
908.267	3934
908.367	4012
908.468	3942
908.569	4645
908.670	6570
908.770	4933
908.871	5440
908.971	6433
909.072	5083
909.173	3434
909.273	4599
909.374	6406
909.474	4923
909.575	3976
909.675	4471
909.776	5275
909.876	5260
909.977	4945
910.077	6024
910.177	7105
910.278	5184
910.378	4035
910.478	4743
910.579	5956
910.679	5879
910.779	5541
910.879	6773
910.980	5779
911.080	6506
911.180	3583
911.280	4163
911.380	3222
911.480	3885
911.580	5061
911.680	4982
911.780	6703
911.880	6168
911.980	4296
912.080	5143
912.180	5730
912.280	5446
912.380	4413
912.480	3328
912.580	2809
912.679	4283
912.779	6730
912.879	5853
912.979	4510
913.078	4194
913.178	3694
913.278	3472
913.377	4240
913.477	3659
913.577	4992
913.676	7065
913.776	7382
913.875	5143
913.975	4598
914.074	4822
914.174	5998
914.273	3969
914.373	5508
914.472	4983
914.572	3856
914.671	3563
914.770	5335
914.870	3589
914.969	4934
915.068	7017
915.167	6387
915.267	4357
915.366	4653
915.465	4881
915.564	5282
915.663	6800
915.763	5630
915.862	6626
915.961	6559
916.060	4434
916.159	4483
916.258	3897
916.357	4387
916.456	6106
916.555	5650
916.654	5122
916.752	7083
916.851	6058
916.950	3750
917.049	4818
917.148	4387
917.247	4781
917.345	4072
917.444	3896
917.543	4208
917.642	5029
917.740	5859
917.839	8958
917.937	7809
918.036	7057
918.135	5013
918.233	4901
918.332	4647
918.430	4799
918.529	4845
918.627	5560
918.726	6991
918.824	5482
918.923	4671
919.021	5347
919.119	3918
919.218	4616
919.316	5285
919.414	5458
919.512	6972
919.611	7510
919.709	6257
919.807	7916
919.905	9079
920.003	8307
920.102	7556
920.200	8183
920.298	9571
920.396	8189
920.494	7346
920.592	7581
920.690	8034
920.788	7214
920.886	8174
920.984	9796
921.082	10023
921.180	10741
921.277	10092
921.375	12448
921.473	17014
921.571	16117
921.669	14642
921.766	12728
921.864	15321
921.962	13465
922.060	12775
922.157	13699
922.255	14818
922.352	14683
922.450	15706
922.548	17906
922.645	19739
922.743	24545
922.840	39551
922.938	42587
923.035	37195
923.133	37681
923.230	43257
923.327	51164
923.425	45450
923.522	46242
923.619	41931
923.717	37832
923.814	38048
923.911	36639
924.008	38504
924.106	36106
924.203	35261
924.300	38287
924.397	36665
924.494	36673
924.591	35805
924.688	34819
924.786	36066
924.883	36420
924.979	35831
925.077	36211
925.173	34652
925.270	34143
925.367	35440
925.464	37366
925.561	37557
925.658	38846
925.755	32299
925.852	38289
925.948	35752
926.045	35997
926.142	37892
926.239	37369
926.335	30014
926.432	36004
926.529	37781
926.625	40181
926.722	30388
926.818	31367
926.915	36287
927.011	33102
927.108	32454
927.204	33718
927.301	29686
927.397	36037
927.494	37357
927.590	24423
927.687	28864
927.783	37627
927.879	35297
927.976	29169
928.072	27348
928.168	32361
928.264	32087
928.361	29944
928.457	35367
928.553	28145
928.649	30076
928.745	30882
928.841	27754
928.937	30035
929.033	30854
929.129	28223
929.225	34193
929.321	27794
929.417	25384
929.513	31906
929.609	27207
929.705	27408
929.801	30643
929.897	25145
929.993	27326
930.089	28472
930.184	25661
930.280	29349
930.376	34620
930.471	25575
930.567	23586
930.663	26807
930.758	23728
930.854	25572
930.950	25031
931.045	24076
931.141	26334
931.236	31882
931.332	25856
931.427	22301
931.523	31359
931.618	28234
931.714	19155
931.809	24663
931.905	28507
932.000	18699
932.095	19664
932.191	29984
932.286	32596
932.381	24460
932.476	20748
932.572	24241
932.667	20867
932.762	21924
932.857	25861
932.952	30175
933.047	23026
933.142	20565
933.237	24616
933.332	26472
933.427	27004
933.522	22144
933.617	19859
933.712	20903
933.807	28762
933.902	29213
933.997	28105
934.092	19927
934.187	22719
934.282	24556
934.376	25113
934.471	25457
934.566	20852
934.661	19698
934.755	25523
934.850	27141
934.945	20592
935.039	19105
935.134	16012
935.228	23203
935.323	31131
935.417	19709
935.512	14821
935.606	17137
935.701	23671
935.795	25850
935.890	21060
935.984	18185
936.079	16374
936.173	20838
936.267	18692
936.362	17598
936.456	21656
936.550	27133
936.644	21466
936.738	16436
936.833	17192
936.927	14120
937.021	19218
937.115	21411
937.209	23085
937.303	19108
937.397	16078
937.491	19364
937.585	23192
937.679	20107
937.773	16664
937.867	14086
937.961	17061
938.055	24969
938.149	20138
938.243	13239
938.337	13749
938.430	17471
938.524	25368
938.618	20910
938.712	17004
938.805	18263
938.899	22227
938.993	26279
939.086	15926
939.180	16658
939.274	19719
939.367	21475
939.461	21693
939.554	16010
939.648	14834
939.741	15328
939.835	18834
939.928	24089
940.022	20052
940.115	16984
940.208	20302
940.302	23583
940.395	22560
940.488	16030
940.582	15675
940.675	13328
940.768	15267
940.861	21768
940.954	20691
941.048	11812
941.141	11735
941.234	14636
941.327	16534
941.420	18076
941.513	18953
941.606	13952
941.699	13983
941.792	19236
941.885	16998
941.978	17882
942.071	16868
942.164	13261
942.257	13263
942.349	15390
942.442	17872
942.535	12527
942.628	14290
942.721	15085
942.813	14435
942.906	16768
942.999	13911
943.091	12904
943.184	14775
943.277	14494
943.369	10684
943.462	9652
943.554	14291
943.647	14323
943.739	17855
943.832	18428
943.924	9644
944.017	10170
944.109	12248
944.201	13100
944.294	12825
944.386	14173
944.478	12783
944.571	11815
944.663	12080
944.755	13958
944.847	15880
944.940	13229
945.032	9140
945.124	10036
945.216	14149
945.308	14648
945.400	13296
945.492	12694
945.584	16659
945.676	17240
945.768	14763
945.860	16618
945.952	18129
946.044	13892
946.136	12206
946.228	12721
946.320	11547
946.412	14010
946.503	15577
946.595	16023
946.687	10605
946.779	9176
946.870	10175
946.962	11160
947.054	11724
947.145	14855
947.237	11418
947.329	12599
947.420	14188
947.512	10744
947.603	8877
947.695	10725
947.786	10127
947.878	10706
947.969	13277
948.061	14680
948.152	12714
948.243	7983
948.335	8597
948.426	9683
948.517	12934
948.609	14259
948.700	12653
948.791	10958
948.882	7824
948.973	8784
949.065	12562
949.156	11541
949.247	8432
949.338	10090
949.429	7801
949.520	9623
949.611	11292
949.702	13158
949.793	10019
949.884	11232
949.975	9744
950.066	7502
950.157	8268
950.247	10277
950.338	8917
950.429	9162
950.520	10333
950.611	8421
950.701	10844
950.792	14769
950.883	11147
950.973	11156
951.064	12678
951.155	11852
951.245	12464
951.336	12935
951.427	14124
951.517	14976
951.608	12344
951.698	10996
951.788	8176
951.879	8639
951.969	8170
952.060	9532
952.150	11706
952.240	13932
952.331	11685
952.421	11903
952.511	6894
952.602	7233
952.692	7886
952.782	7795
952.872	8816
952.962	10729
953.052	9629
953.143	8856
953.233	9230
953.323	10778
953.413	11410
953.503	11517
953.593	10885
953.683	10137
953.773	7168
953.863	7542
953.953	7302
954.042	10221
954.132	11443
954.222	10841
954.312	8445
954.402	9608
954.492	8206
954.581	9765
954.671	10107
954.761	9356
954.850	9801
954.940	6380
955.030	6772
955.119	7509
955.209	7669
955.298	9792
955.388	11438
955.477	11106
955.567	6549
955.656	8222
955.746	8469
955.835	6862
955.925	7873
956.014	10526
956.103	11385
956.193	13760
956.282	11444
956.371	9548
956.461	9455
956.550	9149
956.639	8629
956.728	8113
956.817	8880
956.906	9244
956.995	11050
957.085	8423
957.174	8439
957.263	7679
957.352	8347
957.441	8570
957.530	8149
957.619	7733
957.708	8117
957.796	8170
957.885	7425
957.974	7732
958.063	8455
958.152	5530
958.241	6418
958.329	6680
958.418	8095
958.507	8696
958.596	9729
958.684	7707
958.773	8913
958.861	5934
958.950	6179
959.039	6496
959.127	6983
959.216	8084
959.304	6880
959.393	7272
959.481	8564
959.570	6837
959.658	6235
959.746	6052
959.835	7146
959.923	5984
960.011	6723
960.100	8586
960.188	9796
960.276	7492
960.365	6735
960.453	5847
960.541	5715
960.629	6845
960.717	5147
960.805	4516
960.893	7306
960.981	8814
961.069	10987
961.158	12128
961.245	12978
961.333	11160
961.421	8774
961.509	8048
961.597	8107
961.685	7379
961.773	7861
961.861	8584
961.949	9423
962.036	6961
962.124	6058
962.212	6848
962.299	6721
962.387	6508
962.475	7027
962.562	6651
962.650	8596
962.738	7080
962.825	5249
962.913	6416
963.000	7329
963.088	8191
963.175	7298
963.263	6150
963.350	6188
963.438	6699
963.525	6089
963.612	6886
963.700	7901
963.787	7586
963.874	7508
963.962	5371
964.049	5950
964.136	6318
964.223	5142
964.310	5779
964.398	6523
964.485	6073
964.572	8500
964.659	7412
964.746	6102
964.833	6095
964.920	6207
965.007	5989
965.094	6458
965.181	7016
965.268	7939
965.355	6338
965.441	6971
965.528	6691
965.615	8126
965.702	7102
965.789	6870
965.875	7781
965.962	8790
966.049	7331
966.136	10315
966.222	9668
966.309	11253
966.395	9812
966.482	9639
966.569	8520
966.655	7763
966.742	7408
966.828	6547
966.915	5526
967.001	6429
967.087	5030
967.174	5986
967.260	6541
967.347	7275
967.433	6885
967.519	6584
967.605	7570
967.692	7253
967.778	6624
967.864	5642
967.950	6810
968.036	6706
968.123	7425
968.209	7196
968.295	5762
968.381	7191
968.467	5750
968.553	4515
968.639	8104
968.725	7463
968.811	10916
968.897	9357
968.983	7282
969.069	5058
969.154	5971
969.240	5495
969.326	6120
969.412	5247
969.497	5810
969.583	5372
969.669	8173
969.755	7396
969.840	8858
969.926	13634
970.012	15636
970.097	18570
970.183	15683
970.268	9776
970.354	7753
970.439	5613
970.525	6730
970.610	6467
970.696	8056
970.781	6163
970.866	5198
970.952	7994
971.037	6505
971.122	6791
971.208	7731
971.293	6806
971.378	5906
971.463	6734
971.549	6495
971.634	6210
971.719	6715
971.804	6679
971.889	6481
971.974	7344
972.059	7290
972.144	6034
972.229	6252
972.314	6338
972.399	6135
972.484	5428
972.569	6370
972.654	5259
972.739	6136
972.824	5774
972.908	6063
972.993	5539
973.078	6120
973.163	6627
973.247	6892
973.332	5523
973.417	6976
973.501	5880
973.586	7072
973.671	7174
973.755	6028
973.840	7087
973.924	8452
974.009	10657
974.093	10039
974.178	10104
974.262	8010
974.346	7970
974.431	7513
974.515	7572
974.600	8185
974.684	7276
974.768	7093
974.852	7849
974.937	6003
975.021	7728
975.105	7198
975.189	6495
975.273	6976
975.358	5996
975.442	5514
975.526	5892
975.610	6093
975.694	5423
975.778	7017
975.862	5789
975.946	4723
976.030	8394
976.114	6758
976.198	5613
976.281	5864
976.365	7456
976.449	6212
976.533	6517
976.617	5654
976.700	5754
976.784	7188
976.868	5949
976.951	5876
977.035	6382
977.119	6033
977.202	6540
977.286	8364
977.369	9998
977.453	13110
977.536	12439
977.620	10302
977.703	10032
977.787	8011
977.870	8947
977.953	9018
978.037	6266
978.120	8115
978.203	6944
978.287	8220
978.370	7863
978.453	6235
978.536	6468
978.620	7878
978.703	7953
978.786	6391
978.869	6168
978.952	6653
979.035	7544
979.118	8291
979.201	6063
979.284	8095
979.367	7567
979.450	8495
979.533	7110
979.616	6331
979.699	7141
979.782	8051
979.865	6589
979.948	7355
980.030	6168
980.113	6693
980.196	6442
980.279	7934
980.361	7310
980.444	7156
980.526	9606
980.609	11882
980.692	14898
980.774	12807
980.857	9889
980.939	10964
981.022	9104
981.104	8722
981.187	8706
981.269	9135
981.352	8909
981.434	7949
981.516	8358
981.599	9310
981.681	8786
981.763	7493
981.846	8309
981.928	8235
982.010	9203
982.092	7201
982.174	9179
982.256	8975
982.339	8094
982.421	7575
982.503	8428
982.585	7060
982.667	7335
982.749	7645
982.831	7109
982.913	7534
982.995	9272
983.077	8092
983.158	10137
983.240	8370
983.322	11923
983.404	15602
983.486	14365
983.568	12690
983.649	11647
983.731	12126
983.813	10886
983.894	10137
983.976	10168
984.058	10159
984.139	10533
984.221	8719
984.302	10057
984.384	9583
984.465	8576
984.547	10224
984.628	10035
984.710	11350
984.791	9907
984.872	10072
984.954	9349
985.035	10985
985.116	9721
985.198	9500
985.279	11937
985.360	10216
985.441	8991
985.522	11198
985.604	10980
985.685	8361
985.766	11104
985.847	12410
985.928	9836
986.009	9878
986.090	10802
986.171	12091
986.252	10877
986.333	10680
986.414	10464
986.495	11083
986.576	11139
986.656	11372
986.737	12517
986.818	12415
986.899	10821
986.980	11068
987.060	12006
987.141	12394
987.222	14841
987.302	14976
987.383	16124
987.464	14659
987.544	15208
987.625	13311
987.705	15745
987.786	15313
987.866	13830
987.947	13946
988.027	14227
988.108	13863
988.188	13541
988.268	12491
988.349	13953
988.429	13491
988.509	12676
988.589	12383
988.670	11663
988.750	13438
988.830	11627
988.910	13908
988.990	12609
989.070	12305
989.151	12052
989.231	11033
989.311	10958
989.391	11076
989.471	11088
989.551	11552
989.631	10905
989.711	12724
989.791	12204
989.870	10360
989.950	11481
990.030	12947
990.110	11760
990.190	9977
990.269	10029
990.349	11433
990.429	11606
990.509	10509
990.588	9296
990.668	11518
990.747	10287
990.827	9703
990.907	10932
990.986	11809
991.066	10137
991.145	8701
991.225	11115
991.304	10855
991.383	10493
991.463	10183
991.542	10734
991.622	9162
991.701	8751
991.780	7676
991.859	9034
991.939	9145
992.018	10334
992.097	10656
992.176	9027
992.256	8159
992.335	9371
992.414	10479
992.493	7922
992.572	8450
992.651	9646
992.730	9329
992.809	8444
992.888	7780
992.967	9596
993.046	9915
993.125	7566
993.203	8745
993.282	9209
993.361	8482
993.440	9114
993.519	7655
993.597	8654
993.676	8335
993.755	9020
993.834	8337
993.912	6654
993.991	8844
994.069	7973
994.148	7779
994.226	7273
994.305	8174
994.384	7925
994.462	9824
994.540	7378
994.619	6311
994.697	8009
994.776	8072
994.854	9092
994.932	6998
995.011	7272
995.089	6483
995.167	6715
995.245	7919
995.324	7600
995.402	7254
995.480	6115
995.558	7540
995.636	5749
995.714	6493
995.792	8184
995.870	6136
995.948	5991
996.026	6792
996.104	5244
996.182	6944
996.260	5150
996.338	6783
996.416	6521
996.494	6835
996.572	8127
996.649	5680
996.727	5416
996.805	8200
996.883	7207
996.960	6324
997.038	7735
997.116	7298
997.193	5968
997.271	5191
997.348	4887
997.426	5169
997.504	6578
997.581	7146
997.658	5718
997.736	3507
997.813	4808
997.891	7094
997.968	5448
998.046	6382
998.123	5803
998.200	7170
998.277	5958
998.355	5608
998.432	3365
998.509	4910
998.586	5895
998.663	5299
998.741	4123
998.818	4814
998.895	4726
998.972	6219
999.049	6375
999.126	4362
999.203	4781
999.280	4798
999.357	4515
999.434	4930
999.511	4534
999.587	5699
999.664	3623
999.741	5063
999.818	5315
999.895	5141
999.971	4530
1000.048	4626
1000.125	5567
1000.202	4683
1000.278	5711
1000.355	6191
1000.431	4149
1000.508	3568
1000.584	4171
1000.661	5011
1000.738	4787
1000.814	5043
1000.890	5862
1000.967	4630
1001.043	4559
1001.120	3332
1001.196	4174
1001.272	3659
1001.349	4047
1001.425	4542
1001.501	4978
1001.577	4819
1001.654	4861
1001.730	4402
1001.806	3822
1001.882	3900
1001.958	6117
1002.034	4267
1002.110	3418
1002.186	2966
1002.262	2698
1002.338	2867
1002.414	4407
1002.490	4833
1002.566	3279
1002.642	3800
1002.718	4384
1002.794	3893
1002.870	4248
1002.945	3771
1003.021	3353
1003.097	3189
1003.173	3349
1003.248	3905
1003.324	3933
1003.400	3625
1003.475	3717
1003.551	3794
1003.626	3405
1003.702	3462
1003.777	2734
1003.853	2748
1003.928	2963
1004.004	1602
1004.079	3741
1004.155	4640
1004.230	3050
1004.305	4444
1004.381	3071
1004.456	2875
1004.531	2490
1004.607	3970
1004.682	3416
1004.757	4248
1004.832	3098
1004.907	3155
1004.982	3210
1005.057	3231
1005.133	2882
1005.208	3034
1005.283	2848
1005.358	2804
1005.433	2258
1005.508	3688
1005.583	2409
1005.657	3971
1005.732	3461
1005.807	2822
1005.882	2776
1005.957	1770
1006.032	3173
1006.106	2508
1006.181	2564
1006.256	2960
1006.331	3029
1006.405	2141
1006.480	2364
1006.554	1578
1006.629	3044
1006.704	2898
1006.778	2615
1006.853	2891
1006.927	2023
1007.002	1575
1007.076	2158
1007.150	1643
1007.225	2845
1007.299	2686
1007.373	2411
1007.448	2578
1007.522	2939
1007.596	2744
1007.671	1733
1007.745	3783
1007.819	2390
1007.893	3116
1007.967	3447
1008.041	1524
1008.115	3276
1008.190	1820
1008.264	3021
1008.338	2035
1008.412	1775
1008.486	2338
1008.560	2523
1008.633	1985
1008.707	3559
1008.781	3503
1008.855	2584
1008.929	2961
1009.003	2006
1009.076	1668
1009.150	2699
1009.224	2634
1009.298	2125
1009.371	1427
1009.445	2150
1009.519	2064
1009.592	1712
1009.666	1899
1009.739	2576
1009.813	1674
1009.886	2957
1009.960	1534
1010.033	2695
1010.107	3420
1010.180	866
1010.253	1785
1010.327	1239
1010.400	2179
1010.473	1909
1010.547	3077
1010.620	1901
1010.693	2087
1010.766	2962
1010.840	2717
1010.913	2631
1010.986	1733
1011.059	2834
1011.132	1646
1011.205	3241
1011.278	1922
1011.351	1768
1011.424	2751
1011.497	2092
1011.570	2195
1011.643	2095
1011.716	1812
1011.789	1576
1011.862	2631
1011.934	2035
1012.007	1262
1012.080	992
1012.153	1287
1012.225	3438
1012.298	1245
1012.371	1563
1012.443	1455
1012.516	1840
1012.588	1976
1012.661	1689
1012.733	1792
1012.806	1808
1012.879	1513
1012.951	1836
1013.023	1481
1013.096	1628
1013.168	902
1013.241	2138
1013.313	1359
1013.385	1103
1013.458	983
1013.530	1755
1013.602	15
1013.674	1947
1013.746	1265
1013.819	1220
1013.891	2108
1013.963	1818
1014.035	1708
1014.107	2049
1014.179	1946
1014.251	914
1014.323	1307
1014.395	1524
1014.467	1073
1014.539	1446
1014.611	618
1014.683	1433
1014.754	1769
1014.826	771
1014.898	1242
1014.970	1117
1015.042	2326
1015.113	2186
1015.185	1619
1015.257	428
1015.328	1503
1015.400	1055
1015.471	1470
1015.543	529
1015.615	1553
1015.686	1581
1015.757	981
1015.829	1182
1015.901	1625
1015.972	1412
1016.043	1198
1016.115	805
1016.186	1013
1016.257	406
1016.328	1542
1016.400	869
1016.471	916
1016.542	768
1016.613	998
1016.685	1150
1016.756	1537
1016.827	1256
1016.898	986
1016.969	1084
1017.040	767
1017.111	484
1017.182	945
1017.253	1413
1017.324	815
1017.395	989
1017.466	1599
1017.537	1043
1017.608	41
1017.678	1428
1017.749	988
1017.820	1248
1017.891	554
1017.961	386
1018.032	1231
1018.103	1270
1018.173	754
1018.244	-46
1018.315	1036
1018.385	664
1018.456	793
1018.526	161
1018.597	742
1018.667	890
1018.738	1018
1018.808	466
1018.878	796
1018.949	1620
1019.019	549
1019.089	1612
1019.160	119
1019.230	1663
1019.300	1418
1019.371	1125
1019.441	1469
1019.511	1252
1019.581	420
1019.651	1224
1019.721	913
1019.791	583
1019.861	705
1019.931	1298
1020.001	1378
1020.071	1129
1020.141	641
1020.211	1741
1020.281	112
1020.351	354
1020.421	729
1020.491	1110
1020.560	978
1020.630	1522
1020.700	524
1020.770	1554
1020.839	971
1020.909	800
1020.979	433
1021.048	706
1021.118	332
1021.187	1163
1021.257	560
1021.326	1525
1021.396	190
1021.465	1155
1021.535	646
1021.604	212
1021.674	986
1021.743	633
1021.812	940
1021.882	191
1021.951	1245
1022.020	730
1022.089	1389
1022.159	1117
1022.228	685
1022.297	112
1022.366	984
1022.435	180
1022.504	-136
1022.573	35
1022.642	1399
1022.711	246
1022.781	1417
1022.849	1287
1022.918	558
1022.987	1709
1023.056	922
1023.125	1420
1023.194	1088
1023.263	1159
1023.331	723
1023.400	215
1023.469	905
1023.538	930
1023.606	79
1023.675	1024
1023.744	234
1023.812	261
1023.881	812
1023.949	495
1024.018	711
1024.086	693
1024.155	610
1024.223	-42
1024.292	519
1024.360	638
1024.429	251
1024.497	122
1024.565	830
1024.634	826
1024.702	742
1024.770	285
1024.838	450
1024.907	959
1024.975	-13
1025.043	-127
1025.111	807
1025.179	419
1025.247	-383
1025.315	306
1025.383	19
1025.451	675
1025.519	383
1025.587	655
1025.655	800
1025.723	641
1025.791	309
1025.859	790
1025.927	1306
1025.995	-319
1026.062	439
1026.130	387
1026.198	561
1026.266	295
1026.333	929
1026.401	1329
1026.469	833
1026.536	815
1026.604	335
1026.671	-46
1026.739	897
1026.806	599
1026.874	559
1026.941	172
1027.009	704
1027.076	534
1027.144	376
1027.211	514
1027.278	991
1027.345	1050
1027.413	832
1027.480	240
1027.547	568
1027.614	131
1027.682	375
1027.749	-360
1027.816	103
1027.883	-26
1027.950	841
1028.017	542
1028.084	49
1028.151	261
1028.218	337
1028.285	298
1028.352	-64
1028.419	-75
1028.486	16
1028.553	-41
1028.619	325
1028.686	368
1028.753	308
1028.820	-724
1028.886	595
1028.953	705
1029.020	353
1029.086	433
1029.153	804
1029.220	-300
1029.286	513
1029.353	1035
1029.419	370
1029.486	125
1029.552	-60
1029.619	96
1029.685	-54
1029.751	735
1029.818	434
1029.884	-154
1029.951	1941
1030.017	3
1030.083	691
1030.149	250
1030.216	-218
1030.282	501
1030.348	-42
1030.414	-195
1030.480	626
1030.546	-510
1030.612	712
1030.678	87
1030.744	381
1030.810	267
1030.876	-73
1030.942	-776
1031.008	-56
1031.074	-320
1031.140	556
1031.206	591
1031.272	-55
1031.337	482
1031.403	583
1031.469	-209
1031.534	-322
1031.600	299
1031.666	-400
1031.731	-620
1031.797	51
1031.863	505
1031.928	506
1031.994	516
1032.059	-234
1032.125	-223
1032.190	-532
1032.256	657
1032.321	39
1032.386	521
1032.452	-198
1032.517	27
1032.582	345
1032.647	163
1032.713	980
1032.778	592
1032.843	521
1032.908	146
1032.974	181
1033.039	266
1033.104	362
1033.169	-492
1033.234	-93
1033.299	281
1033.364	125
1033.429	311
1033.494	1244
1033.559	791
1033.624	273
1033.688	771
1033.753	707
1033.818	743
1033.883	2188
1033.948	2268
1034.013	2033
1034.077	3309
1034.142	5192
1034.207	6193
1034.271	8899
1034.336	10844
1034.400	7476
1034.465	4517
1034.530	2525
1034.594	865
1034.658	1338
1034.723	-61
1034.787	876
1034.852	858
1034.916	-288
1034.981	-86
1035.045	613
1035.109	-415
1035.173	263
1035.238	264
1035.302	-404
1035.366	209
1035.430	-445
1035.495	693
1035.559	501
1035.623	-392
1035.687	-851
1035.751	-332
1035.815	-480
1035.879	-636
1035.943	728
1036.007	185
1036.071	-242
1036.135	-164
1036.198	352
1036.262	-84
1036.326	-482
1036.390	-246
1036.454	-222
1036.517	-517
1036.581	-28
1036.645	323
1036.709	80
1036.772	-448
1036.836	210
1036.900	453
1036.963	-491
1037.026	-211
1037.090	-111
1037.154	91
1037.217	-487
1037.280	239
1037.344	-365
1037.407	331
1037.471	-31
1037.534	296
1037.597	596
1037.661	280
1037.724	977
1037.787	502
1037.850	-291
1037.913	-85
1037.977	597
1038.040	-67
1038.103	-106
1038.166	-190
1038.229	846
1038.292	-871
1038.355	-284
1038.418	-101
1038.481	-169
1038.544	-410
1038.607	5
1038.670	-182
1038.732	-239
1038.795	-562
1038.858	-295
1038.921	215
1038.984	510
1039.046	-165
1039.109	-756
1039.172	-776
1039.234	-68
1039.297	-580
1039.360	-174
1039.422	-134
1039.485	-36
1039.547	-717
1039.610	-8
1039.672	-351
1039.734	-537
1039.797	-303
1039.859	335
1039.922	-716
1039.984	-1003
1040.046	-737
1040.109	-120
1040.171	-1195
1040.233	-472
1040.295	-154
1040.358	-1187
1040.420	-384
1040.482	-344
1040.544	-390
1040.606	-692
1040.668	164
1040.730	-85
1040.792	-594
1040.854	-893
1040.916	-573
1040.978	-601
1041.040	-41
1041.102	-147
1041.164	-787
1041.225	-823
1041.287	-787
1041.349	-247
1041.411	-244
1041.472	-1129
1041.534	-870
1041.596	-648
1041.657	-168
1041.719	-587
1041.781	-196
1041.842	-411
1041.904	-571
1041.965	327
1042.027	-756
1042.088	-450
1042.150	-96
1042.211	10
1042.272	536
1042.334	-306
1042.395	-858
1042.456	-947
1042.518	-6
1042.579	249
1042.640	-934
1042.701	-843
1042.763	-227
1042.824	-1191
1042.885	-985
1042.946	-465
1043.007	-1413
1043.068	-596
1043.129	-688
1043.190	-880
1043.251	-512
1043.312	-352
1043.373	-1723
1043.434	-424
1043.495	-1263
1043.556	-287
1043.616	-788
1043.677	-817
1043.738	-72
1043.799	-210
1043.859	-244
1043.920	-722
1043.981	-803
1044.041	-170
1044.102	-360
1044.162	-852
1044.223	-420
1044.284	-5
1044.344	-72
1044.405	-28
1044.465	-825
1044.525	-142
1044.586	-296
1044.646	-331
1044.707	-27
1044.767	-773
1044.827	-533
1044.887	-171
1044.948	-650
1045.008	-441
1045.068	-573
1045.128	-905
1045.188	7
1045.249	-271
1045.309	-625
1045.369	-809
1045.429	-656
1045.489	-1230
1045.549	-280
1045.609	284
1045.669	-954
1045.729	-713
1045.789	-216
1045.848	-479
1045.908	-16
1045.968	377
1046.028	-43
1046.088	230
1046.147	-212
1046.207	-583
1046.267	35
1046.326	-437
1046.386	-510
1046.446	-1046
1046.505	-148
1046.565	1013
1046.624	882
1046.684	-119
1046.743	245
1046.803	276
1046.862	911
1046.922	0
