'Start Wavelength	183.907
'End Wavelength	1046.922
'Gate Delay	5.000
'Gate Width (ms)	1.050
'Laser Output Level	0.000
'X Position	0.000
'Y Position	0.000
'Z Position	0.000
'Grid Point Number	1.000
'Shot Number	100.000
183.907	773.000
183.977	-854.000
184.047	648
184.116	120
184.186	237
184.256	-101
184.325	-190
184.395	-475
184.465	1340
184.534	-205
184.604	324
184.674	175
184.743	-305
184.813	-228
184.883	-213
184.952	-756
185.022	336
185.092	-1
185.161	-147
185.231	-326
185.301	213
185.370	-75
185.440	-641
185.509	-614
185.579	171
185.649	264
185.718	789
185.788	554
185.857	286
185.927	-563
185.996	-177
186.066	-482
186.136	363
186.205	-506
186.275	118
186.344	-235
186.414	-262
186.483	-1332
186.553	1106
186.622	767
186.692	-243
186.761	-109
186.831	-246
186.900	-771
186.970	537
187.039	170
187.109	654
187.178	-444
187.248	497
187.317	-346
187.387	482
187.456	857
187.526	715
187.595	203
187.664	-222
187.734	106
187.803	776
187.873	-177
187.942	300
188.012	-161
188.081	475
188.150	-468
188.220	-413
188.289	24
188.358	-3
188.428	949
188.497	-30
188.567	407
188.636	-253
188.705	-778
188.775	69
188.844	-1143
188.913	586
188.983	111
189.052	87
189.121	-840
189.191	-489
189.260	114
189.329	135
189.399	4
189.468	566
189.537	174
189.606	136
189.676	-325
189.745	-202
189.814	-618
189.883	-27
189.953	-585
190.022	408
190.091	-481
190.161	318
190.230	-221
190.299	-592
190.368	129
190.437	536
190.507	361
190.576	-574
190.645	-1161
190.714	-358
190.783	8
190.853	301
190.922	-154
190.991	-50
191.060	162
191.129	-734
191.198	-456
191.268	-696
191.337	-661
191.406	606
191.475	-58
191.544	270
191.613	-447
191.682	601
191.752	-302
191.821	-373
191.890	-674
191.959	501
192.028	-28
192.097	347
192.166	200
192.235	49
192.304	443
192.373	974
192.442	-195
192.511	170
192.580	-860
192.650	-442
192.719	-207
192.788	460
192.857	-198
192.926	258
192.995	-271
193.064	195
193.133	182
193.202	-67
193.271	379
193.340	766
193.409	492
193.478	617
193.547	-764
193.615	-291
193.684	-458
193.753	257
193.822	455
193.891	-898
193.960	-687
194.029	-277
194.098	153
194.167	-595
194.236	-110
194.305	-500
194.374	-215
194.443	-53
194.512	-258
194.580	325
194.649	425
194.718	198
194.787	-393
194.856	-462
194.925	28
194.994	-42
195.062	-573
195.131	-633
195.200	22
195.269	57
195.338	217
195.407	-6
195.475	-399
195.544	578
195.613	-408
195.682	-146
195.751	-612
195.819	-489
195.888	-185
195.957	303
196.026	-1211
196.094	94
196.163	-899
196.232	-354
196.301	-833
196.369	-439
196.438	-379
196.507	-135
196.576	-500
196.644	81
196.713	177
196.782	-608
196.850	-251
196.919	332
196.988	-131
197.056	-455
197.125	-9
197.194	-111
197.262	-699
197.331	-47
197.400	-372
197.468	225
197.537	-257
197.606	91
197.674	327
197.743	219
197.812	-286
197.880	-826
197.949	66
198.017	-934
198.086	-944
198.155	82
198.223	-357
198.292	-404
198.360	-1059
198.429	189
198.497	-986
198.566	-302
198.635	-86
198.703	-26
198.772	-3
198.840	-378
198.909	-608
198.977	-502
199.046	-249
199.114	181
199.183	-415
199.251	188
199.320	-128
199.388	161
199.457	234
199.525	-368
199.594	-51
199.662	-182
199.731	194
199.799	-244
199.867	-242
199.936	134
200.004	21
200.073	-563
200.141	-330
200.210	-602
200.278	-158
200.346	238
200.415	89
200.483	-365
200.552	-374
200.620	-927
200.688	-332
200.757	245
200.825	-500
200.893	-672
200.962	-837
201.030	-764
201.098	-275
201.167	-400
201.235	-465
201.303	7
201.372	143
201.440	-222
201.508	-638
201.577	-333
201.645	-679
201.713	245
201.781	-130
201.850	-428
201.918	46
201.986	-215
202.055	-79
202.123	248
202.191	440
202.259	229
202.327	-478
202.396	448
202.464	-809
202.532	186
202.600	2
202.669	-811
202.737	-572
202.805	-32
202.873	-766
202.941	287
203.009	-1066
203.078	-166
203.146	-374
203.214	-649
203.282	-1408
203.350	-117
203.418	-692
203.487	335
203.555	-682
203.623	14
203.691	-788
203.759	-236
203.827	-891
203.895	-492
203.963	-1465
204.031	-200
204.099	-347
204.168	-434
204.236	-503
204.304	-226
204.372	-1020
204.440	-539
204.508	-585
204.576	-486
204.644	366
204.712	-895
204.780	-203
204.848	457
204.916	-1574
204.984	-475
205.052	102
205.120	-586
205.188	-680
205.256	-1610
205.324	-248
205.392	-464
205.460	-560
205.528	-853
205.596	-1198
205.664	33
205.732	-456
205.799	-437
205.867	-235
205.935	-1314
206.003	-98
206.071	-536
206.139	-898
206.207	-456
206.275	-870
206.343	-989
206.411	-296
206.478	-556
206.546	-920
206.614	-158
206.682	-460
206.750	-384
206.818	-709
206.885	-530
206.953	-1401
207.021	639
207.089	145
207.157	-1253
207.225	-960
207.292	-611
207.360	-1189
207.428	-504
207.496	-614
207.563	359
207.631	-815
207.699	-780
207.767	-1195
207.834	-367
207.902	-343
207.970	-1112
208.038	-588
208.105	-56
208.173	-519
208.241	-404
208.309	-66
208.376	-374
208.444	-34
208.512	-1052
208.579	-1272
208.647	-396
208.715	44
208.782	-686
208.850	-307
208.918	-1188
208.985	-142
209.053	-18
209.120	-900
209.188	-1040
209.256	-703
209.323	-1282
209.391	-644
209.459	359
209.526	-852
209.594	-1007
209.661	-406
209.729	-198
209.796	-595
209.864	-73
209.932	-1159
209.999	1008
210.067	-1387
210.134	-748
210.202	-333
210.269	168
210.337	-304
210.404	-796
210.472	-1161
210.539	-251
210.607	-1365
210.674	-854
210.742	-582
210.809	-1278
210.877	-489
210.944	-70
211.012	-1313
211.079	1013
211.146	46
211.214	-48
211.281	-311
211.349	-181
211.416	-1072
211.484	-441
211.551	-1047
211.618	-461
211.686	-918
211.753	-497
211.821	-767
211.888	-227
211.955	-540
212.023	-299
212.090	-1040
212.157	-613
212.225	-892
212.292	-411
212.359	-58
212.427	-1176
212.494	-748
212.561	-110
212.629	-1543
212.696	-463
212.763	-637
212.831	-811
212.898	-867
212.965	-564
213.032	-573
213.100	-757
213.167	-296
213.234	-258
213.301	-909
213.369	591
213.436	-768
213.503	-820
213.570	-380
213.638	-383
213.705	-1020
213.772	-817
213.839	-340
213.906	104
213.973	-488
214.041	-116
214.108	366
214.175	-205
214.242	-960
214.309	-364
214.376	-435
214.444	-171
214.511	-829
214.578	-1308
214.645	-435
214.712	-335
214.779	-1037
214.846	-759
214.913	-691
214.980	129
215.048	-846
215.115	263
215.182	-695
215.249	-195
215.316	-394
215.383	18
215.450	-522
215.517	-676
215.584	-269
215.651	-823
215.718	-1159
215.785	-254
215.852	-1287
215.919	-233
215.986	-730
216.053	-1199
216.120	-379
216.187	232
216.254	108
216.321	-444
216.388	-69
216.455	90
216.522	-144
216.589	-510
216.656	-553
216.722	-641
216.789	-620
216.856	-749
216.923	-950
216.990	294
217.057	-564
217.124	-297
217.191	-772
217.258	295
217.324	-1655
217.391	6
217.458	-1177
217.525	-332
217.592	-817
217.659	-1136
217.725	102
217.792	-1035
217.859	-688
217.926	-644
217.993	-243
218.059	-393
218.126	-648
218.193	-15
218.260	-589
218.327	-840
218.393	-614
218.460	-668
218.527	-1606
218.594	-861
218.660	-289
218.727	-805
218.794	-1351
218.860	-94
218.927	-1077
218.994	-475
219.061	-1854
219.127	-689
219.194	-671
219.261	88
219.327	-841
219.394	-148
219.461	-1047
219.527	-367
219.594	-605
219.661	-1012
219.727	-915
219.794	168
219.860	-674
219.927	-129
219.994	-1259
220.060	-441
220.127	132
220.193	-299
220.260	-781
220.326	-449
220.393	-1391
220.460	-1122
220.526	-707
220.593	-1444
220.659	401
220.726	-1438
220.792	-199
220.859	-331
220.925	80
220.992	-1124
221.058	-1044
221.125	-489
221.191	-949
221.258	-905
221.324	65
221.391	-874
221.457	-1044
221.524	-653
221.590	-734
221.657	260
221.723	-1967
221.789	-1031
221.856	-403
221.922	-1583
221.989	-25
222.055	-567
222.121	-1546
222.188	341
222.254	-526
222.321	-1090
222.387	-1095
222.453	-617
222.520	-858
222.586	-765
222.652	-388
222.719	-777
222.785	-341
222.851	-327
222.918	-1088
222.984	-850
223.050	-1283
223.116	-1762
223.183	425
223.249	-1173
223.315	-662
223.382	-218
223.448	-1087
223.514	-586
223.580	-758
223.647	-1122
223.713	-1410
223.779	-724
223.845	-463
223.911	-33
223.978	-1733
224.044	-866
224.110	-882
224.176	-39
224.242	-989
224.309	-793
224.375	-980
224.441	-249
224.507	-1405
224.573	-944
224.639	-4
224.705	-1358
224.772	-1197
224.838	-645
224.904	-975
224.970	-700
225.036	-557
225.102	-1247
225.168	-87
225.234	-180
225.300	-1000
225.366	-183
225.432	-620
225.499	-421
225.565	-10
225.631	-1326
225.697	-1630
225.763	-227
225.829	-962
225.895	-732
225.961	-1013
226.027	-526
226.093	-684
226.159	-1031
226.225	-738
226.291	-957
226.357	-754
226.423	-617
226.489	-473
226.554	-928
226.620	-820
226.686	-243
226.752	-1072
226.818	-1130
226.884	-769
226.950	-1341
227.016	-842
227.082	-650
227.148	-1112
227.214	-69
227.279	-781
227.345	-816
227.411	-451
227.477	-280
227.543	-577
227.609	280
227.674	103
227.740	-909
227.806	-900
227.872	-833
227.938	-383
228.003	-396
228.069	-1362
228.135	-1004
228.201	-1025
228.267	-536
228.332	-709
228.398	-1717
228.464	-533
228.530	-663
228.595	-352
228.661	-831
228.727	-1374
228.792	-284
228.858	-781
228.924	-1781
228.990	492
229.055	-957
229.121	-442
229.187	-670
229.252	-1051
229.318	-1210
229.384	-785
229.449	-656
229.515	-1772
229.581	-1543
229.646	674
229.712	-970
229.777	-500
229.843	-816
229.909	-28
229.974	-784
230.040	-1026
230.105	-508
230.171	-1474
230.236	-900
230.302	-53
230.368	-13
230.433	-975
230.499	-702
230.564	-468
230.630	-1878
230.695	-963
230.761	756
230.826	-2606
230.892	249
230.957	-2005
231.023	-700
231.088	-857
231.154	-1426
231.219	590
231.284	-1214
231.350	-219
231.415	-1272
231.481	-463
231.546	-564
231.612	-935
231.677	-1138
231.742	-2560
231.808	337
231.873	-2064
231.939	-1649
232.004	-128
232.069	-205
232.135	-1026
232.200	-1034
232.265	-471
232.331	-520
232.396	-574
232.461	-894
232.527	-1299
232.592	-1043
232.657	-1235
232.723	-961
232.788	-1470
232.853	-58
232.918	-584
232.984	-959
233.049	-1420
233.114	-1041
233.179	-473
233.245	-42
233.310	-1079
233.375	-2085
233.440	-710
233.506	-1249
233.571	-1214
233.636	-420
233.701	-233
233.766	-132
233.832	-715
233.897	-735
233.962	-2368
234.027	57
234.092	-826
234.157	-306
234.222	-766
234.288	-775
234.353	-1408
234.418	-407
234.483	-333
234.548	-527
234.613	-827
234.678	-876
234.743	-1615
234.808	574
234.873	-1903
234.938	614
235.004	-1444
235.069	-938
235.134	-1337
235.199	-1118
235.264	-764
235.329	-1574
235.394	67
235.459	124
235.524	-1142
235.589	-164
235.654	-1226
235.719	-1489
235.784	-171
235.849	-1105
235.913	-905
235.978	-1295
236.043	-601
236.108	-595
236.173	-1755
236.238	153
236.303	-1040
236.368	-1119
236.433	-999
236.498	-1735
236.563	-448
236.627	-1034
236.692	-345
236.757	-1243
236.822	-470
236.887	-1438
236.952	43
237.017	-1129
237.081	-539
237.146	-987
237.211	136
237.276	-55
237.341	-1009
237.405	-1196
237.470	-1153
237.535	-484
237.600	-641
237.664	-890
237.729	-1962
237.794	-1856
237.859	-825
237.923	-567
237.988	-692
238.053	385
238.118	-1127
238.182	-1281
238.247	-267
238.312	-1283
238.376	-741
238.441	-1767
238.506	-468
238.570	-1688
238.635	602
238.700	-128
238.764	-1351
238.829	-702
238.893	-1981
238.958	-719
239.023	-1342
239.087	-1465
239.152	-1089
239.216	-1947
239.281	-354
239.346	-491
239.410	-821
239.475	-1046
239.539	-287
239.604	-2707
239.668	-33
239.733	-836
239.797	-527
239.862	320
239.926	-126
239.991	545
240.055	-554
240.120	-862
240.184	-944
240.249	-2152
240.313	-630
240.378	-654
240.442	-1545
240.507	-146
240.571	-1525
240.635	-1203
240.700	-780
240.764	-834
240.829	-527
240.893	-1384
240.957	-433
241.022	-558
241.086	-516
241.151	-1835
241.215	-2291
241.279	227
241.344	-1929
241.408	-354
241.472	-1069
241.537	-24
241.601	-1148
241.665	-1696
241.730	-1389
241.794	592
241.858	-1334
241.922	-1258
241.987	-926
242.051	-1200
242.115	-1557
242.179	-283
242.244	-1807
242.308	578
242.372	-922
242.436	-2267
242.501	-1175
242.565	-1030
242.629	-1210
242.693	-763
242.757	-2509
242.822	-1129
242.886	-505
242.950	101
243.014	-1733
243.078	-739
243.142	-1238
243.206	-912
243.271	-829
243.335	-1487
243.399	-729
243.463	-658
243.527	-1272
243.591	-845
243.655	-1248
243.719	-789
243.783	290
243.847	-850
243.911	-950
243.975	-1870
244.040	-2824
244.104	1496
244.168	-706
244.232	-1025
244.296	-601
244.360	-802
244.424	-1881
244.488	-604
244.552	-356
244.615	-2107
244.679	-497
244.743	-605
244.807	-2230
244.871	-937
244.935	-668
244.999	-2392
245.063	-1495
245.127	-341
245.191	-242
245.255	-1328
245.319	-1022
245.383	-1544
245.446	493
245.510	-1266
245.574	-967
245.638	427
245.702	-2124
245.766	178
245.829	-355
245.893	-1855
245.957	-1279
246.021	-290
246.085	-1236
246.149	-1121
246.212	-204
246.276	-1532
246.340	-1782
246.404	-486
246.467	-277
246.531	-3073
246.595	-209
246.659	-549
246.722	-2164
246.786	-1178
246.850	-918
246.913	-860
246.977	-1942
247.041	-358
247.104	-1359
247.168	-937
247.232	-865
247.295	-619
247.359	-838
247.423	-319
247.486	-1216
247.550	-266
247.614	-1367
247.677	-1272
247.741	-1334
247.804	-1208
247.868	278
247.932	-1933
247.995	-636
248.059	-1258
248.122	-2218
248.186	-43
248.249	-1756
248.313	-636
248.376	-543
248.440	-1342
248.503	-2316
248.567	527
248.630	-1554
248.694	-1988
248.757	-170
248.821	-786
248.884	118
248.948	-1584
249.011	-267
249.075	-446
249.138	-179
249.202	-1219
249.265	-2079
249.328	-753
249.392	-1913
249.455	-448
249.519	-1938
249.582	-1707
249.645	-811
249.709	-1240
249.772	-1795
249.835	-838
249.899	-1423
249.962	-586
250.025	-1181
250.089	-1004
250.152	-566
250.215	-1308
250.279	-2181
250.342	-1454
250.405	-1010
250.468	-1868
250.532	-1862
250.595	-792
250.658	-1292
250.721	26
250.785	-1667
250.848	-341
250.911	-2548
250.974	-40
251.038	-1250
251.101	338
251.164	-939
251.227	-367
251.290	-1622
251.354	-1483
251.417	-1576
251.480	-803
251.543	-277
251.606	-637
251.669	-1008
251.732	-914
251.795	-1769
251.859	-697
251.922	-2187
251.985	-458
252.048	-1029
252.111	-1100
252.174	-2502
252.237	-805
252.300	-1217
252.363	-1511
252.426	-144
252.489	-1372
252.552	-968
252.615	-1101
252.678	-1047
252.741	-620
252.804	-1338
252.867	-487
252.930	-1149
252.993	-1287
253.056	-826
253.119	-1185
253.182	-1267
253.245	-1061
253.308	-336
253.371	-1089
253.434	-1195
253.497	-281
253.559	-141
253.622	-580
253.685	-1784
253.748	-1227
253.811	-1560
253.874	-219
253.937	-1684
254.000	-101
254.062	-1394
254.125	-1200
254.188	-432
254.251	-1134
254.314	-1226
254.376	-1275
254.439	-1590
254.502	-916
254.565	-1507
254.628	-499
254.690	-1914
254.753	-1090
254.816	-1437
254.878	-439
254.941	-1023
255.004	-1469
255.067	-1454
255.129	-1218
255.192	-1821
255.255	-2017
255.317	-1236
255.380	-1347
255.443	-1452
255.505	-1360
255.568	-1936
255.631	-1124
255.693	-843
255.756	-1483
255.819	165
255.881	-1632
255.944	-1181
256.006	-1445
256.069	-1593
256.132	-895
256.194	-1399
256.257	-917
256.319	-1072
256.382	-2226
256.444	-1124
256.507	-233
256.569	-1037
256.632	-1417
256.694	-1705
256.757	-684
256.819	-1352
256.882	-1816
256.944	-1142
257.007	-522
257.069	-1588
257.132	-943
257.194	-992
257.257	-1385
257.319	-2129
257.381	-1666
257.444	-838
257.506	-874
257.569	-993
257.631	-1194
257.693	-1026
257.756	-909
257.818	-1658
257.880	-671
257.943	-688
258.005	-751
258.067	-1607
258.130	-1095
258.192	-1306
258.254	-1413
258.317	-1539
258.379	-1050
258.441	-1803
258.503	-1365
258.566	-1959
258.628	-641
258.690	-2141
258.753	186
258.815	-1016
258.877	-2147
258.939	-1756
259.001	-1000
259.064	-1191
259.126	-1814
259.188	-1551
259.250	-789
259.312	-1180
259.375	-409
259.437	-1381
259.499	-787
259.561	-1250
259.623	-740
259.685	-1149
259.747	-348
259.809	-1027
259.872	-1470
259.934	-1216
259.996	-736
260.058	-1029
260.120	-1823
260.182	-1200
260.244	-1258
260.306	-1805
260.368	422
260.430	-1585
260.492	-790
260.554	-442
260.616	-1588
260.678	-1605
260.740	-1632
260.802	-1757
260.864	279
260.926	-1446
260.988	45
261.050	-871
261.112	-2116
261.174	-356
261.236	-1399
261.298	-1221
261.359	-595
261.421	-680
261.483	-2199
261.545	-411
261.607	-1861
261.669	-1301
261.731	-1506
261.793	-780
261.854	-2177
261.916	-507
261.978	-1873
262.040	-1546
262.102	-1060
262.164	-1442
262.225	-914
262.287	-821
262.349	-2032
262.411	-1483
262.472	-498
262.534	-2128
262.596	-1248
262.658	-684
262.719	-1573
262.781	-1252
262.843	-2004
262.904	-1005
262.966	-673
263.028	-1473
263.090	-1259
263.151	-1038
263.213	-1750
263.275	-1854
263.336	-951
263.398	-762
263.459	-1785
263.521	-1634
263.583	-1212
263.644	-982
263.706	-980
263.767	-1396
263.829	-477
263.891	-1415
263.952	-593
264.014	-1013
264.075	-1367
264.137	-1353
264.198	-1062
264.260	-1243
264.321	-693
264.383	-1184
264.444	-1370
264.506	-1476
264.567	97
264.629	-850
264.690	-2211
264.752	-1347
264.813	-1137
264.875	-1724
264.936	-780
264.998	-1260
265.059	-1496
265.120	-1051
265.182	-1417
265.243	-1546
265.305	-1637
265.366	-1411
265.427	-524
265.489	-475
265.550	-2165
265.611	-1067
265.673	-968
265.734	-1799
265.795	-845
265.857	-2086
265.918	-1759
265.979	-1409
266.040	-1141
266.102	-957
266.163	103
266.224	-1432
266.286	-341
266.347	-1716
266.408	-1124
266.469	-1390
266.530	-1359
266.592	-1363
266.653	-838
266.714	-1913
266.775	-1764
266.836	-1555
266.898	-1284
266.959	-2134
267.020	-1481
267.081	-621
267.142	-1114
267.203	-1531
267.264	-2082
267.326	-621
267.387	-1471
267.448	-1401
267.509	-532
267.570	-918
267.631	-1022
267.692	-1872
267.753	-392
267.814	-1496
267.875	-1063
267.936	-1292
267.997	-1294
268.058	-1241
268.119	-1865
268.180	-2132
268.241	-1843
268.302	-1391
268.363	-1524
268.424	-746
268.485	-710
268.546	-1981
268.607	-1055
268.668	-1664
268.729	-2420
268.790	-1718
268.851	-1291
268.912	-2202
268.972	-1773
269.033	-1821
269.094	-1452
269.155	-1039
269.216	-1395
269.277	-1299
269.338	-1060
269.398	-1247
269.459	-1555
269.520	-1187
269.581	-1132
269.642	-975
269.702	-1318
269.763	-1854
269.824	-969
269.885	-1480
269.945	-703
270.006	-1245
270.067	-1757
270.128	-1712
270.188	-1499
270.249	-2253
270.310	-1003
270.370	-1351
270.431	-1142
270.492	-1823
270.553	-1036
270.613	-1864
270.674	-903
270.734	-1353
270.795	-1722
270.856	-474
270.916	-1673
270.977	-1351
271.038	-649
271.098	-1361
271.159	-1094
271.219	-1647
271.280	-975
271.340	-383
271.401	-1405
271.462	-1440
271.522	-864
271.583	-1851
271.643	-1249
271.704	-1605
271.764	-1357
271.825	-1709
271.885	-1011
271.946	-813
272.006	182
272.066	-840
272.127	62
272.187	-74
272.248	-1010
272.308	-1266
272.369	-621
272.429	-941
272.489	-1229
272.550	-1009
272.610	-982
272.671	-1350
272.731	-952
272.791	-2336
272.852	-2123
272.912	-857
272.972	-1037
273.033	-1572
273.093	-1770
273.153	-1475
273.214	-620
273.274	-1361
273.334	-599
273.394	-1572
273.455	-981
273.515	-641
273.575	-1486
273.635	-859
273.696	-463
273.756	-724
273.816	-415
273.876	-755
273.936	-895
273.997	-1518
274.057	-1753
274.117	-903
274.177	-1225
274.237	-320
274.297	-479
274.358	-1022
274.418	-645
274.478	-1343
274.538	-1600
274.598	-2186
274.658	-402
274.718	-1187
274.778	-980
274.838	-1399
274.898	-1180
274.958	-1243
275.018	-1440
275.078	-905
275.138	-1114
275.198	-1591
275.258	-743
275.318	-1240
275.378	-1026
275.438	-2105
275.498	-1009
275.558	-1016
275.618	-1142
275.678	-1448
275.738	-1375
275.798	-1643
275.858	-900
275.918	-1986
275.978	-785
276.038	-1426
276.098	-1042
276.157	-1206
276.217	-411
276.277	-758
276.337	-1189
276.397	-1548
276.457	-1421
276.517	-1420
276.576	-582
276.636	-1979
276.696	-559
276.756	-713
276.815	-783
276.875	-1183
276.935	-1457
276.995	-1362
277.055	-869
277.114	-680
277.174	-1190
277.234	-1158
277.293	-1092
277.353	-913
277.413	-942
277.472	-1602
277.532	-813
277.592	-31
277.651	577
277.711	2278
277.771	-743
277.830	2450
277.890	2600
277.950	833
278.009	5795
278.069	1366
278.128	2486
278.188	2647
278.248	186
278.307	2668
278.367	2236
278.426	-684
278.486	-1192
278.545	-602
278.605	-652
278.664	-1416
278.724	-776
278.783	-899
278.843	326
278.902	-1342
278.962	-751
279.021	-772
279.081	1080
279.140	172
279.199	-264
279.259	-307
279.318	749
279.378	371
279.437	1017
279.496	4291
279.556	24846
279.615	16953
279.675	3649
279.734	1145
279.793	1952
279.853	1473
279.912	374
279.971	-365
280.031	-404
280.090	948
280.149	1800
280.208	2937
280.268	16802
280.327	15611
280.386	2888
280.445	982
280.505	-44
280.564	238
280.623	-311
280.682	-622
280.742	382
280.801	-775
280.860	-1129
280.919	-1297
280.978	-54
281.037	-542
281.097	-1237
281.156	-27
281.215	-857
281.274	-292
281.333	-615
281.392	-419
281.451	-1027
281.510	-1392
281.569	-472
281.628	-778
281.688	-1189
281.747	-1295
281.806	11
281.865	-981
281.924	-927
281.983	-421
282.042	-948
282.101	-1169
282.160	-227
282.219	-1716
282.278	-127
282.337	-794
282.396	-1166
282.454	-1080
282.513	-973
282.572	-334
282.631	-1066
282.690	-1449
282.749	-1719
282.808	-1586
282.867	-1453
282.926	-560
282.985	-563
283.043	-912
283.102	-1253
283.161	-1589
283.220	-470
283.279	-533
283.338	-863
283.396	-943
283.455	-574
283.514	-265
283.573	-244
283.631	-340
283.690	238
283.749	-1136
283.808	-171
283.866	-397
283.925	-8
283.984	191
284.043	-731
284.101	-901
284.160	-356
284.219	66
284.277	-229
284.336	-706
284.395	369
284.453	453
284.512	1422
284.570	1433
284.629	330
284.688	1234
284.746	1621
284.805	2669
284.863	3913
284.922	5029
284.981	7923
285.039	10837
285.098	12675
285.156	16154
285.215	19460
285.273	15005
285.332	15094
285.390	14586
285.449	11319
285.507	8772
285.566	6106
285.624	5017
285.683	3437
285.741	2441
285.799	1710
285.858	2019
285.916	1143
285.975	873
286.033	1018
286.091	170
286.150	-481
286.208	103
286.267	-160
286.325	77
286.383	-224
286.442	40
286.500	-503
286.558	131
286.616	-674
286.675	-573
286.733	-598
286.791	-975
286.850	-106
286.908	-741
286.966	-749
287.024	-512
287.083	-659
287.141	-1379
287.199	-216
287.257	-758
287.315	-449
287.374	-1136
287.432	-1154
287.490	-1332
287.548	-660
287.606	-1311
287.664	-707
287.723	-569
287.781	-260
287.839	-1412
287.897	-950
287.955	-881
288.013	-1237
288.071	-754
288.129	-443
288.187	136
288.245	-322
288.303	-1447
288.361	-1774
288.419	-1307
288.477	-796
288.535	-1086
288.593	-640
288.651	-399
288.709	-1328
288.767	-1716
288.825	-1172
288.883	-1698
288.941	-823
288.999	-850
289.057	-759
289.115	-1748
289.173	-951
289.231	-1316
289.289	-927
289.346	-1485
289.404	-1038
289.462	-1004
289.520	-1194
289.578	-1645
289.636	-820
289.694	-1442
289.751	-337
289.809	-1457
289.867	-957
289.925	-902
289.983	-1450
290.040	-827
290.098	-2055
290.156	-1837
290.214	-1467
290.271	-1393
290.329	-1037
290.387	-1748
290.444	-1281
290.502	-1308
290.560	-1211
290.617	-1443
290.675	-1856
290.733	-1090
290.790	-643
290.848	-1146
290.906	-1056
290.963	-1401
291.021	-1238
291.078	-1228
291.136	-1471
291.194	-1804
291.251	-981
291.309	-1025
291.366	-1169
291.424	-1074
291.481	-620
291.539	-1317
291.596	-484
291.654	-1388
291.711	-984
291.769	-1342
291.826	-641
291.884	-1933
291.941	-1062
291.999	-1208
292.056	-880
292.114	-1689
292.171	-1052
292.228	-801
292.286	-1486
292.343	-1413
292.401	-1082
292.458	-1215
292.515	-973
292.573	-1157
292.630	-339
292.687	-1280
292.745	-1339
292.802	-787
292.859	-412
292.917	-109
292.974	-1045
293.031	-989
293.089	-843
293.146	-1080
293.203	-1418
293.260	-1668
293.318	-1065
293.375	-1398
293.432	-1416
293.489	-1426
293.546	-195
293.604	-1152
293.661	-747
293.718	224
293.775	72
293.832	-698
293.889	-64
293.947	-816
294.004	-1436
294.061	-965
294.118	-940
294.175	-1091
294.232	28
294.289	-1336
294.346	-1340
294.403	-748
294.460	-671
294.517	-2490
294.574	-1195
294.631	-1127
294.688	-1506
294.745	-1282
294.802	-627
294.859	-1207
294.916	-1585
294.973	-1666
295.030	-1208
295.087	-1328
295.144	-788
295.201	-1173
295.258	-1712
295.315	-1332
295.372	-1136
295.429	-848
295.486	-1237
295.542	-1879
295.599	-859
295.656	-769
295.713	-1117
295.770	-141
295.827	-1163
295.883	-1735
295.940	-1552
295.997	-864
296.054	-1224
296.111	-1578
296.167	-1089
296.224	-1388
296.281	-1037
296.338	-1858
296.394	-816
296.451	-1730
296.508	-1144
296.564	-973
296.621	-781
296.678	-725
296.734	-549
296.791	-1574
296.848	-577
296.904	-1781
296.961	-1450
297.018	-49
297.074	-1198
297.131	-1281
297.187	-1783
297.244	-1310
297.301	-633
297.357	-131
297.414	-1659
297.470	-1453
297.527	-1541
297.583	-710
297.640	-1038
297.696	-1428
297.753	-1686
297.809	-1458
297.866	-1481
297.922	-910
297.979	-1404
298.035	-1338
298.092	-940
298.148	-1783
298.204	-806
298.261	-2153
298.317	49
298.374	-1316
298.430	-1384
298.486	-1501
298.543	-1468
298.599	-1279
298.656	-1639
298.712	-1531
298.768	-1342
298.824	-1124
298.881	-1869
298.937	-912
298.993	-1720
299.050	-1875
299.106	-1343
299.162	-1917
299.218	-1606
299.275	-2318
299.331	-1002
299.387	-1474
299.443	-508
299.500	1990
299.556	1986
299.612	-153
299.668	-445
299.724	849
299.780	1960
299.837	-140
299.893	-576
299.949	-616
300.005	1267
300.061	818
300.117	2768
300.173	839
300.229	-360
300.285	-1401
300.341	-957
300.397	-1394
300.453	-1525
300.510	-1264
300.566	-759
300.622	-1017
300.678	2306
300.734	3665
300.790	1910
300.845	508
300.901	1407
300.957	1884
301.013	663
301.069	-772
301.125	-761
301.181	-1389
301.237	-1495
301.293	-1517
301.349	-740
301.405	-1381
301.461	-1476
301.516	-758
301.572	-1034
301.628	-1749
301.684	-1916
301.740	-1642
301.796	-1415
301.851	-1589
301.907	-1446
301.963	-1683
302.019	-1205
302.074	175
302.130	1352
302.186	-473
302.242	-1449
302.297	-1126
302.353	-1355
302.409	-1225
302.464	-1409
302.520	-1841
302.576	-311
302.631	-919
302.687	-1613
302.743	-1299
302.798	-1169
302.854	-1992
302.910	-486
302.965	-1983
303.021	-1404
303.076	-1370
303.132	-1706
303.187	-1573
303.243	-1544
303.299	-704
303.354	-1947
303.410	-677
303.465	-1888
303.521	-1743
303.576	-1730
303.632	-1661
303.687	-1447
303.743	-1025
303.798	-1156
303.853	-1387
303.909	-712
303.964	-1479
304.020	-2446
304.075	-1228
304.130	-2013
304.186	-1357
304.241	-352
304.297	-1423
304.352	-1323
304.358	-1342
304.407	-1501
304.449	-1186
304.463	-1080
304.518	-2021
304.539	-1985
304.573	-1940
304.629	-1437
304.630	-1436
304.684	-1473
304.720	-1090
304.739	-890
304.794	-399
304.811	-365
304.850	-344
304.902	-1228
304.905	-1284
304.960	-1279
304.992	-1587
305.015	-1831
305.071	-1278
305.083	-1222
305.126	-956
305.173	-1636
305.181	-1763
305.236	-938
305.264	-1314
305.292	-1691
305.347	-1136
305.354	-1151
305.402	-1159
305.445	-775
305.457	-684
305.512	-1474
305.535	-1426
305.567	-1384
305.622	-1420
305.626	-1405
305.678	-1007
305.716	-945
305.733	-945
305.788	-811
305.807	-765
305.843	-599
305.897	-292
305.898	-290
305.953	-314
305.988	-501
306.008	-577
306.063	-852
306.078	-844
306.118	-752
306.168	-1286
306.173	-1342
306.228	-312
306.259	-462
306.283	-531
306.338	-438
306.349	-505
306.393	-961
306.440	-1039
306.448	-990
306.503	-927
306.530	-829
306.558	-883
306.613	-1019
306.620	-961
306.668	-315
306.711	-511
306.723	-651
306.778	-422
306.801	-669
306.833	-924
306.888	-998
306.892	-980
306.943	-553
306.982	-789
306.997	-915
307.052	-1011
307.072	-985
307.107	-789
307.162	-649
307.163	-651
307.217	-782
307.253	-736
307.272	-669
307.327	-540
307.343	-504
307.381	-387
307.434	-466
307.436	-461
307.491	-806
307.524	-521
307.546	-444
307.600	-935
307.614	-927
307.655	-807
307.704	-869
307.710	-856
307.765	-650
307.795	-584
307.819	-606
307.874	-174
307.885	-233
307.929	-397
307.975	-510
307.984	-524
308.038	-278
308.065	-372
308.093	-244
308.148	390
308.156	570
308.202	1606
308.246	2309
308.257	2272
308.312	928
308.336	433
308.366	111
308.421	128
308.426	40
308.475	-437
308.517	-209
308.530	-185
308.585	-292
308.607	-276
308.639	-83
308.694	205
308.697	201
308.748	-17
308.787	-292
308.803	-394
308.857	46
308.877	6
308.912	222
308.967	296
308.967	301
309.021	1372
309.058	2031
309.076	2495
309.130	4603
309.148	5043
309.185	6648
309.238	9142
309.239	9200
309.293	12139
309.328	12859
309.348	11432
309.402	6751
309.418	5255
309.457	3796
309.508	2708
309.511	2771
309.566	4177
309.598	5162
309.620	7067
309.674	12729
309.688	14217
309.729	13197
309.778	10128
309.783	9794
309.837	5687
309.868	3370
309.892	2872
309.946	2027
309.959	1812
310.001	1454
310.049	1437
310.055	1381
310.109	816
310.139	496
310.163	364
310.218	62
310.229	-9
310.272	114
310.319	309
310.326	281
310.381	197
310.409	32
310.435	35
310.489	15
310.499	35
310.543	160
310.589	192
310.598	182
310.652	195
310.679	156
310.706	316
310.760	459
310.769	505
310.814	458
310.859	444
310.868	466
310.923	327
310.948	381
310.977	525
311.031	520
311.038	529
311.085	393
311.128	263
311.139	345
311.193	749
311.218	889
311.247	683
311.301	263
311.308	218
311.356	245
311.398	175
311.410	217
311.464	430
311.488	516
311.518	372
311.572	101
311.578	60
311.626	208
311.668	403
311.680	434
311.734	443
311.758	465
311.788	505
311.842	583
311.847	581
311.896	504
311.937	438
311.950	454
312.004	489
312.027	500
312.058	692
312.112	1034
312.117	1062
312.165	738
312.207	454
312.297	-83
312.386	1146
312.476	662
312.566	706
312.656	790
312.745	54
312.835	971
312.925	665
313.015	1071
313.104	225
313.194	707
313.284	316
313.374	618
313.463	729
313.553	1261
313.643	606
313.732	812
313.822	-267
313.912	1173
314.001	1113
314.091	913
314.180	543
314.270	1397
314.360	989
314.449	237
314.539	216
314.628	907
314.718	1617
314.808	1292
314.897	1210
314.987	1390
315.076	1013
315.166	1295
315.255	1298
315.345	646
315.434	491
315.524	1328
315.613	1013
315.703	1908
315.792	4213
315.881	10786
315.971	3294
316.060	1879
316.150	1773
316.239	1419
316.328	1057
316.418	867
316.507	1518
316.597	985
316.686	1461
316.775	1277
316.865	920
316.954	156
317.043	916
317.133	420
317.222	449
317.311	1202
317.400	-17
317.490	1187
317.579	816
317.668	644
317.757	1566
317.847	6084
317.936	18437
318.025	5611
318.114	3692
318.203	1224
318.293	1303
318.382	2157
318.471	1874
318.560	2307
318.649	1055
318.738	888
318.828	464
318.917	734
319.006	460
319.095	559
319.184	560
319.273	805
319.362	302
319.451	369
319.540	877
319.629	920
319.718	412
319.807	591
319.896	1144
319.985	584
320.074	555
320.163	670
320.252	723
320.341	626
320.430	749
320.519	497
320.608	259
320.697	1675
320.786	802
320.875	1586
320.964	1921
321.053	1374
321.142	1461
321.230	2760
321.319	2104
321.408	3176
321.497	3597
321.586	1959
321.675	1476
321.764	1859
321.852	1531
321.941	1263
322.030	1041
322.119	1201
322.207	2668
322.296	2500
322.385	3364
322.474	4043
322.562	3602
322.651	3361
322.740	1848
322.829	2148
322.917	625
323.006	851
323.095	976
323.183	16
323.272	1117
323.361	678
323.449	1246
323.538	254
323.626	661
323.715	723
323.804	617
323.892	494
323.981	533
324.069	539
324.158	668
324.246	1028
324.335	528
324.424	680
324.512	643
324.601	662
324.689	462
324.778	671
324.866	605
324.954	846
325.043	517
325.131	-184
325.220	1237
325.308	749
325.397	355
325.485	446
325.574	528
325.662	788
325.750	-20
325.839	290
325.927	953
326.015	331
326.104	-67
326.192	320
326.280	430
326.369	479
326.457	212
326.545	827
326.634	501
326.722	805
326.810	690
326.898	1533
326.987	285
327.075	-242
327.163	828
327.251	473
327.340	784
327.428	342
327.516	1290
327.604	746
327.692	649
327.781	423
327.869	402
327.957	-10
328.045	458
328.133	818
328.221	-20
328.309	53
328.397	501
328.485	950
328.574	351
328.662	2800
328.750	784
328.838	719
328.926	953
329.014	961
329.102	1534
329.190	625
329.278	645
329.366	503
329.454	228
329.542	231
329.630	516
329.718	826
329.806	287
329.893	1440
329.981	82
330.069	363
330.157	509
330.245	1042
330.333	974
330.421	369
330.509	-57
330.597	1304
330.684	115
330.772	113
330.860	540
330.948	412
331.036	322
331.123	-25
331.211	-67
331.299	788
331.387	-180
331.475	583
331.562	-60
331.650	253
331.738	421
331.825	597
331.913	255
332.001	639
332.089	1122
332.176	449
332.264	278
332.352	-47
332.439	-336
332.527	459
332.614	559
332.702	331
332.790	831
332.877	466
332.965	1884
333.052	834
333.140	2136
333.228	4913
333.315	1432
333.403	823
333.490	805
333.578	2072
333.665	7851
333.753	3218
333.840	621
333.928	273
334.015	1012
334.103	1201
334.190	1484
334.278	2290
334.365	3850
334.452	4852
334.540	2259
334.627	1022
334.715	3287
334.802	3266
334.889	5944
334.977	12490
335.064	8069
335.151	3068
335.239	1993
335.326	1088
335.413	1989
335.501	1499
335.588	1591
335.675	832
335.762	2272
335.850	2055
335.937	4233
336.024	7015
336.111	15510
336.199	17075
336.286	6336
336.373	3243
336.460	1346
336.547	1409
336.635	1044
336.722	1024
336.809	759
336.896	678
336.983	74
337.070	1525
337.157	878
337.245	480
337.332	612
337.419	485
337.506	918
337.593	586
337.680	1116
337.767	995
337.854	368
337.941	94
338.028	354
338.115	-121
338.202	1474
338.289	-254
338.376	32
338.463	420
338.550	154
338.637	373
338.724	521
338.811	607
338.898	931
338.984	349
339.071	-57
339.158	249
339.245	250
339.332	524
339.419	389
339.506	1341
339.593	-24
339.679	488
339.766	177
339.853	819
339.940	504
340.027	308
340.113	1159
340.200	819
340.287	322
340.374	155
340.460	743
340.547	-434
340.634	654
340.720	608
340.807	21
340.894	401
340.980	815
341.067	-53
341.154	1614
341.240	916
341.327	251
341.414	504
341.500	-213
341.587	1232
341.674	351
341.760	1102
341.847	51
341.933	438
342.020	-273
342.106	784
342.193	1087
342.279	303
342.366	-33
342.452	-73
342.539	-350
342.625	1186
342.712	-28
342.798	682
342.885	658
342.971	27
343.058	154
343.144	-582
343.230	-149
343.317	101
343.403	-226
343.490	586
343.576	26
343.662	810
343.749	-64
343.835	152
343.921	-546
344.008	1916
344.094	3570
344.180	1321
344.267	786
344.353	211
344.439	370
344.525	214
344.612	774
344.698	11
344.784	-63
344.870	930
344.957	-671
345.043	1061
345.129	15
345.215	400
345.301	-327
345.387	450
345.474	578
345.560	319
345.646	125
345.732	641
345.818	179
345.904	553
345.990	-267
346.076	222
346.162	-403
346.249	550
346.335	496
346.421	279
346.507	-2
346.593	244
346.679	-448
346.765	1681
346.851	1231
346.937	319
347.023	768
347.108	592
347.194	115
347.280	1118
347.366	913
347.452	3571
347.538	2518
347.624	2810
347.710	615
347.796	661
347.882	269
347.967	718
348.053	423
348.139	706
348.225	-565
348.311	591
348.397	331
348.482	587
348.568	1336
348.654	712
348.740	4210
348.825	3182
348.911	2806
348.997	430
349.083	1851
349.168	197
349.254	400
349.340	107
349.425	775
349.511	378
349.597	341
349.682	-44
349.768	938
349.854	396
349.939	175
350.025	512
350.110	1018
350.196	171
350.282	-490
350.367	1207
350.453	846
350.538	-128
350.624	-2
350.709	163
350.795	-623
350.880	33
350.966	8
351.051	592
351.137	889
351.222	1079
351.308	325
351.393	811
351.479	-255
351.564	696
351.649	207
351.735	942
351.820	844
351.906	215
351.991	-351
352.076	-9
352.162	645
352.247	448
352.332	42
352.418	355
352.503	668
352.588	1294
352.673	504
352.759	116
352.844	314
352.929	-56
353.014	67
353.100	446
353.185	32
353.270	-479
353.355	631
353.441	862
353.526	495
353.611	704
353.696	-37
353.781	1091
353.866	-644
353.952	722
354.037	-925
354.122	388
354.207	220
354.292	461
354.377	307
354.462	677
354.547	26
354.632	-57
354.717	433
354.802	-129
354.887	-392
354.972	515
355.057	799
355.142	-325
355.227	498
355.312	289
355.397	373
355.482	390
355.567	-552
355.652	1265
355.737	981
355.822	1130
355.907	-107
355.991	1233
356.076	171
356.161	641
356.246	62
356.331	28
356.416	138
356.501	2365
356.585	927
356.670	-522
356.755	2084
356.840	1075
356.924	1681
357.009	3348
357.094	1736
357.179	355
357.263	581
357.348	1083
357.433	526
357.517	339
357.602	-114
357.687	-199
357.771	-17
357.856	237
357.941	484
358.025	1323
358.110	5064
358.195	3208
358.279	-500
358.364	636
358.448	1260
358.533	1383
358.617	996
358.702	1433
358.787	432
358.871	105
358.956	234
359.040	389
359.125	-118
359.209	988
359.294	402
359.378	731
359.462	930
359.547	-486
359.631	-53
359.716	70
359.800	-308
359.885	1491
359.969	-532
360.053	363
360.138	804
360.222	-189
360.306	815
360.391	588
360.475	-247
360.559	-138
360.644	600
360.728	144
360.812	1146
360.896	1702
360.981	1112
361.065	45
361.149	994
361.233	508
361.318	-329
361.402	5
361.486	829
361.570	-99
361.654	-509
361.739	175
361.823	825
361.907	2934
361.991	442
362.075	798
362.159	613
362.243	3541
362.327	7853
362.411	18300
362.495	5743
362.580	2496
362.664	1809
362.748	2255
362.832	3321
362.916	5948
363.000	26921
363.084	45413
363.168	14763
363.252	3790
363.336	2308
363.420	1791
363.503	959
363.587	695
363.671	989
363.755	726
363.839	2408
363.923	442
364.007	2256
364.091	2364
364.175	1702
364.258	9796
364.342	25963
364.426	64990
364.510	33780
364.594	8767
364.677	3816
364.761	1612
364.845	1837
364.929	771
365.013	982
365.096	1090
365.180	118
365.264	821
365.347	1406
365.431	636
365.515	-471
365.598	-422
365.682	1518
365.766	38
365.849	425
365.933	-31
366.017	2323
366.100	-327
366.184	460
366.267	1453
366.351	621
366.435	43
366.518	293
366.602	453
366.685	587
366.769	646
366.852	587
366.936	856
367.019	560
367.103	-512
367.186	1337
367.270	509
367.353	-31
367.436	1607
367.520	1113
367.603	1038
367.687	-478
367.770	204
367.853	662
367.937	1821
368.020	260
368.104	-351
368.187	277
368.270	230
368.353	177
368.437	673
368.520	583
368.603	314
368.687	393
368.770	1072
368.853	-341
368.936	1210
369.020	926
369.103	-320
369.186	-250
369.269	-267
369.352	821
369.436	46
369.519	1378
369.602	-668
369.685	1771
369.768	-530
369.851	1225
369.934	-156
370.018	-247
370.101	-333
370.184	3069
370.267	1115
370.350	764
370.433	418
370.516	2361
370.599	6524
370.682	994
370.765	2570
370.848	2503
370.931	-334
371.014	2199
371.097	346
371.180	2470
371.263	2259
371.346	-52
371.429	2040
371.511	1200
371.594	1129
371.677	1608
371.760	2752
371.843	1560
371.926	3707
372.009	6000
372.091	6033
372.174	2716
372.257	3578
372.340	1881
372.423	2341
372.505	2749
372.588	1284
372.671	1942
372.754	983
372.836	1694
372.919	526
373.002	1779
373.085	1307
373.167	1509
373.250	1239
373.332	1710
373.415	4140
373.498	5329
373.580	3859
373.663	8626
373.746	9042
373.828	1681
373.911	1618
373.993	-82
374.076	1101
374.159	211
374.241	810
374.324	1446
374.406	1962
374.489	1338
374.571	4083
374.654	1499
374.736	1783
374.819	1941
374.901	4618
374.983	3790
375.066	1631
375.148	1058
375.231	738
375.313	2197
375.395	864
375.478	1031
375.560	1098
375.643	1387
375.725	1687
375.807	1369
375.890	3237
375.972	-656
376.054	1219
376.136	898
376.219	542
376.301	1601
376.383	1122
376.465	702
376.548	-54
376.630	-145
376.712	1664
376.794	614
376.877	267
376.959	53
377.041	379
377.123	631
377.205	881
377.287	78
377.369	1266
377.452	450
377.534	867
377.616	1136
377.698	837
377.780	-38
377.862	741
377.944	1484
378.026	-471
378.108	931
378.190	823
378.272	1023
378.354	178
378.436	-244
378.518	-693
378.600	-1
378.682	1115
378.764	526
378.846	-142
378.928	-347
379.010	-281
379.091	1962
379.173	896
379.255	-318
379.337	-70
379.419	367
379.501	1964
379.583	562
379.664	-198
379.746	-390
379.828	2066
379.910	951
379.991	1352
380.073	-113
380.155	314
380.237	-144
380.318	481
380.400	-262
380.482	448
380.564	260
380.645	-228
380.727	565
380.809	1082
380.890	473
380.972	-396
381.053	906
381.135	1539
381.217	-44
381.298	2621
381.380	407
381.461	200
381.543	1379
381.624	2091
381.706	1178
381.787	1167
381.869	948
381.951	1292
382.032	2785
382.113	5081
382.195	-317
382.276	3165
382.358	1292
382.439	1841
382.521	4022
382.602	4889
382.684	3610
382.765	6466
382.846	18965
382.928	57021
383.009	30133
383.090	18814
383.172	68279
383.253	99605
383.334	28225
383.416	8897
383.497	7047
383.578	6931
383.659	15114
383.741	53231
383.822	131087
383.903	66322
383.984	13078
384.066	8003
384.147	4522
384.228	3997
384.309	2840
384.390	2290
384.471	2052
384.553	1433
384.634	1779
384.715	2136
384.796	1782
384.877	838
384.958	2145
385.039	439
385.120	1216
385.201	2549
385.282	1031
385.363	1707
385.444	1636
385.525	1533
385.606	1973
385.687	1223
385.768	2250
385.849	969
385.930	3381
386.011	4916
386.092	1632
386.173	1069
386.254	1040
386.335	1554
386.416	818
386.496	1547
386.577	1534
386.658	708
386.739	340
386.820	1638
386.901	511
386.981	1455
387.062	1437
387.143	1568
387.224	2042
387.304	4111
387.385	3253
387.466	784
387.547	3020
387.627	1885
387.708	2649
387.789	3607
387.869	1772
387.950	2521
388.031	2109
388.111	-527
388.192	1342
388.273	2102
388.353	857
388.434	673
388.514	442
388.595	1819
388.676	1562
388.756	1328
388.837	1588
388.917	-84
388.998	-656
389.078	2191
389.159	600
389.239	-635
389.320	2608
389.400	-515
389.480	1528
389.561	48
389.641	1924
389.722	693
389.802	511
389.883	906
389.963	1320
390.043	644
390.124	-329
390.204	1174
390.284	821
390.365	-259
390.445	756
390.525	501
390.605	254
390.686	-333
390.766	1687
390.846	1612
390.927	379
391.007	-418
391.087	1144
391.167	554
391.247	-20
391.328	1345
391.408	1058
391.488	1782
391.568	-768
391.648	789
391.728	594
391.808	1606
391.888	1138
391.969	841
392.049	236
392.129	1925
392.209	1151
392.289	2807
392.369	2162
392.449	1214
392.529	2155
392.609	3317
392.689	3093
392.769	3060
392.849	4315
392.929	7186
393.009	7977
393.089	11666
393.169	23595
393.248	64267
393.328	177098
393.408	179486
393.488	68529
393.568	22411
393.648	10932
393.728	6968
393.807	4355
393.887	4794
393.967	2999
394.047	2090
394.127	1146
394.206	2366
394.286	2207
394.366	6470
394.446	8278
394.525	1712
394.605	947
394.685	1158
394.764	1754
394.844	3088
394.924	4642
395.003	1281
395.083	1053
395.163	898
395.242	783
395.322	496
395.402	-503
395.481	2572
395.561	979
395.640	6093
395.720	14004
395.799	5892
395.879	805
395.958	1644
396.038	2196
396.117	9935
396.197	10079
396.276	3808
396.356	1562
396.435	2901
396.515	4949
396.594	7044
396.673	17909
396.753	62510
396.832	158930
396.912	114143
396.991	29121
397.070	11400
397.150	5098
397.229	6032
397.308	10748
397.388	21385
397.467	9807
397.546	2594
397.625	-421
397.705	3587
397.784	1483
397.863	833
397.942	1458
398.022	285
398.101	-150
398.180	799
398.259	524
398.338	1037
398.417	289
398.497	258
398.576	1521
398.655	-217
398.734	1516
398.813	879
398.892	1152
398.971	684
399.050	-497
399.129	178
399.208	722
399.287	1153
399.366	-197
399.445	-101
399.524	128
399.603	-1623
399.682	70
399.761	159
399.840	760
399.919	664
399.998	360
400.077	-1030
400.156	-1613
400.235	2293
400.313	-945
400.392	-1061
400.471	651
400.550	793
400.629	-242
400.708	305
400.786	-359
400.865	-683
400.944	-991
401.023	1141
401.102	-272
401.180	204
401.259	108
401.338	-641
401.416	100
401.495	-916
401.574	398
401.652	-697
401.731	1000
401.810	-973
401.888	74
401.967	-540
402.046	-508
402.124	491
402.203	-1337
402.281	481
402.360	-892
402.438	411
402.517	-1253
402.596	-200
402.674	-989
402.753	-341
402.831	780
402.910	482
402.988	-454
403.066	-286
403.145	865
403.223	919
403.302	-770
403.380	678
403.459	95
403.537	94
403.615	-196
403.694	-1059
403.772	830
403.850	-816
403.929	-184
404.007	-988
404.085	578
404.164	-783
404.242	-461
404.320	303
404.398	715
404.477	-397
404.555	1673
404.633	484
404.711	-62
404.789	937
404.868	-258
404.946	-884
405.024	1
405.102	-1000
405.180	-2025
405.258	-1879
405.336	215
405.415	-1417
405.493	371
405.571	87
405.649	-1162
405.727	-561
405.805	541
405.883	-14
405.961	18
406.039	-100
406.117	-1913
406.195	-611
406.273	-2103
406.351	474
406.429	536
406.507	-1185
406.585	-1001
406.663	157
406.740	-637
406.818	-1571
406.896	-866
406.974	701
407.052	-2158
407.130	-473
407.208	495
407.285	-287
407.363	-980
407.441	-465
407.519	-247
407.596	-549
407.674	-298
407.752	912
407.830	770
407.907	484
407.985	-1292
408.063	48
408.141	-576
408.218	1259
408.296	-1692
408.373	-1390
408.451	403
408.529	223
408.606	-152
408.684	461
408.762	42
408.839	-238
408.917	-325
408.994	46
409.072	-670
409.149	107
409.227	2229
409.304	2644
409.382	3338
409.459	4462
409.537	6266
409.614	4127
409.692	2603
409.769	2123
409.846	5743
409.924	8184
410.001	2203
410.079	1575
410.156	1919
410.233	1080
410.311	-17
410.388	-237
410.465	740
410.543	-753
410.620	849
410.697	835
410.775	773
410.852	-745
410.929	836
411.006	1177
411.083	-94
411.161	190
411.238	655
411.315	284
411.392	-264
411.469	-48
411.547	-79
411.624	-610
411.701	-351
411.778	-45
411.855	-466
411.932	-86
412.009	-551
412.086	-283
412.163	119
412.240	623
412.317	851
412.394	510
412.471	-153
412.548	-599
412.625	-290
412.702	-855
412.779	-502
412.856	-625
412.933	-1197
413.010	-65
413.087	-241
413.164	-1514
413.241	-646
413.318	-709
413.395	-148
413.471	-117
413.548	-371
413.625	168
413.702	-1145
413.779	-100
413.855	-644
413.932	-1163
414.009	-1275
414.086	-90
414.162	389
414.239	-199
414.316	-443
414.393	75
414.469	-1258
414.546	-460
414.623	-623
414.699	-66
414.776	-957
414.853	-1270
414.929	322
415.006	-979
415.082	-3
415.159	-368
415.236	-229
415.312	265
415.389	-107
415.465	-1264
415.542	-173
415.618	-889
415.695	-126
415.771	-1141
415.848	-375
415.924	-719
416.000	-742
416.077	445
416.153	-1736
416.230	-1538
416.306	-99
416.383	-557
416.459	644
416.535	-718
416.612	-905
416.688	109
416.764	-538
416.841	-965
416.917	-823
416.993	-265
417.069	-1448
417.146	-946
417.222	-1201
417.298	-661
417.374	-901
417.451	-245
417.527	-1265
417.603	-988
417.679	-1048
417.755	-407
417.831	-1132
417.908	-409
417.984	-503
418.060	-1852
418.136	-545
418.212	-374
418.288	-165
418.364	-180
418.440	-1237
418.516	-39
418.592	-977
418.668	-1132
418.744	-1232
418.820	-548
418.896	-1003
418.972	-1002
419.048	-334
419.124	-235
419.200	-1051
419.276	-630
419.352	-1072
419.428	-11
419.504	-1247
419.579	-576
419.655	-1043
419.731	-791
419.807	-901
419.883	-862
419.959	-582
420.034	322
420.110	-760
420.186	-695
420.262	428
420.337	-438
420.413	-558
420.489	-172
420.565	1160
420.640	259
420.716	855
420.792	-347
420.867	630
420.943	29
421.019	526
421.094	355
421.170	900
421.245	319
421.321	1183
421.397	669
421.472	2548
421.548	1898
421.623	2678
421.699	2830
421.774	3495
421.850	2472
421.925	4519
422.001	6185
422.076	6816
422.152	8755
422.227	13133
422.302	18544
422.378	26452
422.453	42544
422.529	69360
422.604	93191
422.679	85064
422.755	87532
422.830	72092
422.905	45718
422.981	29063
423.056	20746
423.131	14732
423.207	10374
423.282	8382
423.357	6627
423.432	4980
423.508	4519
423.583	3316
423.658	3701
423.733	3123
423.808	3001
423.883	2637
423.959	2725
424.034	3004
424.109	3308
424.184	1611
424.259	1006
424.334	1331
424.409	-129
424.484	1266
424.559	195
424.634	530
424.709	573
424.784	269
424.859	30
424.934	-33
425.009	502
425.084	411
425.159	-240
425.234	688
425.309	-742
425.384	553
425.459	-828
425.534	143
425.609	-493
425.683	-1324
425.758	-464
425.833	363
425.908	179
425.983	-902
426.058	423
426.132	-267
426.207	341
426.282	954
426.357	-352
426.431	-707
426.506	507
426.581	95
426.655	-268
426.730	-160
426.805	-1374
426.879	517
426.954	-40
427.029	-978
427.103	-693
427.178	-122
427.253	-1299
427.327	-309
427.402	-1590
427.476	-1001
427.551	-920
427.625	-431
427.700	-307
427.774	-1319
427.849	92
427.923	-1336
427.998	-508
428.072	-1223
428.147	532
428.221	8950
428.296	31424
428.370	16190
428.444	1684
428.519	-254
428.593	-761
428.667	199
428.742	239
428.816	2975
428.890	17768
428.965	28623
429.039	6595
429.113	-337
429.188	-304
429.262	-722
429.336	-51
429.410	-418
429.485	16
429.559	-272
429.633	-416
429.707	-540
429.781	1039
429.855	17111
429.930	26506
430.004	5325
430.078	1313
430.152	8943
430.226	40560
430.300	42728
430.374	6698
430.448	1709
430.522	14
430.596	81
430.670	3185
430.744	23376
430.818	26674
430.892	3032
430.966	-765
431.040	-615
431.114	-1797
431.188	-976
431.262	-1267
431.336	-719
431.410	-112
431.484	-1830
431.557	-641
431.631	-645
431.705	345
431.779	6324
431.853	30030
431.927	19502
432.000	1968
432.074	112
432.148	-273
432.222	-1312
432.295	-675
432.369	-1287
432.443	-1540
432.516	-956
432.590	164
432.664	64
432.737	-1290
432.811	-1828
432.885	-1155
432.958	-505
433.032	-1817
433.106	-1184
433.179	-1111
433.253	-1288
433.326	-1248
433.400	-914
433.473	-1056
433.547	-1690
433.620	-581
433.694	-1147
433.767	-1466
433.841	-1839
433.914	-1102
433.988	-1131
434.061	-429
434.134	-1652
434.208	-872
434.281	-1705
434.355	-2077
434.428	-593
434.501	-1300
434.575	-1074
434.648	-1892
434.721	-1230
434.795	-1225
434.868	-1678
434.941	-2239
435.014	-1168
435.088	-1485
435.161	-247
435.234	-352
435.307	-824
435.381	181
435.454	1011
435.527	3018
435.600	3134
435.673	1217
435.746	717
435.819	672
435.892	-397
435.966	-566
436.039	-1182
436.112	-424
436.185	-1326
436.258	-576
436.331	-1617
436.404	-932
436.477	-875
436.550	-760
436.623	-1076
436.696	-1206
436.769	-1197
436.842	-1133
436.915	-1002
436.987	-1411
437.060	-1540
437.133	-1225
437.206	-1122
437.279	-315
437.352	-1710
437.425	-1055
437.498	-601
437.570	-778
437.643	-2197
437.716	-1136
437.789	-965
437.861	-1297
437.934	-1028
438.007	-1211
438.080	-1322
438.152	-792
438.225	-943
438.298	-670
438.370	716
438.443	170
438.516	-653
438.588	-699
438.661	-1548
438.734	-494
438.806	-396
438.879	-1248
438.951	-696
439.024	-1068
439.096	-1883
439.169	-1555
439.241	-1023
439.314	-1106
439.386	-1676
439.459	-859
439.531	-1257
439.604	-1727
439.676	-434
439.749	-1101
439.821	-1015
439.893	-969
439.966	-1097
440.038	-1044
440.110	-1772
440.183	-2080
440.255	-1035
440.327	-1402
440.400	-904
440.472	193
440.544	-481
440.617	-533
440.689	-182
440.761	-794
440.833	-898
440.905	-1084
440.978	-1484
441.050	-1113
441.122	-8
441.194	-1488
441.266	-572
441.338	-1299
441.411	-1081
441.483	174
441.555	-1013
441.627	-1138
441.699	-1020
441.771	-742
441.843	-240
441.915	-1071
441.987	-691
442.059	-887
442.131	-1774
442.203	-300
442.275	-702
442.347	986
442.419	3028
442.491	22667
442.563	50887
442.635	20102
442.706	3535
442.778	565
442.850	-630
442.922	-402
442.994	-408
443.066	-423
443.137	229
443.209	678
443.281	1651
443.353	5990
443.425	24511
443.496	78418
443.568	82584
443.640	32308
443.711	6094
443.783	1874
443.855	412
443.926	-481
443.998	-501
444.070	472
444.141	-394
444.213	-411
444.285	265
444.356	-909
444.428	-545
444.499	-460
444.571	-618
444.642	-720
444.714	-276
444.785	-437
444.857	-151
444.928	-412
445.000	166
445.071	734
445.143	897
445.214	1890
445.285	3429
445.357	13169
445.428	50293
445.500	98174
445.571	73796
445.642	49101
445.714	15744
445.785	5029
445.856	1240
445.928	334
445.999	67
446.070	-214
446.141	-422
446.213	-872
446.284	-361
446.355	-12
446.426	-678
446.497	-795
446.569	-812
446.640	-1950
446.711	-726
446.782	-1107
446.853	-78
446.924	-495
446.995	-1500
447.066	-1014
447.138	-1642
447.209	-721
447.280	-1273
447.351	-1104
447.422	-1738
447.493	-1485
447.564	-1557
447.635	-1801
447.706	-1337
447.777	-1676
447.847	-1608
447.918	-2557
447.989	-1429
448.060	-425
448.131	-1785
448.202	-1647
448.273	-1238
448.344	-1722
448.414	-1689
448.485	-1012
448.556	-1254
448.627	-2093
448.698	-614
448.768	-1288
448.839	-1780
448.910	-1499
448.981	-1420
449.051	-873
449.122	-1612
449.193	-750
449.263	-1063
449.334	-1192
449.405	-1062
449.475	-1707
449.546	-1382
449.616	-1242
449.687	-1097
449.758	-1355
449.828	-1530
449.899	-1050
449.969	-1841
450.040	-1733
450.110	-723
450.181	-1115
450.251	-1777
450.322	-1269
450.392	-1376
450.463	-1774
450.533	-1249
450.604	-1010
450.674	-1644
450.744	-383
450.815	-909
450.885	-343
450.955	-853
451.026	-1673
451.096	-1331
451.166	-1187
451.237	-1119
451.307	-746
451.377	-1329
451.447	-1048
451.518	-1221
451.588	-954
451.658	-1450
451.728	-1809
451.799	-1035
451.869	-1893
451.939	-1506
452.009	-1456
452.079	-789
452.149	-553
452.219	-651
452.289	-1069
452.360	-1444
452.430	-1192
452.500	-629
452.570	371
452.640	2109
452.710	7313
452.780	8433
452.850	3100
452.920	257
452.990	-724
453.060	-578
453.129	-1864
453.199	-1741
453.269	-923
453.339	-916
453.409	-922
453.479	-970
453.549	-760
453.619	-689
453.688	-1882
453.758	-694
453.828	-1451
453.898	-1418
453.968	-1724
454.037	-729
454.087	-864
454.107	-930
454.168	-1486
454.177	-1580
454.247	-1016
454.249	-1026
454.316	-1633
454.330	-1480
454.386	-892
454.411	-1193
454.456	-1777
454.492	-1436
454.525	-1129
454.574	-997
454.595	-964
454.655	-1602
454.665	-1720
454.734	-881
454.736	-883
454.804	-1617
454.817	-1416
454.873	-588
454.898	-516
454.943	-394
454.979	-552
455.013	-722
455.060	-803
455.082	-920
455.141	-875
455.152	-855
455.221	-606
455.222	-601
455.291	-1246
455.303	-1203
455.360	-984
455.384	-944
455.430	-1009
455.465	-1042
455.499	-1010
455.546	-791
455.569	-768
455.627	-909
455.638	-934
455.707	-1027
455.708	-1015
455.777	-1394
455.789	-1284
455.846	-704
455.869	-759
455.916	-1026
455.950	-789
455.985	-512
456.031	-802
456.054	-979
456.112	-641
456.124	-569
456.193	-230
456.193	-243
456.262	-274
456.274	-279
456.332	-203
456.355	-273
456.401	-417
456.436	-181
456.470	-50
456.516	-413
456.540	-640
456.597	-507
456.609	-442
456.678	232
456.678	221
456.747	-717
456.759	-719
456.817	-398
456.840	-251
456.886	-284
456.920	-47
456.955	280
457.001	14
457.024	-170
457.082	-80
457.093	-44
457.162	496
457.163	509
457.232	-475
457.243	-427
457.301	126
457.324	100
457.370	-131
457.405	28
457.439	382
457.485	637
457.508	585
457.566	575
457.577	675
457.646	1219
457.647	1246
457.715	4373
457.727	5022
457.784	9613
457.808	13516
457.853	17597
457.889	20133
457.922	20470
457.969	13144
457.991	12713
458.050	15473
458.060	16023
458.129	29948
458.130	30325
458.198	29647
458.211	25917
458.267	13269
458.292	9157
458.336	5825
458.372	5498
458.405	7667
458.453	12516
458.474	15719
458.533	28349
458.543	29175
458.611	46283
458.614	46414
458.680	28226
458.694	21827
458.749	9052
458.775	6349
458.818	3144
458.855	2678
458.887	2340
458.936	1869
458.955	1597
459.016	478
459.024	419
459.093	1219
459.097	1225
459.162	782
459.177	903
459.230	1561
459.257	1629
459.299	1323
459.338	1008
459.368	988
459.418	913
459.437	715
459.499	324
459.505	377
459.574	937
459.579	1006
459.643	1278
459.659	1273
459.711	1635
459.740	1842
459.780	1546
459.820	1352
459.849	1423
459.900	1308
459.917	1283
459.981	1340
459.986	1310
460.054	1274
460.061	1212
460.123	793
460.141	840
460.191	1224
460.222	1312
460.260	1238
460.302	1342
460.328	1414
460.382	1409
460.397	1485
460.462	1881
460.465	1891
460.534	2258
460.543	2281
460.602	4405
460.623	5417
460.671	8400
460.703	10963
460.739	9670
460.783	6852
460.808	5718
460.864	2082
460.876	1894
460.944	1894
460.945	1883
461.013	1122
461.024	1117
461.081	1492
461.104	1618
461.150	1757
461.184	1638
461.218	1519
461.264	1352
461.286	1450
461.345	1737
461.355	1630
461.423	1581
461.425	1559
461.491	1579
461.505	1711
461.559	1416
461.585	1274
461.628	1738
461.665	1947
461.696	1686
461.745	1672
461.764	1884
461.825	2001
461.832	1992
461.901	1935
461.905	1956
461.969	1991
461.985	1948
462.037	2106
462.065	2321
462.105	2028
462.145	1470
462.173	1379
462.225	1394
462.241	1464
462.305	1551
462.310	1540
462.378	1491
462.385	1492
462.446	1704
462.465	1772
462.514	1682
462.545	1768
462.582	1916
462.625	1716
462.650	1696
462.705	1722
462.718	1681
462.785	1765
462.786	1762
462.854	968
462.865	908
462.922	1847
462.945	2276
462.990	2184
463.025	1837
463.058	2187
463.104	2868
463.126	2389
463.184	1132
463.194	1357
463.262	2635
463.264	2704
463.330	2719
463.344	2510
463.398	2690
463.424	2943
463.466	2107
463.504	1420
463.533	2157
463.583	2970
463.601	2798
463.663	2619
463.669	2533
463.737	1522
463.743	1412
463.805	1668
463.823	1731
463.873	2325
463.903	2750
463.940	2568
463.982	2251
464.008	2117
464.062	1777
464.076	1851
464.142	2467
464.144	2478
464.211	2483
464.221	2480
464.279	1930
464.301	1813
464.347	2457
464.381	2805
464.414	2475
464.461	1998
464.482	2273
464.540	2989
464.550	2880
464.617	1972
464.620	1950
464.685	2639
464.699	2675
464.753	2154
464.779	1974
464.820	2268
464.859	2603
464.888	2212
464.938	1488
464.956	1901
465.018	3085
465.023	3083
465.091	3322
465.098	3326
465.158	2597
465.177	2338
465.226	1813
465.257	1596
465.293	2092
465.336	2426
465.361	2269
465.416	2138
465.428	2365
465.495	3389
465.496	3391
465.563	2357
465.575	2150
465.631	2257
465.654	2395
465.698	2548
465.734	2586
465.765	2789
465.813	3052
465.833	2943
465.893	2559
465.900	2586
465.968	2785
465.972	2796
466.035	2176
466.052	1987
466.102	2780
466.131	3243
466.170	2684
466.210	2054
466.237	2543
466.290	3502
466.304	3406
466.369	2898
466.372	2900
466.439	2747
466.449	2720
466.506	1975
466.528	1688
466.573	2989
466.607	3904
466.641	3388
466.687	2717
466.708	2753
466.766	2762
466.775	2776
466.842	2909
466.845	2904
466.909	3275
466.925	3372
466.977	3024
467.004	2819
467.044	3185
467.083	3541
467.111	3165
467.163	2431
467.178	2732
467.242	3969
467.245	3934
467.312	3048
467.321	2927
467.379	3478
467.400	3666
467.446	3089
467.480	2662
467.559	3808
467.638	3345
467.717	2364
467.796	2660
467.875	2960
467.955	2803
468.034	3419
468.113	3580
468.192	5205
468.271	4431
468.350	7032
468.429	9931
468.508	12428
468.588	6469
468.667	3998
468.746	3235
468.825	3746
468.904	3049
468.983	4111
469.062	3083
469.141	4305
469.220	2768
469.299	2953
469.378	2586
469.456	3991
469.535	2629
469.614	3752
469.693	2580
469.772	3780
469.851	3069
469.930	4369
470.009	3253
470.088	3391
470.166	3433
470.245	6008
470.324	6286
470.403	4180
470.482	3560
470.560	3946
470.639	2360
470.718	4691
470.797	2094
470.875	3925
470.954	2262
471.033	4151
471.111	2600
471.190	2794
471.269	2307
471.347	3659
471.426	3142
471.505	3812
471.583	2332
471.662	3258
471.740	2086
471.819	3315
471.898	2845
471.976	4272
472.055	1886
472.133	4138
472.212	2823
472.290	3401
472.369	2825
472.447	3816
472.526	2789
472.604	3520
472.683	2192
472.761	3710
472.839	2778
472.918	3467
472.996	2829
473.075	3602
473.153	3005
473.231	3340
473.310	3252
473.388	4109
473.466	3125
473.545	4178
473.623	3660
473.701	3959
473.780	3634
473.858	3832
473.936	4736
474.014	3744
474.093	3558
474.171	3794
474.249	3029
474.327	3420
474.405	3227
474.484	3402
474.562	3777
474.640	3830
474.718	2082
474.796	3329
474.874	3723
474.952	3224
475.030	2917
475.108	3431
475.187	2694
475.265	3699
475.343	3492
475.421	4605
475.499	2605
475.577	4571
475.655	3622
475.733	4017
475.811	2437
475.889	4423
475.966	3630
476.044	4007
476.122	2534
476.200	3370
476.278	3396
476.356	3398
476.434	3145
476.512	4395
476.590	3148
476.667	4557
476.745	2981
476.823	3713
476.901	3579
476.979	3651
477.056	2862
477.134	2746
477.212	2941
477.290	4270
477.367	3060
477.445	4383
477.523	2731
477.601	4474
477.678	3516
477.756	3813
477.834	2682
477.911	3341
477.989	3248
478.066	3489
478.144	3502
478.222	3168
478.299	2673
478.377	4321
478.454	2657
478.532	3578
478.609	1737
478.687	4165
478.764	2768
478.842	3616
478.919	2669
478.997	4279
479.074	1855
479.152	3947
479.229	2960
479.307	4029
479.384	2994
479.461	3141
479.539	2603
479.616	3390
479.694	1728
479.771	3738
479.848	2724
479.926	2769
480.003	3729
480.080	2836
480.157	2976
480.235	3850
480.312	2731
480.389	3411
480.467	2165
480.544	3558
480.621	2453
480.698	3934
480.775	2458
480.853	3103
480.930	3200
481.007	3199
481.084	2536
481.161	3184
481.238	2799
481.315	3613
481.392	2744
481.470	3432
481.547	2873
481.624	3268
481.701	2410
481.778	2879
481.855	2194
481.932	3706
482.009	2656
482.086	3516
482.163	2818
482.240	4054
482.317	4391
482.393	4724
482.470	3123
482.547	4069
482.624	2823
482.701	2930
482.778	1926
482.855	2339
482.932	2451
483.009	2970
483.085	3411
483.162	4678
483.239	4531
483.316	3023
483.393	4061
483.469	3407
483.546	3305
483.623	3519
483.699	2952
483.776	3021
483.853	2505
483.930	2807
484.006	1262
484.083	4073
484.160	2628
484.236	3821
484.313	3654
484.389	3248
484.466	3886
484.543	4637
484.619	4694
484.696	7623
484.772	3957
484.849	3880
484.925	2928
485.002	3565
485.078	2804
485.155	3535
485.231	2433
485.308	2669
485.384	2298
485.461	3235
485.537	2535
485.614	4746
485.690	2670
485.766	3491
485.843	2368
485.919	3488
485.995	2814
486.072	3467
486.148	2588
486.224	3330
486.301	2749
486.377	2730
486.453	1479
486.530	3355
486.606	4124
486.682	3487
486.758	3015
486.835	4098
486.911	2037
486.987	3488
487.063	4170
487.139	3665
487.215	4057
487.292	5557
487.368	4664
487.444	5081
487.520	7659
487.596	11537
487.672	30420
487.748	98480
487.824	136749
487.900	32905
487.976	8465
488.052	5789
488.128	4738
488.204	2935
488.280	3197
488.356	4067
488.432	4125
488.508	4361
488.584	1985
488.660	3214
488.736	2697
488.812	2701
488.888	2772
488.964	3368
489.039	2500
489.115	4039
489.191	2565
489.267	3084
489.343	2310
489.418	2888
489.494	2155
489.570	1828
489.646	3018
489.722	3257
489.797	2652
489.873	3437
489.949	2251
490.024	3434
490.100	2419
490.176	2813
490.251	2687
490.327	3320
490.403	2573
490.478	3259
490.554	2755
490.629	3444
490.705	2028
490.781	4470
490.856	2806
490.932	3935
491.007	3032
491.083	2798
491.158	2490
491.234	3281
491.309	3767
491.385	2991
491.460	1995
491.536	4290
491.611	1905
491.686	3515
491.762	2653
491.837	2131
491.913	2496
491.988	3196
492.063	2755
492.139	3601
492.214	3538
492.289	3690
492.365	2242
492.440	3398
492.515	2479
492.590	3450
492.666	3025
492.741	3725
492.816	1656
492.891	2396
492.967	2638
493.042	3216
493.117	2233
493.192	3734
493.267	3411
493.342	3159
493.418	3416
493.493	4059
493.568	2830
493.643	3370
493.718	2623
493.793	2636
493.868	2775
493.943	3646
494.018	2020
494.093	3699
494.168	3642
494.243	3235
494.318	2988
494.393	3647
494.468	2793
494.543	3842
494.618	2866
494.693	3905
494.768	3748
494.842	3719
494.917	4144
494.992	4083
495.067	3347
495.142	3779
495.217	2488
495.292	4137
495.366	2259
495.441	2987
495.516	3362
495.591	3154
495.665	2849
495.740	4847
495.815	3621
495.890	4000
495.964	1482
496.039	5110
496.114	3495
496.188	5423
496.263	3586
496.338	3999
496.412	2535
496.487	4958
496.561	3414
496.636	3702
496.710	3743
496.785	3954
496.860	4242
496.934	3691
497.009	4409
497.083	3770
497.158	3522
497.232	5574
497.307	4255
497.381	5852
497.455	5094
497.530	4666
497.604	3446
497.679	3854
497.753	3572
497.827	3382
497.902	2599
497.976	4929
498.050	4125
498.125	4283
498.199	4850
498.273	5672
498.348	3840
498.422	6389
498.496	5449
498.570	6175
498.645	3400
498.719	1629
498.793	2766
498.867	4022
498.941	2408
499.016	3747
499.090	2787
499.164	3432
499.238	4085
499.312	4903
499.386	4107
499.460	5483
499.534	5340
499.609	8066
499.683	4388
499.757	3191
499.831	2256
499.905	2452
499.979	2576
500.053	3290
500.127	2682
500.201	3834
500.275	3208
500.349	4047
500.422	4258
500.496	6087
500.570	6054
500.644	9832
500.718	6642
500.792	3727
500.866	2983
500.940	2201
501.013	2124
501.087	2117
501.161	1888
501.235	70
501.309	2674
501.382	1878
501.456	2249
501.530	2051
501.603	1184
501.677	1881
501.751	441
501.825	3071
501.898	1757
501.972	1716
502.046	859
502.119	1070
502.193	2246
502.266	1679
502.340	2080
502.413	2130
502.487	2128
502.561	1536
502.634	2108
502.708	2265
502.781	536
502.855	3157
502.928	356
503.002	2151
503.075	462
503.149	2208
503.222	1959
503.295	1123
503.369	2393
503.442	2580
503.516	1995
503.589	2940
503.662	3059
503.736	4306
503.809	3355
503.882	4437
503.956	7261
504.029	16781
504.102	56268
504.175	79459
504.249	19547
504.322	8068
504.395	4139
504.468	4048
504.542	1844
504.615	2274
504.688	2198
504.761	1333
504.834	3855
504.907	2072
504.980	718
505.053	2646
505.127	-1601
505.200	4630
505.273	454
505.346	1498
505.419	552
505.492	3155
505.565	914
505.638	2711
505.711	158
505.784	1127
505.857	655
505.930	2029
506.003	509
506.076	4224
506.149	883
506.221	348
506.294	2455
506.367	338
506.440	698
506.513	2485
506.586	1042
506.659	1440
506.731	400
506.804	1625
506.877	285
506.950	2736
507.022	2349
507.095	494
507.168	1317
507.241	2946
507.313	1124
507.386	454
507.459	2341
507.531	1204
507.604	61
507.677	2532
507.749	-1
507.822	3470
507.894	1044
507.967	1492
508.040	733
508.112	2881
508.185	1263
508.257	713
508.330	2704
508.402	336
508.475	638
508.547	1547
508.620	1433
508.692	1446
508.765	1838
508.837	1256
508.909	1875
508.982	1058
509.054	1428
509.127	1615
509.199	1596
509.271	906
509.344	602
509.416	1176
509.488	1405
509.560	1708
509.633	194
509.705	976
509.777	1094
509.849	1737
509.922	-588
509.994	1082
510.066	1736
510.138	-520
510.210	2280
510.283	1221
510.355	2338
510.427	2410
510.499	1128
510.571	1757
510.643	-165
510.715	2417
510.787	-1565
510.859	2989
510.931	1128
511.003	1587
511.076	1686
511.148	485
511.219	519
511.291	1328
511.363	1463
511.435	1450
511.507	263
511.579	2673
511.651	2074
511.723	751
511.795	99
511.867	872
511.939	793
512.010	839
512.082	1642
512.154	1044
512.226	1070
512.298	2798
512.369	381
512.441	1271
512.513	1756
512.585	219
512.656	1336
512.728	1266
512.800	973
512.871	3121
512.943	1285
513.015	246
513.086	830
513.158	1995
513.230	-411
513.301	887
513.373	1115
513.444	2041
513.516	843
513.588	1447
513.659	1133
513.731	2200
513.802	-796
513.874	3299
513.945	580
514.016	-96
514.088	1711
514.159	-87
514.231	1538
514.302	1339
514.374	665
514.445	60
514.516	2770
514.588	1766
514.659	512
514.730	1455
514.802	2300
514.873	-28
514.944	3593
515.016	2677
515.087	183
515.158	1229
515.229	2255
515.301	384
515.372	840
515.443	953
515.514	849
515.585	89
515.656	1639
515.728	2966
515.799	889
515.870	1655
515.941	1647
516.012	1043
516.083	2534
516.154	1188
516.225	2235
516.296	4636
516.367	2649
516.438	3637
516.509	4169
516.580	7888
516.651	30016
516.722	91315
516.793	31329
516.864	5272
516.935	5956
517.006	7401
517.077	8714
517.148	26376
517.219	121589
517.289	164966
517.360	18359
517.431	6211
517.502	2832
517.573	4231
517.643	2898
517.714	3736
517.785	3415
517.856	3721
517.926	5988
517.997	7135
518.068	6644
518.138	13340
518.209	18062
518.280	80135
518.350	258312
518.421	88769
518.492	12628
518.562	9381
518.633	9533
518.703	12125
518.774	33341
518.845	99159
518.915	82776
518.986	17657
519.056	7193
519.127	6273
519.197	2904
519.268	2739
519.338	2807
519.408	2584
519.479	2559
519.549	2053
519.620	3506
519.690	1893
519.760	1206
519.831	2430
519.901	519
519.971	2044
520.042	-130
520.112	1752
520.182	1405
520.253	2594
520.323	1247
520.393	841
520.463	2224
520.534	-643
520.604	2707
520.674	3226
520.744	648
520.814	103
520.885	2141
520.955	587
521.025	757
521.095	1549
521.165	3029
521.235	575
521.305	-152
521.375	2279
521.445	947
521.515	881
521.585	1987
521.655	-134
521.725	1904
521.795	3073
521.865	-828
521.935	3813
522.005	507
522.075	1739
522.145	1487
522.215	1255
522.285	1320
522.355	1337
522.424	1160
522.494	654
522.564	339
522.634	1459
522.704	3249
522.774	1761
522.843	756
522.913	2199
522.983	977
523.053	604
523.122	2229
523.192	1748
523.262	890
523.331	513
523.401	2297
523.471	1962
523.540	1307
523.610	448
523.680	1907
523.749	1487
523.819	1720
523.888	1613
523.958	714
524.027	1323
524.097	2045
524.166	1542
524.236	-64
524.305	3299
524.375	98
524.444	389
524.514	2283
524.583	1393
524.653	329
524.722	2142
524.791	275
524.861	3207
524.930	-276
524.999	2021
525.069	2387
525.138	1734
525.207	654
525.277	3135
525.346	1711
525.415	2691
525.484	1954
525.554	1664
525.623	3349
525.692	4761
525.761	4750
525.830	7467
525.900	9049
525.969	15922
526.038	29299
526.107	65490
526.176	184011
526.245	126904
526.314	34899
526.383	92343
526.452	113093
526.522	174997
526.591	137895
526.660	19159
526.729	11002
526.797	15271
526.867	20066
526.935	69692
527.004	259088
527.073	140108
527.142	15215
527.211	7020
527.280	5405
527.349	5463
527.418	1329
527.487	3655
527.555	995
527.624	2492
527.693	780
527.762	3342
527.831	622
527.899	2815
527.968	1460
528.037	1127
528.106	1791
528.174	1841
528.243	1700
528.312	1921
528.380	1142
528.449	961
528.518	2808
528.586	485
528.655	3332
528.723	2351
528.792	1586
528.861	1745
528.929	-30
528.998	3543
529.066	2029
529.135	3224
529.203	674
529.272	2152
529.340	3263
529.409	4678
529.477	1715
529.545	2288
529.614	4601
529.682	2032
529.751	2954
529.819	6351
529.887	3088
529.956	3152
530.024	4268
530.092	2456
530.161	3316
530.229	3342
530.297	3072
530.365	4280
530.434	3710
530.502	3322
530.570	3341
530.638	1945
530.707	3758
530.775	4888
530.843	1688
530.911	3713
530.979	3170
531.047	3552
531.115	3148
531.183	3050
531.252	3637
531.320	3755
531.388	2459
531.456	4719
531.524	1672
531.592	4499
531.660	5735
531.728	3363
531.796	3469
531.864	4051
531.932	3455
532.000	4011
532.067	4100
532.135	5118
532.203	4719
532.271	4400
532.339	5430
532.407	5578
532.475	3655
532.542	5613
532.610	5702
532.678	4301
532.746	6338
532.814	7512
532.881	5666
532.949	6243
533.017	5344
533.084	5725
533.152	5387
533.220	5138
533.287	4003
533.355	5399
533.423	4981
533.490	5359
533.558	5968
533.625	5412
533.693	4109
533.761	5137
533.828	5285
533.896	4788
533.963	5712
534.031	6002
534.098	7803
534.166	8525
534.233	7720
534.300	10041
534.368	8498
534.435	8442
534.503	8367
534.570	9348
534.637	8793
534.705	10793
534.772	11921
534.840	21041
534.907	84668
534.974	90263
535.041	11738
535.109	9340
535.176	7167
535.243	8944
535.310	8116
535.378	7396
535.445	7852
535.512	9348
535.579	8328
535.646	7722
535.714	7951
535.781	8765
535.848	9036
535.915	9161
535.982	7143
536.049	8241
536.116	9606
536.183	6795
536.250	7128
536.317	8013
536.384	8412
536.451	9289
536.518	8770
536.585	7255
536.652	10171
536.719	9681
536.786	6523
536.853	7818
536.920	9135
536.987	8615
537.053	5945
537.120	10177
537.187	9596
537.254	8746
537.321	8131
537.388	9887
537.454	8543
537.521	9520
537.588	8652
537.654	9615
537.721	9154
537.788	10704
537.855	8240
537.921	9168
537.988	7738
538.055	9046
538.121	7105
538.188	7706
538.254	7349
538.321	8588
538.388	8025
538.454	10913
538.521	10528
538.587	9305
538.654	9332
538.720	9990
538.787	9887
538.853	9392
538.920	8992
538.986	7954
539.053	8230
539.119	8609
539.185	7631
539.252	10583
539.318	8340
539.385	11093
539.451	8013
539.517	9609
539.583	9680
539.650	9223
539.716	8386
539.782	8918
539.849	8066
539.915	10113
539.981	7705
540.047	7767
540.114	8728
540.180	9619
540.246	9331
540.312	10745
540.378	9209
540.444	11408
540.510	10091
540.576	9816
540.643	9260
540.709	7920
540.775	8522
540.841	8851
540.907	8929
540.973	8928
541.039	8194
541.105	9053
541.171	9826
541.237	10591
541.303	10220
541.369	11646
541.435	9322
541.500	9596
541.566	7102
541.632	7983
541.698	9039
541.764	11290
541.830	8857
541.896	8280
541.961	9135
542.027	8760
542.093	10173
542.159	11016
542.224	8759
542.290	10530
542.356	8310
542.421	9561
542.487	8742
542.553	8331
542.618	8799
542.684	9294
542.750	9272
542.815	10127
542.881	9024
542.947	10393
543.012	10463
543.078	8724
543.143	8244
543.209	10759
543.274	8077
543.340	9164
543.405	9156
543.471	9650
543.536	9534
543.602	10668
543.667	7978
543.732	11138
543.798	8469
543.863	10909
543.928	9885
543.994	8404
544.059	9659
544.124	10749
544.190	9852
544.255	11401
544.320	10097
544.386	9604
544.451	10849
544.516	11141
544.581	9918
544.646	11275
544.712	11390
544.777	11135
544.842	11550
544.907	11186
544.972	10769
545.037	12335
545.102	10639
545.168	12107
545.233	12122
545.298	13448
545.363	11132
545.428	14038
545.493	13661
545.558	13035
545.623	13011
545.688	12647
545.753	14123
545.818	14333
545.883	15687
545.947	15467
546.012	16439
546.077	16953
546.142	18710
546.207	18420
546.272	19318
546.337	21231
546.401	21327
546.466	22594
546.531	21894
546.596	25907
546.661	25204
546.725	28528
546.790	29062
546.855	32579
546.919	34644
546.984	40572
547.049	42310
547.113	49805
547.178	53851
547.243	61735
547.307	70351
547.372	78797
547.436	77999
547.501	83833
547.565	89884
547.630	80778
547.695	79360
547.759	78856
547.823	79670
547.888	81793
547.952	84512
548.017	89185
548.081	87223
548.146	87727
548.210	90784
548.274	98686
548.339	95479
548.403	87179
548.468	81496
548.532	82252
548.596	82778
548.660	84352
548.725	92169
548.789	99881
548.853	97555
548.917	93983
548.982	89120
549.046	80590
549.110	72062
549.174	78615
549.238	89993
549.303	98292
549.367	99571
549.431	94318
549.495	88679
549.559	89550
549.623	104388
549.687	113140
549.751	110365
549.815	133052
549.879	131643
549.943	128066
550.007	133722
550.071	130345
550.135	117094
550.199	113826
550.263	111996
550.327	106647
550.391	108086
550.455	121824
550.519	125614
550.582	133892
550.646	148700
550.710	151691
550.774	148353
550.838	150478
550.901	153416
550.965	160568
551.029	164543
551.093	171472
551.156	173604
551.220	177609
551.284	184094
551.347	164266
551.411	152937
551.475	153867
551.538	162233
551.602	151253
551.666	144702
551.729	138400
551.793	136065
551.856	132465
551.920	130354
551.983	132855
552.047	129223
552.110	131550
552.174	130628
552.237	136029
552.301	124290
552.364	122722
552.428	117388
552.491	121721
552.554	123563
552.618	123955
552.681	124749
552.745	120021
552.808	124647
552.871	132992
552.934	127740
552.998	123075
553.061	121302
553.124	116644
553.187	116527
553.251	121464
553.314	119305
553.377	120517
553.440	127963
553.503	131921
553.567	132056
553.630	132643
553.693	130659
553.756	134029
553.819	130310
553.882	126292
553.945	128300
554.008	126744
554.071	128131
554.134	130751
554.197	122301
554.260	121538
554.323	123836
554.386	126029
554.449	127979
554.512	127241
554.575	121895
554.638	123271
554.701	120472
554.764	120781
554.827	115410
554.889	112865
554.952	105282
555.015	104029
555.078	106435
555.141	105716
555.203	103502
555.266	104412
555.329	103978
555.391	98869
555.454	96068
555.517	93366
555.580	89148
555.642	87138
555.705	86148
555.768	86457
555.830	81806
555.893	80106
555.955	75395
556.018	74363
556.080	75330
556.143	78837
556.206	75092
556.268	74668
556.330	71366
556.393	70444
556.455	68909
556.518	65879
556.580	63508
556.643	62184
556.705	59981
556.767	59914
556.830	58185
556.892	58527
556.955	55238
557.017	54365
557.079	54497
557.142	51866
557.204	50097
557.266	49687
557.328	46355
557.391	45260
557.453	43467
557.515	44037
557.577	42650
557.639	44119
557.701	41796
557.764	41733
557.826	40726
557.888	42140
557.950	41167
558.012	43284
558.074	48385
558.136	80657
558.198	143228
558.260	61125
558.322	37535
558.384	39623
558.446	39251
558.508	40911
558.570	41583
558.632	46231
558.694	52632
558.756	77844
558.818	185491
558.880	350121
558.942	141707
559.003	146141
559.065	70890
559.127	40224
559.189	37862
559.251	41575
559.312	52913
559.374	107511
559.436	269894
559.498	126783
559.559	39103
559.621	35903
559.683	39621
559.744	59968
559.806	153487
559.868	195167
559.929	50093
559.991	39953
560.052	57642
560.114	134414
560.176	81585
560.237	85896
560.299	114966
560.360	32065
560.422	20032
560.483	19864
560.545	18210
560.606	17652
560.667	16740
560.729	17570
560.790	15754
560.852	16255
560.913	16315
560.974	15924
561.036	14683
561.097	15882
561.158	14317
561.220	15677
561.281	14236
561.342	14275
561.403	13674
561.465	14000
561.526	13515
561.587	14127
561.648	11809
561.709	13425
561.771	12703
561.832	12641
561.893	11466
561.954	13053
562.015	11075
562.076	12523
562.137	11205
562.198	10730
562.259	12180
562.320	12003
562.381	11149
562.442	12328
562.503	11418
562.564	10847
562.625	10931
562.686	11655
562.747	10204
562.808	10971
562.869	10595
562.930	11066
562.991	9672
563.051	10219
563.112	9645
563.173	10559
563.234	9634
563.294	9981
563.355	9461
563.416	9678
563.477	8585
563.537	9170
563.598	9468
563.659	10305
563.720	8444
563.780	9719
563.841	8678
563.901	10127
563.962	8996
564.023	9264
564.083	9338
564.144	9117
564.204	8303
564.265	9159
564.325	8712
564.386	9651
564.446	8602
564.507	8944
564.567	8364
564.628	8505
564.688	7591
564.749	7963
564.809	8697
564.869	9336
564.930	8091
564.990	9551
565.050	8077
565.111	9038
565.171	8640
565.231	9650
565.292	9388
565.352	8377
565.412	7826
565.472	9292
565.532	8286
565.593	8408
565.653	7548
565.713	8981
565.773	9382
565.833	9533
565.893	8990
565.953	8114
566.013	7732
566.074	7908
566.134	7749
566.194	6914
566.254	6899
566.314	8455
566.374	7306
566.434	8602
566.494	7872
566.554	8198
566.614	7333
566.673	8520
566.733	8451
566.793	8445
566.853	7818
566.913	8845
566.973	7599
567.033	8524
567.092	8369
567.152	8292
567.212	7808
567.272	8717
567.331	7798
567.391	8925
567.451	9094
567.511	9833
567.570	8138
567.630	9053
567.690	8959
567.749	8872
567.809	8512
567.868	8977
567.928	7592
567.988	8679
568.047	7408
568.107	8963
568.166	8443
568.226	8407
568.285	8773
568.345	8987
568.404	8905
568.464	8286
568.523	7897
568.582	8193
568.642	7627
568.701	8320
568.761	8196
568.820	8100
568.879	7890
568.939	9396
568.998	7403
569.057	8401
569.116	7066
569.176	8383
569.235	7485
569.294	8000
569.353	7544
569.413	8748
569.472	7289
569.531	8902
569.590	7179
569.649	7605
569.708	7947
569.767	9182
569.827	7309
569.886	7421
569.945	7044
570.004	8842
570.063	8060
570.122	8506
570.181	8599
570.240	8647
570.299	8632
570.358	9222
570.417	8239
570.475	8357
570.534	8847
570.593	8663
570.652	8762
570.711	8742
570.770	8438
570.829	9079
570.887	7598
570.946	9185
571.005	7838
571.064	8446
571.122	8463
571.181	7981
571.240	7271
571.299	8466
571.357	6944
571.416	7739
571.475	8586
571.533	8356
571.592	8767
571.650	9072
571.709	8495
571.768	9792
571.826	9158
571.885	9119
571.943	8634
572.002	8904
572.060	8310
572.119	9010
572.177	8761
572.236	8730
572.294	7922
572.352	9363
572.411	8593
572.469	8836
572.528	7786
572.586	8944
572.644	8264
572.703	8633
572.761	7175
572.819	7921
572.877	7283
572.936	7927
572.994	7762
573.052	8704
573.110	7351
573.169	8273
573.227	7207
573.285	8571
573.343	7664
573.401	8103
573.459	8290
573.517	7881
573.576	6845
573.634	7055
573.692	7034
573.750	7683
573.808	6676
573.866	6808
573.924	7207
573.982	7084
574.040	7066
574.098	7362
574.155	6751
574.213	7815
574.271	6468
574.329	7896
574.387	6351
574.445	6108
574.503	5964
574.560	7039
574.618	6272
574.676	6181
574.734	6712
574.792	6460
574.849	6341
574.907	5894
574.965	5962
575.022	6337
575.080	5340
575.138	6547
575.195	5063
575.253	5113
575.311	5859
575.368	5962
575.426	5026
575.483	6874
575.541	5863
575.598	6020
575.656	5161
575.713	5431
575.771	5189
575.828	5175
575.886	4531
575.943	5100
576.001	3938
576.058	5309
576.115	4365
576.173	5261
576.230	4917
576.287	5485
576.345	4673
576.402	6330
576.459	5339
576.517	4968
576.574	4603
576.631	4850
576.688	4948
576.746	4178
576.803	5084
576.860	5337
576.917	4702
576.974	5795
577.031	4510
577.089	5465
577.146	4129
577.203	4376
577.260	5046
577.317	4841
577.374	4050
577.431	4920
577.488	4473
577.545	4819
577.602	4479
577.659	5226
577.716	4791
577.773	5588
577.830	4602
577.886	4610
577.943	4213
578.000	5350
578.057	3909
578.114	4054
578.171	4705
578.227	5032
578.284	4146
578.341	4976
578.398	3943
578.454	4627
578.511	4388
578.568	5665
578.625	4675
578.681	5145
578.738	4635
578.794	4150
578.851	4106
578.908	4752
578.964	4235
579.021	5248
579.077	4095
579.134	4920
579.190	5422
579.247	6145
579.303	4012
579.360	5082
579.416	4570
579.473	4396
579.529	3943
579.586	5304
579.642	5076
579.698	5872
579.755	4151
579.811	4713
579.867	4721
579.924	4810
579.980	4261
580.036	5380
580.093	3968
580.149	5796
580.205	4820
580.261	5345
580.317	4944
580.374	5428
580.430	5809
580.486	5899
580.542	4759
580.598	6359
580.619	5948
580.654	5237
580.692	5464
580.710	5589
580.765	5344
580.767	5341
580.823	5927
580.838	5925
580.879	5922
580.911	5960
580.935	5995
580.984	4971
580.991	4839
581.047	5919
581.057	5825
581.103	5448
581.130	5951
581.159	6469
581.203	5349
581.215	5065
581.270	5894
581.276	5816
581.326	5043
581.349	5453
581.382	6148
581.422	5767
581.438	5580
581.494	5450
581.494	5439
581.550	4552
581.567	4832
581.606	5392
581.640	5212
581.661	5122
581.713	6326
581.717	6428
581.773	5005
581.786	5111
581.829	5414
581.859	5455
581.885	5563
581.932	6346
581.940	6473
581.996	5665
582.004	5813
582.052	6562
582.077	5582
582.107	4496
582.150	5680
582.163	6045
582.219	4781
582.223	4827
582.274	5376
582.296	5205
582.330	4941
582.368	5098
582.386	5180
582.441	5618
582.441	5618
582.497	6380
582.514	5983
582.552	5264
582.587	5741
582.608	6064
582.659	5488
582.663	5418
582.719	6184
582.732	5901
582.774	5098
582.805	5302
582.830	5546
582.877	5894
582.885	5927
582.941	6109
582.950	6077
582.996	5902
583.023	5952
583.052	6204
583.095	6024
583.107	5888
583.162	6241
583.168	6158
583.218	5502
583.240	5563
583.273	5564
583.313	5360
583.328	5420
583.384	5619
583.385	5626
583.439	5226
583.458	5491
583.494	6177
583.531	5539
583.549	5283
583.603	5859
583.605	5864
583.660	5561
583.676	5565
583.715	5733
583.748	5527
583.770	5497
583.820	5803
583.825	5786
583.881	5887
583.893	5708
583.936	5434
583.965	5463
583.991	5415
584.038	5819
584.046	5888
584.101	5740
584.110	5778
584.156	5768
584.183	5426
584.211	5232
584.255	5782
584.266	5908
584.321	5844
584.328	5868
584.376	6127
584.400	6150
584.431	6122
584.472	6186
584.486	6198
584.541	6280
584.545	6319
584.596	6976
584.617	6813
584.651	6872
584.689	7390
584.706	7321
584.761	6803
584.762	6801
584.816	7435
584.834	7648
584.871	7899
584.906	7791
584.926	7759
584.978	7819
584.980	7821
585.035	8777
585.051	8977
585.090	9796
585.123	9887
585.145	9583
585.195	9692
585.200	9814
585.254	11401
585.267	11897
585.309	13085
585.340	13976
585.364	15025
585.412	16953
585.419	17230
585.473	21459
585.484	22472
585.528	28543
585.556	34755
585.583	46981
585.628	74848
585.637	85093
585.692	172574
585.700	185676
585.747	223132
585.772	189319
585.801	115587
585.845	39918
585.856	32093
585.910	19680
585.917	18345
585.965	15030
585.989	14019
586.019	13414
586.061	12352
586.074	12088
586.128	11945
586.133	11886
586.183	11209
586.205	11034
586.237	10918
586.277	10581
586.292	10639
586.346	11771
586.349	11800
586.401	11474
586.421	11224
586.455	11063
586.493	11169
586.509	11318
586.564	11744
586.565	11752
586.618	12391
586.637	12695
586.672	13732
586.709	14849
586.727	15130
586.781	16360
586.781	16364
586.835	13070
586.853	12786
586.889	12624
586.925	11878
586.944	11561
586.996	12592
586.998	12634
587.052	11875
587.068	12225
587.106	13055
587.140	12793
587.161	12495
587.212	12832
587.215	12883
587.269	12821
587.284	12940
587.323	13255
587.356	13531
587.377	13590
587.427	14365
587.431	14427
587.485	14441
587.499	14511
587.539	14968
587.571	15381
587.593	15810
587.643	16524
587.648	16554
587.702	16576
587.715	16806
587.755	17431
587.786	16961
587.810	16680
587.858	16921
587.864	16928
587.917	16876
587.930	16906
587.971	17516
588.001	17726
588.025	17686
588.073	18091
588.079	18186
588.133	17817
588.145	18018
588.187	18637
588.217	18506
588.241	18301
588.288	18246
588.295	18271
588.348	18478
588.360	18531
588.402	19566
588.431	20082
588.456	20116
588.503	20522
588.510	20679
588.564	21901
588.575	22267
588.617	23917
588.646	24727
588.671	25276
588.718	27043
588.725	27619
588.778	32688
588.789	34210
588.832	49551
588.861	61549
588.886	86471
588.932	142652
588.939	147864
588.993	180340
589.004	178719
589.047	98515
589.075	53641
589.100	42217
589.147	28414
589.154	27913
589.207	24539
589.218	24055
589.261	25343
589.290	26220
589.314	26725
589.361	28590
589.368	29493
589.421	37237
589.433	39340
589.475	64519
589.504	84920
589.528	110699
589.576	164462
589.582	159742
589.635	84712
589.647	70228
589.689	41666
589.718	25697
589.742	24259
589.790	22148
589.795	22083
589.849	20821
589.861	20641
589.902	20445
589.932	20144
589.955	20031
590.004	19871
590.009	19887
590.062	19665
590.075	19713
590.115	19718
590.146	19348
590.168	19139
590.218	19360
590.222	19531
590.275	20877
590.289	21319
590.328	21594
590.360	21702
590.381	21675
590.431	21578
590.435	21567
590.488	20845
590.503	20693
590.541	21227
590.574	21626
590.594	22051
590.645	23160
590.647	23212
590.700	23935
590.716	24166
590.753	24646
590.787	24940
590.806	25286
590.859	26383
590.859	26414
590.912	26366
590.930	26444
590.965	26549
591.001	26628
591.018	26653
591.071	26530
591.072	26502
591.124	25672
591.143	25457
591.177	25770
591.214	26065
591.230	26323
591.283	27154
591.285	27154
591.336	27241
591.356	27291
591.389	27267
591.427	27089
591.442	26760
591.495	25520
591.498	25401
591.547	26528
591.569	27065
591.600	27248
591.640	27409
591.653	27642
591.706	28430
591.711	28496
591.759	29450
591.782	29834
591.811	30048
591.853	30334
591.864	30437
591.917	30776
591.924	30770
591.969	30767
591.995	30803
592.022	30949
592.066	31052
592.075	31244
592.127	32248
592.137	32389
592.180	32173
592.208	32006
592.233	32472
592.279	33279
592.285	33485
592.338	34964
592.350	35249
592.390	34963
592.421	34716
592.443	35193
592.491	36111
592.495	36200
592.548	36874
592.562	37020
592.600	36686
592.633	36336
592.653	36515
592.704	36695
592.705	36929
592.775	38156
592.846	38881
592.916	39115
592.987	40272
593.058	38583
593.128	39771
593.199	40749
593.270	43128
593.341	42044
593.411	45319
593.482	46112
593.553	47620
593.623	47430
593.694	48726
593.764	49012
593.835	49036
593.906	48947
593.976	49335
594.047	51005
594.117	54243
594.188	54196
594.258	55020
594.329	54857
594.399	56681
594.470	58838
594.540	60151
594.611	61796
594.681	60763
594.751	59871
594.822	63062
594.892	66261
594.963	66379
595.033	69378
595.103	70585
595.174	70107
595.244	73951
595.314	74734
595.384	76711
595.455	78961
595.525	83114
595.595	84761
595.665	84541
595.736	82799
595.806	85332
595.876	86910
595.946	86370
596.016	91752
596.087	94797
596.157	93349
596.227	93416
596.297	101868
596.367	106189
596.437	112136
596.507	111081
596.577	111340
596.647	115399
596.717	120890
596.787	123128
596.857	121819
596.927	122577
596.997	123048
597.067	124441
597.137	126208
597.207	126399
597.277	127917
597.347	123594
597.417	119247
597.487	119898
597.557	123740
597.626	127670
597.696	128227
597.766	126997
597.836	119379
597.906	113643
597.975	111982
598.045	114308
598.115	118099
598.185	127110
598.254	142157
598.324	154869
598.394	154686
598.464	151728
598.533	148728
598.603	137695
598.672	134597
598.742	137404
598.812	137060
598.881	141951
598.951	140734
599.020	143714
599.090	148104
599.159	151696
599.229	145509
599.299	143546
599.368	147837
599.437	144817
599.507	131369
599.576	129478
599.646	125390
599.715	126137
599.785	124625
599.854	120413
599.924	118994
599.993	117294
600.062	121601
600.132	124918
600.201	131117
600.270	152121
600.340	160761
600.409	157553
600.478	156658
600.547	160953
600.617	145003
600.686	115703
600.755	103941
600.824	100017
600.894	97561
600.963	99297
601.032	98125
601.101	93962
601.170	89353
601.239	86761
601.308	87003
601.378	88346
601.447	88915
601.516	89746
601.585	89046
601.654	90873
601.723	91299
601.792	93281
601.861	96333
601.930	100617
601.999	99731
602.068	100627
602.137	100732
602.206	103624
602.275	104960
602.343	105497
602.412	106700
602.481	107177
602.550	107384
602.619	111262
602.688	112392
602.756	113049
602.825	114075
602.894	117724
602.963	117948
603.032	120438
603.100	120672
603.169	122435
603.238	122745
603.307	123580
603.375	126360
603.444	127015
603.513	127046
603.581	129305
603.650	129603
603.719	128414
603.787	131647
603.856	135086
603.924	137172
603.993	142972
604.061	147715
604.130	155717
604.198	155539
604.267	159550
604.335	163023
604.404	165973
604.472	166687
604.541	168540
604.609	168678
604.678	171498
604.746	171123
604.815	176463
604.883	178909
604.951	179731
605.020	181984
605.088	186856
605.156	189736
605.225	190881
605.293	189746
605.361	191072
605.429	193834
605.498	196854
605.566	202435
605.634	210984
605.702	221957
605.771	228350
605.839	225310
605.907	222989
605.975	215097
606.043	213606
606.111	213557
606.180	212512
606.248	209523
606.316	209270
606.384	208373
606.452	209285
606.520	213829
606.588	220756
606.656	222709
606.724	218068
606.792	206394
606.860	186327
606.928	169977
606.996	164455
607.064	160161
607.132	166577
607.200	176213
607.267	182022
607.335	184726
607.403	190637
607.471	181297
607.539	178293
607.607	177400
607.674	156556
607.742	155193
607.810	154166
607.878	154023
607.946	157841
608.013	165195
608.081	168096
608.149	170502
608.216	177086
608.284	181808
608.352	183465
608.419	180477
608.487	177988
608.555	174406
608.622	181145
608.690	192068
608.757	210274
608.825	212583
608.893	208177
608.960	194859
609.028	188586
609.095	186979
609.163	187648
609.230	168456
609.298	156341
609.365	164519
609.432	177397
609.500	190939
609.567	218566
609.635	247871
609.702	261472
609.769	245726
609.837	192558
609.904	164531
609.971	166973
610.039	174305
610.106	195979
610.173	286306
610.241	503183
610.308	312874
610.375	189276
610.442	176163
610.509	170594
610.577	173918
610.644	175548
610.711	181942
610.778	189259
610.845	195435
610.912	207072
610.980	212848
611.047	214020
611.114	209424
611.181	204944
611.248	204876
611.315	215978
611.382	222289
611.449	229384
611.516	232517
611.583	227267
611.650	228313
611.717	231937
611.784	234195
611.851	237571
611.918	243056
611.984	261757
612.051	305382
612.118	436680
612.185	770792
612.252	529684
612.319	292205
612.386	281301
612.452	262463
612.519	256428
612.586	252372
612.653	258553
612.719	267344
612.786	257995
612.853	241159
612.919	239497
612.986	242063
613.053	231043
613.120	217159
613.186	210691
613.253	213722
613.319	211135
613.386	215435
613.453	217049
613.519	216729
613.586	214263
613.652	216805
613.719	214357
613.785	217515
613.852	221582
613.918	218031
613.985	222724
614.051	229975
614.118	226487
614.184	218944
614.250	218074
614.317	225722
614.383	223244
614.449	226824
614.516	223923
614.582	226586
614.648	223157
614.715	221617
614.781	216617
614.847	219770
614.914	217354
614.980	211334
615.046	212137
615.112	218372
615.179	218741
615.245	223806
615.311	218004
615.377	220056
615.443	222402
615.509	223359
615.575	229765
615.642	224926
615.708	230522
615.774	238435
615.840	245227
615.906	245260
615.972	265496
616.038	317474
616.104	493060
616.170	837058
616.236	690290
616.302	339407
616.368	305652
616.434	255889
616.500	247092
616.565	259736
616.631	292718
616.697	260771
616.763	268341
616.829	331645
616.895	476595
616.961	436235
617.026	263474
617.092	231868
617.158	230854
617.224	228374
617.289	216196
617.355	208334
617.421	208414
617.487	207669
617.552	199237
617.618	198344
617.684	198499
617.749	201737
617.815	194383
617.880	191445
617.946	189928
618.012	194408
618.077	199276
618.143	189065
618.208	194168
618.274	205357
618.339	204477
618.405	173030
618.470	176300
618.536	174241
618.601	172506
618.667	162638
618.732	155607
618.798	154910
618.863	153989
618.928	155123
618.994	155828
619.059	153838
619.124	155373
619.190	152074
619.255	152224
619.320	152648
619.386	154472
619.451	151943
619.516	147898
619.581	152581
619.647	157053
619.712	158301
619.777	152429
619.842	152028
619.907	154472
619.972	158322
620.038	154803
620.103	152440
620.168	152895
620.233	157108
620.298	156636
620.363	158134
620.428	163177
620.493	164849
620.558	168013
620.623	169372
620.688	167403
620.753	168489
620.818	169155
620.883	171905
620.948	171105
621.013	168711
621.078	165439
621.143	166483
621.207	167601
621.272	164909
621.337	162326
621.402	162373
621.467	159314
621.532	161908
621.596	162378
621.661	158599
621.726	157411
621.791	156839
621.855	159462
621.920	156373
621.985	159520
622.049	161439
622.114	161639
622.179	163250
622.243	166842
622.308	171952
622.373	175469
622.437	170988
622.502	163981
622.566	162858
622.631	163221
622.695	167294
622.760	163754
622.824	164768
622.889	166452
622.953	165424
623.018	175118
623.082	173395
623.147	173298
623.211	170271
623.276	168592
623.340	163978
623.404	161738
623.469	161097
623.533	162511
623.597	158290
623.662	158182
623.726	149723
623.790	142408
623.854	139050
623.919	141018
623.983	141849
624.047	145136
624.111	143659
624.176	147045
624.240	146875
624.304	152467
624.368	147494
624.432	149463
624.496	149127
624.560	157247
624.625	156873
624.689	156488
624.753	161184
624.817	155236
624.881	150419
624.945	140022
625.009	136490
625.073	138646
625.137	139852
625.201	145425
625.265	144914
625.329	141194
625.393	140511
625.456	144055
625.520	145207
625.584	145995
625.648	150055
625.712	151771
625.776	150659
625.839	143033
625.903	125620
625.967	116980
626.031	125224
626.095	141072
626.158	132399
626.222	107928
626.286	102453
626.349	99993
626.413	92680
626.477	93196
626.540	94098
626.604	92348
626.668	90422
626.731	90571
626.795	89504
626.858	88450
626.922	86887
626.986	87323
627.049	86492
627.113	89253
627.176	85852
627.240	84085
627.303	84035
627.366	83440
627.430	83107
627.493	81263
627.557	79975
627.620	83421
627.684	84509
627.747	84653
627.810	75506
627.874	70708
627.937	68123
628.000	70373
628.064	67998
628.127	60964
628.190	60478
628.253	59855
628.317	56742
628.380	55588
628.443	53166
628.506	53039
628.569	51205
628.632	49518
628.696	49346
628.759	48769
628.822	45732
628.885	45113
628.948	44861
629.011	44373
629.074	42632
629.137	41743
629.200	38799
629.263	41526
629.326	37480
629.389	38642
629.452	36896
629.515	38004
629.578	36231
629.641	38702
629.704	35592
629.767	36001
629.830	36659
629.892	34944
629.955	34625
630.018	36187
630.081	33673
630.144	34867
630.207	32628
630.269	34388
630.332	31164
630.395	31818
630.458	31709
630.520	30119
630.583	31582
630.646	30701
630.708	31135
630.771	30852
630.834	33964
630.896	31937
630.959	31037
631.021	30007
631.084	30434
631.146	30595
631.209	31299
631.272	29299
631.334	31098
631.397	30019
631.459	29447
631.522	30821
631.584	30763
631.646	33126
631.709	32241
631.771	31923
631.834	31155
631.896	30426
631.958	28928
632.021	30153
632.083	27178
632.145	28493
632.208	28181
632.270	29949
632.332	28083
632.395	28364
632.457	29813
632.519	27025
632.581	28896
632.643	27606
632.706	27645
632.768	27243
632.830	28456
632.892	29106
632.954	28078
633.016	29054
633.078	27216
633.141	28757
633.203	27599
633.265	28360
633.327	27401
633.389	27725
633.451	27528
633.513	27304
633.575	28828
633.637	26984
633.698	28248
633.760	30486
633.822	30168
633.884	30133
633.946	30450
634.008	30296
634.070	29538
634.132	31004
634.193	31560
634.255	34548
634.317	34207
634.379	34079
634.441	29740
634.502	29096
634.564	28445
634.626	27203
634.687	26170
634.749	25239
634.811	25670
634.873	25544
634.934	25347
634.996	27053
635.057	25442
635.119	26085
635.181	26680
635.242	26496
635.304	26166
635.365	29135
635.427	26253
635.488	26641
635.550	25326
635.611	26621
635.673	23321
635.734	26966
635.796	25968
635.857	29222
635.918	28438
635.980	31724
636.041	31466
636.102	33097
636.164	33863
636.225	32831
636.286	27038
636.348	27362
636.409	25716
636.470	24883
636.531	26681
636.593	24807
636.654	24627
636.715	25354
636.776	24715
636.838	23688
636.899	24515
636.960	23833
637.021	24094
637.082	23313
637.143	23611
637.204	22100
637.265	22572
637.326	23995
637.387	23158
637.448	22378
637.509	23687
637.570	23722
637.631	24475
637.692	20602
637.753	21449
637.814	23346
637.875	21811
637.936	22898
637.997	21904
638.058	22316
638.119	22100
638.179	23666
638.240	21461
638.301	22803
638.362	20890
638.423	21019
638.483	21478
638.544	19939
638.605	22095
638.666	20529
638.726	22160
638.787	22419
638.848	20838
638.908	21413
638.969	20897
639.030	20664
639.090	19945
639.151	19568
639.211	21897
639.272	21652
639.332	21130
639.393	21574
639.453	20466
639.514	21923
639.574	20639
639.635	19568
639.695	20170
639.756	18531
639.816	19313
639.877	19348
639.937	20438
639.997	20590
640.058	18323
640.118	18931
640.178	19921
640.239	19060
640.299	19842
640.359	19089
640.420	20518
640.480	21584
640.540	22269
640.600	21920
640.661	21036
640.721	19722
640.781	21112
640.841	18102
640.901	20471
640.961	19787
641.021	19839
641.082	18863
641.142	18963
641.202	19979
641.262	16931
641.322	20088
641.382	17645
641.442	19774
641.502	17919
641.562	19438
641.622	18423
641.682	19855
641.742	20444
641.802	19957
641.861	19020
641.921	17905
641.981	18286
642.041	17694
642.101	17308
642.161	16253
642.221	17561
642.280	17218
642.340	17151
642.400	16007
642.460	18714
642.519	18005
642.579	17554
642.639	18726
642.698	16412
642.758	20400
642.818	17915
642.877	16322
642.937	17201
642.997	19249
643.056	18118
643.116	16295
643.175	19107
643.235	18672
643.294	17931
643.354	19999
643.414	19739
643.473	21568
643.532	22627
643.592	27449
643.651	36696
643.711	57881
643.770	99938
643.830	225639
643.889	410541
643.948	111829
644.008	32547
644.067	23921
644.126	19143
644.186	19131
644.245	18595
644.304	16977
644.363	18564
644.423	16161
644.482	17488
644.541	17889
644.600	16478
644.659	20001
644.719	22373
644.778	28756
644.837	44712
644.896	83965
644.955	173770
645.014	57951
645.073	22243
645.132	18336
645.191	17312
645.250	17206
645.309	18858
645.368	19013
645.427	23038
645.486	32867
645.545	50942
645.604	19703
645.663	17277
645.722	16435
645.781	17541
645.840	18494
645.898	19751
645.957	26386
646.016	32610
646.075	54569
646.134	95285
646.192	240705
646.251	311770
646.310	58054
646.369	25004
646.427	23597
646.486	17843
646.545	16870
646.603	16594
646.662	16080
646.721	16006
646.779	15286
646.838	14429
646.896	17712
646.955	20016
647.014	29352
647.072	48760
647.131	124080
647.189	56316
647.248	15954
647.306	15060
647.365	14545
647.423	11015
647.481	14450
647.540	11547
647.598	12426
647.657	11933
647.715	12908
647.773	12375
647.832	13297
647.890	10665
647.948	11490
648.007	11994
648.065	9689
648.123	9997
648.181	11411
648.240	10444
648.298	9812
648.356	10110
648.414	10363
648.472	10298
648.531	11337
648.589	10120
648.647	9440
648.705	9053
648.763	9479
648.821	9956
648.879	9554
648.937	10305
648.995	10998
649.053	12923
649.111	17853
649.169	25739
649.227	43544
649.285	86833
649.343	231803
649.401	100395
649.459	17990
649.516	14297
649.574	9978
649.632	10609
649.690	11878
649.748	13840
649.806	18582
649.863	33209
649.921	89211
649.979	53150
650.037	11328
650.094	7034
650.152	8072
650.210	6570
650.268	8817
650.325	7283
650.383	6243
650.440	7061
650.498	6756
650.556	6864
650.613	7179
650.671	6697
650.728	6904
650.786	7054
650.843	8610
650.901	5793
650.958	6598
651.016	5302
651.073	6124
651.131	4807
651.188	5896
651.246	4950
651.303	5074
651.360	5423
651.418	5417
651.475	5680
651.532	4106
651.590	5359
651.647	5054
651.704	4068
651.762	4752
651.819	5001
651.876	4813
651.933	4335
651.990	5155
652.048	3493
652.105	4356
652.162	4167
652.219	3803
652.276	4734
652.333	4320
652.390	3347
652.448	4221
652.505	3886
652.562	4224
652.619	3141
652.676	4502
652.733	4314
652.790	4380
652.847	2794
652.904	4887
652.961	2234
653.017	3370
653.074	4267
653.131	3822
653.188	2825
653.245	4187
653.302	3630
653.359	3538
653.415	3880
653.472	3329
653.529	4280
653.586	3232
653.642	3670
653.699	4288
653.756	2508
653.813	2854
653.869	3846
653.926	2991
653.983	2440
654.039	4226
654.096	3302
654.152	3440
654.209	2330
654.266	4313
654.322	2104
654.379	4017
654.435	2913
654.492	2753
654.548	2526
654.605	2860
654.661	3631
654.717	3774
654.774	2784
654.830	2911
654.887	3051
654.943	2999
655.000	3610
655.056	3837
655.112	3112
655.168	1432
655.225	3498
655.281	3179
655.337	2459
655.394	3287
655.450	3146
655.506	2964
655.562	2252
655.618	3672
655.675	2170
655.731	2528
655.787	2273
655.843	3452
655.899	2888
655.955	3785
656.011	3166
656.067	2081
656.123	3153
656.179	2996
656.235	4167
656.291	2079
656.347	4429
656.403	2365
656.459	2877
656.515	3300
656.571	2279
656.627	2912
656.683	3363
656.739	3568
656.795	3179
656.850	2657
656.906	2340
656.962	4293
657.018	2351
657.074	3853
657.129	4702
657.185	8001
657.241	18760
657.297	10356
657.352	2804
657.408	2891
657.464	3030
657.519	2505
657.575	2503
657.630	2979
657.686	2160
657.742	2452
657.797	2636
657.853	3068
657.908	2691
657.964	1212
658.019	2395
658.075	2611
658.130	3004
658.186	1779
658.241	2682
658.297	1240
658.352	2621
658.407	2847
658.463	1559
658.518	2569
658.573	2317
658.629	1756
658.684	2138
658.739	2228
658.795	2254
658.850	2208
658.905	1847
658.960	2064
659.016	1767
659.071	2521
659.126	1835
659.181	2007
659.236	2563
659.291	3223
659.346	1610
659.401	2497
659.457	2707
659.512	1885
659.567	2778
659.622	2640
659.677	2089
659.732	777
659.787	2020
659.842	954
659.897	1771
659.952	1988
660.007	2234
660.061	2067
660.116	379
660.171	2031
660.226	2341
660.281	2667
660.336	1537
660.391	2061
660.445	868
660.500	1345
660.555	2399
660.610	2329
660.664	1754
660.719	1776
660.774	1015
660.828	2034
660.883	2176
660.938	2036
660.992	1196
661.047	2524
661.101	1972
661.156	897
661.211	1430
661.265	1481
661.320	1339
661.374	2082
661.429	568
661.483	2029
661.538	370
661.592	2009
661.647	1935
661.701	2105
661.755	1088
661.810	1760
661.864	1673
661.919	1360
661.973	1096
662.027	1331
662.081	946
662.136	1054
662.190	1850
662.244	1089
662.299	1292
662.353	1766
662.407	1230
662.461	1826
662.515	1880
662.569	1673
662.624	2339
662.678	2185
662.732	1726
662.786	1874
662.840	1372
662.894	1502
662.948	943
663.002	2348
663.056	1150
663.110	1295
663.164	1056
663.218	1177
663.272	1890
663.326	2165
663.380	1219
663.434	1694
663.488	810
663.542	1293
663.595	1651
663.649	1085
663.703	1862
663.757	936
663.811	537
663.864	720
663.918	2181
663.972	1584
664.026	1549
664.079	1607
664.133	1979
664.187	2467
664.240	1312
664.294	2089
664.348	1342
664.401	1266
664.455	1827
664.508	1388
664.562	1248
664.615	2283
664.669	597
664.722	1025
664.776	1335
664.829	2152
664.883	971
664.936	406
664.990	978
665.043	2207
665.097	1455
665.150	1768
665.203	1421
665.257	609
665.310	1621
665.363	1457
665.417	2401
665.470	1457
665.523	1685
665.576	1489
665.630	1150
665.683	1963
665.736	1452
665.789	1883
665.842	1265
665.895	1512
665.949	1164
666.002	2156
666.055	1726
666.108	1954
666.161	1366
666.214	1911
666.267	1075
666.320	2095
666.373	2060
666.426	2103
666.479	1255
666.532	1881
666.585	2100
666.638	1449
666.691	1418
666.744	2517
666.796	1827
666.849	2059
666.902	2403
666.955	1580
667.008	2102
667.060	1717
667.113	1591
667.166	1504
667.219	1840
667.271	2471
667.324	1914
667.377	2482
667.430	1507
667.482	2058
667.535	1205
667.587	2347
667.640	2040
667.693	1598
667.745	1431
667.798	2507
667.850	1643
667.903	2290
667.955	1532
668.008	1672
668.060	1586
668.113	1470
668.165	1957
668.218	1845
668.270	1723
668.322	2613
668.375	721
668.427	2437
668.479	1574
668.532	1593
668.584	1694
668.636	1687
668.689	2023
668.741	577
668.793	316
668.845	1808
668.898	1694
668.950	2290
669.002	1263
669.054	1454
669.106	1073
669.158	2084
669.211	1188
669.263	1025
669.315	1391
669.367	1714
669.419	855
669.471	1935
669.523	1174
669.575	1773
669.627	1449
669.679	1653
669.731	421
669.783	1612
669.835	1304
669.886	1416
669.938	1077
669.990	1294
670.042	981
670.094	1153
670.146	861
670.197	1113
670.249	1073
670.301	1508
670.353	1316
670.404	2201
670.456	847
670.508	1927
670.560	1626
670.611	3249
670.663	3934
670.715	10525
670.766	15004
670.818	4182
670.869	1328
670.921	1670
670.972	1749
671.024	1478
671.075	835
671.127	451
671.178	1075
671.230	1849
671.281	1729
671.333	1781
671.384	2006
671.436	2666
671.487	3949
671.538	5713
671.590	9865
671.641	18402
671.692	34079
671.744	67487
671.795	34449
671.846	9958
671.897	4827
671.949	2637
672.000	2499
672.051	2297
672.102	1303
672.153	1381
672.204	431
672.256	1453
672.307	487
672.358	925
672.409	1216
672.460	993
672.511	253
672.562	-30
672.613	-374
672.664	196
672.715	1011
672.766	192
672.817	-364
672.868	501
672.919	285
672.970	-300
673.021	1264
673.071	1011
673.122	511
673.173	723
673.224	76
673.275	-65
673.326	62
673.376	1103
673.427	-328
673.478	-9
673.528	369
673.579	375
673.630	268
673.680	699
673.731	437
673.782	544
673.832	49
673.883	431
673.934	-242
673.984	101
674.035	93
674.085	427
674.136	81
674.186	443
674.237	181
674.287	106
674.338	-171
674.388	751
674.438	-99
674.489	558
674.539	243
674.589	72
674.640	448
674.690	658
674.740	7
674.791	225
674.841	-52
674.891	723
674.942	350
674.992	93
675.042	-130
675.092	315
675.142	-478
675.193	-46
675.243	-354
675.293	227
675.343	66
675.393	-286
675.443	16
675.493	1143
675.543	-573
675.593	-572
675.643	-258
675.693	364
675.743	200
675.793	638
675.843	-773
675.893	272
675.943	406
675.993	23
676.043	223
676.093	800
676.142	-275
676.192	-30
676.242	-405
676.292	883
676.341	-923
676.391	-328
676.441	-210
676.491	37
676.540	-619
676.590	410
676.640	-9
676.689	219
676.739	-285
676.789	450
676.838	-948
676.888	-737
676.937	-849
676.987	-1025
677.037	-1146
677.086	-451
677.136	-3
677.185	-331
677.235	-132
677.284	-898
677.333	-379
677.383	-879
677.432	-1037
677.482	434
677.531	261
677.580	-1081
677.630	-257
677.679	-633
677.728	-540
677.778	397
677.827	-227
677.876	90
677.925	-355
677.975	-175
678.024	-579
678.073	-804
678.122	-809
678.171	-713
678.220	-146
678.269	862
678.319	-91
678.368	308
678.417	-928
678.466	362
678.515	-67
678.564	318
678.613	-1224
678.662	-499
678.711	-673
678.760	121
678.809	-269
678.857	-197
678.906	-196
678.955	-603
679.004	-892
679.053	-235
679.102	-909
679.151	-48
679.199	-758
679.248	-371
679.297	-762
679.346	-846
679.394	-1084
679.443	-613
679.492	292
679.540	-460
679.589	-559
679.638	-441
679.686	-774
679.735	113
679.784	-241
679.832	-20
679.881	-826
679.929	-461
679.978	-485
680.026	-383
680.075	-1269
680.123	-1282
680.172	-1146
680.220	-557
680.268	-397
680.317	-1233
680.365	-770
680.414	-1239
680.462	-621
680.510	-212
680.559	-1794
680.607	-543
680.655	-884
680.703	-620
680.752	-402
680.800	-57
680.848	-1468
680.896	-839
680.945	-403
680.993	-1349
681.041	-803
681.089	-810
681.137	-424
681.185	-782
681.233	-563
681.258	-452
681.281	-372
681.329	-413
681.377	-400
681.380	-375
681.425	-329
681.473	79
681.502	-425
681.521	-827
681.569	530
681.617	-414
681.624	-321
681.665	97
681.713	220
681.745	548
681.761	667
681.809	-703
681.857	490
681.867	389
681.904	-71
681.952	-378
681.989	-486
682.000	-549
682.048	-154
682.096	-608
682.111	-345
682.143	113
682.191	-596
682.233	454
682.239	589
682.286	9
682.334	721
682.354	516
682.382	175
682.430	1169
682.476	719
682.477	688
682.525	572
682.572	326
682.598	463
682.620	537
682.667	624
682.715	715
682.720	773
682.763	1067
682.810	1030
682.841	448
682.857	141
682.905	981
682.952	1278
682.963	1356
683.000	1449
683.047	736
683.085	2268
683.095	2678
683.142	878
683.190	1474
683.206	1262
683.237	766
683.284	1441
683.328	1416
683.332	1400
683.379	1423
683.426	990
683.449	1269
683.473	1534
683.521	1288
683.568	1843
683.571	1864
683.615	1872
683.662	1684
683.693	1926
683.709	2011
683.757	1683
683.804	1867
683.814	1775
683.851	1440
683.898	2354
683.936	2365
683.945	2341
683.992	2385
684.039	1892
684.057	1984
684.086	2119
684.133	1684
684.179	1076
684.180	1038
684.227	2629
684.274	1328
684.300	2158
684.321	2894
684.368	1732
684.415	3066
684.422	2965
684.462	2157
684.509	2741
684.543	2524
684.556	2431
684.603	3224
684.649	2690
684.665	2789
684.696	2932
684.743	2609
684.786	3352
684.790	3402
684.837	2339
684.883	3150
684.908	3263
684.930	3389
684.977	3305
685.023	2941
685.029	3037
685.070	3527
685.117	3133
685.150	3273
685.164	3358
685.210	2937
685.257	3575
685.272	3573
685.303	3475
685.350	3425
685.393	3442
685.396	3429
685.443	3510
685.490	3368
685.514	3415
685.536	3510
685.583	3414
685.629	3665
685.636	3700
685.675	3787
685.722	4043
685.757	3770
685.768	3692
685.815	3537
685.861	3323
685.878	3508
685.908	3712
685.954	3494
686.000	3847
686.000	3852
686.047	3548
686.093	4134
686.121	4162
686.139	4101
686.185	4145
686.232	4067
686.242	4245
686.278	4848
686.324	4170
686.363	4161
686.370	4143
686.416	4369
686.463	4996
686.484	4501
686.509	4056
686.555	4505
686.601	4444
686.606	4522
686.647	5060
686.693	4499
686.727	4308
686.739	4234
686.785	5075
686.831	4762
686.848	4692
686.877	4530
686.923	4836
686.969	4673
686.969	4672
687.015	5271
687.061	5104
687.090	5596
687.107	5733
687.153	5862
687.199	5431
687.211	5318
687.245	5075
687.291	5619
687.332	5521
687.336	5511
687.382	5338
687.428	5152
687.453	5282
687.474	5401
687.520	5659
687.565	5136
687.574	5261
687.611	5861
687.657	5763
687.695	5766
687.702	5760
687.748	6040
687.794	5961
687.816	6049
687.839	6159
687.885	6197
687.931	6485
687.937	6398
687.976	5874
688.022	6032
688.058	5786
688.067	5724
688.113	6030
688.158	6075
688.179	6248
688.204	6450
688.249	6251
688.295	6590
688.300	6573
688.340	6491
688.386	6463
688.421	6251
688.431	6217
688.477	6607
688.522	6475
688.542	6698
688.567	7046
688.613	6941
688.658	7075
688.663	7074
688.703	6901
688.749	7126
688.784	6945
688.794	6929
688.839	6464
688.884	7180
688.905	7151
688.930	7092
688.975	7281
689.020	7340
689.026	7247
689.065	6650
689.110	6923
689.146	6823
689.155	6849
689.201	7248
689.246	6839
689.267	7073
689.291	7216
689.336	7626
689.381	7251
689.388	7173
689.426	6991
689.471	7392
689.509	7649
689.516	7701
689.561	8054
689.606	7252
689.630	7529
689.651	7688
689.696	7509
689.741	7259
689.750	7180
689.785	7175
689.830	7518
689.871	7769
689.875	7789
689.920	7710
689.965	7681
689.992	7587
690.010	7550
690.054	7352
690.099	7494
690.112	7435
690.144	7413
690.189	7660
690.233	7436
690.233	7447
690.278	7851
690.323	7080
690.354	7189
690.367	7338
690.412	7602
690.457	7752
690.474	7851
690.501	7871
690.546	7998
690.590	7758
690.595	7694
690.635	7331
690.680	7377
690.716	7318
690.724	7357
690.769	7682
690.813	8250
690.836	7917
690.857	7706
690.902	8075
690.946	8556
690.957	8586
690.991	8637
691.035	8814
691.077	9206
691.080	9234
691.124	9091
691.168	8984
691.198	8666
691.213	8500
691.257	8476
691.301	8042
691.318	8036
691.346	8202
691.390	8201
691.434	8436
691.439	8422
691.478	8353
691.522	8709
691.559	8275
691.567	8307
691.611	8942
691.655	9423
691.680	9558
691.699	9239
691.743	8634
691.787	8245
691.800	8078
691.831	8467
691.875	8826
691.919	9600
691.921	9589
691.964	9183
692.008	9033
692.041	9014
692.052	9141
692.096	8938
692.139	9203
692.162	9356
692.183	9282
692.227	9239
692.271	8431
692.282	8413
692.315	8814
692.359	8774
692.402	9472
692.403	9495
692.447	9035
692.490	8696
692.523	8903
692.534	9074
692.578	9144
692.622	9134
692.643	9243
692.666	9225
692.709	9117
692.753	8614
692.763	8567
692.797	8838
692.840	9024
692.884	9186
692.884	9209
692.928	9685
692.971	9411
693.004	9673
693.015	9739
693.059	9461
693.102	9580
693.124	9536
693.146	9516
693.189	9453
693.233	8886
693.245	8954
693.276	9325
693.320	9103
693.363	9283
693.365	9250
693.407	9173
693.450	9420
693.485	9625
693.493	9648
693.537	9594
693.580	9380
693.605	9326
693.624	9376
693.667	9574
693.710	9452
693.725	9373
693.753	9852
693.797	10949
693.840	11719
693.845	11803
693.883	11308
693.926	10664
693.966	10011
693.970	10035
694.013	10055
694.056	10287
694.086	10138
694.099	10041
694.142	10085
694.185	9765
694.206	9753
694.229	10008
694.272	10099
694.315	10394
694.326	10399
694.358	10418
694.401	10622
694.444	10338
694.446	10338
694.487	10769
694.530	10360
694.566	10293
694.573	10346
694.616	10405
694.659	10588
694.686	10683
694.702	10832
694.745	11191
694.787	11382
694.806	11511
694.830	11394
694.873	10939
694.916	10505
694.926	10369
694.959	10765
695.002	11455
695.044	11975
695.046	11972
695.087	11917
695.130	11408
695.166	11244
695.172	11365
695.215	11992
695.258	12516
695.286	12820
695.301	12927
695.343	13124
695.386	13524
695.406	13594
695.428	14094
695.471	14812
695.514	15950
695.526	16132
695.556	16917
695.599	18366
695.641	19388
695.646	19469
695.684	18499
695.726	17418
695.766	16222
695.769	16217
695.811	15695
695.854	15034
695.886	14469
695.896	14619
695.938	15170
695.981	15584
696.005	15903
696.023	16448
696.065	17622
696.108	18826
696.125	19259
696.150	19383
696.192	19532
696.235	19484
696.245	19462
696.277	19504
696.319	19529
696.361	19529
696.365	19463
696.404	19310
696.446	19425
696.485	19175
696.488	19226
696.530	19424
696.572	19411
696.604	19503
696.614	19557
696.656	19470
696.698	19536
696.724	19464
696.740	19449
696.783	19181
696.825	19090
696.844	18934
696.867	19037
696.909	19191
696.951	19293
696.964	19270
696.992	19724
697.034	20323
697.076	20959
697.083	21017
697.118	21531
697.160	22060
697.202	22585
697.203	22538
697.244	22189
697.286	21902
697.323	21482
697.327	21541
697.369	21613
697.411	21616
697.442	21627
697.453	21745
697.494	21860
697.536	22130
697.562	22203
697.578	22229
697.620	22166
697.661	22038
697.682	21931
697.703	22359
697.744	23090
697.786	23962
697.801	24113
697.828	23983
697.869	23816
697.911	23676
697.921	23574
697.952	23505
697.994	23335
698.035	23111
698.040	23025
698.077	23589
698.118	24161
698.160	24729
698.160	24665
698.201	25048
698.243	25348
698.279	25553
698.284	25702
698.325	26430
698.367	27207
698.399	27682
698.408	27745
698.449	27718
698.491	27714
698.518	27617
698.532	27765
698.573	27995
698.614	28251
698.638	28301
698.656	28320
698.697	28196
698.738	28072
698.757	27936
698.779	27923
698.820	27744
698.862	27576
698.877	27437
698.903	27615
698.944	27779
698.985	27932
698.996	27901
699.026	27843
699.067	27651
699.116	27349
699.235	27307
699.354	27942
699.474	25247
699.593	26034
699.713	26015
699.832	26441
699.951	27084
700.070	26409
700.190	24233
700.309	23311
700.428	23472
700.547	23017
700.667	22622
700.786	23042
700.905	21793
701.024	22196
701.143	22762
701.262	24460
701.381	23249
701.500	24029
701.619	23347
701.738	24626
701.857	23274
701.976	22480
702.095	22794
702.214	24320
702.333	22253
702.452	23305
702.571	23380
702.690	23675
702.809	23032
702.928	21702
703.047	19827
703.165	21525
703.284	21481
703.403	20247
703.522	19980
703.640	20463
703.759	19220
703.878	19832
703.997	19651
704.115	20088
704.234	18995
704.353	19908
704.471	18689
704.590	18020
704.708	18314
704.827	18685
704.946	17535
705.064	18474
705.183	17352
705.301	18927
705.420	17273
705.538	17359
705.656	15560
705.775	16174
705.893	16185
706.012	16939
706.130	16015
706.249	17237
706.367	16199
706.485	17103
706.604	14586
706.722	15465
706.840	16277
706.958	16442
707.077	15251
707.195	14730
707.313	14734
707.431	14225
707.549	14555
707.668	13007
707.786	15763
707.904	14553
708.022	15101
708.140	13522
708.258	12839
708.376	15574
708.494	12576
708.612	14426
708.730	13635
708.848	12855
708.966	14288
709.084	14833
709.202	15377
709.320	13185
709.438	13048
709.556	13189
709.674	12162
709.791	13214
709.909	12162
710.027	12481
710.145	12855
710.263	12668
710.380	11946
710.498	11797
710.616	12346
710.733	11640
710.851	11100
710.969	11172
711.086	10928
711.204	11274
711.322	11003
711.439	11508
711.557	10902
711.674	11701
711.792	10500
711.909	10702
712.027	10573
712.144	10191
712.262	10313
712.379	11305
712.497	10861
712.614	10718
712.732	11625
712.849	9977
712.966	10137
713.084	10777
713.201	7880
713.318	10323
713.436	11571
713.553	10537
713.670	11426
713.787	10575
713.905	8811
714.022	10973
714.139	10990
714.256	12535
714.373	15772
714.490	26981
714.608	64742
714.725	250994
714.842	209859
714.959	24943
715.076	12668
715.193	12316
715.310	10632
715.427	9541
715.544	9977
715.661	9593
715.778	8449
715.895	9383
716.011	9450
716.128	8860
716.245	8645
716.362	8527
716.479	8740
716.596	8662
716.713	8177
716.829	8711
716.946	7381
717.063	7540
717.180	7247
717.296	8581
717.413	8376
717.530	8342
717.646	6876
717.763	7780
717.880	7629
717.996	7644
718.113	6681
718.229	7972
718.346	6036
718.462	7121
718.579	7507
718.695	7200
718.812	6738
718.928	7422
719.045	6374
719.161	6992
719.277	6652
719.394	8318
719.510	6821
719.626	7838
719.743	8370
719.859	12915
719.975	23878
720.092	92074
720.208	178585
720.324	23223
720.440	8785
720.557	7005
720.673	7381
720.789	7394
720.905	6892
721.021	7771
721.137	5371
721.253	5999
721.369	5539
721.486	6196
721.602	5916
721.718	6023
721.834	5952
721.950	6709
722.066	5409
722.181	6705
722.297	5158
722.413	5839
722.529	5842
722.645	6001
722.761	5224
722.877	6010
722.993	5035
723.108	8067
723.224	5480
723.340	5298
723.456	5271
723.571	5479
723.687	4985
723.803	5160
723.918	4974
724.034	4916
724.150	4315
724.265	5781
724.381	4686
724.497	4894
724.612	5322
724.728	4916
724.843	4493
724.959	4885
725.074	4999
725.190	5238
725.305	4479
725.421	5603
725.536	5984
725.651	6276
725.767	4874
725.882	6094
725.997	4732
726.113	6032
726.228	5315
726.343	4610
726.459	4577
726.574	4912
726.689	4387
726.804	4582
726.920	5206
727.035	5154
727.150	5203
727.265	5039
727.380	5417
727.495	5478
727.610	4261
727.725	5334
727.841	4210
727.956	4715
728.071	3664
728.186	4940
728.301	3721
728.416	5513
728.531	4166
728.645	4829
728.760	4531
728.875	4149
728.990	3887
729.105	5014
729.220	3741
729.335	5170
729.449	5150
729.564	4922
729.679	4443
729.794	5084
729.908	4815
730.023	4310
730.138	4560
730.253	5744
730.367	4938
730.482	4651
730.596	4370
730.711	6509
730.826	7970
730.940	6870
731.055	6080
731.169	7529
731.284	5852
731.398	6778
731.513	6686
731.627	8262
731.742	11518
731.856	12274
731.970	10790
732.085	13152
732.199	16103
732.313	25299
732.428	60019
732.542	173362
732.656	94572
732.771	21920
732.885	16292
732.999	16232
733.113	18558
733.227	17524
733.342	17431
733.456	17205
733.570	16831
733.684	16616
733.798	14926
733.912	15785
734.026	14641
734.140	15227
734.254	14550
734.368	15295
734.482	14180
734.596	14291
734.710	14695
734.824	14506
734.938	12877
735.052	14432
735.166	13513
735.280	14016
735.393	12272
735.507	13787
735.621	13158
735.735	12731
735.849	13381
735.962	12812
736.076	13183
736.190	12674
736.303	12379
736.417	13041
736.531	11633
736.644	12158
736.758	11647
736.872	11357
736.985	11661
737.099	12540
737.212	11324
737.326	11115
737.439	12034
737.553	10362
737.666	11333
737.780	11192
737.893	11296
738.007	10817
738.120	11900
738.233	10256
738.347	11456
738.460	10569
738.573	11374
738.687	10164
738.800	10589
738.913	11351
739.026	10465
739.140	9440
739.253	10064
739.366	10841
739.479	9231
739.592	10472
739.705	8995
739.818	11577
739.932	8746
740.045	10785
740.158	10688
740.271	10249
740.384	9290
740.497	7603
740.610	8974
740.723	8897
740.836	8629
740.949	10082
741.062	10006
741.174	8893
741.287	8468
741.400	9178
741.513	7887
741.626	10160
741.739	8051
741.851	8415
741.964	8527
742.077	8699
742.189	7072
742.302	9907
742.415	8026
742.527	7391
742.640	7629
742.753	6602
742.865	7951
742.978	8068
743.090	7833
743.203	7742
743.316	6810
743.428	7577
743.541	7839
743.653	6263
743.766	6776
743.878	8331
743.990	6310
744.103	7635
744.215	7251
744.327	5449
744.440	8227
744.552	6813
744.664	6613
744.777	8229
744.889	6765
745.001	7276
745.113	7552
745.226	5983
745.338	5976
745.450	7736
745.562	6353
745.674	6788
745.786	7300
745.898	7395
746.010	5387
746.122	7256
746.234	6305
746.347	6167
746.459	5785
746.570	5438
746.682	7526
746.794	8238
746.906	5200
747.018	6007
747.130	6630
747.242	5545
747.354	5946
747.466	6870
747.577	5339
747.689	5821
747.801	5870
747.913	5259
748.024	5240
748.136	5409
748.248	5038
748.359	5731
748.471	6649
748.583	5715
748.694	5008
748.806	6187
748.918	5045
749.029	6250
749.141	5925
749.252	6222
749.364	3804
749.475	4142
749.587	4760
749.698	5312
749.809	5393
749.921	4963
750.032	4262
750.144	3998
750.255	4500
750.366	5581
750.478	4401
750.589	5104
750.700	4267
750.811	5440
750.923	4464
751.034	4670
751.145	4569
751.256	5083
751.367	3980
751.479	4835
751.590	4220
751.701	4848
751.812	3446
751.923	4226
752.034	4554
752.145	4869
752.256	3889
752.367	3492
752.478	4224
752.589	5054
752.700	4621
752.811	3654
752.922	4301
753.032	5115
753.143	4568
753.254	4062
753.365	4062
753.476	5596
753.586	4391
753.697	3948
753.808	4228
753.919	3617
754.029	4591
754.140	3373
754.251	3829
754.361	3647
754.472	4750
754.582	3524
754.693	3901
754.804	4415
754.914	3777
755.025	2808
755.135	4359
755.246	4385
755.356	3013
755.466	3613
755.577	3292
755.687	3882
755.798	3245
755.908	3679
756.018	3235
756.129	4679
756.239	4648
756.349	3889
756.460	3403
756.570	3894
756.680	3238
756.790	3431
756.900	3997
757.011	3112
757.121	3198
757.231	3416
757.341	3635
757.451	3904
757.561	2926
757.671	4795
757.781	3801
757.891	4477
758.001	2515
758.111	3528
758.221	3934
758.331	4428
758.441	3471
758.551	2579
758.661	3335
758.771	3605
758.880	2482
758.990	3303
759.100	3583
759.210	3303
759.320	3199
759.429	3335
759.539	3635
759.649	2532
759.758	4159
759.868	4295
759.978	2688
760.087	4953
760.197	4089
760.307	3502
760.416	3610
760.526	2752
760.635	4279
760.745	4036
760.854	3311
760.964	5152
761.073	4185
761.182	4643
761.292	3465
761.401	3197
761.511	2166
761.620	3394
761.729	2444
761.839	2427
761.948	2818
762.057	2122
762.166	2706
762.276	2409
762.385	3928
762.494	2291
762.603	2096
762.712	3631
762.822	2601
762.931	2836
763.040	1521
763.149	2943
763.258	2595
763.367	3268
763.476	2781
763.585	2413
763.694	2237
763.803	2871
763.912	2259
764.021	2912
764.130	1793
764.238	3500
764.347	2446
764.456	2725
764.565	2209
764.674	3336
764.783	2632
764.891	2868
765.000	3969
765.109	3398
765.217	3260
765.326	3257
765.435	2854
765.543	4553
765.652	3797
765.761	4004
765.869	6180
765.978	8693
766.086	15103
766.195	29193
766.303	76766
766.412	203728
766.520	160052
766.629	47330
766.737	17702
766.846	10449
766.954	6595
767.062	6817
767.171	4365
767.279	4064
767.387	3993
767.496	3579
767.604	3832
767.712	2819
767.820	2682
767.928	3434
768.037	2098
768.145	3335
768.253	2889
768.361	3363
768.469	2063
768.577	2450
768.685	2739
768.793	3278
768.901	3221
769.009	4037
769.117	2612
769.225	4098
769.333	5457
769.441	7964
769.549	12314
769.657	27830
769.765	91414
769.873	171727
769.981	58378
770.088	14461
770.196	7821
770.304	7519
770.412	5727
770.519	4800
770.627	4743
770.735	4736
770.842	4840
770.950	4522
771.058	3850
771.165	6864
771.273	6215
771.380	6113
771.488	10040
771.595	11030
771.703	9150
771.810	9423
771.918	8898
772.025	11306
772.133	12282
772.240	11274
772.348	13586
772.455	12688
772.562	12006
772.670	11032
772.777	11982
772.884	12180
772.991	9634
773.099	11832
773.206	9688
773.313	10814
773.420	10918
773.528	10577
773.635	10469
773.742	12030
773.849	10114
773.956	10416
774.063	9549
774.170	10616
774.277	9752
774.384	9939
774.491	9417
774.598	10125
774.705	8962
774.812	10503
774.919	9022
775.026	9939
775.133	10024
775.239	9513
775.346	9112
775.453	8921
775.560	8052
775.667	10191
775.773	8356
775.880	8736
775.987	8153
776.093	9305
776.200	9467
776.307	6728
776.413	7797
776.520	9041
776.627	8312
776.733	7815
776.840	6079
776.946	11130
777.053	7313
777.159	8089
777.266	6125
777.372	8916
777.478	8241
777.585	9000
777.691	6057
777.798	8328
777.904	7079
778.010	7124
778.117	7189
778.223	6301
778.329	7340
778.435	5840
778.542	7825
778.648	7000
778.754	6146
778.860	7741
778.966	6182
779.072	5639
779.178	6742
779.284	5953
779.391	6148
779.497	6677
779.603	7893
779.708	5316
779.815	6226
779.920	7736
780.026	6739
780.132	6596
780.238	5651
780.344	4504
780.450	7841
780.556	4933
780.661	4882
780.767	6786
780.873	4172
780.979	5939
781.085	6666
781.190	5457
781.296	3964
781.402	5784
781.507	6105
781.613	3744
781.719	4215
781.824	6292
781.930	5698
782.035	5813
782.141	6977
782.246	3718
782.352	4881
782.457	5313
782.563	5345
782.668	5128
782.773	3999
782.879	4859
782.984	5886
783.090	5122
783.195	5649
783.300	7624
783.405	4500
783.511	3874
783.616	4831
783.721	5765
783.826	4626
783.932	4293
784.037	4199
784.142	4894
784.247	3762
784.352	4957
784.457	3523
784.562	5115
784.667	4746
784.772	3099
784.877	1921
784.982	5366
785.087	4674
785.192	3951
785.297	3376
785.402	4020
785.507	3672
785.611	3893
785.716	2464
785.821	4854
785.926	4673
786.031	4256
786.135	3760
786.240	4583
786.345	2972
786.450	3651
786.554	4087
786.659	3349
786.763	2911
786.868	4296
786.973	4387
787.077	3257
787.182	2912
787.286	4569
787.391	3651
787.495	3225
787.600	2244
787.704	3691
787.809	3091
787.913	3388
788.017	3884
788.122	4649
788.226	3186
788.330	1063
788.435	3074
788.539	3759
788.643	2548
788.747	2506
788.852	3216
788.956	2564
789.060	3256
789.164	3714
789.268	2060
789.372	3611
789.476	2294
789.580	2301
789.684	2476
789.788	4110
789.892	2755
789.996	1903
790.100	1378
790.204	3267
790.308	3617
790.412	1805
790.516	1486
790.620	2698
790.724	4181
790.828	3640
790.931	949
791.035	3819
791.139	2411
791.242	2535
791.346	3836
791.450	3385
791.554	1376
791.657	1180
791.761	2896
791.864	3240
791.968	1941
792.072	2973
792.175	2466
792.279	2126
792.382	2714
792.486	1125
792.589	1754
792.693	3008
792.796	907
792.899	2880
793.003	2334
793.106	1807
793.209	1291
793.313	2445
793.416	-315
793.519	2849
793.623	3163
793.726	2679
793.829	2009
793.932	1699
794.035	889
794.138	3335
794.242	3305
794.345	1082
794.448	498
794.551	412
794.654	3491
794.757	3870
794.860	1046
794.963	2505
795.066	552
795.169	3037
795.272	1312
795.375	3245
795.477	437
795.580	2040
795.683	872
795.786	2591
795.889	76
795.991	3415
796.094	2680
796.197	955
796.300	3006
796.402	2551
796.505	494
796.608	954
796.710	1783
796.813	2804
796.915	2273
797.018	1495
797.120	1602
797.223	1693
797.326	3172
797.428	1024
797.530	1153
797.633	1410
797.735	2760
797.838	1201
797.940	2325
798.042	2241
798.145	244
798.247	1900
798.349	-47
798.452	2796
798.554	617
798.656	1348
798.758	2405
798.860	1931
798.962	536
799.065	1131
799.167	223
799.269	2529
799.371	2544
799.473	2861
799.575	1421
799.677	1079
799.779	1266
799.881	-277
799.983	2120
800.085	1499
800.187	1503
800.289	898
800.390	1051
800.492	2112
800.594	1928
800.696	413
800.798	1227
800.899	938
801.001	763
801.103	1119
801.205	1312
801.306	1437
801.408	156
801.509	1212
801.611	1511
801.713	1449
801.814	190
801.916	720
802.017	165
802.119	551
802.220	871
802.322	438
802.423	1766
802.525	-97
802.626	1060
802.727	2438
802.829	1276
802.930	-915
803.031	1529
803.133	1075
803.234	178
803.335	1493
803.436	-304
803.538	1295
803.639	-123
803.740	2039
803.841	650
803.942	1432
804.043	1562
804.144	528
804.245	1096
804.346	728
804.447	115
804.548	722
804.649	1235
804.750	1273
804.851	526
804.952	1407
805.053	1563
805.154	-492
805.255	1901
805.355	1076
805.456	619
805.557	399
805.658	-243
805.758	1694
805.859	906
805.960	1292
806.061	439
806.161	296
806.262	1093
806.362	1031
806.463	278
806.564	1327
806.664	353
806.765	481
806.865	401
806.966	107
807.066	58
807.166	1343
807.267	1026
807.367	665
807.468	1434
807.568	-404
807.668	1705
807.769	1701
807.869	-223
807.969	1054
808.069	981
808.170	704
808.270	127
808.370	911
808.470	325
808.570	275
808.670	518
808.770	1063
808.870	-484
808.970	1282
809.070	466
809.170	-535
809.271	529
809.370	455
809.470	509
809.570	450
809.670	-375
809.770	1323
809.870	926
809.970	1304
810.070	369
810.169	1184
810.269	-1758
810.369	1482
810.469	271
810.568	703
810.668	133
810.768	197
810.867	-65
810.967	83
811.066	-503
811.166	27
811.265	1593
811.365	0
811.464	147
811.564	788
811.663	-106
811.763	-340
811.862	530
811.962	1627
812.061	402
812.160	880
812.260	444
812.359	447
812.458	394
812.557	1122
812.657	-173
812.756	1258
812.855	-309
812.954	1089
813.053	492
813.153	1361
813.252	-652
813.351	675
813.450	792
813.549	494
813.648	1180
813.747	746
813.846	1538
813.945	180
814.044	404
814.143	824
814.242	990
814.341	885
814.439	707
814.538	1644
814.637	632
814.736	1571
814.835	1770
814.933	2091
815.032	1499
815.131	3275
815.229	6786
815.328	11235
815.427	7221
815.525	7096
815.624	6707
815.722	6085
815.821	6665
815.919	7009
816.018	6348
816.116	6723
816.215	6862
816.313	7555
816.412	7912
816.510	8722
816.609	9393
816.707	10885
816.805	7343
816.904	8061
817.002	8022
817.100	9906
817.198	9762
817.296	8260
817.395	8779
817.493	8689
817.591	6674
817.689	8731
817.787	7986
817.885	8289
817.983	7191
818.081	8637
818.179	7683
818.277	12197
818.375	8495
818.473	8118
818.571	7237
818.669	8043
818.767	8680
818.865	6872
818.963	5079
819.061	7439
819.158	5961
819.256	9212
819.354	7133
819.452	14033
819.549	8731
819.647	9560
819.745	5514
819.842	6937
819.940	7045
820.038	6148
820.135	5614
820.233	7174
820.330	6032
820.428	5339
820.525	8402
820.623	5538
820.720	4942
820.818	6925
820.915	7066
821.012	6314
821.110	4390
821.207	6596
821.304	4873
821.402	6216
821.499	5814
821.596	4545
821.693	5423
821.791	5666
821.888	4735
821.985	6403
822.082	3793
822.179	6201
822.276	6307
822.373	4926
822.470	4834
822.567	5634
822.664	4556
822.761	5379
822.858	5355
822.955	5442
823.052	3474
823.149	5489
823.246	5065
823.343	4359
823.440	4655
823.536	6195
823.633	5060
823.730	4477
823.827	4875
823.923	4977
824.020	4496
824.117	6323
824.213	4479
824.310	4401
824.407	3206
824.503	5330
824.600	4169
824.696	3332
824.793	5962
824.889	5632
824.986	3653
825.082	3527
825.179	3931
825.275	5915
825.371	4733
825.468	3152
825.564	1154
825.660	5203
825.757	5865
825.853	4297
825.949	2344
826.045	2878
826.142	3163
826.238	4871
826.334	4040
826.430	3874
826.526	2011
826.622	1700
826.718	4772
826.814	4255
826.910	4322
827.006	1708
827.102	2021
827.198	3888
827.294	4451
827.390	4595
827.486	3644
827.582	2124
827.678	2783
827.774	5621
827.869	1931
827.965	3766
828.061	1747
828.157	4134
828.252	4694
828.348	3644
828.444	2880
828.539	2786
828.635	3378
828.731	3117
828.826	1404
828.922	3511
829.017	3680
829.113	3123
829.208	2432
829.304	1711
829.399	5031
829.495	2937
829.590	2184
829.685	2476
829.781	3484
829.876	3846
829.971	975
830.066	1422
830.162	1776
830.257	4320
830.352	1782
830.447	1720
830.543	2094
830.638	2311
830.733	3462
830.828	2410
830.923	3202
831.018	2698
831.113	3329
831.208	1672
831.303	1145
831.398	1404
831.493	1846
831.588	5410
831.683	1855
831.778	1288
831.873	1933
831.967	3145
832.062	2301
832.157	903
832.252	2042
832.346	1710
832.441	2220
832.536	2833
832.631	2472
832.725	2600
832.820	2106
832.914	2407
833.009	1073
833.104	1205
833.198	1305
833.293	1819
833.387	2851
833.482	3006
833.576	1308
833.670	2218
833.765	957
833.859	2517
833.954	2245
834.048	2761
834.142	1617
834.237	1173
834.331	2133
834.425	3158
834.519	1771
834.613	2094
834.708	200
834.802	1813
834.896	1929
834.990	2036
835.084	1357
835.178	1014
835.272	1438
835.366	2959
835.460	2684
835.554	2280
835.648	135
835.742	564
835.836	1149
835.930	1026
836.024	1663
836.117	1777
836.211	1034
836.305	1047
836.399	1554
836.493	618
836.586	1892
836.680	1604
836.774	926
836.867	1395
836.961	829
837.055	1091
837.148	754
837.242	1740
837.335	984
837.429	1219
837.522	496
837.616	787
837.709	1492
837.803	785
837.896	2025
837.989	1396
838.083	673
838.176	655
838.269	-882
838.363	1595
838.456	931
838.549	2349
838.642	119
838.735	1731
838.829	1786
838.922	1338
839.015	1341
839.108	864
839.201	995
839.294	1916
839.387	799
839.480	412
839.573	38
839.666	504
839.759	1103
839.852	808
839.945	1882
840.038	683
840.131	-270
840.223	595
840.316	1050
840.409	1475
840.502	1434
840.594	2348
840.687	-430
840.780	647
840.873	-105
840.965	-78
841.058	1032
841.150	2135
841.243	-67
841.336	478
841.428	527
841.521	820
841.613	-312
841.706	1232
841.798	165
841.890	939
841.983	-1050
842.075	463
842.167	520
842.260	740
842.352	1157
842.444	150
842.537	-155
842.629	589
842.721	431
842.813	-66
842.905	-471
842.997	1743
843.090	545
843.182	443
843.274	-393
843.366	309
843.458	944
843.550	1552
843.642	372
843.734	848
843.826	-889
843.918	-142
844.009	1248
844.101	-711
844.193	549
844.285	1293
844.377	952
844.469	533
844.560	-1053
844.652	599
844.744	371
844.835	774
844.927	96
845.019	1673
845.110	229
845.202	1465
845.293	-104
845.385	-89
845.476	195
845.568	1332
845.659	-141
845.751	643
845.842	-259
845.934	153
846.025	-460
846.116	1099
846.208	1115
846.299	500
846.390	429
846.482	747
846.573	676
846.664	1034
846.755	102
846.846	586
846.937	-1291
847.029	155
847.120	-147
847.211	-820
847.302	767
847.393	517
847.484	648
847.575	-285
847.666	-292
847.757	-581
847.847	503
847.938	1567
848.029	-411
848.120	77
848.211	430
848.302	-905
848.392	-1406
848.483	639
848.574	-104
848.664	632
848.755	25
848.846	173
848.936	-585
849.027	96
849.118	575
849.208	488
849.299	108
849.389	1891
849.480	2396
849.570	4909
849.661	9421
849.751	16608
849.841	5004
849.932	826
850.022	282
850.112	779
850.203	-293
850.293	-113
850.383	127
850.474	228
850.564	-695
850.654	359
850.744	-422
850.834	206
850.924	569
851.014	498
851.104	-670
851.194	-686
851.284	-462
851.374	243
851.464	-162
851.554	976
851.644	-228
851.734	337
851.824	-567
851.914	676
852.004	1266
852.094	-494
852.183	-539
852.273	-706
852.363	-582
852.452	622
852.542	-660
852.632	-195
852.721	-700
852.811	226
852.901	406
852.990	-249
853.080	454
853.169	472
853.259	126
853.348	184
853.438	-906
853.527	1229
853.617	1057
853.706	3508
853.795	5023
853.885	12725
853.974	20683
854.063	38890
854.152	53633
854.242	20581
854.331	4114
854.420	1972
854.509	1412
854.598	1816
854.687	1346
854.777	1129
854.866	-67
854.955	156
855.044	206
855.133	687
855.222	-57
855.311	-381
855.400	-630
855.488	126
855.577	-581
855.666	-305
855.755	-184
855.844	133
855.933	-1097
856.021	54
856.110	14
856.199	-1255
856.288	-600
856.376	-940
856.465	-607
856.554	111
856.642	-286
856.731	382
856.819	803
856.908	575
856.996	-75
857.085	201
857.173	-249
857.262	-388
857.350	-657
857.438	-436
857.527	42
857.615	-54
857.703	452
857.792	-593
857.880	-576
857.968	-415
858.056	-293
858.145	-103
858.233	-1706
858.321	-45
858.409	12
858.497	-564
858.585	-432
858.673	690
858.761	-926
858.849	-886
858.937	-679
859.025	-255
859.113	434
859.201	66
859.289	238
859.377	656
859.465	-360
859.552	-566
859.640	-802
859.728	-450
859.816	-90
859.903	320
859.991	-790
860.079	314
860.166	-225
860.254	871
860.342	55
860.429	-99
860.517	-303
860.604	423
860.692	170
860.779	-7
860.867	-955
860.954	452
861.042	654
861.129	356
861.216	361
861.304	415
861.391	780
861.478	265
861.565	96
861.653	1781
861.740	-1094
861.827	-519
861.914	-650
862.001	-489
862.089	759
862.176	580
862.263	-1211
862.350	-147
862.437	-564
862.524	175
862.611	-717
862.698	437
862.785	570
862.871	239
862.958	295
863.045	1292
863.132	733
863.219	658
863.306	-808
863.392	479
863.479	-309
863.566	108
863.652	197
863.739	244
863.826	721
863.912	342
863.999	478
864.086	1313
864.172	1070
864.259	1435
864.345	852
864.432	1643
864.518	404
864.604	1144
864.691	-115
864.777	1451
864.863	2578
864.950	4289
865.036	4932
865.122	10228
865.209	10416
865.295	9499
865.381	8291
865.467	8931
865.553	7116
865.639	7974
865.726	9473
865.812	13198
865.898	18236
865.984	24165
866.070	38272
866.156	39120
866.242	15693
866.328	9900
866.414	7843
866.499	7221
866.585	7050
866.671	7010
866.757	7468
866.843	8289
866.928	5959
867.014	6133
867.100	6065
867.186	7082
867.271	6467
867.357	7484
867.442	5655
867.528	6754
867.614	5888
867.699	5911
867.785	6412
867.870	5883
867.956	6174
868.041	6869
868.127	5544
868.212	5859
868.297	5767
868.383	6713
868.468	5294
868.553	7258
868.639	6361
868.724	6894
868.809	5903
868.894	5694
868.979	5752
869.065	5588
869.150	4320
869.235	5368
869.320	5507
869.405	4950
869.490	5730
869.575	6437
869.660	4044
869.745	5412
869.830	4675
869.915	4390
870.000	4933
870.085	5146
870.169	5152
870.254	6120
870.339	4047
870.424	3546
870.509	5366
870.593	7045
870.678	5459
870.763	4930
870.847	4418
870.932	5736
871.016	5382
871.101	3727
871.186	3485
871.270	6895
871.355	3446
871.439	4441
871.523	5240
871.608	4863
871.692	3708
871.777	5579
871.861	4793
871.945	4580
872.030	5482
872.114	4682
872.198	3099
872.282	4267
872.367	3522
872.451	3991
872.535	3567
872.619	4747
872.703	4071
872.787	5132
872.871	3950
872.955	4548
873.039	1949
873.123	4396
873.207	4413
873.291	2519
873.375	2587
873.459	5546
873.543	3229
873.627	3426
873.711	2994
873.794	5329
873.878	3403
873.962	2330
874.045	3129
874.129	3972
874.137	3968
874.213	3926
874.245	3749
874.296	3468
874.352	2916
874.380	2645
874.460	3304
874.464	3331
874.547	2377
874.568	2752
874.631	3875
874.676	3655
874.714	3467
874.784	4685
874.798	4926
874.881	3026
874.892	2962
874.965	2513
874.999	2788
875.048	3174
875.107	3342
875.131	3403
875.215	2515
875.215	2515
875.298	2167
875.323	2626
875.381	3633
875.430	4478
875.465	5102
875.538	3678
875.548	3470
875.631	2601
875.646	2472
875.714	1958
875.753	2393
875.798	2895
875.861	3310
875.881	3428
875.964	2689
875.968	2650
876.047	1985
876.076	2227
876.130	2689
876.183	2588
876.213	2528
876.291	3151
876.296	3192
876.379	1909
876.398	2065
876.462	2448
876.506	1916
876.545	1537
876.613	2151
876.628	2283
876.711	1980
876.721	2139
876.794	3408
876.828	3160
876.877	2610
876.935	1862
876.960	1634
877.043	1802
877.043	1807
877.125	3092
877.150	3210
877.208	3250
877.258	2453
877.291	1974
877.365	1885
877.374	1885
877.456	2474
877.472	2364
877.539	1857
877.579	2351
877.622	2868
877.687	2849
877.704	2846
877.787	2734
877.794	2739
877.869	2717
877.901	2535
877.952	2241
878.008	1681
878.034	1414
878.115	1307
878.117	1306
878.199	1507
878.222	1748
878.282	2523
878.329	2954
878.364	3192
878.437	2782
878.447	2687
878.529	924
878.544	928
878.611	1288
878.651	1734
878.694	2281
878.758	2930
878.776	3068
878.858	2033
878.865	2060
878.941	2275
878.972	1983
879.023	1555
879.078	1523
879.105	1538
879.185	2408
879.187	2428
879.269	2168
879.292	2447
879.351	2881
879.399	2123
879.433	1684
879.506	1724
879.516	1705
879.598	1853
879.613	1718
879.680	1318
879.720	1853
879.762	2543
879.827	2337
879.844	2199
879.926	2105
879.933	2055
880.007	1665
880.040	1619
880.089	1561
880.147	1688
880.171	1782
880.253	3360
880.254	3357
880.335	2081
880.360	2445
880.417	3909
880.467	4774
880.499	5160
880.574	5775
880.580	5774
880.662	3447
880.680	3136
880.744	1977
880.787	1617
880.825	1505
880.893	1698
880.907	1733
880.989	1179
881.000	1227
881.070	2004
881.106	2278
881.152	2211
881.213	1643
881.233	1529
881.315	1476
881.319	1518
881.396	2280
881.426	2028
881.478	1610
881.532	2348
881.559	2755
881.639	2086
881.641	2054
881.722	1706
881.745	1561
881.803	1808
881.852	2085
881.885	2138
881.958	1451
881.966	1355
882.047	1592
882.064	1406
882.129	1006
882.171	1073
882.210	895
882.277	371
882.291	421
882.372	1692
882.383	1802
882.454	2132
882.489	1988
882.535	1817
882.596	1579
882.616	1535
882.697	2301
882.702	2291
882.778	1813
882.808	1633
882.859	1150
882.914	849
882.940	899
883.020	1175
883.021	1178
883.102	1405
883.127	1595
883.183	2430
883.233	2259
883.264	1578
883.339	1072
883.345	1064
883.426	489
883.445	509
883.507	1306
883.551	1676
883.587	1742
883.657	1980
883.668	2102
883.749	2724
883.763	2749
883.830	1710
883.869	1251
883.910	1124
883.975	1436
883.991	1588
884.072	2054
884.081	2065
884.152	1954
884.187	1956
884.233	2052
884.292	2268
884.314	2141
884.394	638
884.398	620
884.475	828
884.504	788
884.555	1035
884.610	1359
884.636	1504
884.716	1923
884.716	1928
884.797	2482
884.821	2467
884.877	2057
884.927	1780
884.958	1714
885.033	1167
885.038	1115
885.118	753
885.139	605
885.199	533
885.244	843
885.279	1366
885.350	1776
885.359	1811
885.439	2691
885.456	2604
885.520	1087
885.561	743
885.600	881
885.667	832
885.680	975
885.760	2004
885.773	2090
885.840	1054
885.878	602
885.920	722
885.984	1040
886.000	1114
886.080	1405
886.089	1412
886.160	1648
886.195	1790
886.240	1638
886.300	1546
886.320	1509
886.400	1076
886.406	1051
886.480	1190
886.511	1296
886.560	1395
886.616	1343
886.640	1361
886.720	1673
886.722	1670
886.800	1288
886.827	1257
886.879	1201
886.932	1044
886.959	1391
887.038	2373
887.039	2374
887.119	1892
887.143	1852
887.198	1878
887.248	1749
887.278	1585
887.354	1289
887.358	1307
887.437	1311
887.459	1477
887.517	2134
887.564	2328
887.596	1872
887.669	985
887.676	953
887.755	544
887.774	445
887.835	838
887.880	1169
887.914	1300
887.985	1554
887.994	1593
888.073	1882
888.090	1916
888.153	2151
888.195	2241
888.232	1679
888.300	881
888.311	953
888.391	1366
888.405	1429
888.470	908
888.510	550
888.549	762
888.615	1358
888.628	1392
888.708	1368
888.720	1364
888.787	1626
888.825	1759
888.866	1594
888.930	1409
888.945	1392
889.024	1296
889.035	1277
889.103	1664
889.140	1845
889.182	1584
889.245	1247
889.261	1354
889.340	1824
889.349	1877
889.419	1678
889.454	1567
889.498	1563
889.559	1585
889.577	1629
889.656	1795
889.664	1811
889.735	2058
889.768	2166
889.814	1684
889.873	1038
889.978	1000
890.083	1790
890.187	2014
890.292	1676
890.397	1078
890.501	1410
890.606	1046
890.710	1461
890.815	2079
890.919	1747
891.024	2573
891.128	1300
891.233	1361
891.337	2365
891.442	1791
891.546	1614
891.650	923
891.755	1030
891.859	2579
891.963	2801
892.068	1952
892.172	2288
892.276	782
892.380	1434
892.484	1492
892.589	2064
892.693	794
892.797	974
892.901	902
893.005	781
893.109	2453
893.213	1853
893.317	1102
893.421	757
893.525	8
893.629	1186
893.733	1761
893.837	1237
893.941	1886
894.045	2071
894.148	335
894.252	1040
894.356	1488
894.460	1989
894.564	1499
894.667	1240
894.771	110
894.875	258
894.978	84
895.082	1254
895.186	3008
895.289	1039
895.393	1189
895.496	2133
895.600	909
895.703	730
895.807	1415
895.910	1212
896.014	1972
896.117	465
896.221	1632
896.324	1178
896.427	728
896.531	616
896.634	1387
896.737	1460
896.840	987
896.944	1044
897.047	1345
897.150	1817
897.253	748
897.356	750
897.460	930
897.563	201
897.666	1679
897.769	1895
897.872	1246
897.975	369
898.078	794
898.181	711
898.284	746
898.387	1554
898.490	2448
898.593	1008
898.695	743
898.798	698
898.901	507
899.004	1496
899.107	987
899.209	965
899.312	2449
899.415	1582
899.518	446
899.620	225
899.723	817
899.826	1109
899.928	375
900.031	571
900.133	1273
900.236	1110
900.338	779
900.441	939
900.543	1187
900.646	978
900.748	1029
900.851	1770
900.953	837
901.055	1088
901.158	1025
901.260	417
901.362	1389
901.465	1330
901.567	1213
901.669	2003
901.771	1179
901.873	820
901.976	825
902.078	849
902.180	596
902.282	1138
902.384	862
902.486	1179
902.588	1008
902.690	1582
902.792	-103
902.894	595
902.996	1558
903.098	97
903.200	993
903.302	873
903.404	1337
903.505	384
903.607	347
903.709	1743
903.811	1282
903.913	534
904.014	-103
904.116	-119
904.218	-534
904.319	774
904.421	1576
904.523	1065
904.624	883
904.726	1409
904.827	1086
904.929	1088
905.030	-76
905.132	1471
905.233	2246
905.335	1160
905.436	490
905.537	107
905.639	594
905.740	1115
905.841	1022
905.943	1176
906.044	1236
906.145	1203
906.247	768
906.348	1039
906.449	560
906.550	1411
906.651	1323
906.752	779
906.854	-233
906.955	111
907.056	365
907.157	1871
907.258	1565
907.359	979
907.460	-232
907.561	244
907.662	231
907.762	695
907.863	1496
907.964	1383
908.065	1391
908.166	274
908.267	1333
908.367	617
908.468	202
908.569	561
908.670	1255
908.770	437
908.871	512
908.971	717
909.072	250
909.173	-254
909.273	872
909.374	782
909.474	296
909.575	166
909.675	359
909.776	45
909.876	1036
909.977	987
910.077	554
910.177	696
910.278	1464
910.378	1410
910.478	468
910.579	524
910.679	734
910.779	568
910.879	1286
910.980	289
911.080	1647
911.180	-156
911.280	1229
911.380	512
911.480	493
911.580	458
911.680	342
911.780	786
911.880	639
911.980	-141
912.080	662
912.180	262
912.280	863
912.380	606
912.480	61
912.580	-344
912.679	-404
912.779	896
912.879	782
912.979	1072
913.078	-38
913.178	-681
913.278	763
913.377	294
913.477	182
913.577	1373
913.676	967
913.776	919
913.875	1166
913.975	855
914.074	399
914.174	1141
914.273	-366
914.373	1067
914.472	738
914.572	350
914.671	-193
914.770	809
914.870	274
914.969	287
915.068	344
915.167	1088
915.267	492
915.366	515
915.465	773
915.564	-506
915.663	311
915.763	504
915.862	-243
915.961	1217
916.060	461
916.159	-104
916.258	154
916.357	361
916.456	1031
916.555	802
916.654	495
916.752	844
916.851	130
916.950	595
917.049	344
917.148	296
917.247	181
917.345	-308
917.444	325
917.543	1083
917.642	-221
917.740	694
917.839	1480
917.937	2027
918.036	1029
918.135	208
918.233	135
918.332	783
918.430	-425
918.529	534
918.627	575
918.726	988
918.824	1552
918.923	171
919.021	786
919.119	266
919.218	74
919.316	314
919.414	924
919.512	412
919.611	695
919.709	1222
919.807	1615
919.905	1323
920.003	1255
920.102	492
920.200	1147
920.298	2396
920.396	1314
920.494	664
920.592	1113
920.690	1145
920.788	596
920.886	1023
920.984	1928
921.082	1436
921.180	2154
921.277	2370
921.375	789
921.473	3546
921.571	3072
921.669	2538
921.766	1785
921.864	2376
921.962	2387
922.060	2590
922.157	3131
922.255	3117
922.352	2960
922.450	3133
922.548	3318
922.645	2873
922.743	5217
922.840	7765
922.938	9506
923.035	8354
923.133	7445
923.230	8410
923.327	11739
923.425	10178
923.522	10773
923.619	9306
923.717	7520
923.814	8599
923.911	8159
924.008	8658
924.106	7165
924.203	7163
924.300	7253
924.397	7566
924.494	7976
924.591	8112
924.688	6793
924.786	7373
924.883	7874
924.979	7983
925.077	7543
925.173	7117
925.270	6804
925.367	7220
925.464	8487
925.561	8337
925.658	9325
925.755	5803
925.852	7350
925.948	7058
926.045	7413
926.142	7482
926.239	8770
926.335	5940
926.432	6757
926.529	7569
926.625	7755
926.722	5847
926.818	5079
926.915	7125
927.011	7042
927.108	6718
927.204	6472
927.301	5989
927.397	6945
927.494	8405
927.590	5138
927.687	6059
927.783	7211
927.879	7384
927.976	5955
928.072	5221
928.168	6560
928.264	7008
928.361	5826
928.457	7293
928.553	5387
928.649	6199
928.745	6323
928.841	5818
928.937	6652
929.033	6288
929.129	4941
929.225	7093
929.321	5991
929.417	5469
929.513	6457
929.609	5695
929.705	5435
929.801	6994
929.897	5740
929.993	5908
930.089	6046
930.184	4948
930.280	5230
930.376	7581
930.471	4853
930.567	4433
930.663	5473
930.758	5235
930.854	5598
930.950	4385
931.045	4679
931.141	4843
931.236	7029
931.332	5653
931.427	3509
931.523	6056
931.618	5674
931.714	3276
931.809	4276
931.905	6367
932.000	3659
932.095	3165
932.191	5912
932.286	6494
932.381	4990
932.476	3581
932.572	4387
932.667	4149
932.762	4024
932.857	4338
932.952	6387
933.047	4216
933.142	3992
933.237	4613
933.332	5360
933.427	6290
933.522	4568
933.617	3613
933.712	4289
933.807	5021
933.902	6456
933.997	6185
934.092	3313
934.187	4223
934.282	4873
934.376	4553
934.471	4815
934.566	4179
934.661	3709
934.755	4933
934.850	5543
934.945	3803
935.039	3304
935.134	3056
935.228	2908
935.323	6470
935.417	4402
935.512	2642
935.606	2963
935.701	4567
935.795	5651
935.890	4089
935.984	3191
936.079	2206
936.173	4218
936.267	3665
936.362	3292
936.456	4754
936.550	5328
936.644	4454
936.738	3116
936.833	3388
936.927	2422
937.021	3344
937.115	4095
937.209	3943
937.303	4195
937.397	2940
937.491	3296
937.585	3842
937.679	4071
937.773	3113
937.867	3023
937.961	2000
938.055	4866
938.149	4179
938.243	2141
938.337	2150
938.430	2500
938.524	4426
938.618	3579
938.712	2414
938.805	2242
938.899	3260
938.993	5424
939.086	2686
939.180	1421
939.274	2407
939.367	4561
939.461	3273
939.554	2303
939.648	2309
939.741	2619
939.835	3453
939.928	5017
940.022	3605
940.115	3109
940.208	3932
940.302	4809
940.395	5140
940.488	2377
940.582	2911
940.675	1995
940.768	1654
940.861	3722
940.954	4517
941.048	1348
941.141	1322
941.234	2065
941.327	2151
941.420	2991
941.513	2746
941.606	1840
941.699	2508
941.792	3438
941.885	2734
941.978	2466
942.071	3432
942.164	1334
942.257	1317
942.349	2070
942.442	3217
942.535	1595
942.628	2670
942.721	2891
942.813	2241
942.906	2807
942.999	2866
943.091	1136
943.184	2256
943.277	1900
943.369	1933
943.462	779
943.554	2551
943.647	1907
943.739	2379
943.832	3526
943.924	84
944.017	1524
944.109	982
944.201	1390
944.294	2285
944.386	3076
944.478	2457
944.571	1028
944.663	1492
944.755	2708
944.847	2632
944.940	2105
945.032	883
945.124	1009
945.216	2383
945.308	2102
945.400	2217
945.492	2315
945.584	2811
945.676	2334
945.768	2092
945.860	2927
945.952	3273
946.044	2569
946.136	1454
946.228	1534
946.320	939
946.412	2384
946.503	1909
946.595	3305
946.687	1314
946.779	651
946.870	1918
946.962	1953
947.054	2073
947.145	1561
947.237	1516
947.329	953
947.420	1418
947.512	1660
947.603	717
947.695	657
947.786	1075
947.878	1226
947.969	1759
948.061	217
948.152	1793
948.243	199
948.335	1022
948.426	1566
948.517	2195
948.609	2690
948.700	1188
948.791	990
948.882	1169
948.973	501
949.065	1112
949.156	1699
949.247	441
949.338	1440
949.429	389
949.520	1172
949.611	644
949.702	2503
949.793	521
949.884	1761
949.975	732
950.066	-320
950.157	-191
950.247	1258
950.338	473
950.429	283
950.520	1130
950.611	410
950.701	334
950.792	1373
950.883	1945
950.973	1155
951.064	1218
951.155	1580
951.245	1004
951.336	1366
951.427	880
951.517	2293
951.608	1444
951.698	940
951.788	-7
951.879	197
951.969	673
952.060	1227
952.150	602
952.240	2296
952.331	341
952.421	2076
952.511	246
952.602	-179
952.692	-57
952.782	447
952.872	933
952.962	1577
953.052	923
953.143	689
953.233	1113
953.323	594
953.413	1006
953.503	1757
953.593	1206
953.683	804
953.773	-660
953.863	-579
953.953	-507
954.042	106
954.132	1289
954.222	1689
954.312	-136
954.402	76
954.492	-422
954.581	678
954.671	675
954.761	77
954.850	2230
954.940	-1140
955.030	-644
955.119	-402
955.209	568
955.298	497
955.388	935
955.477	1636
955.567	-18
955.656	1208
955.746	381
955.835	453
955.925	-149
956.014	554
956.103	2106
956.193	1766
956.282	90
956.371	51
956.461	1057
956.550	-408
956.639	851
956.728	-399
956.817	346
956.906	799
956.995	885
957.085	-198
957.174	58
957.263	181
957.352	303
957.441	-276
957.530	-25
957.619	149
957.708	-469
957.796	-7
957.885	167
957.974	-253
958.063	1003
958.152	-1093
958.241	26
958.329	-355
958.418	511
958.507	-198
958.596	1056
958.684	116
958.773	954
958.861	-774
958.950	-896
959.039	286
959.127	-187
959.216	468
959.304	-145
959.393	-86
959.481	1204
959.570	-356
959.658	-809
959.746	-398
959.835	-132
959.923	-450
960.011	-990
960.100	1284
960.188	489
960.276	-48
960.365	92
960.453	-496
960.541	-971
960.629	-181
960.717	-944
960.805	-638
960.893	72
960.981	224
961.069	1549
961.158	276
961.245	1931
961.333	777
961.421	-534
961.509	129
961.597	127
961.685	98
961.773	340
961.861	17
961.949	718
962.036	-314
962.124	-169
962.212	-322
962.299	364
962.387	-813
962.475	-463
962.562	-973
962.650	102
962.738	-377
962.825	-725
962.913	336
963.000	91
963.088	224
963.175	-59
963.263	-726
963.350	-234
963.438	-662
963.525	-948
963.612	-336
963.700	-545
963.787	708
963.874	-344
963.962	-728
964.049	-736
964.136	-828
964.223	-612
964.310	-340
964.398	-413
964.485	-563
964.572	-303
964.659	-230
964.746	-800
964.833	-834
964.920	-106
965.007	379
965.094	-425
965.181	-515
965.268	218
965.355	-161
965.441	216
965.528	-910
965.615	557
965.702	300
965.789	-572
965.875	233
965.962	462
966.049	38
966.136	756
966.222	-128
966.309	353
966.395	-413
966.482	655
966.569	-329
966.655	-193
966.742	525
966.828	-188
966.915	-845
967.001	-413
967.087	-1473
967.174	-1001
967.260	662
967.347	-455
967.433	-780
967.519	-1624
967.605	-998
967.692	-644
967.778	200
967.864	-788
967.950	-922
968.036	-1201
968.123	62
968.209	-631
968.295	-1101
968.381	947
968.467	210
968.553	-1380
968.639	380
968.725	-1181
968.811	-414
968.897	572
968.983	1
969.069	-1106
969.154	51
969.240	-130
969.326	-1209
969.412	104
969.497	407
969.583	-958
969.669	486
969.755	194
969.840	-850
969.926	1237
970.012	634
970.097	1101
970.183	552
970.268	179
970.354	61
970.439	-825
970.525	1137
970.610	-489
970.696	792
970.781	-1020
970.866	-480
970.952	-342
971.037	-1197
971.122	603
971.208	333
971.293	-149
971.378	-1093
971.463	517
971.549	-980
971.634	-365
971.719	268
971.804	-339
971.889	152
971.974	-815
972.059	-31
972.144	-95
972.229	146
972.314	-661
972.399	174
972.484	-1414
972.569	-593
972.654	-921
972.739	-117
972.824	-918
972.908	-531
972.993	-239
973.078	-687
973.163	168
973.247	422
973.332	-1992
973.417	1079
973.501	-782
973.586	-169
973.671	155
973.755	-285
973.840	-31
973.924	-18
974.009	-111
974.093	589
974.178	1066
974.262	757
974.346	-360
974.431	-296
974.515	-587
974.600	73
974.684	-493
974.768	-498
974.852	260
974.937	-373
975.021	455
975.105	-153
975.189	-559
975.273	-63
975.358	-660
975.442	-947
975.526	556
975.610	-1743
975.694	-700
975.778	-407
975.862	-558
975.946	-1968
976.030	738
976.114	-1208
976.198	449
976.281	-988
976.365	622
976.449	-15
976.533	-361
976.617	-929
976.700	-993
976.784	-692
976.868	-911
976.951	57
977.035	-672
977.119	80
977.202	-759
977.286	-362
977.369	451
977.453	2657
977.536	1051
977.620	597
977.703	1141
977.787	-672
977.870	389
977.953	2008
978.037	-665
978.120	476
978.203	-134
978.287	-382
978.370	-433
978.453	-1039
978.536	62
978.620	-111
978.703	390
978.786	-818
978.869	-810
978.952	-1267
979.035	928
979.118	386
979.201	-451
979.284	604
979.367	-545
979.450	546
979.533	-462
979.616	-255
979.699	-42
979.782	157
979.865	5
979.948	-619
980.030	-1092
980.113	-99
980.196	-751
980.279	377
980.361	-548
980.444	586
980.526	301
980.609	994
980.692	1809
980.774	1443
980.857	-904
980.939	932
981.022	-354
981.104	-72
981.187	205
981.269	961
981.352	696
981.434	-256
981.516	-102
981.599	1055
981.681	40
981.763	333
981.846	307
981.928	854
982.010	134
982.092	-147
982.174	267
982.256	11
982.339	520
982.421	742
982.503	569
982.585	-846
982.667	12
982.749	223
982.831	779
982.913	130
982.995	617
983.077	-429
983.158	166
983.240	-1353
983.322	1603
983.404	2251
983.486	1378
983.568	1697
983.649	974
983.731	2262
983.813	337
983.894	692
983.976	397
984.058	-217
984.139	851
984.221	-457
984.302	1008
984.384	764
984.465	-8
984.547	1030
984.628	-647
984.710	968
984.791	34
984.872	-92
984.954	50
985.035	730
985.116	-264
985.198	-311
985.279	1561
985.360	986
985.441	415
985.522	770
985.604	734
985.685	-550
985.766	859
985.847	1606
985.928	641
986.009	544
986.090	-475
986.171	1783
986.252	185
986.333	782
986.414	297
986.495	414
986.576	1242
986.656	1213
986.737	1174
986.818	438
986.899	298
986.980	883
987.060	2335
987.141	644
987.222	1790
987.302	2101
987.383	1790
987.464	2303
987.544	933
987.625	1222
987.705	2157
987.786	2627
987.866	2107
987.947	1260
988.027	1491
988.108	869
988.188	1494
988.268	799
988.349	1282
988.429	1370
988.509	1290
988.589	710
988.670	-697
988.750	2065
988.830	1053
988.910	1486
988.990	1471
989.070	536
989.151	1696
989.231	427
989.311	1256
989.391	732
989.471	1366
989.551	944
989.631	329
989.711	1433
989.791	10
989.870	296
989.950	2522
990.030	80
990.110	353
990.190	620
990.269	15
990.349	282
990.429	977
990.509	739
990.588	-673
990.668	521
990.747	-88
990.827	1213
990.907	578
990.986	670
991.066	652
991.145	-650
991.225	1705
991.304	650
991.383	669
991.463	-411
991.542	590
991.622	691
991.701	-297
991.780	-88
991.859	-351
991.939	1090
992.018	-245
992.097	897
992.176	899
992.256	-200
992.335	-257
992.414	1966
992.493	-413
992.572	-278
992.651	1149
992.730	898
992.809	-167
992.888	-432
992.967	-201
993.046	610
993.125	-727
993.203	-320
993.282	476
993.361	42
993.440	-298
993.519	-522
993.597	804
993.676	-851
993.755	1763
993.834	426
993.912	-613
993.991	459
994.069	-596
994.148	-369
994.226	-385
994.305	-95
994.384	-283
994.462	473
994.540	-673
994.619	-323
994.697	271
994.776	-407
994.854	35
994.932	-823
995.011	-208
995.089	-163
995.167	-174
995.245	-450
995.324	-1028
995.402	451
995.480	-607
995.558	-314
995.636	-826
995.714	-400
995.792	1040
995.870	-992
995.948	-934
996.026	-179
996.104	-900
996.182	262
996.260	-1154
996.338	-650
996.416	-1082
996.494	-314
996.572	1106
996.649	-576
996.727	-1879
996.805	-72
996.883	-413
996.960	-458
997.038	345
997.116	-69
997.193	-945
997.271	-496
997.348	-1213
997.426	-635
997.504	-980
997.581	-166
997.658	-64
997.736	-969
997.813	-1624
997.891	-8
997.968	-973
998.046	-742
998.123	-322
998.200	-984
998.277	-1178
998.355	182
998.432	-2523
998.509	-538
998.586	-301
998.663	-655
998.741	-853
998.818	-532
998.895	-1249
998.972	-179
999.049	-350
999.126	-464
999.203	-700
999.280	-1641
999.357	-715
999.434	-1171
999.511	-564
999.587	-296
999.664	-1660
999.741	-778
999.818	-372
999.895	-1809
999.971	-1024
1000.048	-968
1000.125	-351
1000.202	-1042
1000.278	-753
1000.355	-70
1000.431	-1383
1000.508	-2025
1000.584	-1496
1000.661	-800
1000.738	-1244
1000.814	-381
1000.890	-799
1000.967	-863
1001.043	-1535
1001.120	-1511
1001.196	-461
1001.272	-1077
1001.349	-1319
1001.425	210
1001.501	-576
1001.577	-1631
1001.654	-456
1001.730	-1276
1001.806	-1944
1001.882	-1360
1001.958	-687
1002.034	-257
1002.110	-1291
1002.186	-1520
1002.262	-1820
1002.338	-1715
1002.414	-483
1002.490	-1465
1002.566	-2265
1002.642	-1989
1002.718	-1290
1002.794	-2260
1002.870	-1500
1002.945	-1030
1003.021	-1388
1003.097	-1433
1003.173	-1021
1003.248	-1294
1003.324	-1050
1003.400	-996
1003.475	-2567
1003.551	-1350
1003.626	-1713
1003.702	-2035
1003.777	-1439
1003.853	-923
1003.928	-1875
1004.004	-1854
1004.079	-1827
1004.155	-1109
1004.230	-1290
1004.305	-794
1004.381	-1049
1004.456	-1109
1004.531	-1411
1004.607	-696
1004.682	-1576
1004.757	-581
1004.832	-2035
1004.907	-1428
1004.982	-975
1005.057	-1457
1005.133	-1387
1005.208	-1578
1005.283	-1799
1005.358	-792
1005.433	-3187
1005.508	-324
1005.583	-1434
1005.657	-1401
1005.732	-960
1005.807	-1588
1005.882	-1132
1005.957	-1613
1006.032	-1354
1006.106	-1657
1006.181	-981
1006.256	-933
1006.331	-1693
1006.405	-2198
1006.480	-1623
1006.554	-2016
1006.629	-1168
1006.704	-2318
1006.778	-2223
1006.853	-1057
1006.927	-1404
1007.002	-2117
1007.076	-1121
1007.150	-1865
1007.225	-1634
1007.299	-1486
1007.373	-2660
1007.448	-1156
1007.522	-1167
1007.596	-1513
1007.671	-2636
1007.745	-781
1007.819	-1940
1007.893	-1455
1007.967	-1432
1008.041	-2119
1008.115	-788
1008.190	-1631
1008.264	-1056
1008.338	-2161
1008.412	-2285
1008.486	-1741
1008.560	-1818
1008.633	-1280
1008.707	-1602
1008.781	-1085
1008.855	-1783
1008.929	-1695
1009.003	-1595
1009.076	-1800
1009.150	-1573
1009.224	-1455
1009.298	-1696
1009.371	-1612
1009.445	-691
1009.519	-1461
1009.592	-1909
1009.666	-1339
1009.739	-2167
1009.813	-2857
1009.886	-931
1009.960	-1441
1010.033	-1400
1010.107	-1085
1010.180	-2579
1010.253	-1553
1010.327	-1991
1010.400	-1531
1010.473	-1899
1010.547	-1187
1010.620	-2042
1010.693	-1651
1010.766	-3316
1010.840	-1864
1010.913	-1242
1010.986	-1479
1011.059	-1986
1011.132	-2619
1011.205	-1247
1011.278	-1490
1011.351	-1424
1011.424	-1010
1011.497	-2242
1011.570	-1668
1011.643	-1169
1011.716	-1958
1011.789	-1262
1011.862	-2291
1011.934	-1948
1012.007	-2670
1012.080	-1940
1012.153	-1864
1012.225	-1617
1012.298	-2088
1012.371	-2437
1012.443	-1988
1012.516	-2271
1012.588	-2125
1012.661	-1344
1012.733	-2565
1012.806	-1040
1012.879	-2074
1012.951	-1797
1013.023	-2219
1013.096	-1650
1013.168	-2218
1013.241	-1021
1013.313	-2016
1013.385	-2484
1013.458	-2426
1013.530	-726
1013.602	-2694
1013.674	-2513
1013.746	-2092
1013.819	-2157
1013.891	-1768
1013.963	-1243
1014.035	-2423
1014.107	-1353
1014.179	-1728
1014.251	-2308
1014.323	-932
1014.395	-1803
1014.467	-1670
1014.539	-1420
1014.611	-2371
1014.683	-1292
1014.754	-2119
1014.826	-2668
1014.898	-2444
1014.970	-2550
1015.042	-1369
1015.113	-1254
1015.185	-1842
1015.257	-2777
1015.328	-1388
1015.400	-2399
1015.471	-1441
1015.543	-2853
1015.615	-1820
1015.686	-1575
1015.757	-2027
1015.829	-1677
1015.901	-2537
1015.972	-2243
1016.043	-2290
1016.115	-1692
1016.186	-2282
1016.257	-2596
1016.328	-2193
1016.400	-1433
1016.471	-2072
1016.542	-1921
1016.613	-1707
1016.685	-2186
1016.756	-1370
1016.827	-1666
1016.898	-2084
1016.969	-1643
1017.040	-2144
1017.111	-2237
1017.182	-2927
1017.253	-1732
1017.324	-1904
1017.395	-2189
1017.466	-1876
1017.537	-2294
1017.608	-1663
1017.678	-1285
1017.749	-1977
1017.820	-2466
1017.891	-2597
1017.961	-1865
1018.032	-1652
1018.103	-2136
1018.173	-1524
1018.244	-2862
1018.315	-2681
1018.385	-1097
1018.456	-1978
1018.526	-2977
1018.597	-1698
1018.667	-1809
1018.738	-2448
1018.808	-2074
1018.878	-2369
1018.949	-1646
1019.019	-1482
1019.089	-1618
1019.160	-2832
1019.230	-3039
1019.300	-1255
1019.371	-2343
1019.441	-1746
1019.511	-1642
1019.581	-1118
1019.651	-1779
1019.721	-1735
1019.791	-1644
1019.861	-2545
1019.931	-2567
1020.001	-2220
1020.071	-1958
1020.141	-2349
1020.211	-2555
1020.281	-2081
1020.351	-1962
1020.421	-1460
1020.491	-1054
1020.560	-2578
1020.630	-1805
1020.700	-2260
1020.770	-2411
1020.839	-1953
1020.909	-1329
1020.979	-3417
1021.048	-1449
1021.118	-1551
1021.187	-2279
1021.257	-2435
1021.326	-1728
1021.396	-1754
1021.465	-1754
1021.535	-2226
1021.604	-2573
1021.674	-2152
1021.743	-2671
1021.812	-2113
1021.882	-1771
1021.951	-2185
1022.020	-2119
1022.089	-1906
1022.159	-1929
1022.228	-1912
1022.297	-2243
1022.366	-3606
1022.435	-1733
1022.504	-2128
1022.573	-2372
1022.642	-2184
1022.711	-2938
1022.781	-1682
1022.849	-2139
1022.918	-1903
1022.987	-1823
1023.056	-2248
1023.125	-2141
1023.194	-2294
1023.263	-2239
1023.331	-2156
1023.400	-2397
1023.469	-2028
1023.538	-1478
1023.606	-2201
1023.675	-1938
1023.744	-2399
1023.812	-3049
1023.881	-1947
1023.949	-1127
1024.018	-1781
1024.086	-1404
1024.155	-1999
1024.223	-2214
1024.292	-1334
1024.360	-2793
1024.429	-1649
1024.497	-2919
1024.565	-1541
1024.634	-1850
1024.702	-2107
1024.770	-2641
1024.838	-2559
1024.907	-2015
1024.975	-2599
1025.043	-1896
1025.111	-2222
1025.179	-1980
1025.247	-2575
1025.315	-2084
1025.383	-1525
1025.451	-2592
1025.519	-1884
1025.587	-2209
1025.655	-2062
1025.723	-2439
1025.791	-2154
1025.859	-2914
1025.927	-1475
1025.995	-2557
1026.062	-1788
1026.130	-1881
1026.198	-3050
1026.266	-2146
1026.333	-1387
1026.401	-1162
1026.469	-2540
1026.536	-2193
1026.604	-2853
1026.671	-2181
1026.739	-3047
1026.806	-1624
1026.874	-2521
1026.941	-2385
1027.009	-2074
1027.076	-2588
1027.144	-2176
1027.211	-2509
1027.278	-2395
1027.345	-2202
1027.413	-1628
1027.480	-2751
1027.547	-2440
1027.614	-2422
1027.682	-2421
1027.749	-2108
1027.816	-1880
1027.883	-2516
1027.950	-2476
1028.017	-2990
1028.084	-869
1028.151	-1995
1028.218	-2430
1028.285	-1543
1028.352	-2060
1028.419	-1990
1028.486	-2512
1028.553	-1847
1028.619	-2621
1028.686	-1965
1028.753	-2447
1028.820	-2202
1028.886	-2675
1028.953	-2180
1029.020	-2180
1029.086	-2088
1029.153	-2626
1029.220	-2106
1029.286	-1822
1029.353	-2125
1029.419	-2584
1029.486	-2244
1029.552	-3091
1029.619	-2559
1029.685	-2120
1029.751	-2264
1029.818	-1629
1029.884	-2664
1029.951	-1997
1030.017	-2303
1030.083	-2411
1030.149	-1553
1030.216	-2744
1030.282	-2257
1030.348	-2256
1030.414	-2277
1030.480	-2890
1030.546	-2741
1030.612	-2108
1030.678	-3476
1030.744	-2674
1030.810	-1949
1030.876	-2462
1030.942	-2848
1031.008	-1342
1031.074	-2245
1031.140	-2082
1031.206	-1727
1031.272	-2734
1031.337	-2150
1031.403	-2363
1031.469	-2328
1031.534	-2343
1031.600	-1098
1031.666	-2261
1031.731	-1930
1031.797	-2135
1031.863	-2529
1031.928	-2433
1031.994	-2955
1032.059	-2451
1032.125	-1420
1032.190	-2223
1032.256	-2475
1032.321	-2328
1032.386	-2160
1032.452	-1487
1032.517	-2177
1032.582	-2904
1032.647	-1465
1032.713	-2491
1032.778	-2266
1032.843	-2430
1032.908	-2592
1032.974	-2387
1033.039	-2871
1033.104	-2429
1033.169	-2295
1033.234	-2353
1033.299	-1430
1033.364	-2271
1033.429	-2324
1033.494	-1862
1033.559	-2453
1033.624	-2420
1033.688	-1896
1033.753	-2620
1033.818	-2255
1033.883	-2414
1033.948	-1481
1034.013	-1802
1034.077	-1888
1034.142	-1700
1034.207	-1654
1034.271	-1675
1034.336	-743
1034.400	-1839
1034.465	-3259
1034.530	-1773
1034.594	-2212
1034.658	-2674
1034.723	-2585
1034.787	-2196
1034.852	-1749
1034.916	-2432
1034.981	-2410
1035.045	-2122
1035.109	-2210
1035.173	-1519
1035.238	-2711
1035.302	-2484
1035.366	-1899
1035.430	-937
1035.495	-2828
1035.559	-2283
1035.623	-2268
1035.687	-2571
1035.751	-2861
1035.815	-1939
1035.879	-2918
1035.943	-2352
1036.007	-2759
1036.071	-2883
1036.135	-2062
1036.198	-1958
1036.262	-2423
1036.326	-1893
1036.390	-2650
1036.454	-2757
1036.517	-2174
1036.581	-2023
1036.645	-2265
1036.709	-2228
1036.772	-3214
1036.836	-2168
1036.900	-2730
1036.963	-2610
1037.026	-2349
1037.090	-2887
1037.154	-1866
1037.217	-2497
1037.280	-2569
1037.344	-1737
1037.407	-2460
1037.471	-2181
1037.534	-2880
1037.597	-2407
1037.661	-2362
1037.724	-2063
1037.787	-2512
1037.850	-1912
1037.913	-2871
1037.977	-837
1038.040	-1770
1038.103	-2764
1038.166	-2197
1038.229	-2177
1038.292	-3110
1038.355	-1676
1038.418	-2093
1038.481	-1565
1038.544	-2806
1038.607	-2498
1038.670	-1948
1038.732	-1797
1038.795	-3315
1038.858	-2390
1038.921	-1553
1038.984	-1833
1039.046	-2863
1039.109	-2511
1039.172	-2657
1039.234	-2906
1039.297	-2370
1039.360	-1635
1039.422	-2752
1039.485	-1791
1039.547	-2206
1039.610	-2343
1039.672	-2178
1039.734	-2203
1039.797	-1700
1039.859	-1851
1039.922	-2290
1039.984	-2429
1040.046	-2563
1040.109	-2421
1040.171	-1681
1040.233	-2044
1040.295	-2550
1040.358	-2462
1040.420	-2215
1040.482	-1942
1040.544	-2954
1040.606	-2083
1040.668	-1623
1040.730	-1894
1040.792	-1488
1040.854	-2379
1040.916	-2035
1040.978	-2883
1041.040	-1589
1041.102	-2101
1041.164	-1775
1041.225	-1661
1041.287	-2665
1041.349	-2627
1041.411	-2316
1041.472	-2217
1041.534	-2032
1041.596	-2583
1041.657	-1897
1041.719	-1673
1041.781	-2609
1041.842	-1844
1041.904	-2148
1041.965	-2632
1042.027	-1341
1042.088	-2440
1042.150	-1953
1042.211	-2458
1042.272	-1513
1042.334	-2397
1042.395	-2412
1042.456	-2646
1042.518	-2380
1042.579	-1554
1042.640	-2030
1042.701	-1464
1042.763	-2707
1042.824	-2560
1042.885	-2097
1042.946	-2827
1043.007	-2446
1043.068	-2347
1043.129	-2618
1043.190	-2147
1043.251	-2041
1043.312	-1991
1043.373	-2053
1043.434	-2370
1043.495	-2221
1043.556	-1277
1043.616	-2147
1043.677	-2356
1043.738	-2584
1043.799	-2091
1043.859	-1817
1043.920	-2184
1043.981	-2470
1044.041	-1572
1044.102	-1739
1044.162	-2278
1044.223	-1401
1044.284	-1782
1044.344	-1710
1044.405	-2186
1044.465	-2045
1044.525	-1379
1044.586	-1280
1044.646	-1997
1044.707	-1528
1044.767	-2431
1044.827	-2612
1044.887	-1700
1044.948	-1295
1045.008	-1777
1045.068	-2251
1045.128	-1890
1045.188	-1895
1045.249	-1302
1045.309	-2261
1045.369	-1901
1045.429	-1129
1045.489	-2902
1045.549	-1665
1045.609	-2283
1045.669	-2042
1045.729	-2115
1045.789	-2585
1045.848	-2065
1045.908	-1714
1045.968	-2362
1046.028	-1569
1046.088	-2861
1046.147	-1133
1046.207	-1588
1046.267	-2242
1046.326	-2323
1046.386	-1877
1046.446	-821
1046.505	-1672
1046.565	-955
1046.624	-1085
1046.684	-1536
1046.743	-1409
1046.803	-865
1046.862	-314
1046.922	0
