'Start Wavelength	183.907
'End Wavelength	1046.922
'Gate Delay	5.000
'Gate Width (ms)	1.050
'Laser Output Level	0.000
'X Position	0.000
'Y Position	0.000
'Z Position	0.000
'Grid Point Number	1.000
'Shot Number	100.000
183.907	547.000
183.977	-329.000
184.047	103
184.116	-278
184.186	-102
184.256	137
184.325	25
184.395	-331
184.465	765
184.534	-202
184.604	-126
184.674	846
184.743	-282
184.813	688
184.883	182
184.952	13
185.022	253
185.092	-233
185.161	-108
185.231	732
185.301	-211
185.370	1189
185.440	-398
185.509	-365
185.579	-745
185.649	-261
185.718	172
185.788	630
185.857	750
185.927	-147
185.996	-653
186.066	-279
186.136	144
186.205	-363
186.275	-11
186.344	138
186.414	371
186.483	203
186.553	454
186.622	459
186.692	30
186.761	-133
186.831	597
186.900	81
186.970	97
187.039	-726
187.109	637
187.178	377
187.248	-58
187.317	609
187.387	-296
187.456	717
187.526	548
187.595	-389
187.664	510
187.734	104
187.803	171
187.873	-302
187.942	-181
188.012	672
188.081	381
188.150	202
188.220	372
188.289	511
188.358	135
188.428	357
188.497	-697
188.567	655
188.636	-711
188.705	308
188.775	179
188.844	-110
188.913	444
188.983	273
189.052	-40
189.121	-107
189.191	-278
189.260	414
189.329	-211
189.399	156
189.468	-218
189.537	123
189.606	-18
189.676	413
189.745	619
189.814	264
189.883	488
189.953	-359
190.022	143
190.091	-244
190.161	91
190.230	221
190.299	-435
190.368	-27
190.437	-433
190.507	-16
190.576	25
190.645	143
190.714	-366
190.783	-374
190.853	349
190.922	942
190.991	-579
191.060	202
191.129	-135
191.198	169
191.268	239
191.337	-118
191.406	340
191.475	98
191.544	-458
191.613	-164
191.682	307
191.752	686
191.821	-490
191.890	832
191.959	-23
192.028	81
192.097	589
192.166	562
192.235	-403
192.304	615
192.373	341
192.442	-286
192.511	-96
192.580	1169
192.650	-68
192.719	-98
192.788	-384
192.857	-149
192.926	520
192.995	75
193.064	635
193.133	772
193.202	-458
193.271	192
193.340	121
193.409	343
193.478	580
193.547	-185
193.615	28
193.684	-321
193.753	-527
193.822	866
193.891	-564
193.960	295
194.029	-380
194.098	492
194.167	-127
194.236	794
194.305	124
194.374	-79
194.443	363
194.512	-133
194.580	139
194.649	136
194.718	126
194.787	67
194.856	-326
194.925	1113
194.994	231
195.062	-158
195.131	680
195.200	-457
195.269	-7
195.338	6
195.407	384
195.475	114
195.544	699
195.613	420
195.682	89
195.751	-164
195.819	37
195.888	220
195.957	282
196.026	-71
196.094	245
196.163	299
196.232	-190
196.301	412
196.369	-285
196.438	149
196.507	-209
196.576	12
196.644	312
196.713	-848
196.782	-540
196.850	352
196.919	-108
196.988	281
197.056	-440
197.125	-380
197.194	254
197.262	193
197.331	302
197.400	-431
197.468	-389
197.537	-348
197.606	-498
197.674	-57
197.743	236
197.812	353
197.880	-11
197.949	-331
198.017	588
198.086	-219
198.155	-88
198.223	-329
198.292	-555
198.360	-456
198.429	-209
198.497	-281
198.566	-93
198.635	680
198.703	908
198.772	325
198.840	21
198.909	-45
198.977	223
199.046	4
199.114	-26
199.183	52
199.251	-957
199.320	-523
199.388	507
199.457	713
199.525	-488
199.594	274
199.662	-430
199.731	-1067
199.799	-325
199.867	852
199.936	167
200.004	512
200.073	658
200.141	-159
200.210	-1288
200.278	78
200.346	8
200.415	843
200.483	167
200.552	537
200.620	154
200.688	191
200.757	-16
200.825	291
200.893	-342
200.962	226
201.030	-466
201.098	-273
201.167	110
201.235	-445
201.303	-550
201.372	464
201.440	-139
201.508	-101
201.577	691
201.645	250
201.713	-63
201.781	-548
201.850	292
201.918	405
201.986	912
202.055	-15
202.123	134
202.191	-550
202.259	458
202.327	369
202.396	394
202.464	500
202.532	56
202.600	779
202.669	-797
202.737	-339
202.805	-866
202.873	98
202.941	-1051
203.009	-99
203.078	-244
203.146	241
203.214	-317
203.282	-1009
203.350	-393
203.418	-152
203.487	401
203.555	-187
203.623	-490
203.691	28
203.759	-956
203.827	-37
203.895	71
203.963	448
204.031	-114
204.099	-725
204.168	186
204.236	85
204.304	-328
204.372	-443
204.440	-437
204.508	-717
204.576	-753
204.644	-24
204.712	-369
204.780	-141
204.848	125
204.916	131
204.984	421
205.052	-546
205.120	97
205.188	99
205.256	-148
205.324	229
205.392	-714
205.460	258
205.528	-406
205.596	-194
205.664	-1149
205.732	-585
205.799	-210
205.867	-455
205.935	-1051
206.003	433
206.071	-181
206.139	71
206.207	-437
206.275	220
206.343	-558
206.411	584
206.478	451
206.546	583
206.614	-303
206.682	252
206.750	63
206.818	34
206.885	344
206.953	-608
207.021	560
207.089	366
207.157	230
207.225	-601
207.292	-87
207.360	-190
207.428	-169
207.496	-157
207.563	73
207.631	-108
207.699	-1653
207.767	-221
207.834	-210
207.902	-591
207.970	-698
208.038	-69
208.105	-384
208.173	-1343
208.241	-1015
208.309	255
208.376	-265
208.444	441
208.512	-231
208.579	-842
208.647	-325
208.715	-455
208.782	-296
208.850	178
208.918	-189
208.985	-184
209.053	-520
209.120	567
209.188	-643
209.256	-30
209.323	-1147
209.391	158
209.459	1138
209.526	-395
209.594	-700
209.661	-59
209.729	269
209.796	-227
209.864	201
209.932	-982
209.999	767
210.067	-741
210.134	-17
210.202	-560
210.269	275
210.337	239
210.404	-303
210.472	-522
210.539	-893
210.607	-962
210.674	-104
210.742	-360
210.809	-779
210.877	-205
210.944	245
211.012	-1006
211.079	375
211.146	331
211.214	-597
211.281	357
211.349	483
211.416	-17
211.484	-87
211.551	-328
211.618	844
211.686	707
211.753	-481
211.821	20
211.888	-290
211.955	19
212.023	-399
212.090	847
212.157	89
212.225	-83
212.292	-22
212.359	-201
212.427	72
212.494	-579
212.561	-163
212.629	-220
212.696	-1316
212.763	366
212.831	-747
212.898	-180
212.965	-801
213.032	87
213.100	-456
213.167	38
213.234	-148
213.301	-214
213.369	132
213.436	-448
213.503	-360
213.570	-291
213.638	-719
213.705	-498
213.772	-1368
213.839	-860
213.906	118
213.973	-381
214.041	-1495
214.108	132
214.175	-804
214.242	-265
214.309	-412
214.376	-434
214.444	-764
214.511	-184
214.578	-601
214.645	281
214.712	-458
214.779	-540
214.846	-805
214.913	46
214.980	161
215.048	625
215.115	1008
215.182	238
215.249	-836
215.316	-371
215.383	-53
215.450	349
215.517	-266
215.584	308
215.651	-832
215.718	270
215.785	337
215.852	50
215.919	176
215.986	-200
216.053	-752
216.120	-771
216.187	19
216.254	-781
216.321	-49
216.388	32
216.455	-482
216.522	-230
216.589	-1161
216.656	839
216.722	-628
216.789	-437
216.856	-42
216.923	-829
216.990	-240
217.057	-357
217.124	-850
217.191	-696
217.258	-98
217.324	-590
217.391	97
217.458	-375
217.525	-689
217.592	-261
217.659	-652
217.725	713
217.792	-763
217.859	403
217.926	-656
217.993	-687
218.059	112
218.126	561
218.193	-135
218.260	-62
218.327	-722
218.393	-463
218.460	-1094
218.527	-129
218.594	-600
218.660	-876
218.727	432
218.794	-916
218.860	-44
218.927	-459
218.994	-432
219.061	-458
219.127	-500
219.194	-666
219.261	-217
219.327	-259
219.394	372
219.461	-518
219.527	384
219.594	401
219.661	-439
219.727	-730
219.794	80
219.860	-180
219.927	-237
219.994	705
220.060	1356
220.127	1948
220.193	1466
220.260	34
220.326	77
220.393	-529
220.460	-129
220.526	-442
220.593	-398
220.659	724
220.726	-512
220.792	-125
220.859	-717
220.925	-195
220.992	-456
221.058	-439
221.125	-238
221.191	-736
221.258	-542
221.324	-331
221.391	-914
221.457	-239
221.524	-293
221.590	-263
221.657	-214
221.723	-820
221.789	-394
221.856	281
221.922	-1160
221.989	471
222.055	64
222.121	-81
222.188	1671
222.254	17
222.321	-550
222.387	425
222.453	104
222.520	394
222.586	-708
222.652	126
222.719	-604
222.785	-27
222.851	-799
222.918	75
222.984	333
223.050	-849
223.116	-1676
223.183	1163
223.249	-634
223.315	-419
223.382	-179
223.448	-203
223.514	-680
223.580	-399
223.647	-907
223.713	-497
223.779	-960
223.845	-140
223.911	-218
223.978	-1254
224.044	-600
224.110	-658
224.176	-147
224.242	-865
224.309	-1424
224.375	165
224.441	-501
224.507	-128
224.573	-380
224.639	36
224.705	-508
224.772	-491
224.838	-521
224.904	9
224.970	-230
225.036	-736
225.102	-1171
225.168	75
225.234	96
225.300	-739
225.366	-666
225.432	538
225.499	137
225.565	-160
225.631	-290
225.697	-283
225.763	165
225.829	-708
225.895	-465
225.961	-318
226.027	-604
226.093	-319
226.159	431
226.225	287
226.291	-974
226.357	-517
226.423	136
226.489	1
226.554	-111
226.620	231
226.686	-1149
226.752	-282
226.818	-1142
226.884	-584
226.950	-57
227.016	68
227.082	-103
227.148	-160
227.214	-660
227.279	182
227.345	-3
227.411	195
227.477	1547
227.543	1640
227.609	2758
227.674	3117
227.740	1198
227.806	300
227.872	1096
227.938	573
228.003	-307
228.069	-645
228.135	-1065
228.201	-475
228.267	-594
228.332	331
228.398	-1222
228.464	298
228.530	-764
228.595	275
228.661	-1395
228.727	-769
228.792	276
228.858	-479
228.924	-1220
228.990	1213
229.055	-1158
229.121	8
229.187	277
229.252	-1106
229.318	-528
229.384	-267
229.449	-544
229.515	-1375
229.581	-1791
229.646	690
229.712	26
229.777	-336
229.843	-256
229.909	452
229.974	-2
230.040	-763
230.105	-178
230.171	-1579
230.236	262
230.302	-694
230.368	-1584
230.433	-39
230.499	-110
230.564	240
230.630	-851
230.695	-48
230.761	-559
230.826	-1768
230.892	293
230.957	-437
231.023	-585
231.088	600
231.154	306
231.219	-57
231.284	-719
231.350	-250
231.415	-403
231.481	665
231.546	-369
231.612	-49
231.677	-424
231.742	-732
231.808	654
231.873	-737
231.939	-2457
232.004	282
232.069	-141
232.135	-706
232.200	-768
232.265	953
232.331	-1236
232.396	-340
232.461	-240
232.527	-149
232.592	-958
232.657	142
232.723	-560
232.788	-298
232.853	269
232.918	-778
232.984	-914
233.049	-728
233.114	-1104
233.179	-593
233.245	720
233.310	-271
233.375	-1018
233.440	-548
233.506	-777
233.571	-711
233.636	371
233.701	-376
233.766	-1033
233.832	590
233.897	-212
233.962	-1611
234.027	561
234.092	146
234.157	-202
234.222	-1188
234.288	-248
234.353	-786
234.418	57
234.483	-151
234.548	-1135
234.613	-561
234.678	-579
234.743	-859
234.808	100
234.873	-1760
234.938	395
235.004	-603
235.069	-98
235.134	-343
235.199	-883
235.264	-299
235.329	-1675
235.394	-230
235.459	-62
235.524	-1166
235.589	494
235.654	-913
235.719	-1649
235.784	16
235.849	-98
235.913	-621
235.978	-582
236.043	-930
236.108	-1169
236.173	-1212
236.238	52
236.303	-451
236.368	-1297
236.433	-279
236.498	-1261
236.563	-776
236.627	-661
236.692	-65
236.757	-425
236.822	-337
236.887	-1658
236.952	779
237.017	-1683
237.081	503
237.146	-1572
237.211	710
237.276	-1038
237.341	-546
237.405	-1211
237.470	-400
237.535	-91
237.600	-866
237.664	-1013
237.729	-1808
237.794	-1686
237.859	-687
237.923	-469
237.988	-785
238.053	-537
238.118	-854
238.182	-1040
238.247	586
238.312	-1930
238.376	724
238.441	-2721
238.506	1031
238.570	-1318
238.635	-533
238.700	-226
238.764	-862
238.829	78
238.893	-800
238.958	566
239.023	-127
239.087	-708
239.152	427
239.216	-797
239.281	-164
239.346	84
239.410	-109
239.475	-953
239.539	319
239.604	-514
239.668	977
239.733	1335
239.797	4400
239.862	5336
239.926	5023
239.991	3371
240.055	1582
240.120	592
240.184	74
240.249	-72
240.313	-312
240.378	-7
240.442	-735
240.507	-961
240.571	-795
240.635	-911
240.700	-162
240.764	-432
240.829	-102
240.893	-852
240.957	313
241.022	-228
241.086	290
241.151	-1687
241.215	-1478
241.279	62
241.344	-64
241.408	-400
241.472	-596
241.537	368
241.601	-169
241.665	-1891
241.730	-174
241.794	-74
241.858	-1019
241.922	-608
241.987	-484
242.051	-1105
242.115	-1725
242.179	546
242.244	-669
242.308	-207
242.372	-93
242.436	-1155
242.501	-198
242.565	-1227
242.629	-1440
242.693	-447
242.757	-637
242.822	-729
242.886	-20
242.950	459
243.014	-1141
243.078	-802
243.142	-484
243.206	-790
243.271	-886
243.335	-1611
243.399	136
243.463	-1065
243.527	159
243.591	-633
243.655	-370
243.719	-691
243.783	787
243.847	-123
243.911	-283
243.975	-1027
244.040	-1789
244.104	852
244.168	-456
244.232	-1074
244.296	-379
244.360	-209
244.424	-1102
244.488	-635
244.552	-601
244.615	-2122
244.679	338
244.743	-1656
244.807	-1054
244.871	-388
244.935	-90
244.999	-1394
245.063	-55
245.127	51
245.191	-70
245.255	-366
245.319	-564
245.383	-1721
245.446	188
245.510	-948
245.574	71
245.638	204
245.702	-997
245.766	-62
245.829	692
245.893	-581
245.957	-2204
246.021	-57
246.085	-605
246.149	-996
246.212	976
246.276	-5
246.340	20
246.404	-741
246.467	219
246.531	-2936
246.595	436
246.659	178
246.722	-1539
246.786	-422
246.850	10
246.913	-373
246.977	-1544
247.041	35
247.104	-521
247.168	-382
247.232	2
247.295	775
247.359	214
247.423	-854
247.486	-140
247.550	-103
247.614	-949
247.677	-121
247.741	-706
247.804	-530
247.868	-368
247.932	-1059
247.995	1259
248.059	-852
248.122	-1113
248.186	161
248.249	-248
248.313	1105
248.376	1734
248.440	46
248.503	-1972
248.567	379
248.630	-313
248.694	-711
248.757	280
248.821	765
248.884	1289
248.948	-378
249.011	631
249.075	1366
249.138	1857
249.202	116
249.265	-617
249.328	110
249.392	-1469
249.455	-691
249.519	8
249.582	-509
249.645	58
249.709	-107
249.772	-1059
249.835	-181
249.899	-789
249.962	-534
250.025	-855
250.089	22
250.152	1467
250.215	189
250.279	-1034
250.342	473
250.405	-820
250.468	-1168
250.532	-867
250.595	-18
250.658	-1245
250.721	-426
250.785	-931
250.848	597
250.911	-1570
250.974	-787
251.038	-507
251.101	438
251.164	-544
251.227	-8
251.290	-1186
251.354	-856
251.417	-874
251.480	-1192
251.543	7
251.606	-1027
251.669	-790
251.732	-621
251.795	-53
251.859	-99
251.922	-854
251.985	-387
252.048	163
252.111	-846
252.174	-1197
252.237	-615
252.300	1982
252.363	229
252.426	650
252.489	-1059
252.552	-139
252.615	-1042
252.678	640
252.741	727
252.804	-726
252.867	-279
252.930	617
252.993	-128
253.056	754
253.119	-325
253.182	-870
253.245	-896
253.308	-145
253.371	-1725
253.434	-102
253.497	-353
253.559	476
253.622	61
253.685	-404
253.748	-665
253.811	-579
253.874	180
253.937	-452
254.000	-73
254.062	-487
254.125	-123
254.188	1054
254.251	-348
254.314	-818
254.376	-1831
254.439	147
254.502	-343
254.565	538
254.628	937
254.690	108
254.753	-158
254.816	-1050
254.878	-1189
254.941	83
255.004	-50
255.067	-365
255.129	-1310
255.192	-122
255.255	-1017
255.317	-343
255.380	-617
255.443	-1353
255.505	-316
255.568	-1225
255.631	-1034
255.693	5
255.756	-938
255.819	905
255.881	-632
255.944	-407
256.006	-1201
256.069	-835
256.132	-1339
256.194	-827
256.257	6
256.319	-715
256.382	-1215
256.444	1308
256.507	278
256.569	-486
256.632	-697
256.694	-573
256.757	-172
256.819	-196
256.882	-1864
256.944	-6
257.007	356
257.069	-989
257.132	-594
257.194	753
257.257	-890
257.319	-1037
257.381	-1483
257.444	-239
257.506	-999
257.569	144
257.631	638
257.693	424
257.756	-759
257.818	-1210
257.880	-754
257.943	-395
258.005	-1336
258.067	-829
258.130	-307
258.192	-287
258.254	-1126
258.317	10
258.379	-669
258.441	27
258.503	1287
258.566	-1275
258.628	102
258.690	-1507
258.753	-335
258.815	9
258.877	-1115
258.939	-211
259.001	-348
259.064	-259
259.126	-920
259.188	-28
259.250	-7
259.312	-230
259.375	259
259.437	-1075
259.499	-955
259.561	-333
259.623	-630
259.685	-1157
259.747	-139
259.809	175
259.872	-630
259.934	214
259.996	-378
260.058	-168
260.120	-269
260.182	-73
260.244	-409
260.306	-644
260.368	90
260.430	-1122
260.492	-814
260.554	988
260.616	-845
260.678	416
260.740	-840
260.802	-1280
260.864	388
260.926	-618
260.988	208
261.050	-1008
261.112	-1715
261.174	1165
261.236	-554
261.298	-669
261.359	14
261.421	728
261.483	-880
261.545	617
261.607	-1738
261.669	13
261.731	-1080
261.793	251
261.854	-1223
261.916	-346
261.978	-770
262.040	282
262.102	237
262.164	-927
262.225	489
262.287	-636
262.349	-571
262.411	-8
262.472	696
262.534	-627
262.596	-197
262.658	858
262.719	-1078
262.781	314
262.843	-884
262.904	321
262.966	-381
263.028	-637
263.090	-366
263.151	-521
263.213	-47
263.275	-608
263.336	-300
263.398	409
263.459	-764
263.521	-299
263.583	-378
263.644	379
263.706	-325
263.767	-1155
263.829	13
263.891	-552
263.952	-568
264.014	-694
264.075	-1000
264.137	-273
264.198	183
264.260	-695
264.321	-940
264.383	-869
264.444	-460
264.506	-1258
264.567	-109
264.629	502
264.690	-1470
264.752	-738
264.813	-555
264.875	-265
264.936	-18
264.998	-839
265.059	-23
265.120	-301
265.182	-1783
265.243	-197
265.305	-232
265.366	-589
265.427	47
265.489	-5
265.550	-438
265.611	-329
265.673	-516
265.734	-326
265.795	-690
265.857	-962
265.918	-699
265.979	-294
266.040	-1159
266.102	-871
266.163	86
266.224	-515
266.286	-533
266.347	-724
266.408	-723
266.469	-305
266.530	-471
266.592	-894
266.653	-368
266.714	-568
266.775	-475
266.836	-1241
266.898	-646
266.959	-1316
267.020	-1338
267.081	610
267.142	-614
267.203	-712
267.264	-862
267.326	1054
267.387	-1028
267.448	-1110
267.509	-645
267.570	-498
267.631	-1363
267.692	-452
267.753	-331
267.814	-1054
267.875	-410
267.936	-125
267.997	-390
268.058	-935
268.119	-880
268.180	-1109
268.241	-855
268.302	-151
268.363	-822
268.424	-798
268.485	-445
268.546	-674
268.607	-287
268.668	-30
268.729	507
268.790	-172
268.851	138
268.912	-410
268.972	-944
269.033	-443
269.094	-1638
269.155	-363
269.216	-1237
269.277	-48
269.338	-287
269.398	455
269.459	-968
269.520	-51
269.581	-531
269.642	-387
269.702	-842
269.763	-1057
269.824	-217
269.885	-522
269.945	138
270.006	165
270.067	-728
270.128	-1215
270.188	-843
270.249	-763
270.310	-849
270.370	-129
270.431	-1117
270.492	-391
270.553	-551
270.613	-558
270.674	155
270.734	-432
270.795	-963
270.856	-118
270.916	-267
270.977	69
271.038	-278
271.098	-970
271.159	-821
271.219	-612
271.280	-704
271.340	-216
271.401	-1117
271.462	-305
271.522	-283
271.583	-221
271.643	-1131
271.704	-816
271.764	-1257
271.825	-152
271.885	1193
271.946	2807
272.006	-259
272.066	1241
272.127	3600
272.187	5051
272.248	2334
272.308	50
272.369	1271
272.429	765
272.489	55
272.550	-1062
272.610	1087
272.671	-853
272.731	310
272.791	-323
272.852	-820
272.912	-662
272.972	-935
273.033	-441
273.093	-1149
273.153	439
273.214	-812
273.274	-228
273.334	46
273.394	908
273.455	480
273.515	218
273.575	812
273.635	290
273.696	517
273.756	1069
273.816	-370
273.876	-37
273.936	-279
273.997	286
274.057	-979
274.117	-338
274.177	-426
274.237	2072
274.297	1715
274.358	61
274.418	424
274.478	-140
274.538	-846
274.598	-41
274.658	150
274.718	208
274.778	593
274.838	-164
274.898	-1337
274.958	298
275.018	1058
275.078	693
275.138	-111
275.198	-1006
275.258	-75
275.318	574
275.378	463
275.438	-575
275.498	101
275.558	167
275.618	538
275.678	975
275.738	747
275.798	75
275.858	-636
275.918	233
275.978	-375
276.038	800
276.098	-405
276.157	-320
276.217	198
276.277	463
276.337	-77
276.397	162
276.457	412
276.517	294
276.576	-773
276.636	17
276.696	-466
276.756	560
276.815	-208
276.875	22
276.935	-12
276.995	800
277.055	-51
277.114	1103
277.174	-1112
277.234	232
277.293	15
277.353	-996
277.413	-59
277.472	-53
277.532	-413
277.592	650
277.651	492
277.711	1956
277.771	1102
277.830	2947
277.890	1992
277.950	495
278.009	4887
278.069	2207
278.128	1046
278.188	2350
278.248	817
278.307	2236
278.367	2246
278.426	559
278.486	397
278.545	133
278.605	109
278.664	-290
278.724	664
278.783	278
278.843	2282
278.902	763
278.962	-14
279.021	-63
279.081	1183
279.140	-7
279.199	-387
279.259	-41
279.318	-41
279.378	469
279.437	1476
279.496	8683
279.556	13215
279.615	9626
279.675	2445
279.734	1320
279.793	2024
279.853	8409
279.912	3515
279.971	651
280.031	1098
280.090	3493
280.149	6047
280.208	3257
280.268	6205
280.327	7687
280.386	1461
280.445	807
280.505	235
280.564	386
280.623	29
280.682	-354
280.742	688
280.801	678
280.860	-211
280.919	222
280.978	-409
281.037	-17
281.097	-57
281.156	388
281.215	-482
281.274	117
281.333	1500
281.392	692
281.451	-287
281.510	-409
281.569	133
281.628	510
281.688	229
281.747	114
281.806	337
281.865	117
281.924	255
281.983	295
282.042	-87
282.101	1119
282.160	-78
282.219	294
282.278	-234
282.337	204
282.396	-646
282.454	127
282.513	342
282.572	134
282.631	11
282.690	164
282.749	257
282.808	-273
282.867	-246
282.926	589
282.985	1593
283.043	-295
283.102	678
283.161	276
283.220	344
283.279	1792
283.338	151
283.396	-94
283.455	214
283.514	1405
283.573	442
283.631	624
283.690	101
283.749	475
283.808	295
283.866	1088
283.925	-73
283.984	1022
284.043	-440
284.101	208
284.160	-351
284.219	678
284.277	959
284.336	-115
284.395	610
284.453	1599
284.512	392
284.570	1142
284.629	1030
284.688	754
284.746	365
284.805	808
284.863	1041
284.922	1788
284.981	2289
285.039	3577
285.098	5954
285.156	12255
285.215	28775
285.273	30397
285.332	16965
285.390	8455
285.449	4634
285.507	4176
285.566	2312
285.624	1254
285.683	1695
285.741	1084
285.799	1336
285.858	622
285.916	702
285.975	870
286.033	398
286.091	342
286.150	-16
286.208	609
286.267	248
286.325	68
286.383	209
286.442	748
286.500	-465
286.558	315
286.616	523
286.675	932
286.733	376
286.791	-215
286.850	472
286.908	448
286.966	696
287.024	412
287.083	521
287.141	155
287.199	1171
287.257	-68
287.315	991
287.374	1000
287.432	-167
287.490	939
287.548	319
287.606	1166
287.664	371
287.723	850
287.781	778
287.839	1302
287.897	732
287.955	209
288.013	540
288.071	708
288.129	599
288.187	824
288.245	958
288.303	490
288.361	322
288.419	799
288.477	470
288.535	201
288.593	297
288.651	643
288.709	430
288.767	340
288.825	418
288.883	297
288.941	703
288.999	-123
289.057	1065
289.115	381
289.173	-13
289.231	1059
289.289	347
289.346	154
289.404	125
289.462	938
289.520	555
289.578	571
289.636	-85
289.694	1395
289.751	161
289.809	291
289.867	325
289.925	797
289.983	762
290.040	555
290.098	852
290.156	1021
290.214	858
290.271	383
290.329	413
290.387	1278
290.444	393
290.502	124
290.560	767
290.617	373
290.675	65
290.733	1107
290.790	1194
290.848	822
290.906	-246
290.963	468
291.021	961
291.078	956
291.136	513
291.194	1062
291.251	1244
291.309	944
291.366	462
291.424	-93
291.481	936
291.539	811
291.596	525
291.654	794
291.711	973
291.769	569
291.826	998
291.884	510
291.941	560
291.999	1200
292.056	906
292.114	943
292.171	378
292.228	2164
292.286	1590
292.343	920
292.401	1582
292.458	729
292.515	723
292.573	2011
292.630	957
292.687	149
292.745	-181
292.802	485
292.859	461
292.917	2196
292.974	1087
293.031	1652
293.089	147
293.146	463
293.203	602
293.260	996
293.318	587
293.375	887
293.432	-3
293.489	412
293.546	1636
293.604	580
293.661	1303
293.718	3071
293.775	1570
293.832	595
293.889	1031
293.947	1564
294.004	1219
294.061	1152
294.118	653
294.175	1773
294.232	1227
294.289	505
294.346	1064
294.403	794
294.460	467
294.517	429
294.574	113
294.631	473
294.688	340
294.745	855
294.802	3040
294.859	2377
294.916	650
294.973	907
295.030	405
295.087	448
295.144	705
295.201	530
295.258	513
295.315	1097
295.372	1418
295.429	2976
295.486	1290
295.542	-80
295.599	458
295.656	773
295.713	335
295.770	2167
295.827	912
295.883	1098
295.940	1006
295.997	130
296.054	806
296.111	1593
296.167	1084
296.224	221
296.281	-363
296.338	408
296.394	1007
296.451	627
296.508	690
296.564	1424
296.621	1497
296.678	1803
296.734	4076
296.791	1024
296.848	603
296.904	1277
296.961	1006
297.018	1589
297.074	1990
297.131	975
297.187	64
297.244	1192
297.301	2529
297.357	6595
297.414	2803
297.470	769
297.527	1099
297.583	678
297.640	709
297.696	620
297.753	149
297.809	601
297.866	107
297.922	771
297.979	-327
298.035	159
298.092	367
298.148	2087
298.204	1849
298.261	664
298.317	1166
298.374	3479
298.430	2154
298.486	792
298.543	151
298.599	421
298.656	446
298.712	344
298.768	1005
298.824	1029
298.881	-231
298.937	183
298.993	950
299.050	480
299.106	718
299.162	-54
299.218	1057
299.275	634
299.331	619
299.387	1220
299.443	5133
299.500	11007
299.556	8902
299.612	4458
299.668	2727
299.724	8240
299.780	12167
299.837	5085
299.893	3115
299.949	7571
300.005	12081
300.061	8777
300.117	14450
300.173	7236
300.229	2616
300.285	1453
300.341	1436
300.397	1296
300.453	680
300.510	1202
300.566	1582
300.622	4449
300.678	12464
300.734	19254
300.790	10275
300.845	6855
300.901	7325
300.957	13524
301.013	6282
301.069	2418
301.125	2166
301.181	1210
301.237	1357
301.293	1002
301.349	1160
301.405	653
301.461	562
301.516	1005
301.572	509
301.628	1138
301.684	884
301.740	948
301.796	573
301.851	423
301.907	1255
301.963	1658
302.019	2353
302.074	8713
302.130	9340
302.186	3931
302.242	1584
302.297	971
302.353	813
302.409	2044
302.464	974
302.520	2062
302.576	1955
302.631	3230
302.687	1547
302.743	603
302.798	937
302.854	430
302.910	410
302.965	567
303.021	460
303.076	909
303.132	-188
303.187	1235
303.243	139
303.299	1130
303.354	427
303.410	94
303.465	218
303.521	457
303.576	1001
303.632	856
303.687	808
303.743	2335
303.798	2776
303.853	510
303.909	236
303.964	48
304.020	78
304.075	679
304.130	726
304.186	1166
304.241	2067
304.297	1257
304.352	222
304.358	269
304.407	650
304.449	970
304.463	1080
304.518	1029
304.539	908
304.573	706
304.629	998
304.630	1005
304.684	1359
304.720	1896
304.739	2155
304.794	3302
304.811	2996
304.850	2238
304.902	1142
304.905	1074
304.960	308
304.992	383
305.015	416
305.071	1199
305.083	1017
305.126	399
305.173	197
305.181	170
305.236	797
305.264	737
305.292	569
305.347	612
305.354	505
305.402	88
305.445	902
305.457	1090
305.512	1241
305.535	687
305.567	-18
305.622	457
305.626	437
305.678	142
305.716	928
305.733	1243
305.788	2200
305.807	1991
305.843	1650
305.897	2364
305.898	2372
305.953	3249
305.988	2309
306.008	1737
306.063	610
306.078	452
306.118	171
306.168	305
306.173	319
306.228	373
306.259	316
306.283	309
306.338	392
306.349	290
306.393	-375
306.440	233
306.448	404
306.503	306
306.530	246
306.558	130
306.613	303
306.620	360
306.668	983
306.711	1726
306.723	1789
306.778	1620
306.801	1365
306.833	1172
306.888	592
306.892	595
306.943	744
306.982	528
306.997	381
307.052	568
307.072	419
307.107	309
307.162	599
307.163	595
307.217	625
307.253	914
307.272	849
307.327	547
307.343	581
307.381	828
307.434	629
307.436	630
307.491	806
307.524	979
307.546	1120
307.600	1908
307.614	1956
307.655	1450
307.704	771
307.710	786
307.765	815
307.795	885
307.819	670
307.874	252
307.885	199
307.929	333
307.975	338
307.984	346
308.038	777
308.065	757
308.093	863
308.148	1244
308.156	1393
308.202	1942
308.246	1824
308.257	1769
308.312	1520
308.336	1415
308.366	1421
308.421	1081
308.426	1103
308.475	971
308.517	335
308.530	225
308.585	419
308.607	523
308.639	691
308.694	671
308.697	669
308.748	667
308.787	415
308.803	244
308.857	197
308.877	122
308.912	250
308.967	720
308.967	719
309.021	927
309.058	1420
309.076	1574
309.130	1801
309.148	1774
309.185	2319
309.238	3585
309.239	3590
309.293	3414
309.328	3279
309.348	3156
309.402	1990
309.418	1776
309.457	1653
309.508	1198
309.511	1200
309.566	1434
309.598	1836
309.620	1851
309.674	1498
309.688	1572
309.729	2175
309.778	2375
309.783	2344
309.837	1742
309.868	1477
309.892	1825
309.946	2647
309.959	2919
310.001	3434
310.049	3879
310.055	3781
310.109	2597
310.139	1909
310.163	1430
310.218	635
310.229	421
310.272	776
310.319	1276
310.326	1187
310.381	624
310.409	271
310.435	447
310.489	726
310.499	839
310.543	784
310.589	505
310.598	546
310.652	754
310.679	864
310.706	753
310.760	526
310.769	487
310.814	729
310.859	1076
310.868	988
310.923	348
310.948	49
310.977	579
311.031	1776
311.038	1901
311.085	1210
311.128	500
311.139	544
311.193	1183
311.218	1261
311.247	1145
311.301	1227
311.308	1220
311.356	1031
311.398	874
311.410	882
311.464	922
311.488	891
311.518	821
311.572	867
311.578	862
311.626	1215
311.668	1507
311.680	1523
311.734	1621
311.758	1636
311.788	1471
311.842	1229
311.847	1198
311.896	1282
311.937	1387
311.950	1360
312.004	1214
312.027	1166
312.058	1213
312.112	1277
312.117	1283
312.165	1008
312.207	771
312.297	618
312.386	361
312.476	2255
312.566	1157
312.656	1380
312.745	483
312.835	2557
312.925	1551
313.015	1420
313.104	727
313.194	1283
313.284	797
313.374	1864
313.463	1891
313.553	2006
313.643	1445
313.732	2566
313.822	1603
313.912	2194
314.001	2213
314.091	2254
314.180	1685
314.270	2447
314.360	1909
314.449	2741
314.539	2329
314.628	1822
314.718	1372
314.808	2799
314.897	2331
314.987	3044
315.076	2840
315.166	3189
315.255	2757
315.345	2504
315.434	2018
315.524	2968
315.613	2021
315.703	2302
315.792	4835
315.881	12260
315.971	5019
316.060	4156
316.150	2679
316.239	1833
316.328	2411
316.418	2947
316.507	2310
316.597	3028
316.686	3171
316.775	2501
316.865	3203
316.954	2511
317.043	2267
317.133	2491
317.222	2135
317.311	2147
317.400	903
317.490	2976
317.579	1715
317.668	2167
317.757	2915
317.847	7768
317.936	19081
318.025	7904
318.114	5151
318.203	3649
318.293	3177
318.382	5441
318.471	4739
318.560	5050
318.649	3164
318.738	2344
318.828	2099
318.917	1819
319.006	1226
319.095	1937
319.184	2582
319.273	2419
319.362	2428
319.451	2088
319.540	1652
319.629	1961
319.718	2749
319.807	1908
319.896	1708
319.985	3432
320.074	2437
320.163	1683
320.252	2175
320.341	2205
320.430	1564
320.519	2718
320.608	2451
320.697	3298
320.786	3045
320.875	4692
320.964	4004
321.053	3987
321.142	4907
321.230	6564
321.319	5801
321.408	7543
321.497	6981
321.586	6464
321.675	4551
321.764	4791
321.852	4123
321.941	5610
322.030	4295
322.119	4884
322.207	7829
322.296	7163
322.385	7783
322.474	8944
322.562	11258
322.651	8289
322.740	5233
322.829	6338
322.917	4210
323.006	4655
323.095	3961
323.183	3387
323.272	2942
323.361	2833
323.449	3455
323.538	2768
323.626	3376
323.715	3139
323.804	1641
323.892	2382
323.981	2500
324.069	3098
324.158	1671
324.246	1719
324.335	2437
324.424	2770
324.512	2741
324.601	2335
324.689	1849
324.778	2569
324.866	2789
324.954	2149
325.043	1227
325.131	1628
325.220	2613
325.308	1991
325.397	1598
325.485	1965
325.574	1675
325.662	1747
325.750	1463
325.839	2531
325.927	2097
326.015	1396
326.104	961
326.192	1964
326.280	1901
326.369	2052
326.457	2376
326.545	3061
326.634	1515
326.722	1991
326.810	1700
326.898	1763
326.987	1544
327.075	2384
327.163	2424
327.251	1907
327.340	1464
327.428	3705
327.516	3758
327.604	3112
327.692	1878
327.781	2087
327.869	2178
327.957	1660
328.045	1076
328.133	2408
328.221	1119
328.309	1988
328.397	2040
328.485	2289
328.574	3693
328.662	5688
328.750	3165
328.838	2473
328.926	1513
329.014	2269
329.102	1779
329.190	2688
329.278	1880
329.366	2366
329.454	1129
329.542	1909
329.630	991
329.718	2150
329.806	1196
329.893	2531
329.981	751
330.069	2467
330.157	2115
330.245	2109
330.333	2102
330.421	2207
330.509	1749
330.597	3059
330.684	2244
330.772	1241
330.860	1765
330.948	1333
331.036	1286
331.123	2080
331.211	2135
331.299	2560
331.387	1137
331.475	2142
331.562	1227
331.650	1864
331.738	1695
331.825	1757
331.913	1577
332.001	2176
332.089	1292
332.176	1015
332.264	1325
332.352	1785
332.439	2060
332.527	1594
332.614	1159
332.702	1371
332.790	1858
332.877	1412
332.965	1715
333.052	2590
333.140	1750
333.228	2631
333.315	2481
333.403	2482
333.490	1453
333.578	1486
333.665	2557
333.753	3259
333.840	2193
333.928	3646
334.015	3183
334.103	4107
334.190	4639
334.278	7798
334.365	9801
334.452	10572
334.540	6468
334.627	5554
334.715	6972
334.802	11324
334.889	17408
334.977	24827
335.064	17098
335.151	8263
335.239	5873
335.326	4549
335.413	5098
335.501	5574
335.588	5541
335.675	5583
335.762	7321
335.850	8634
335.937	12698
336.024	21205
336.111	32279
336.199	31892
336.286	14720
336.373	8692
336.460	4942
336.547	4964
336.635	3988
336.722	3493
336.809	3008
336.896	2998
336.983	2986
337.070	3986
337.157	2976
337.245	3392
337.332	2781
337.419	2756
337.506	2548
337.593	2224
337.680	1641
337.767	3264
337.854	1959
337.941	2389
338.028	2665
338.115	1439
338.202	3235
338.289	1956
338.376	2078
338.463	2179
338.550	1272
338.637	2452
338.724	1636
338.811	2415
338.898	2413
338.984	1739
339.071	1172
339.158	2277
339.245	3009
339.332	2309
339.419	1908
339.506	3002
339.593	629
339.679	2499
339.766	1581
339.853	1699
339.940	2685
340.027	1779
340.113	1498
340.200	2124
340.287	2227
340.374	1711
340.460	1834
340.547	905
340.634	1695
340.720	3728
340.807	2095
340.894	2098
340.980	1539
341.067	1595
341.154	2516
341.240	2792
341.327	2859
341.414	2294
341.500	1340
341.587	2260
341.674	2465
341.760	2355
341.847	2638
341.933	2223
342.020	1195
342.106	1950
342.193	1986
342.279	2108
342.366	1680
342.452	2313
342.539	1490
342.625	2735
342.712	3526
342.798	3284
342.885	1635
342.971	1837
343.058	1384
343.144	1590
343.230	2434
343.317	2393
343.403	1464
343.490	1530
343.576	1943
343.662	1952
343.749	818
343.835	2047
343.921	2998
344.008	8025
344.094	15595
344.180	4812
344.267	2524
344.353	4674
344.439	3908
344.525	2130
344.612	1931
344.698	2245
344.784	1170
344.870	2112
344.957	1572
345.043	2702
345.129	1507
345.215	3316
345.301	2136
345.387	1621
345.474	1524
345.560	1463
345.646	1170
345.732	2357
345.818	1374
345.904	2368
345.990	1424
346.076	1819
346.162	1021
346.249	2286
346.335	1310
346.421	2677
346.507	2893
346.593	7082
346.679	1902
346.765	2950
346.851	3505
346.937	2607
347.023	3601
347.108	2371
347.194	1866
347.280	2147
347.366	3064
347.452	7426
347.538	11765
347.624	8672
347.710	5363
347.796	1957
347.882	1275
347.967	2048
348.053	2047
348.139	2427
348.225	1633
348.311	1615
348.397	1303
348.482	2573
348.568	2947
348.654	2944
348.740	9977
348.825	9348
348.911	4945
348.997	5001
349.083	8193
349.168	2445
349.254	2387
349.340	1827
349.425	2480
349.511	2721
349.597	1793
349.682	2935
349.768	6283
349.854	3346
349.939	3096
350.025	3209
350.110	1697
350.196	2215
350.282	960
350.367	3043
350.453	1812
350.538	1976
350.624	1156
350.709	2538
350.795	1201
350.880	1409
350.966	1981
351.051	2503
351.137	1736
351.222	2477
351.308	2719
351.393	3913
351.479	2386
351.564	2100
351.649	1284
351.735	2488
351.820	1321
351.906	1715
351.991	1043
352.076	3098
352.162	3927
352.247	2497
352.332	1897
352.418	2289
352.503	1817
352.588	6051
352.673	3555
352.759	2084
352.844	1115
352.929	2345
353.014	995
353.100	2595
353.185	3362
353.270	2110
353.355	1621
353.441	2298
353.526	1611
353.611	1743
353.696	1055
353.781	2516
353.866	665
353.952	3366
354.037	1496
354.122	3727
354.207	2173
354.292	2601
354.377	1608
354.462	2239
354.547	1396
354.632	2628
354.717	2362
354.802	3237
354.887	2101
354.972	2117
355.057	1565
355.142	1812
355.227	2278
355.312	2147
355.397	1827
355.482	3797
355.567	1355
355.652	3004
355.737	2510
355.822	5814
355.907	3732
355.991	3251
356.076	1477
356.161	2156
356.246	1167
356.331	1961
356.416	2907
356.501	9583
356.585	8247
356.670	2376
356.755	3933
356.840	3362
356.924	6964
357.009	18908
357.094	6997
357.179	2597
357.263	2007
357.348	3390
357.433	1540
357.517	2146
357.602	1711
357.687	2300
357.771	3098
357.856	2676
357.941	2413
358.025	5633
358.110	19590
358.195	9813
358.279	3497
358.364	2855
358.448	4386
358.533	9524
358.617	6070
358.702	7398
358.787	3576
358.871	2562
358.956	2267
359.040	2222
359.125	2161
359.209	3544
359.294	1631
359.378	3552
359.462	3025
359.547	3589
359.631	2188
359.716	2384
359.800	1869
359.885	3130
359.969	1880
360.053	3097
360.138	1100
360.222	1796
360.306	2047
360.391	2746
360.475	1363
360.559	3447
360.644	3680
360.728	3069
360.812	6297
360.896	13141
360.981	4835
361.065	3828
361.149	2941
361.233	2080
361.318	2179
361.402	2857
361.486	3288
361.570	3302
361.654	2418
361.739	3333
361.823	8362
361.907	14237
361.991	4404
362.075	4675
362.159	5606
362.243	11531
362.327	24671
362.411	40727
362.495	15938
362.580	8255
362.664	6952
362.748	8230
362.832	11804
362.916	22020
363.000	61504
363.084	90042
363.168	41237
363.252	12889
363.336	7236
363.420	6282
363.503	4589
363.587	5140
363.671	4706
363.755	4920
363.839	6329
363.923	4786
364.007	8017
364.091	9544
364.175	13536
364.258	29468
364.342	66881
364.426	120253
364.510	65603
364.594	22611
364.677	11787
364.761	14217
364.845	10850
364.929	5301
365.013	4447
365.096	4440
365.180	3418
365.264	3498
365.347	3098
365.431	2973
365.515	2050
365.598	2442
365.682	3423
365.766	2287
365.849	2781
365.933	2322
366.017	4010
366.100	2730
366.184	2351
366.267	4398
366.351	2665
366.435	2499
366.518	1994
366.602	3823
366.685	3441
366.769	2653
366.852	2818
366.936	3781
367.019	3179
367.103	1940
367.186	3264
367.270	3432
367.353	1942
367.436	4489
367.520	2780
367.603	4030
367.687	2315
367.770	3850
367.853	4561
367.937	6420
368.020	7497
368.104	3167
368.187	2939
368.270	3357
368.353	3620
368.437	2791
368.520	2394
368.603	2756
368.687	3475
368.770	7663
368.853	2408
368.936	3715
369.020	2773
369.103	2206
369.186	1568
369.269	2414
369.352	3206
369.436	2533
369.519	2266
369.602	1327
369.685	2899
369.768	2034
369.851	2597
369.934	1313
370.018	835
370.101	1935
370.184	4383
370.267	2997
370.350	2875
370.433	2981
370.516	7724
370.599	12950
370.682	3152
370.765	5241
370.848	6532
370.931	8129
371.014	4513
371.097	1292
371.180	2842
371.263	2746
371.346	1060
371.429	3024
371.511	1088
371.594	1941
371.677	3286
371.760	3217
371.843	2555
371.926	8125
372.009	17196
372.091	8707
372.174	3574
372.257	10051
372.340	4063
372.423	2298
372.505	3237
372.588	1806
372.671	2990
372.754	7994
372.836	4170
372.919	3493
373.002	2889
373.085	1662
373.167	3136
373.250	4797
373.332	8866
373.415	11792
373.498	21506
373.580	10410
373.663	16808
373.746	20368
373.828	5327
373.911	4297
373.993	1751
374.076	3556
374.159	2770
374.241	4365
374.324	7266
374.406	6990
374.489	7566
374.571	20048
374.654	8012
374.736	5726
374.819	11945
374.901	18209
374.983	16637
375.066	6405
375.148	3368
375.231	4107
375.313	4343
375.395	4565
375.478	4374
375.560	4539
375.643	4431
375.725	6292
375.807	13615
375.890	11452
375.972	2545
376.054	3529
376.136	2946
376.219	2711
376.301	5883
376.383	11805
376.465	5728
376.548	3593
376.630	3827
376.712	11012
376.794	5181
376.877	2343
376.959	1631
377.041	2761
377.123	2238
377.205	1904
377.287	1603
377.369	2943
377.452	2056
377.534	3363
377.616	2970
377.698	2558
377.780	1471
377.862	2859
377.944	2964
378.026	1707
378.108	3014
378.190	2446
378.272	2733
378.354	3519
378.436	1596
378.518	2131
378.600	2716
378.682	3175
378.764	5315
378.846	6171
378.928	2939
379.010	2882
379.091	2730
379.173	2780
379.255	1356
379.337	2149
379.419	3689
379.501	8165
379.583	3642
379.664	2910
379.746	1538
379.828	6879
379.910	5697
379.991	7931
380.073	2316
380.155	1754
380.237	1580
380.318	1299
380.400	1643
380.482	2048
380.564	2308
380.645	3210
380.727	2596
380.809	3134
380.890	1885
380.972	1450
381.053	1766
381.135	3220
381.217	2275
381.298	6972
381.380	3337
381.461	3334
381.543	9453
381.624	11674
381.706	3257
381.787	2922
381.869	3513
381.951	4444
382.032	14503
382.113	12614
382.195	1983
382.276	4035
382.358	4415
382.439	9152
382.521	10688
382.602	16299
382.684	7173
382.765	11117
382.846	8288
382.928	9768
383.009	4983
383.090	4959
383.172	13279
383.253	19042
383.334	8661
383.416	13070
383.497	7271
383.578	3686
383.659	5199
383.741	12728
383.822	29545
383.903	13912
383.984	8091
384.066	16441
384.147	9247
384.228	4060
384.309	3809
384.390	4365
384.471	3153
384.553	3692
384.634	2611
384.715	3192
384.796	1976
384.877	2094
384.958	5493
385.039	5704
385.120	2982
385.201	3680
385.282	2041
385.363	3660
385.444	2593
385.525	4576
385.606	8669
385.687	8596
385.768	4921
385.849	3575
385.930	10679
386.011	17038
386.092	6276
386.173	3731
386.254	3717
386.335	4956
386.416	3686
386.496	5570
386.577	6892
386.658	4774
386.739	3149
386.820	4785
386.901	2606
386.981	6156
387.062	5123
387.143	5335
387.224	9329
387.304	10590
387.385	8461
387.466	5948
387.547	8033
387.627	7391
387.708	8749
387.789	13376
387.869	14339
387.950	8211
388.031	4463
388.111	2567
388.192	4801
388.273	5092
388.353	3998
388.434	4569
388.514	3747
388.595	10814
388.676	12398
388.756	7124
388.837	6730
388.917	5198
388.998	1609
389.078	4026
389.159	3658
389.239	1906
389.320	4219
389.400	1359
389.480	4219
389.561	7536
389.641	5914
389.722	3759
389.802	2803
389.883	4681
389.963	8770
390.043	5820
390.124	2461
390.204	4515
390.284	7101
390.365	4075
390.445	2805
390.525	2802
390.605	4276
390.686	4173
390.766	3537
390.846	4535
390.927	2374
391.007	2644
391.087	3973
391.167	2812
391.247	2011
391.328	4170
391.408	3779
391.488	3807
391.568	2115
391.648	3522
391.728	5201
391.808	5142
391.888	4126
391.969	6388
392.049	6945
392.129	6313
392.209	5608
392.289	10292
392.369	7481
392.449	6603
392.529	5423
392.609	7714
392.689	8849
392.769	13198
392.849	13876
392.929	14485
393.009	21389
393.089	28488
393.169	46609
393.248	101121
393.328	211419
393.408	214522
393.488	102996
393.568	45016
393.648	24196
393.728	15614
393.807	10965
393.887	10164
393.967	8244
394.047	6318
394.127	4576
394.206	5938
394.286	5461
394.366	6528
394.446	7886
394.525	4186
394.605	3496
394.685	5173
394.764	5357
394.844	10087
394.924	12374
395.003	6795
395.083	3409
395.163	3288
395.242	2557
395.322	3878
395.402	2066
395.481	5967
395.561	4509
395.640	15955
395.720	32520
395.799	15156
395.879	5192
395.958	4173
396.038	4703
396.117	9405
396.197	10546
396.276	6872
396.356	5802
396.435	8246
396.515	10897
396.594	17438
396.673	35137
396.753	93293
396.832	190588
396.912	149639
396.991	52594
397.070	23926
397.150	13218
397.229	14367
397.308	26189
397.388	48234
397.467	22171
397.546	8374
397.625	4445
397.705	7062
397.784	5121
397.863	4432
397.942	3759
398.022	4654
398.101	2361
398.180	3841
398.259	3023
398.338	4475
398.417	2677
398.497	3767
398.576	3550
398.655	2307
398.734	2499
398.813	2765
398.892	2237
398.971	3694
399.050	1843
399.129	2527
399.208	2696
399.287	3274
399.366	2083
399.445	2246
399.524	3495
399.603	628
399.682	2311
399.761	3066
399.840	2757
399.919	3563
399.998	1963
400.077	1657
400.156	1664
400.235	4131
400.313	2159
400.392	1823
400.471	3758
400.550	5318
400.629	1988
400.708	2930
400.786	1334
400.865	1703
400.944	1602
401.023	4140
401.102	1892
401.180	2643
401.259	1635
401.338	1430
401.416	2171
401.495	2096
401.574	2449
401.652	1151
401.731	1929
401.810	819
401.888	1395
401.967	1621
402.046	766
402.124	2642
402.203	561
402.281	3388
402.360	371
402.438	2269
402.517	288
402.596	2108
402.674	1220
402.753	757
402.831	2113
402.910	3772
402.988	5439
403.066	16917
403.145	9752
403.223	6770
403.302	14455
403.380	12371
403.459	12065
403.537	4739
403.615	3202
403.694	1267
403.772	2289
403.850	2076
403.929	1578
404.007	1911
404.085	3621
404.164	2773
404.242	1900
404.320	2156
404.398	1651
404.477	2530
404.555	12271
404.633	10475
404.711	2586
404.789	2411
404.868	2602
404.946	1826
405.024	1394
405.102	2090
405.180	911
405.258	685
405.336	2607
405.415	1269
405.493	1872
405.571	2657
405.649	941
405.727	723
405.805	2187
405.883	1856
405.961	2907
406.039	1318
406.117	572
406.195	2153
406.273	1745
406.351	10207
406.429	6612
406.507	847
406.585	515
406.663	1399
406.740	795
406.818	1393
406.896	985
406.974	2960
407.052	-165
407.130	5601
407.208	7977
407.285	3017
407.363	500
407.441	2114
407.519	1184
407.596	2322
407.674	4478
407.752	20034
407.830	15254
407.907	3389
407.985	1147
408.063	2194
408.141	1047
408.218	2699
408.296	1118
408.373	1830
408.451	2838
408.529	2661
408.606	1926
408.684	2894
408.762	2296
408.839	2445
408.917	2869
408.994	2605
409.072	2385
409.149	4050
409.227	7683
409.304	10311
409.382	10272
409.459	11761
409.537	16142
409.614	13726
409.692	9789
409.769	10091
409.846	15434
409.924	18695
410.001	11372
410.079	9094
410.156	7449
410.233	5438
410.311	4420
410.388	4111
410.465	4461
410.543	3822
410.620	3663
410.697	4892
410.775	4038
410.852	3116
410.929	5106
411.006	4801
411.083	3740
411.161	3339
411.238	3993
411.315	2907
411.392	3124
411.469	3976
411.547	2364
411.624	1427
411.701	1787
411.778	2445
411.855	2122
411.932	1835
412.009	2046
412.086	2619
412.163	1947
412.240	1345
412.317	2872
412.394	2504
412.471	2330
412.548	1620
412.625	992
412.702	2140
412.779	2292
412.856	2562
412.933	1350
413.010	2442
413.087	1675
413.164	3416
413.241	4415
413.318	1502
413.395	2963
413.471	1848
413.548	1959
413.625	2097
413.702	1445
413.779	2484
413.855	1798
413.932	1598
414.009	1113
414.086	1632
414.162	2299
414.239	2565
414.316	3406
414.393	5813
414.469	1524
414.546	1499
414.623	1020
414.699	1609
414.776	775
414.853	1797
414.929	1741
415.006	1234
415.082	759
415.159	1614
415.236	1199
415.312	2109
415.389	1637
415.465	882
415.542	1017
415.618	624
415.695	2167
415.771	1171
415.848	1317
415.924	1581
416.000	1240
416.077	1809
416.153	349
416.230	556
416.306	1193
416.383	962
416.459	1470
416.535	1170
416.612	524
416.688	1204
416.764	276
416.841	780
416.917	1401
416.993	1467
417.069	2049
417.146	1030
417.222	906
417.298	1352
417.374	913
417.451	1583
417.527	535
417.603	983
417.679	1713
417.755	1415
417.831	456
417.908	1671
417.984	1382
418.060	454
418.136	1760
418.212	1498
418.288	1628
418.364	2141
418.440	704
418.516	1619
418.592	1381
418.668	1528
418.744	1505
418.820	1844
418.896	1151
418.972	888
419.048	1005
419.124	3592
419.200	313
419.276	2315
419.352	1302
419.428	2031
419.504	873
419.579	2093
419.655	1703
419.731	2231
419.807	1997
419.883	3291
419.959	2484
420.034	2330
420.110	2426
420.186	4382
420.262	4720
420.337	3071
420.413	2678
420.489	3856
420.565	3715
420.640	4548
420.716	4993
420.792	4598
420.867	5471
420.943	4965
421.019	5200
421.094	5361
421.170	6476
421.245	6638
421.321	7826
421.397	8661
421.472	12642
421.548	21131
421.623	16205
421.699	13832
421.774	14189
421.850	14921
421.925	18264
422.001	22828
422.076	27294
422.152	32653
422.227	40872
422.302	56983
422.378	74843
422.453	108996
422.529	144357
422.604	145609
422.679	108220
422.755	145273
422.830	149503
422.905	113113
422.981	82701
423.056	62864
423.131	48226
423.207	37608
423.282	29138
423.357	25901
423.432	22286
423.508	19197
423.583	15760
423.658	14670
423.733	11905
423.808	11056
423.883	11224
423.959	11280
424.034	12340
424.109	11701
424.184	8520
424.259	7183
424.334	6436
424.409	6723
424.484	5460
424.559	5184
424.634	4520
424.709	4844
424.784	4663
424.859	3268
424.934	3818
425.009	4724
425.084	6054
425.159	3542
425.234	3613
425.309	2687
425.384	3480
425.459	2309
425.534	3220
425.609	2350
425.683	2190
425.758	3258
425.833	2408
425.908	3490
425.983	2851
426.058	5432
426.132	3223
426.207	3165
426.282	3201
426.357	1969
426.431	2401
426.506	2997
426.581	2140
426.655	2850
426.730	1610
426.805	1065
426.879	2755
426.954	2442
427.029	1694
427.103	4845
427.178	8797
427.253	4853
427.327	1845
427.402	1759
427.476	1046
427.551	1883
427.625	1995
427.700	2193
427.774	1273
427.849	2207
427.923	1443
427.998	2637
428.072	2192
428.147	5609
428.221	21017
428.296	57794
428.370	33237
428.444	6890
428.519	2463
428.593	2169
428.667	2357
428.742	3753
428.816	7897
428.890	35740
428.965	53686
429.039	15055
429.113	3433
429.188	2579
429.262	2056
429.336	1632
429.410	2498
429.485	2371
429.559	2132
429.633	2303
429.707	3035
429.781	8105
429.855	32882
429.930	48411
430.004	13976
430.078	8116
430.152	23625
430.226	76445
430.300	75557
430.374	19847
430.448	7082
430.522	4448
430.596	4113
430.670	12227
430.744	46371
430.818	52068
430.892	10901
430.966	3436
431.040	2399
431.114	1614
431.188	1278
431.262	1444
431.336	386
431.410	1424
431.484	417
431.557	1783
431.631	1223
431.705	4355
431.779	14756
431.853	55422
431.927	37895
432.000	7493
432.074	1191
432.148	1304
432.222	-204
432.295	1110
432.369	329
432.443	482
432.516	2588
432.590	7230
432.664	2547
432.737	418
432.811	360
432.885	914
432.958	1358
433.032	71
433.106	-781
433.179	342
433.253	-71
433.326	551
433.400	117
433.473	812
433.547	-46
433.620	1554
433.694	317
433.767	1276
433.841	-151
433.914	800
433.988	-111
434.061	1241
434.134	446
434.208	-320
434.281	167
434.355	447
434.428	730
434.501	450
434.575	-420
434.648	576
434.721	167
434.795	515
434.868	288
434.941	673
435.014	-119
435.088	506
435.161	559
435.234	1394
435.307	1227
435.381	2175
435.454	3747
435.527	7350
435.600	8219
435.673	7233
435.746	5262
435.819	3304
435.892	2592
435.966	2460
436.039	1652
436.112	1824
436.185	989
436.258	1187
436.331	199
436.404	1020
436.477	402
436.550	1421
436.623	1004
436.696	515
436.769	814
436.842	1110
436.915	761
436.987	1071
437.060	-291
437.133	362
437.206	-588
437.279	1347
437.352	-158
437.425	430
437.498	1179
437.570	1447
437.643	-128
437.716	251
437.789	109
437.861	448
437.934	1065
438.007	350
438.080	-57
438.152	801
438.225	278
438.298	4332
438.370	12329
438.443	4695
438.516	1664
438.588	748
438.661	649
438.734	762
438.806	331
438.879	1285
438.951	82
439.024	1051
439.096	-14
439.169	654
439.241	272
439.314	439
439.386	214
439.459	1559
439.531	68
439.604	572
439.676	1533
439.749	723
439.821	394
439.893	960
439.966	44
440.038	788
440.110	464
440.183	706
440.255	-1020
440.327	1431
440.400	1629
440.472	6459
440.544	4146
440.617	1935
440.689	2051
440.761	1259
440.833	905
440.905	892
440.978	956
441.050	1544
441.122	1031
441.194	1399
441.266	494
441.338	840
441.411	1026
441.483	2536
441.555	2985
441.627	1473
441.699	1020
441.771	693
441.843	1166
441.915	1256
441.987	1073
442.059	1438
442.131	1625
442.203	1509
442.275	3376
442.347	6354
442.419	12384
442.491	46784
442.563	92683
442.635	42316
442.706	11461
442.778	5704
442.850	4040
442.922	2994
442.994	2969
443.066	3039
443.137	4047
443.209	5204
443.281	9366
443.353	19179
443.425	55009
443.496	134945
443.568	138564
443.640	65375
443.711	18871
443.783	9591
443.855	5382
443.926	4112
443.998	3051
444.070	2503
444.141	2029
444.213	2617
444.285	2455
444.356	2182
444.428	2374
444.499	1880
444.571	1229
444.642	2764
444.714	2281
444.785	1748
444.857	1997
444.928	2719
445.000	3695
445.071	5092
445.143	5859
445.214	9749
445.285	16084
445.357	34622
445.428	95639
445.500	157758
445.571	131026
445.642	94528
445.714	38653
445.785	14321
445.856	7202
445.928	4948
445.999	3631
446.070	3002
446.141	2581
446.213	2609
446.284	1049
446.355	1160
446.426	589
446.497	1717
446.569	549
446.640	630
446.711	1308
446.782	591
446.853	868
446.924	516
446.995	116
447.066	505
447.138	-230
447.209	1022
447.280	-617
447.351	-270
447.422	-416
447.493	-726
447.564	-912
447.635	-371
447.706	-705
447.777	-147
447.847	21
447.918	-692
447.989	-352
448.060	77
448.131	-713
448.202	666
448.273	-101
448.344	439
448.414	60
448.485	-345
448.556	241
448.627	136
448.698	518
448.768	-65
448.839	-104
448.910	57
448.981	158
449.051	936
449.122	-234
449.193	-16
449.263	-149
449.334	-522
449.405	74
449.475	-518
449.546	-321
449.616	1335
449.687	301
449.758	461
449.828	-420
449.899	599
449.969	-632
450.040	-149
450.110	534
450.181	-377
450.251	231
450.322	-25
450.392	294
450.463	192
450.533	-283
450.604	195
450.674	-315
450.744	889
450.815	-7
450.885	915
450.955	894
451.026	272
451.096	-137
451.166	360
451.237	573
451.307	1323
451.377	1171
451.447	11
451.518	673
451.588	120
451.658	-273
451.728	156
451.799	120
451.869	658
451.939	-553
452.009	404
452.079	-554
452.149	630
452.219	421
452.289	1157
452.360	528
452.430	765
452.500	1265
452.570	3224
452.640	6956
452.710	17485
452.780	19949
452.850	12625
452.920	4989
452.990	2881
453.060	2004
453.129	918
453.199	-582
453.269	686
453.339	386
453.409	86
453.479	553
453.549	1027
453.619	546
453.688	452
453.758	195
453.828	120
453.898	-524
453.968	-77
454.037	166
454.087	-66
454.107	-173
454.168	-372
454.177	-418
454.247	-299
454.249	-291
454.316	-454
454.330	-309
454.386	229
454.411	-135
454.456	-835
454.492	-623
454.525	-454
454.574	175
454.595	453
454.655	406
454.665	386
454.734	437
454.736	451
454.804	230
454.817	179
454.873	-84
454.898	70
454.943	379
454.979	226
455.013	37
455.060	786
455.082	1090
455.141	187
455.152	20
455.221	-9
455.222	10
455.291	340
455.303	476
455.360	838
455.384	1085
455.430	1423
455.465	1452
455.499	1429
455.546	753
455.569	457
455.627	762
455.638	799
455.707	176
455.708	193
455.777	1002
455.789	911
455.846	302
455.869	642
455.916	1445
455.950	1366
455.985	1135
456.031	595
456.054	361
456.112	590
456.124	631
456.193	334
456.193	318
456.262	1027
456.274	1131
456.332	1438
456.355	1121
456.401	658
456.436	1458
456.470	1918
456.516	1386
456.540	1315
456.597	1871
456.609	1904
456.678	1526
456.678	1512
456.747	1437
456.759	1383
456.817	1132
456.840	1306
456.886	1488
456.920	1392
456.955	1248
457.001	1616
457.024	1834
457.082	1586
457.093	1480
457.162	1903
457.163	1915
457.232	1870
457.243	2039
457.301	2523
457.324	2408
457.370	2331
457.405	2816
457.439	3264
457.485	3041
457.508	2955
457.566	4631
457.577	5097
457.646	5950
457.647	6007
457.715	15420
457.727	17366
457.784	31924
457.808	41768
457.853	52582
457.889	60889
457.922	57655
457.969	39606
457.991	41578
458.050	50536
458.060	52850
458.129	87218
458.130	88309
458.198	81671
458.211	74979
458.267	44583
458.292	30644
458.336	21335
458.372	19105
458.405	25229
458.453	37804
458.474	49058
458.533	88541
458.543	91391
458.611	132340
458.614	133296
458.680	79620
458.694	63486
458.749	33198
458.775	23349
458.818	14877
458.855	11092
458.887	8739
458.936	6929
458.955	6487
459.016	5704
459.024	5578
459.093	5279
459.097	5198
459.162	3644
459.177	3725
459.230	4298
459.257	4153
459.299	3682
459.338	3908
459.368	4063
459.418	3443
459.437	3215
459.499	3373
459.505	3402
459.574	3125
459.579	3123
459.643	3545
459.659	3758
459.711	3556
459.740	3591
459.780	3920
459.820	3971
459.849	3836
459.900	3649
459.917	3719
459.981	3942
459.986	3917
460.054	3550
460.061	3527
460.123	3545
460.141	3509
460.191	3514
460.222	3689
460.260	3797
460.302	3990
460.328	4148
460.382	4400
460.397	4646
460.462	5534
460.465	5681
460.534	9370
460.543	9944
460.602	28662
460.623	35637
460.671	56110
460.703	74409
460.739	67178
460.783	52822
460.808	43850
460.864	11289
460.876	8995
460.944	5036
460.945	4986
461.013	4571
461.024	4297
461.081	3588
461.104	3753
461.150	3751
461.184	3361
461.218	3297
461.264	3716
461.286	3754
461.345	3561
461.355	3573
461.423	4031
461.425	4025
461.491	3401
461.505	3425
461.559	3747
461.585	3637
461.628	3224
461.665	3279
461.696	3532
461.745	3488
461.764	3327
461.825	2918
461.832	2962
461.901	3531
461.905	3576
461.969	3202
461.985	3099
462.037	3795
462.065	4035
462.105	3561
462.145	3489
462.173	3781
462.225	3747
462.241	3725
462.305	3961
462.310	3939
462.378	3671
462.385	3618
462.446	3862
462.465	3992
462.514	3982
462.545	3972
462.582	3790
462.625	3513
462.650	3718
462.705	4144
462.718	3987
462.785	3332
462.786	3345
462.854	3715
462.865	3821
462.922	3638
462.945	3522
462.990	3766
463.025	4004
463.058	3942
463.104	3640
463.126	3545
463.184	3655
463.194	3720
463.262	3494
463.264	3507
463.330	3935
463.344	3898
463.398	3834
463.424	3999
463.466	3755
463.504	3497
463.533	3860
463.583	4411
463.601	4334
463.663	3889
463.669	3839
463.737	3418
463.743	3345
463.805	3798
463.823	4048
463.873	3926
463.903	3670
463.940	3637
463.982	3866
464.008	4010
464.062	3846
464.076	3774
464.142	4073
464.144	4081
464.211	3604
464.221	3553
464.279	3602
464.301	3644
464.347	3584
464.381	3626
464.414	3800
464.461	3741
464.482	3679
464.540	3917
464.550	4010
464.617	4076
464.620	4086
464.685	4620
464.699	4693
464.753	4415
464.779	4306
464.820	4231
464.859	3992
464.888	3887
464.938	3938
464.956	4169
465.018	4834
465.023	4854
465.091	4923
465.098	4941
465.158	4557
465.177	4487
465.226	4727
465.257	4609
465.293	4383
465.336	4306
465.361	4291
465.416	4169
465.428	4159
465.495	4229
465.496	4236
465.563	4221
465.575	4251
465.631	4410
465.654	4447
465.698	4118
465.734	3855
465.765	3988
465.813	4028
465.833	4174
465.893	4857
465.900	4846
465.968	4439
465.972	4411
466.035	4427
466.052	4440
466.102	4401
466.131	4250
466.170	4302
466.210	4447
466.237	4499
466.290	4593
466.304	4658
466.369	4777
466.372	4789
466.439	4953
466.449	4964
466.506	4833
466.528	4774
466.573	4437
466.607	4141
466.641	4585
466.687	5247
466.708	5261
466.766	5177
466.775	5163
466.842	5033
466.845	5016
466.909	5021
466.925	5009
466.977	5557
467.004	5834
467.044	5158
467.083	4466
467.111	4970
467.163	5897
467.178	5804
467.242	5353
467.245	5394
467.312	6051
467.321	6130
467.379	5963
467.400	5881
467.446	6430
467.480	6809
467.559	5979
467.638	4955
467.717	5157
467.796	6911
467.875	6503
467.955	6022
468.034	7020
468.113	8847
468.192	9851
468.271	14080
468.350	19859
468.429	27235
468.508	29605
468.588	17366
468.667	10923
468.746	8675
468.825	6936
468.904	6686
468.983	6073
469.062	6503
469.141	6155
469.220	4656
469.299	5711
469.378	4898
469.456	5343
469.535	5779
469.614	4911
469.693	4788
469.772	6226
469.851	6389
469.930	5596
470.009	5673
470.088	6351
470.166	6657
470.245	6892
470.324	6480
470.403	5595
470.482	5745
470.560	5877
470.639	5996
470.718	5565
470.797	4806
470.875	5526
470.954	5854
471.033	5077
471.111	5908
471.190	4646
471.269	5211
471.347	5552
471.426	5172
471.505	5064
471.583	5629
471.662	5497
471.740	5362
471.819	5121
471.898	5104
471.976	4708
472.055	5628
472.133	6017
472.212	9058
472.290	4710
472.369	5030
472.447	5761
472.526	5016
472.604	6175
472.683	5936
472.761	5464
472.839	4731
472.918	6219
472.996	5089
473.075	5725
473.153	5773
473.231	6066
473.310	6364
473.388	5706
473.466	5831
473.545	5931
473.623	6044
473.701	6377
473.780	6232
473.858	4470
473.936	7151
474.014	6211
474.093	6862
474.171	8360
474.249	7413
474.327	5824
474.405	5958
474.484	6371
474.562	6271
474.640	5358
474.718	4966
474.796	5729
474.874	5465
474.952	5190
475.030	5482
475.108	4834
475.187	5594
475.265	6338
475.343	9405
475.421	10029
475.499	6010
475.577	5993
475.655	6277
475.733	4962
475.811	5257
475.889	5194
475.966	5851
476.044	4897
476.122	7181
476.200	8423
476.278	6364
476.356	5261
476.434	4550
476.512	7403
476.590	7842
476.667	7487
476.745	4460
476.823	5438
476.901	5881
476.979	5907
477.056	6176
477.134	4400
477.212	5481
477.290	5577
477.367	5667
477.445	6039
477.523	5027
477.601	4052
477.678	5502
477.756	6335
477.834	5970
477.911	4517
477.989	5202
478.066	5515
478.144	6208
478.222	6944
478.299	10244
478.377	11486
478.454	8102
478.532	5509
478.609	4823
478.687	5394
478.764	5327
478.842	5314
478.919	5139
478.997	6360
479.074	5452
479.152	4765
479.229	5131
479.307	4582
479.384	5542
479.461	5163
479.539	5095
479.616	4636
479.694	3828
479.771	5124
479.848	4840
479.926	3381
480.003	6552
480.080	5917
480.157	5399
480.235	4822
480.312	5306
480.389	4863
480.467	5279
480.544	5598
480.621	7040
480.698	6048
480.775	6827
480.853	5715
480.930	7010
481.007	5667
481.084	10346
481.161	15545
481.238	9720
481.315	5439
481.392	4714
481.470	5494
481.547	5309
481.624	5384
481.701	6271
481.778	6156
481.855	6247
481.932	7343
482.009	8174
482.086	7191
482.163	8260
482.240	11693
482.317	17050
482.393	11520
482.470	8634
482.547	8182
482.624	7857
482.701	6763
482.778	6886
482.855	6616
482.932	6440
483.009	7930
483.085	9894
483.162	13315
483.239	14001
483.316	9343
483.393	10016
483.469	9042
483.546	8186
483.623	7463
483.699	6231
483.776	6941
483.853	6646
483.930	6102
484.006	5094
484.083	7767
484.160	6468
484.236	6293
484.313	7450
484.389	7294
484.466	9317
484.543	9986
484.619	13606
484.696	16167
484.772	10185
484.849	7970
484.925	6684
485.002	6418
485.078	6642
485.155	5308
485.231	4834
485.308	5022
485.384	5714
485.461	6042
485.537	5768
485.614	5468
485.690	5530
485.766	5328
485.843	4665
485.919	5502
485.995	5606
486.072	5979
486.148	4891
486.224	4987
486.301	5333
486.377	5377
486.453	4556
486.530	5567
486.606	5924
486.682	5634
486.758	6165
486.835	6591
486.911	6273
486.987	7769
487.063	8569
487.139	11181
487.215	15949
487.292	15899
487.368	15819
487.444	17615
487.520	28220
487.596	43703
487.672	91793
487.748	290771
487.824	462236
487.900	159678
487.976	42859
488.052	22415
488.128	15566
488.204	11665
488.280	9600
488.356	8509
488.432	8125
488.508	7310
488.584	6776
488.660	6307
488.736	6353
488.812	5849
488.888	5589
488.964	5319
489.039	5579
489.115	7949
489.191	8952
489.267	6093
489.343	5095
489.418	5566
489.494	5236
489.570	2800
489.646	6341
489.722	4996
489.797	5771
489.873	5165
489.949	5216
490.024	4848
490.100	5537
490.176	5159
490.251	5406
490.327	5617
490.403	5952
490.478	5308
490.554	5653
490.629	5527
490.705	4653
490.781	5873
490.856	4696
490.932	5597
491.007	5423
491.083	4523
491.158	4438
491.234	4934
491.309	4454
491.385	4433
491.460	4838
491.536	5681
491.611	4087
491.686	4962
491.762	4855
491.837	4890
491.913	6185
491.988	6881
492.063	5838
492.139	5079
492.214	3785
492.289	4248
492.365	3702
492.440	4861
492.515	4358
492.590	4539
492.666	3769
492.741	4096
492.816	3872
492.891	3566
492.967	5692
493.042	5230
493.117	3725
493.192	4748
493.267	5063
493.342	6593
493.418	9079
493.493	3788
493.568	4980
493.643	3515
493.718	4367
493.793	3689
493.868	3911
493.943	3985
494.018	4256
494.093	4237
494.168	3765
494.243	2978
494.318	4193
494.393	4769
494.468	4240
494.543	3766
494.618	4147
494.693	3531
494.768	4044
494.842	3773
494.917	4644
494.992	3521
495.067	3780
495.142	3554
495.217	3938
495.292	4055
495.366	4662
495.441	2214
495.516	4913
495.591	4135
495.665	5752
495.740	9093
495.815	5479
495.890	3883
495.964	2355
496.039	6849
496.114	6309
496.188	12304
496.263	9715
496.338	3986
496.412	3287
496.487	4729
496.561	4326
496.636	4310
496.710	5258
496.785	5679
496.860	3958
496.934	3232
497.009	3793
497.083	3699
497.158	4205
497.232	4082
497.307	3311
497.381	3593
497.455	4459
497.530	4266
497.604	4403
497.679	2911
497.753	4145
497.827	2814
497.902	2991
497.976	3924
498.050	5046
498.125	4221
498.199	4423
498.273	3538
498.348	3452
498.422	3388
498.496	3485
498.570	4469
498.645	3503
498.719	2648
498.793	3396
498.867	3720
498.941	3033
499.016	3519
499.090	3524
499.164	5090
499.238	4701
499.312	4515
499.386	3786
499.460	3776
499.534	4773
499.609	3836
499.683	3539
499.757	4593
499.831	3874
499.905	4181
499.979	2544
500.053	3828
500.127	4518
500.201	4020
500.275	3976
500.349	3956
500.422	4044
500.496	4412
500.570	4636
500.644	4984
500.718	4167
500.792	4340
500.866	4471
500.940	3312
501.013	4183
501.087	3542
501.161	4711
501.235	3053
501.309	5764
501.382	3799
501.456	5455
501.530	3617
501.603	4106
501.677	3311
501.751	2540
501.825	4857
501.898	3895
501.972	3915
502.046	3167
502.119	2483
502.193	4365
502.266	3163
502.340	3728
502.413	2905
502.487	3832
502.561	3848
502.634	4400
502.708	3466
502.781	3158
502.855	4841
502.928	3639
503.002	3667
503.075	3239
503.149	3772
503.222	4230
503.295	3815
503.369	5682
503.442	4988
503.516	6943
503.589	6662
503.662	7435
503.736	10227
503.809	13593
503.882	16875
503.956	26608
504.029	56167
504.102	165452
504.175	249857
504.249	97114
504.322	33927
504.395	18939
504.468	12198
504.542	8104
504.615	6564
504.688	6525
504.761	4238
504.834	6872
504.907	4575
504.980	4569
505.053	3891
505.127	1697
505.200	5811
505.273	3216
505.346	3579
505.419	2670
505.492	4621
505.565	3460
505.638	3995
505.711	2834
505.784	2138
505.857	2802
505.930	4556
506.003	1597
506.076	4971
506.149	2602
506.221	1506
506.294	3976
506.367	1583
506.440	3361
506.513	3385
506.586	3178
506.659	1582
506.731	2923
506.804	2107
506.877	1936
506.950	2887
507.022	2764
507.095	1078
507.168	3170
507.241	3592
507.313	1810
507.386	1933
507.459	4356
507.531	2399
507.604	2520
507.677	4016
507.749	1021
507.822	3490
507.894	2118
507.967	3012
508.040	2248
508.112	3502
508.185	3250
508.257	1378
508.330	4433
508.402	2334
508.475	2371
508.547	3141
508.620	2828
508.692	2647
508.765	3408
508.837	2391
508.909	2735
508.982	1944
509.054	3339
509.127	2502
509.199	2576
509.271	1579
509.344	1651
509.416	2855
509.488	2267
509.560	2266
509.633	2607
509.705	2321
509.777	2635
509.849	2543
509.922	1142
509.994	2283
510.066	3240
510.138	573
510.210	4427
510.283	2117
510.355	2420
510.427	2356
510.499	2369
510.571	3087
510.643	1517
510.715	3564
510.787	373
510.859	3959
510.931	2586
511.003	2426
511.076	4071
511.148	2104
511.219	1845
511.291	2779
511.363	3146
511.435	2347
511.507	1902
511.579	3757
511.651	3346
511.723	2128
511.795	2031
511.867	3030
511.939	2842
512.010	1938
512.082	3927
512.154	1846
512.226	2844
512.298	3146
512.369	2491
512.441	3589
512.513	2613
512.585	934
512.656	3419
512.728	1797
512.800	2564
512.871	3839
512.943	2949
513.015	1547
513.086	3604
513.158	2634
513.230	1938
513.301	1099
513.373	3469
513.444	2927
513.516	2861
513.588	1816
513.659	2744
513.731	2511
513.802	1657
513.874	3822
513.945	3064
514.016	2300
514.088	2426
514.159	1266
514.231	3227
514.302	2249
514.374	2559
514.445	665
514.516	5135
514.588	1616
514.659	2084
514.730	1806
514.802	3922
514.873	930
514.944	4690
515.016	2990
515.087	2981
515.158	2010
515.229	3514
515.301	1565
515.372	3638
515.443	2199
515.514	2468
515.585	2178
515.656	3277
515.728	3801
515.799	2542
515.870	3568
515.941	3382
516.012	955
516.083	3537
516.154	1742
516.225	3924
516.296	4410
516.367	3465
516.438	2879
516.509	3795
516.580	4605
516.651	9732
516.722	25011
516.793	12519
516.864	3953
516.935	4359
517.006	5862
517.077	5660
517.148	10547
517.219	35009
517.289	51650
517.360	6935
517.431	5428
517.502	2798
517.573	4414
517.643	3024
517.714	3709
517.785	4780
517.856	3256
517.926	7286
517.997	6542
518.068	6462
518.138	10901
518.209	11006
518.280	27805
518.350	98483
518.421	39854
518.492	19805
518.562	22298
518.633	31118
518.703	47229
518.774	113592
518.845	290599
518.915	271323
518.986	77806
519.056	31449
519.127	18442
519.197	13489
519.268	9208
519.338	8247
519.408	6987
519.479	6470
519.549	5049
519.620	6593
519.690	4070
519.760	3867
519.831	4090
519.901	3759
519.971	4203
520.042	3215
520.112	2494
520.182	4745
520.253	3643
520.323	4113
520.393	2444
520.463	4379
520.534	669
520.604	5659
520.674	3276
520.744	3228
520.814	2220
520.885	4368
520.955	2643
521.025	2751
521.095	2681
521.165	4791
521.235	2695
521.305	2747
521.375	3696
521.445	3844
521.515	3079
521.585	4530
521.655	2214
521.725	3275
521.795	3589
521.865	162
521.935	4360
522.005	2697
522.075	3201
522.145	4796
522.215	2656
522.285	4174
522.355	2912
522.424	4153
522.494	3914
522.564	4562
522.634	4616
522.704	7073
522.774	3775
522.843	4127
522.913	5516
522.983	3506
523.053	3289
523.122	4521
523.192	3427
523.262	3813
523.331	3324
523.401	4557
523.471	2944
523.540	4551
523.610	3158
523.680	3995
523.749	4080
523.819	5996
523.888	5617
523.958	4214
524.027	4433
524.097	4465
524.166	3750
524.236	3478
524.305	6274
524.375	3700
524.444	2848
524.514	6496
524.583	3399
524.653	2650
524.722	5164
524.791	3251
524.861	6180
524.930	4207
524.999	4210
525.069	5994
525.138	5294
525.207	4560
525.277	6142
525.346	6853
525.415	7291
525.484	8353
525.554	9286
525.623	12319
525.692	16331
525.761	17804
525.830	22432
525.900	30267
525.969	47347
526.038	90995
526.107	178338
526.176	507225
526.245	389807
526.314	117177
526.383	254269
526.452	337500
526.522	449488
526.591	404191
526.660	75578
526.729	44115
526.797	48105
526.867	65454
526.935	183568
527.004	630974
527.073	405358
527.142	64203
527.211	27045
527.280	19307
527.349	13150
527.418	9583
527.487	9678
527.555	6564
527.624	6726
527.693	5325
527.762	7699
527.831	5522
527.899	6843
527.968	5070
528.037	4032
528.106	6247
528.174	5191
528.243	5838
528.312	5097
528.380	5023
528.449	3510
528.518	6246
528.586	2515
528.655	6942
528.723	4396
528.792	4882
528.861	4272
528.929	3169
528.998	5172
529.066	4549
529.135	4840
529.203	3296
529.272	2596
529.340	5049
529.409	6259
529.477	3996
529.545	3933
529.614	6781
529.682	2374
529.751	3875
529.819	6013
529.887	4411
529.956	3827
530.024	6286
530.092	4109
530.161	5525
530.229	4827
530.297	3634
530.365	5679
530.434	5070
530.502	4075
530.570	5640
530.638	2540
530.707	5327
530.775	6610
530.843	4648
530.911	4476
530.979	5751
531.047	4843
531.115	5665
531.183	4969
531.252	4639
531.320	4767
531.388	4350
531.456	5973
531.524	4488
531.592	6575
531.660	5881
531.728	4608
531.796	4714
531.864	5771
531.932	5778
532.000	4866
532.067	5230
532.135	5779
532.203	7727
532.271	4791
532.339	7919
532.407	8076
532.475	7622
532.542	6554
532.610	7832
532.678	5895
532.746	10591
532.814	14701
532.881	8922
532.949	8057
533.017	7452
533.084	7280
533.152	7161
533.220	6107
533.287	5954
533.355	6529
533.423	7251
533.490	5775
533.558	7980
533.625	7924
533.693	6530
533.761	8298
533.828	7991
533.896	6280
533.963	9014
534.031	9046
534.098	12617
534.166	13112
534.233	11214
534.300	14140
534.368	14794
534.435	14075
534.503	14492
534.570	15551
534.637	18065
534.705	21040
534.772	25705
534.840	48491
534.907	210039
534.974	256478
535.041	37954
535.109	17976
535.176	14254
535.243	14141
535.310	12922
535.378	11815
535.445	12833
535.512	13242
535.579	13068
535.646	11443
535.714	13139
535.781	13588
535.848	14271
535.915	14070
535.982	12009
536.049	12508
536.116	14425
536.183	12267
536.250	11725
536.317	12007
536.384	14660
536.451	13596
536.518	15004
536.585	12196
536.652	15187
536.719	15438
536.786	11705
536.853	13706
536.920	14993
536.987	14113
537.053	12812
537.120	17451
537.187	19024
537.254	15063
537.321	16007
537.388	16746
537.454	15328
537.521	14434
537.588	15338
537.654	15921
537.721	16638
537.788	16893
537.855	14376
537.921	15572
537.988	14420
538.055	14269
538.121	14390
538.188	12807
538.254	13188
538.321	13152
538.388	15078
538.454	16549
538.521	18381
538.587	16611
538.654	16828
538.720	15460
538.787	17129
538.853	16261
538.920	15250
538.986	14224
539.053	13809
539.119	14604
539.185	13849
539.252	16584
539.318	15706
539.385	18445
539.451	15064
539.517	16466
539.583	15931
539.650	15344
539.716	17344
539.782	14765
539.849	15056
539.915	15508
539.981	14914
540.047	14568
540.114	15738
540.180	16922
540.246	15241
540.312	18106
540.378	16231
540.444	17262
540.510	17697
540.576	18761
540.643	16008
540.709	14810
540.775	14555
540.841	14797
540.907	15511
540.973	15481
541.039	15695
541.105	15667
541.171	16503
541.237	17049
541.303	18493
541.369	18689
541.435	17420
541.500	15769
541.566	14007
541.632	14861
541.698	15608
541.764	16767
541.830	16156
541.896	16388
541.961	16438
542.027	16019
542.093	17439
542.159	18238
542.224	14709
542.290	16752
542.356	14312
542.421	16617
542.487	15587
542.553	14783
542.618	15779
542.684	15697
542.750	16095
542.815	16345
542.881	16240
542.947	18585
543.012	18985
543.078	15464
543.143	14634
543.209	16151
543.274	14616
543.340	16221
543.405	17570
543.471	18084
543.536	17156
543.602	16065
543.667	15159
543.732	17280
543.798	15605
543.863	16745
543.928	17536
543.994	15996
544.059	17467
544.124	18061
544.190	18149
544.255	18527
544.320	19088
544.386	17523
544.451	19733
544.516	18861
544.581	17944
544.646	18797
544.712	21853
544.777	19108
544.842	19432
544.907	18669
544.972	19578
545.037	19730
545.102	20744
545.168	19671
545.233	21097
545.298	22011
545.363	20483
545.428	22926
545.493	24193
545.558	22432
545.623	24102
545.688	22083
545.753	24512
545.818	23533
545.883	26857
545.947	26412
546.012	28042
546.077	26775
546.142	30629
546.207	29961
546.272	33856
546.337	32927
546.401	34873
546.466	36677
546.531	37474
546.596	39932
546.661	42152
546.725	45064
546.790	46749
546.855	51418
546.919	54599
546.984	63138
547.049	67637
547.113	76535
547.178	84971
547.243	95190
547.307	111073
547.372	123871
547.436	123178
547.501	127975
547.565	138860
547.630	128492
547.695	123592
547.759	123575
547.823	125705
547.888	127534
547.952	132732
548.017	136570
548.081	143686
548.146	138031
548.210	142242
548.274	154345
548.339	151260
548.403	136512
548.468	129452
548.532	126883
548.596	130914
548.660	132876
548.725	144233
548.789	154669
548.853	151637
548.917	143843
548.982	141268
549.046	127037
549.110	117494
549.174	117988
549.238	138342
549.303	151405
549.367	156088
549.431	148472
549.495	136895
549.559	138908
549.623	159793
549.687	175300
549.751	169614
549.815	199635
549.879	204264
549.943	197272
550.007	204957
550.071	203803
550.135	187309
550.199	176878
550.263	176158
550.327	165039
550.391	169424
550.455	187187
550.519	195312
550.582	205945
550.646	229206
550.710	236218
550.774	229969
550.838	233897
550.901	238709
550.965	251377
551.029	258768
551.093	273488
551.156	290551
551.220	309465
551.284	326113
551.347	276221
551.411	250173
551.475	239566
551.538	247348
551.602	236180
551.666	224402
551.729	212477
551.793	208869
551.856	204470
551.920	202980
551.983	200914
552.047	199624
552.110	201559
552.174	204533
552.237	208928
552.301	195624
552.364	185587
552.428	183630
552.491	186536
552.554	189369
552.618	187680
552.681	191936
552.745	184303
552.808	190579
552.871	198316
552.934	195810
552.998	189420
553.061	186913
553.124	180550
553.187	178890
553.251	184447
553.314	184210
553.377	186268
553.440	199563
553.503	205568
553.567	205078
553.630	200971
553.693	201408
553.756	202081
553.819	199653
553.882	191683
553.945	193291
554.008	195291
554.071	194625
554.134	198749
554.197	188828
554.260	184369
554.323	188940
554.386	188334
554.449	195922
554.512	196233
554.575	187551
554.638	184619
554.701	185635
554.764	183803
554.827	177775
554.889	173627
554.952	162179
555.015	158135
555.078	161583
555.141	164406
555.203	160103
555.266	159922
555.329	159677
555.391	152877
555.454	149929
555.517	144687
555.580	139306
555.642	136075
555.705	134168
555.768	132809
555.830	130406
555.893	121444
555.955	120028
556.018	117024
556.080	117967
556.143	120153
556.206	120567
556.268	115483
556.330	112175
556.393	109065
556.455	106351
556.518	104546
556.580	101981
556.643	99138
556.705	96328
556.767	93803
556.830	94498
556.892	90025
556.955	89114
557.017	86033
557.079	86394
557.142	83930
557.204	83612
557.266	81485
557.328	76476
557.391	72535
557.453	70442
557.515	69850
557.577	70246
557.639	71073
557.701	71577
557.764	71189
557.826	70371
557.888	72482
557.950	73021
558.012	76136
558.074	91659
558.136	162365
558.198	334193
558.260	139894
558.322	71968
558.384	72740
558.446	73930
558.508	75969
558.570	84500
558.632	93134
558.694	111963
558.756	168924
558.818	390462
558.880	731721
558.942	357108
559.003	353428
559.065	184982
559.127	86868
559.189	80623
559.251	88850
559.312	115259
559.374	229338
559.436	571338
559.498	315611
559.559	97326
559.621	80520
559.683	88040
559.744	129672
559.806	332765
559.868	454310
559.929	130725
559.991	87291
560.052	127419
560.114	316481
560.176	209247
560.237	191445
560.299	286391
560.360	77573
560.422	40820
560.483	36091
560.545	33282
560.606	32191
560.667	31580
560.729	28652
560.790	29225
560.852	28849
560.913	28385
560.974	27465
561.036	27310
561.097	27073
561.158	27210
561.220	26381
561.281	25182
561.342	24325
561.403	25766
561.465	24083
561.526	23971
561.587	25349
561.648	22447
561.709	22661
561.771	23504
561.832	22447
561.893	22392
561.954	21720
562.015	21916
562.076	21445
562.137	20637
562.198	19954
562.259	20970
562.320	20659
562.381	20712
562.442	20663
562.503	20396
562.564	19414
562.625	19922
562.686	19216
562.747	18350
562.808	18486
562.869	18051
562.930	18526
562.991	18371
563.051	17745
563.112	17916
563.173	18369
563.234	17670
563.294	17189
563.355	17344
563.416	17788
563.477	18220
563.537	16819
563.598	17282
563.659	16819
563.720	16191
563.780	16046
563.841	16604
563.901	17155
563.962	16930
564.023	16231
564.083	16605
564.144	16899
564.204	16068
564.265	15495
564.325	15338
564.386	15951
564.446	16061
564.507	15155
564.567	15678
564.628	15530
564.688	15232
564.749	16061
564.809	15700
564.869	15870
564.930	15421
564.990	15484
565.050	15591
565.111	15597
565.171	15016
565.231	15187
565.292	16861
565.352	14716
565.412	15795
565.472	15678
565.532	15628
565.593	15551
565.653	15130
565.713	14800
565.773	16781
565.833	15182
565.893	16482
565.953	14722
566.013	14750
566.074	14366
566.134	14125
566.194	13825
566.254	14689
566.314	14217
566.374	13074
566.434	14835
566.494	13689
566.554	13755
566.614	15031
566.673	14523
566.733	16303
566.793	15370
566.853	14793
566.913	15265
566.973	14345
567.033	15295
567.092	14823
567.152	14921
567.212	15671
567.272	15596
567.331	15491
567.391	14955
567.451	16560
567.511	16256
567.570	15862
567.630	16069
567.690	15052
567.749	14753
567.809	15087
567.868	15478
567.928	15869
567.988	15101
568.047	16109
568.107	15368
568.166	15117
568.226	14931
568.285	16062
568.345	15111
568.404	16253
568.464	15071
568.523	15957
568.582	15930
568.642	15285
568.701	15415
568.761	14277
568.820	14564
568.879	14180
568.939	14774
568.998	15757
569.057	13808
569.116	14865
569.176	14749
569.235	15777
569.294	14871
569.353	15098
569.413	15174
569.472	13423
569.531	14659
569.590	14413
569.649	14827
569.708	14105
569.767	15688
569.827	14995
569.886	13954
569.945	14821
570.004	15005
570.063	15030
570.122	15334
570.181	16072
570.240	15352
570.299	16562
570.358	16255
570.417	14976
570.475	15307
570.534	16522
570.593	16467
570.652	16340
570.711	15628
570.770	15385
570.829	15522
570.887	15552
570.946	16225
571.005	16081
571.064	15470
571.122	15665
571.181	15468
571.240	14516
571.299	15439
571.357	15189
571.416	14238
571.475	14490
571.533	15221
571.592	16937
571.650	15732
571.709	15381
571.768	17318
571.826	18926
571.885	17746
571.943	16584
572.002	15319
572.060	15801
572.119	15435
572.177	15759
572.236	15305
572.294	16514
572.352	16789
572.411	17357
572.469	16342
572.528	14743
572.586	15239
572.644	15566
572.703	15727
572.761	13984
572.819	14711
572.877	15614
572.936	13977
572.994	14501
573.052	13252
573.110	13827
573.169	15582
573.227	15731
573.285	14790
573.343	14534
573.401	14254
573.459	14383
573.517	14729
573.576	14712
573.634	13781
573.692	14229
573.750	13951
573.808	14367
573.866	12929
573.924	13691
573.982	13549
574.040	13690
574.098	14030
574.155	14634
574.213	13136
574.271	13567
574.329	13737
574.387	13701
574.445	12862
574.503	12808
574.560	12022
574.618	12737
574.676	11596
574.734	13162
574.792	12854
574.849	12823
574.907	11807
574.965	11433
575.022	10166
575.080	11107
575.138	10621
575.195	10641
575.253	10299
575.311	10842
575.368	11232
575.426	10620
575.483	10973
575.541	11202
575.598	10778
575.656	10602
575.713	10906
575.771	11364
575.828	10550
575.886	10406
575.943	11325
576.001	9321
576.058	9498
576.115	10440
576.173	10686
576.230	11704
576.287	10806
576.345	10423
576.402	10693
576.459	10076
576.517	10365
576.574	9630
576.631	10120
576.688	10704
576.746	10024
576.803	9609
576.860	10135
576.917	11616
576.974	10263
577.031	10651
577.089	9585
577.146	10671
577.203	9950
577.260	9718
577.317	8845
577.374	9910
577.431	10022
577.488	9291
577.545	9603
577.602	8944
577.659	9462
577.716	10017
577.773	9795
577.830	9944
577.886	9677
577.943	8902
578.000	8961
578.057	8964
578.114	9302
578.171	9007
578.227	9179
578.284	9365
578.341	11072
578.398	10189
578.454	10418
578.511	10434
578.568	10057
578.625	9449
578.681	9789
578.738	10175
578.794	9738
578.851	9975
578.908	9738
578.964	9967
579.021	11064
579.077	9855
579.134	9669
579.190	9714
579.247	9824
579.303	9600
579.360	10027
579.416	10081
579.473	10080
579.529	9600
579.586	9752
579.642	9539
579.698	9908
579.755	9435
579.811	10383
579.867	10600
579.924	10252
579.980	9761
580.036	10512
580.093	11145
580.149	10828
580.205	10288
580.261	9726
580.317	11006
580.374	10655
580.430	10777
580.486	10796
580.542	10214
580.598	10986
580.619	11114
580.654	11345
580.692	10503
580.710	10100
580.765	11313
580.767	11359
580.823	10196
580.838	10412
580.879	11019
580.911	11084
580.935	11135
580.984	10409
580.991	10322
581.047	10856
581.057	10907
581.103	11164
581.130	10669
581.159	10134
581.203	10826
581.215	11022
581.270	11103
581.276	11080
581.326	10962
581.349	10566
581.382	9964
581.422	10775
581.438	11130
581.494	9834
581.494	9838
581.550	10538
581.567	10406
581.606	10127
581.640	10445
581.661	10634
581.713	10941
581.717	10972
581.773	11122
581.786	11040
581.829	10809
581.859	10922
581.885	10988
581.932	10666
581.940	10623
581.996	11184
582.004	11200
582.052	11142
582.077	11078
582.107	11131
582.150	10999
582.163	10926
582.219	10649
582.223	10611
582.274	10268
582.296	10173
582.330	9953
582.368	10242
582.386	10456
582.441	11278
582.441	11279
582.497	10090
582.514	10178
582.552	10569
582.587	10758
582.608	10760
582.659	10457
582.663	10454
582.719	10956
582.732	11044
582.774	11331
582.805	10714
582.830	10140
582.877	10975
582.885	11120
582.941	10828
582.950	10918
582.996	11211
583.023	11159
583.052	11341
583.095	11397
583.107	11322
583.162	10889
583.168	10911
583.218	11250
583.240	11140
583.273	10999
583.313	11289
583.328	11411
583.384	10521
583.385	10544
583.439	10863
583.458	10527
583.494	10177
583.531	10887
583.549	11246
583.603	11526
583.605	11528
583.660	11066
583.676	11321
583.715	12050
583.748	11792
583.770	11655
583.820	11461
583.825	11431
583.881	12314
583.893	12024
583.936	11108
583.965	11165
583.991	11191
584.038	12628
584.046	12909
584.101	11989
584.110	12020
584.156	11795
584.183	12058
584.211	12493
584.255	12200
584.266	12122
584.321	12336
584.328	12315
584.376	12309
584.400	12522
584.431	12813
584.472	13087
584.486	13095
584.541	13484
584.545	13494
584.596	14140
584.617	14201
584.651	14146
584.689	14736
584.706	14920
584.761	14674
584.762	14666
584.816	14709
584.834	15086
584.871	15589
584.906	16055
584.926	16363
584.978	17288
584.980	17325
585.035	18745
585.051	19166
585.090	20633
585.123	21858
585.145	22719
585.195	24262
585.200	24485
585.254	28091
585.267	29291
585.309	32575
585.340	34695
585.364	37075
585.412	42693
585.419	43513
585.473	51480
585.484	53962
585.528	69018
585.556	84065
585.583	110099
585.628	172508
585.637	193623
585.692	368822
585.700	398072
585.747	502563
585.772	445800
585.801	307026
585.845	134424
585.856	109725
585.910	58232
585.917	53607
585.965	40981
585.989	36384
586.019	32655
586.061	29331
586.074	28661
586.128	27000
586.133	26825
586.183	25697
586.205	25770
586.237	25830
586.277	25181
586.292	24984
586.346	24355
586.349	24367
586.401	25579
586.421	25491
586.455	24787
586.493	24198
586.509	24363
586.564	25256
586.565	25268
586.618	26844
586.637	27435
586.672	29499
586.709	32743
586.727	34278
586.781	37754
586.781	37773
586.835	31289
586.853	29720
586.889	27818
586.925	26529
586.944	26285
586.996	26369
586.998	26399
587.052	25799
587.068	25877
587.106	26656
587.140	27075
587.161	27186
587.212	27391
587.215	27464
587.269	28635
587.284	28829
587.323	28937
587.356	29640
587.377	30252
587.427	30404
587.431	30429
587.485	30322
587.499	30387
587.539	30991
587.571	31621
587.593	32348
587.643	33795
587.648	33968
587.702	35339
587.715	35551
587.755	35516
587.786	35352
587.810	35465
587.858	35608
587.864	35623
587.917	35821
587.930	35595
587.971	35619
588.001	36104
588.025	36156
588.073	35576
588.079	35612
588.133	35646
588.145	35623
588.187	35289
588.217	35153
588.241	35726
588.288	36276
588.295	36357
588.348	37138
588.360	37144
588.402	37014
588.431	37117
588.456	37234
588.503	37068
588.510	37227
588.564	38115
588.575	38311
588.617	39244
588.646	39790
588.671	40039
588.718	40613
588.725	40841
588.778	42318
588.789	42559
588.832	47797
588.861	52440
588.886	66068
588.932	94598
588.939	97828
588.993	124547
589.004	124894
589.047	77140
589.075	49986
589.100	45552
589.147	40563
589.154	40409
589.207	38987
589.218	38668
589.261	39353
589.290	39937
589.314	40438
589.361	40873
589.368	41198
589.421	44003
589.433	44671
589.475	55130
589.504	63025
589.528	75559
589.576	102728
589.582	100490
589.635	66981
589.647	60056
589.689	48078
589.718	41349
589.742	41424
589.790	41104
589.795	41166
589.849	41583
589.861	41566
589.902	41729
589.932	41786
589.955	41885
590.004	41819
590.009	41915
590.062	42123
590.075	42052
590.115	42018
590.146	41993
590.168	42032
590.218	41894
590.222	42074
590.275	43448
590.289	43689
590.328	44334
590.360	44896
590.381	45557
590.431	46691
590.435	46767
590.488	46227
590.503	46089
590.541	47400
590.574	48267
590.594	48580
590.645	49353
590.647	49511
590.700	50942
590.716	51321
590.753	53248
590.787	54842
590.806	55283
590.859	56037
590.859	56162
590.912	56905
590.930	57022
590.965	57456
591.001	57748
591.018	57803
591.071	57372
591.072	57252
591.124	57013
591.143	56794
591.177	57182
591.214	57576
591.230	58178
591.283	59636
591.285	59565
591.336	58405
591.356	57744
591.389	57939
591.427	57930
591.442	57879
591.495	57305
591.498	57143
591.547	58273
591.569	58633
591.600	59794
591.640	60935
591.653	61071
591.706	61121
591.711	60998
591.759	63126
591.782	64034
591.811	65320
591.853	66780
591.864	66790
591.917	65993
591.924	65743
591.969	65998
591.995	65911
592.022	66225
592.066	66415
592.075	66924
592.127	69142
592.137	69410
592.180	70795
592.208	71425
592.233	72580
592.279	74334
592.285	74696
592.338	76353
592.350	76551
592.390	76506
592.421	76189
592.443	77351
592.491	79359
592.495	79617
592.548	80715
592.562	80838
592.600	80512
592.633	79899
592.653	80156
592.704	79920
592.705	80397
592.775	81333
592.846	84597
592.916	85869
592.987	85962
593.058	86622
593.128	88392
593.199	89264
593.270	90057
593.341	90140
593.411	92962
593.482	97632
593.553	100551
593.623	99728
593.694	103927
593.764	106517
593.835	105094
593.906	107445
593.976	109313
594.047	111156
594.117	117371
594.188	119966
594.258	119725
594.329	118639
594.399	122899
594.470	127351
594.540	132397
594.611	132214
594.681	131813
594.751	131993
594.822	138191
594.892	142171
594.963	147234
595.033	150778
595.103	156249
595.174	156245
595.244	158175
595.314	162419
595.384	169494
595.455	173087
595.525	177534
595.595	183523
595.665	183754
595.736	180104
595.806	184585
595.876	186797
595.946	187265
596.016	196923
596.087	203364
596.157	200918
596.227	204066
596.297	216403
596.367	230373
596.437	242327
596.507	240013
596.577	237144
596.647	246368
596.717	258266
596.787	261995
596.857	261213
596.927	261073
596.997	263627
597.067	265137
597.137	269876
597.207	272919
597.277	273745
597.347	264020
597.417	257622
597.487	256863
597.557	261583
597.626	270369
597.696	273548
597.766	269779
597.836	254458
597.906	244347
597.975	237968
598.045	242640
598.115	252388
598.185	272187
598.254	301370
598.324	325501
598.394	330562
598.464	320739
598.533	314631
598.603	294376
598.672	282944
598.742	291820
598.812	292759
598.881	299346
598.951	298340
599.020	304614
599.090	314000
599.159	320415
599.229	305846
599.299	300270
599.368	309116
599.437	303527
599.507	279650
599.576	272310
599.646	266968
599.715	262517
599.785	261953
599.854	254909
599.924	248444
599.993	250401
600.062	254351
600.132	261868
600.201	277942
600.270	317841
600.340	335608
600.409	328028
600.478	324943
600.547	332543
600.617	299449
600.686	241517
600.755	220029
600.824	207916
600.894	203414
600.963	204663
601.032	202923
601.101	194404
601.170	184194
601.239	180333
601.308	178076
601.378	179047
601.447	178848
601.516	181938
601.585	180393
601.654	185280
601.723	184104
601.792	190016
601.861	196875
601.930	202296
601.999	204437
602.068	203077
602.137	205222
602.206	208868
602.275	212187
602.343	212591
602.412	212420
602.481	214698
602.550	217656
602.619	223710
602.688	225944
602.756	228014
602.825	231631
602.894	238395
602.963	240056
603.032	245296
603.100	245677
603.169	247318
603.238	247709
603.307	249731
603.375	252414
603.444	258380
603.513	261250
603.581	264450
603.650	264481
603.719	264045
603.787	273649
603.856	281853
603.924	288109
603.993	296299
604.061	303370
604.130	319886
604.198	323141
604.267	331720
604.335	337688
604.404	341207
604.472	344817
604.541	348569
604.609	348871
604.678	352172
604.746	350308
604.815	362876
604.883	367625
604.951	367685
605.020	373774
605.088	382530
605.156	390710
605.225	395381
605.293	395532
605.361	398068
605.429	401127
605.498	409210
605.566	419274
605.634	437717
605.702	452883
605.771	467846
605.839	462013
605.907	458752
605.975	441084
606.043	438051
606.111	439057
606.180	436741
606.248	431596
606.316	431725
606.384	427326
606.452	432369
606.520	444971
606.588	461677
606.656	463448
606.724	457347
606.792	432437
606.860	396094
606.928	361567
606.996	347444
607.064	342133
607.132	352702
607.200	369180
607.267	380302
607.335	390671
607.403	397287
607.471	383735
607.539	373650
607.607	376448
607.674	332405
607.742	329498
607.810	329648
607.878	330506
607.946	337789
608.013	352677
608.081	359965
608.149	359546
608.216	375848
608.284	387933
608.352	386662
608.419	382577
608.487	372727
608.555	368696
608.622	380663
608.690	401949
608.757	438069
608.825	446808
608.893	436891
608.960	412084
609.028	400021
609.095	398390
609.163	398514
609.230	358133
609.298	329158
609.365	348200
609.432	373291
609.500	402024
609.567	454417
609.635	511650
609.702	532141
609.769	504207
609.837	401824
609.904	351616
609.971	352802
610.039	369515
610.106	413142
610.173	571795
610.241	939687
610.308	669208
610.375	415918
610.442	377588
610.509	364617
610.577	367126
610.644	373540
610.711	382971
610.778	393090
610.845	407369
610.912	430098
610.980	445225
611.047	446143
611.114	440610
611.181	428485
611.248	422697
611.315	445482
611.382	457046
611.449	471271
611.516	479006
611.583	472994
611.650	477202
611.717	478394
611.784	484393
611.851	492033
611.918	501200
611.984	534855
612.051	615347
612.118	831328
612.185	1284061
612.252	1035040
612.319	638048
612.386	584553
612.452	547222
612.519	528060
612.586	519623
612.653	531762
612.719	546361
612.786	533996
612.853	499884
612.919	492918
612.986	499621
613.053	472888
613.120	449120
613.186	434254
613.253	438736
613.319	441261
613.386	441075
613.453	447154
613.519	447547
613.586	442050
613.652	445827
613.719	442609
613.785	450269
613.852	454210
613.918	450855
613.985	453272
614.051	471701
614.118	463590
614.184	450952
614.250	449657
614.317	459973
614.383	454963
614.449	463684
614.516	459230
614.582	459907
614.648	453365
614.715	449761
614.781	440503
614.847	445300
614.914	441390
614.980	432299
615.046	433067
615.112	446160
615.179	446156
615.245	452256
615.311	443797
615.377	449899
615.443	450239
615.509	455278
615.575	466657
615.642	464347
615.708	468472
615.774	484398
615.840	499921
615.906	503384
615.972	540627
616.038	641319
616.104	922849
616.170	1364580
616.236	1239978
616.302	748844
616.368	653641
616.434	542127
616.500	513957
616.565	537059
616.631	609565
616.697	552138
616.763	549499
616.829	669458
616.895	953789
616.961	912558
617.026	577964
617.092	485229
617.158	468290
617.224	463228
617.289	437858
617.355	417293
617.421	415071
617.487	416301
617.552	397927
617.618	398088
617.684	396987
617.749	397390
617.815	385361
617.880	380180
617.946	377873
618.012	386965
618.077	394774
618.143	379650
618.208	382994
618.274	406228
618.339	409253
618.405	346306
618.470	348772
618.536	348327
618.601	345386
618.667	323117
618.732	308883
618.798	304272
618.863	303993
618.928	301638
618.994	304818
619.059	300248
619.124	305852
619.190	299420
619.255	302117
619.320	301872
619.386	302909
619.451	301195
619.516	294234
619.581	297452
619.647	307095
619.712	309179
619.777	296045
619.842	297505
619.907	304824
619.972	308037
620.038	305004
620.103	297822
620.168	298362
620.233	303323
620.298	305894
620.363	308504
620.428	315378
620.493	322322
620.558	323676
620.623	328913
620.688	329133
620.753	325533
620.818	331681
620.883	334123
620.948	332388
621.013	329376
621.078	325856
621.143	328840
621.207	333887
621.272	326805
621.337	318229
621.402	317713
621.467	314399
621.532	313881
621.596	316605
621.661	308620
621.726	307254
621.791	309029
621.855	309171
621.920	306141
621.985	311440
622.049	315490
622.114	317365
622.179	319512
622.243	324912
622.308	336617
622.373	344567
622.437	340012
622.502	324333
622.566	321017
622.631	319217
622.695	325204
622.760	323335
622.824	326479
622.889	326436
622.953	324761
623.018	343876
623.082	343104
623.147	340481
623.211	335245
623.276	334123
623.340	325080
623.404	320185
623.469	317884
623.533	321968
623.597	315415
623.662	315260
623.726	296459
623.790	281943
623.854	275437
623.919	277698
623.983	281999
624.047	288487
624.111	290660
624.176	293082
624.240	294287
624.304	301794
624.368	291253
624.432	291799
624.496	299323
624.560	310760
624.625	311764
624.689	310117
624.753	322666
624.817	309142
624.881	302938
624.945	278888
625.009	270197
625.073	276402
625.137	283132
625.201	292944
625.265	292862
625.329	281791
625.393	285295
625.456	287882
625.520	295511
625.584	297219
625.648	304785
625.712	307258
625.776	302890
625.839	288622
625.903	252952
625.967	236819
626.031	251994
626.095	289692
626.158	271475
626.222	223456
626.286	209574
626.349	205108
626.413	189858
626.477	189358
626.540	193525
626.604	192381
626.668	186893
626.731	183911
626.795	184964
626.858	184678
626.922	183011
626.986	179594
627.049	179576
627.113	187085
627.176	180696
627.240	176569
627.303	176105
627.366	173739
627.430	175141
627.493	173710
627.557	168463
627.620	173326
627.684	178785
627.747	178359
627.810	163223
627.874	150276
627.937	143816
628.000	148171
628.064	145380
628.127	131718
628.190	129952
628.253	127913
628.317	120763
628.380	116582
628.443	113163
628.506	114094
628.569	109349
628.632	104895
628.696	104203
628.759	103399
628.822	99441
628.885	97333
628.948	95237
629.011	94583
629.074	92320
629.137	88906
629.200	87418
629.263	87263
629.326	84378
629.389	84970
629.452	83061
629.515	80616
629.578	80430
629.641	82703
629.704	82280
629.767	80448
629.830	78689
629.892	77525
629.955	75394
630.018	77172
630.081	75046
630.144	76890
630.207	73907
630.269	75514
630.332	71345
630.395	70234
630.458	68840
630.520	67703
630.583	68252
630.646	69999
630.708	68601
630.771	69694
630.834	74229
630.896	72862
630.959	72241
631.021	68576
631.084	68709
631.146	69664
631.209	70245
631.272	68365
631.334	69409
631.397	70547
631.459	68756
631.522	71080
631.584	71364
631.646	74212
631.709	73654
631.771	73113
631.834	70833
631.896	70948
631.958	67257
632.021	68153
632.083	64735
632.145	65546
632.208	63809
632.270	64533
632.332	64604
632.395	64717
632.457	65174
632.519	63563
632.581	63930
632.643	63956
632.706	63556
632.768	60962
632.830	63826
632.892	65043
632.954	64692
633.016	67596
633.078	65447
633.141	64731
633.203	63526
633.265	63122
633.327	62537
633.389	63458
633.451	64580
633.513	62963
633.575	64849
633.637	63674
633.698	63791
633.760	67638
633.822	69124
633.884	69967
633.946	70704
634.008	69884
634.070	68158
634.132	71530
634.193	73527
634.255	79603
634.317	78703
634.379	77932
634.441	73101
634.502	68483
634.564	64467
634.626	63345
634.687	61149
634.749	59124
634.811	59257
634.873	60602
634.934	60016
634.996	61218
635.057	58947
635.119	59823
635.181	61961
635.242	61822
635.304	58413
635.365	64766
635.427	59206
635.488	60548
635.550	59358
635.611	60271
635.673	57968
635.734	61875
635.796	63197
635.857	66382
635.918	66868
635.980	73512
636.041	73199
636.102	77049
636.164	77139
636.225	75225
636.286	67565
636.348	64081
636.409	60780
636.470	59709
636.531	59490
636.593	57237
636.654	57315
636.715	56917
636.776	56817
636.838	56169
636.899	54513
636.960	54729
637.021	54089
637.082	53309
637.143	53317
637.204	51686
637.265	51844
637.326	52925
637.387	54918
637.448	53121
637.509	53792
637.570	53502
637.631	52595
637.692	51454
637.753	49768
637.814	52136
637.875	51602
637.936	50561
637.997	50733
638.058	50645
638.119	50573
638.179	50446
638.240	50163
638.301	52834
638.362	48053
638.423	48542
638.483	49237
638.544	46481
638.605	48270
638.666	48542
638.726	49563
638.787	49837
638.848	48132
638.908	47392
638.969	46489
639.030	45750
639.090	45171
639.151	46147
639.211	46331
639.272	46249
639.332	46732
639.393	47247
639.453	47803
639.514	48437
639.574	46629
639.635	43371
639.695	44412
639.756	43261
639.816	43202
639.877	43436
639.937	44091
639.997	44829
640.058	41473
640.118	41927
640.178	43431
640.239	42497
640.299	42659
640.359	42698
640.420	44260
640.480	47954
640.540	50014
640.600	50368
640.661	48024
640.721	47908
640.781	51055
640.841	49409
640.901	45149
640.961	44588
641.021	44234
641.082	45132
641.142	43804
641.202	43304
641.262	39961
641.322	43535
641.382	40792
641.442	42080
641.502	40743
641.562	42814
641.622	41415
641.682	43049
641.742	45536
641.802	44443
641.861	40965
641.921	39646
641.981	39919
642.041	39220
642.101	38234
642.161	38079
642.221	38034
642.280	38483
642.340	38070
642.400	39405
642.460	39619
642.519	39528
642.579	41116
642.639	40589
642.698	38175
642.758	42363
642.818	40025
642.877	40112
642.937	39938
642.997	40098
643.056	40377
643.116	38246
643.175	41895
643.235	40764
643.294	41227
643.354	42473
643.414	44513
643.473	46526
643.532	49963
643.592	58365
643.651	76002
643.711	112045
643.770	190567
643.830	399154
643.889	665114
643.948	241600
644.008	83014
644.067	58975
644.126	47493
644.186	44071
644.245	42754
644.304	38913
644.363	39996
644.423	36912
644.482	38806
644.541	40077
644.600	38820
644.659	45258
644.719	48798
644.778	62753
644.837	91871
644.896	167806
644.955	333537
645.014	128132
645.073	51587
645.132	43154
645.191	41860
645.250	39553
645.309	41905
645.368	43887
645.427	52872
645.486	79319
645.545	119048
645.604	48772
645.663	38340
645.722	36678
645.781	39168
645.840	40003
645.898	44237
645.957	52700
646.016	67720
646.075	104527
646.134	181254
646.192	412512
646.251	522891
646.310	138757
646.369	63078
646.427	54703
646.486	44819
646.545	38814
646.603	37674
646.662	35803
646.721	33956
646.779	33724
646.838	33772
646.896	38362
646.955	43936
647.014	61864
647.072	103543
647.131	244627
647.189	122484
647.248	38416
647.306	32366
647.365	32516
647.423	27319
647.481	30944
647.540	29103
647.598	29943
647.657	29115
647.715	29926
647.773	28243
647.832	28712
647.890	25628
647.948	26230
648.007	26391
648.065	24774
648.123	24082
648.181	25174
648.240	24743
648.298	23198
648.356	24452
648.414	24097
648.472	22789
648.531	24023
648.589	22434
648.647	22246
648.705	22734
648.763	22646
648.821	22908
648.879	23326
648.937	24414
648.995	26407
649.053	28655
649.111	37585
649.169	52171
649.227	83707
649.285	162208
649.343	393392
649.401	196657
649.459	45691
649.516	31584
649.574	25166
649.632	27491
649.690	28636
649.748	33314
649.806	42991
649.863	72420
649.921	182641
649.979	118490
650.037	28840
650.094	20565
650.152	20698
650.210	18915
650.268	20231
650.325	19830
650.383	21557
650.440	17065
650.498	17378
650.556	17378
650.613	16557
650.671	16857
650.728	17133
650.786	17177
650.843	22623
650.901	15075
650.958	15464
651.016	14341
651.073	15570
651.131	14233
651.188	13795
651.246	14790
651.303	13338
651.360	14115
651.418	13982
651.475	14466
651.532	13570
651.590	14283
651.647	12278
651.704	14207
651.762	13134
651.819	12972
651.876	12178
651.933	12582
651.990	13381
652.048	11307
652.105	12332
652.162	12661
652.219	12345
652.276	12089
652.333	12679
652.390	10116
652.448	11662
652.505	12089
652.562	11297
652.619	10729
652.676	12104
652.733	12043
652.790	11373
652.847	9742
652.904	11852
652.961	10704
653.017	10375
653.074	10545
653.131	10925
653.188	10461
653.245	11281
653.302	10322
653.359	10482
653.415	10403
653.472	9846
653.529	10974
653.586	9796
653.642	9850
653.699	11583
653.756	9531
653.813	9711
653.869	10904
653.926	10517
653.983	10537
654.039	11594
654.096	9895
654.152	11595
654.209	8538
654.266	10147
654.322	8604
654.379	10969
654.435	10727
654.492	10428
654.548	10132
654.605	9723
654.661	11039
654.717	10684
654.774	10031
654.830	10088
654.887	10185
654.943	9651
655.000	12160
655.056	10349
655.112	10992
655.168	9454
655.225	9567
655.281	10974
655.337	10261
655.394	9192
655.450	9769
655.506	9266
655.562	9198
655.618	10777
655.675	7767
655.731	8896
655.787	7968
655.843	9712
655.899	9426
655.955	10320
656.011	8211
656.067	8740
656.123	9266
656.179	8922
656.235	10526
656.291	9356
656.347	10144
656.403	8266
656.459	8447
656.515	9202
656.571	8484
656.627	8957
656.683	8996
656.739	10291
656.795	8483
656.850	9518
656.906	9312
656.962	10702
657.018	9740
657.074	11559
657.129	14253
657.185	22144
657.241	47430
657.297	26748
657.352	11687
657.408	9309
657.464	9511
657.519	8714
657.575	7655
657.630	8368
657.686	7628
657.742	8150
657.797	8277
657.853	7886
657.908	9299
657.964	7821
658.019	8069
658.075	8212
658.130	8452
658.186	7855
658.241	8715
658.297	6457
658.352	7338
658.407	8154
658.463	6714
658.518	7995
658.573	7430
658.629	7625
658.684	7542
658.739	8945
658.795	7427
658.850	7993
658.905	7789
658.960	7503
659.016	6724
659.071	7600
659.126	7952
659.181	6482
659.236	7592
659.291	7895
659.346	7636
659.401	7264
659.457	7580
659.512	6937
659.567	9076
659.622	7767
659.677	7104
659.732	6585
659.787	7845
659.842	7523
659.897	8166
659.952	7887
660.007	6451
660.061	7693
660.116	6465
660.171	6966
660.226	7340
660.281	8291
660.336	6664
660.391	7982
660.445	6353
660.500	6925
660.555	7155
660.610	6472
660.664	7382
660.719	6573
660.774	6721
660.828	6747
660.883	6800
660.938	7895
660.992	5393
661.047	7127
661.101	6618
661.156	7102
661.211	5609
661.265	7677
661.320	7107
661.374	7379
661.429	6532
661.483	7218
661.538	5835
661.592	6576
661.647	7313
661.701	9411
661.755	6476
661.810	7179
661.864	6094
661.919	5810
661.973	6948
662.027	5969
662.081	5810
662.136	6546
662.190	6649
662.244	6425
662.299	5860
662.353	7309
662.407	6547
662.461	6269
662.515	6294
662.569	6644
662.624	5560
662.678	5841
662.732	5773
662.786	6548
662.840	5736
662.894	6664
662.948	6371
663.002	6026
663.056	7170
663.110	5920
663.164	6020
663.218	6497
663.272	6363
663.326	6348
663.380	5751
663.434	6595
663.488	5861
663.542	6132
663.595	6361
663.649	5987
663.703	6330
663.757	5893
663.811	5384
663.864	5517
663.918	6308
663.972	6136
664.026	5488
664.079	6899
664.133	7122
664.187	7004
664.240	6465
664.294	7047
664.348	6771
664.401	6883
664.455	6760
664.508	6100
664.562	6113
664.615	5984
664.669	5260
664.722	6597
664.776	5599
664.829	5496
664.883	5617
664.936	5210
664.990	6268
665.043	6405
665.097	6314
665.150	7144
665.203	5710
665.257	6237
665.310	6569
665.363	6184
665.417	5979
665.470	5569
665.523	6198
665.576	7072
665.630	5772
665.683	6325
665.736	6981
665.789	6688
665.842	5567
665.895	6166
665.949	6414
666.002	6610
666.055	6529
666.108	7577
666.161	6279
666.214	7194
666.267	6341
666.320	6820
666.373	6984
666.426	6655
666.479	6258
666.532	6956
666.585	6337
666.638	7596
666.691	6729
666.744	8211
666.796	6674
666.849	6479
666.902	7606
666.955	7446
667.008	6653
667.060	6591
667.113	6737
667.166	7243
667.219	7798
667.271	8105
667.324	7074
667.377	7707
667.430	7603
667.482	7179
667.535	6803
667.587	7646
667.640	7127
667.693	6140
667.745	7065
667.798	7820
667.850	6144
667.903	8064
667.955	6231
668.008	7362
668.060	7456
668.113	7328
668.165	6517
668.218	6479
668.270	6752
668.322	5626
668.375	6614
668.427	6888
668.479	5668
668.532	7613
668.584	5727
668.636	6381
668.689	5955
668.741	5929
668.793	6449
668.845	5351
668.898	6844
668.950	6559
669.002	6727
669.054	6941
669.106	5614
669.158	6876
669.211	6087
669.263	5999
669.315	6648
669.367	6213
669.419	5753
669.471	7201
669.523	6124
669.575	6626
669.627	5151
669.679	5403
669.731	6008
669.783	5457
669.835	6313
669.886	6090
669.938	6029
669.990	5524
670.042	5018
670.094	5690
670.146	5759
670.197	6519
670.249	5908
670.301	4995
670.353	5889
670.404	6461
670.456	4889
670.508	6308
670.560	6325
670.611	6749
670.663	5280
670.715	7767
670.766	7267
670.818	6571
670.869	5801
670.921	6672
670.972	6309
671.024	5970
671.075	4721
671.127	5335
671.178	6633
671.230	5971
671.281	6368
671.333	7243
671.384	7273
671.436	9710
671.487	12999
671.538	17141
671.590	27457
671.641	44647
671.692	79895
671.744	145034
671.795	98849
671.846	37312
671.897	18387
671.949	12801
672.000	9541
672.051	7863
672.102	7509
672.153	6591
672.204	6176
672.256	5824
672.307	5122
672.358	5382
672.409	4406
672.460	5608
672.511	4315
672.562	4130
672.613	4395
672.664	3602
672.715	4974
672.766	4532
672.817	3097
672.868	5011
672.919	4077
672.970	4031
673.021	4262
673.071	3596
673.122	3566
673.173	4248
673.224	3783
673.275	3812
673.326	4170
673.376	4061
673.427	3174
673.478	3734
673.528	4301
673.579	4118
673.630	4348
673.680	5008
673.731	4032
673.782	3205
673.832	3787
673.883	4163
673.934	4518
673.984	3055
674.035	3676
674.085	3710
674.136	4116
674.186	4425
674.237	2752
674.287	3762
674.338	3474
674.388	4196
674.438	3611
674.489	4172
674.539	4399
674.589	4816
674.640	4123
674.690	3580
674.740	3923
674.791	3709
674.841	3999
674.891	3307
674.942	2706
674.992	3711
675.042	3092
675.092	2764
675.142	2644
675.193	2634
675.243	1996
675.293	4041
675.343	3189
675.393	3240
675.443	3454
675.493	3986
675.543	2730
675.593	3170
675.643	2368
675.693	3767
675.743	3622
675.793	3693
675.843	2426
675.893	2730
675.943	2520
675.993	2842
676.043	2472
676.093	4028
676.142	2950
676.192	3124
676.242	2696
676.292	3034
676.341	2801
676.391	2293
676.441	2938
676.491	2464
676.540	2466
676.590	2699
676.640	1947
676.689	2828
676.739	1387
676.789	2285
676.838	1959
676.888	2005
676.937	1958
676.987	2564
677.037	1856
677.086	1652
677.136	1887
677.185	1770
677.235	2391
677.284	2554
677.333	2721
677.383	1888
677.432	1568
677.482	2899
677.531	2515
677.580	2393
677.630	2228
677.679	2007
677.728	2594
677.778	2330
677.827	1583
677.876	2388
677.925	2314
677.975	2218
678.024	2536
678.073	3029
678.122	2464
678.171	2592
678.220	2462
678.269	3350
678.319	2282
678.368	2991
678.417	3264
678.466	2503
678.515	1889
678.564	1472
678.613	1364
678.662	2597
678.711	1820
678.760	2216
678.809	2044
678.857	2222
678.906	1347
678.955	3086
679.004	3005
679.053	2233
679.102	2547
679.151	2147
679.199	1967
679.248	2780
679.297	2074
679.346	2060
679.394	1115
679.443	2079
679.492	1693
679.540	2895
679.589	2039
679.638	1602
679.686	1152
679.735	2792
679.784	2477
679.832	3066
679.881	2668
679.929	1804
679.978	2250
680.026	1662
680.075	2016
680.123	1918
680.172	1254
680.220	1498
680.268	1929
680.317	1159
680.365	1284
680.414	1717
680.462	1476
680.510	2283
680.559	1706
680.607	1512
680.655	1507
680.703	2097
680.752	1844
680.800	2507
680.848	1686
680.896	924
680.945	1255
680.993	1433
681.041	515
681.089	2018
681.137	1989
681.185	1238
681.233	1509
681.258	1727
681.281	1894
681.329	1160
681.377	558
681.380	641
681.425	1435
681.473	2813
681.502	2809
681.521	2738
681.569	2906
681.617	3063
681.624	3060
681.665	2713
681.713	2104
681.745	2285
681.761	2319
681.809	1963
681.857	2406
681.867	2596
681.904	3086
681.952	3513
681.989	3382
682.000	3282
682.048	2873
682.096	3183
682.111	3336
682.143	3583
682.191	2743
682.233	3605
682.239	3695
682.286	3010
682.334	3241
682.354	3044
682.382	2667
682.430	3751
682.476	3883
682.477	3849
682.525	4014
682.572	3436
682.598	3625
682.620	3756
682.667	4227
682.715	4324
682.720	4342
682.763	4143
682.810	4205
682.841	4075
682.857	3940
682.905	5041
682.952	4669
682.963	4692
683.000	4674
683.047	3991
683.085	4692
683.095	4841
683.142	4337
683.190	5496
683.206	5000
683.237	3945
683.284	5629
683.328	3804
683.332	3628
683.379	4803
683.426	4482
683.449	4688
683.473	4880
683.521	4807
683.568	5081
683.571	5144
683.615	5445
683.662	5915
683.693	5510
683.709	5230
683.757	5390
683.804	5200
683.814	5073
683.851	4557
683.898	5492
683.936	5922
683.945	6024
683.992	5690
684.039	5990
684.057	6005
684.086	5902
684.133	5970
684.179	6057
684.180	6033
684.227	6508
684.274	5979
684.300	6225
684.321	6445
684.368	5944
684.415	6597
684.422	6509
684.462	5885
684.509	6586
684.543	6484
684.556	6413
684.603	7422
684.649	6763
684.665	6876
684.696	6996
684.743	7040
684.786	7990
684.790	8048
684.837	7544
684.883	7311
684.908	7056
684.930	6830
684.977	7832
685.023	7331
685.029	7412
685.070	7876
685.117	7453
685.150	7252
685.164	7121
685.210	7334
685.257	8592
685.272	8423
685.303	8121
685.350	8379
685.393	8337
685.396	8292
685.443	7495
685.490	7669
685.514	7759
685.536	7983
685.583	7382
685.629	7286
685.636	7350
685.675	7599
685.722	8132
685.757	7555
685.768	7363
685.815	8316
685.861	7868
685.878	8130
685.908	8557
685.954	8573
686.000	8551
686.000	8543
686.047	8711
686.093	9138
686.121	9287
686.139	9304
686.185	9650
686.232	8793
686.242	8967
686.278	9560
686.324	8929
686.363	9709
686.370	9826
686.416	9192
686.463	9406
686.484	9234
686.509	9028
686.555	9148
686.601	8864
686.606	8910
686.647	9406
686.693	9169
686.727	9083
686.739	9037
686.785	9291
686.831	9384
686.848	9473
686.877	9683
686.923	10009
686.969	9979
686.969	9978
687.015	10096
687.061	10539
687.090	11177
687.107	11367
687.153	10738
687.199	10887
687.211	10753
687.245	10464
687.291	10506
687.332	10252
687.336	10253
687.382	11498
687.428	10665
687.453	11109
687.474	11429
687.520	11293
687.565	12031
687.574	11922
687.611	12094
687.657	13578
687.695	14038
687.702	14219
687.748	16663
687.794	18729
687.816	19133
687.839	17957
687.885	15829
687.931	14056
687.937	13810
687.976	13162
688.022	12301
688.058	11765
688.067	11830
688.113	11827
688.158	12225
688.179	12247
688.204	12179
688.249	12029
688.295	11815
688.300	11837
688.340	12215
688.386	12397
688.421	12343
688.431	12334
688.477	12604
688.522	12186
688.542	12683
688.567	13557
688.613	13317
688.658	14105
688.663	14135
688.703	13824
688.749	13739
688.784	13208
688.794	13140
688.839	13513
688.884	14041
688.905	14001
688.930	13836
688.975	13475
689.020	13154
689.026	13117
689.065	13351
689.110	13850
689.146	14186
689.155	14294
689.201	14914
689.246	14993
689.267	15154
689.291	14915
689.336	14489
689.381	13910
689.388	13719
689.426	13170
689.471	13511
689.509	13512
689.516	13572
689.561	13605
689.606	13712
689.630	13970
689.651	14098
689.696	13812
689.741	13538
689.750	13522
689.785	13836
689.830	14260
689.871	14057
689.875	14030
689.920	14425
689.965	14312
689.992	14399
690.010	14412
690.054	14033
690.099	13668
690.112	13575
690.144	13525
690.189	13978
690.233	13313
690.233	13329
690.278	13671
690.323	13764
690.354	14029
690.367	14200
690.412	13886
690.457	14109
690.474	14109
690.501	13903
690.546	13918
690.590	13410
690.595	13380
690.635	13645
690.680	13730
690.716	13900
690.724	13946
690.769	13838
690.813	13962
690.836	13899
690.857	14087
690.902	14260
690.946	14583
690.957	14671
690.991	14702
691.035	14773
691.077	15208
691.080	15272
691.124	15230
691.168	15724
691.198	15553
691.213	15329
691.257	15187
691.301	14760
691.318	14672
691.346	14748
691.390	14876
691.434	14537
691.439	14535
691.478	14720
691.522	14811
691.559	14555
691.567	14659
691.611	15610
691.655	16035
691.680	16404
691.699	16324
691.743	16135
691.787	16081
691.800	15862
691.831	15537
691.875	15100
691.919	15049
691.921	15023
691.964	15464
692.008	15773
692.041	15951
692.052	16026
692.096	16293
692.139	16417
692.162	16317
692.183	16153
692.227	16156
692.271	16006
692.282	15925
692.315	15852
692.359	15801
692.402	15903
692.403	15935
692.447	15595
692.490	15750
692.523	15533
692.534	15472
692.578	15538
692.622	14927
692.643	15231
692.666	15742
692.709	15616
692.753	15643
692.763	15645
692.797	15780
692.840	15992
692.884	16167
692.884	16201
692.928	16195
692.971	15964
693.004	16272
693.015	16432
693.059	16284
693.102	16571
693.124	16426
693.146	16328
693.189	16323
693.233	16169
693.245	16245
693.276	16556
693.320	16575
693.363	16318
693.365	16273
693.407	16375
693.450	16817
693.485	17083
693.493	17101
693.537	17057
693.580	16623
693.605	16568
693.624	16516
693.667	16042
693.710	15947
693.725	15733
693.753	15723
693.797	15567
693.840	15844
693.845	15806
693.883	15933
693.926	16231
693.966	16497
693.970	16567
694.013	16720
694.056	17134
694.086	17005
694.099	16915
694.142	16908
694.185	16856
694.206	16818
694.229	17096
694.272	17356
694.315	18023
694.326	18035
694.358	17918
694.401	17968
694.444	17756
694.446	17714
694.487	17910
694.530	18021
694.566	18169
694.573	18220
694.616	18017
694.659	18149
694.686	18022
694.702	18107
694.745	18566
694.787	18577
694.806	18593
694.830	18640
694.873	18623
694.916	18774
694.926	18792
694.959	19261
695.002	19544
695.044	19654
695.046	19635
695.087	20620
695.130	21223
695.166	21581
695.172	21572
695.215	21221
695.258	21134
695.286	20723
695.301	20928
695.343	21879
695.386	22801
695.406	22920
695.428	23483
695.471	25005
695.514	26316
695.526	26674
695.556	28623
695.599	31410
695.641	33819
695.646	34013
695.684	32197
695.726	30158
695.766	28215
695.769	28216
695.811	27052
695.854	26290
695.886	25339
695.896	25467
695.938	25862
695.981	26297
696.005	26628
696.023	27695
696.065	29728
696.108	32058
696.125	32898
696.150	33334
696.192	34027
696.235	34566
696.245	34620
696.277	34577
696.319	34358
696.361	34436
696.365	34329
696.404	33687
696.446	33229
696.485	32464
696.488	32552
696.530	32680
696.572	32799
696.604	33057
696.614	33172
696.656	32996
696.698	32900
696.724	32726
696.740	32965
696.783	33413
696.825	34007
696.844	34121
696.867	34214
696.909	34210
696.951	34301
696.964	34239
696.992	34453
697.034	34654
697.076	34785
697.083	34730
697.118	36044
697.160	37437
697.202	38931
697.203	38872
697.244	38627
697.286	38422
697.323	37988
697.327	38070
697.369	38023
697.411	37998
697.442	37813
697.453	37924
697.494	38059
697.536	38113
697.562	38133
697.578	38204
697.620	38018
697.661	37839
697.682	37712
697.703	38612
697.744	40046
697.786	41643
697.801	42057
697.828	41933
697.869	41684
697.911	41366
697.921	41197
697.952	41059
697.994	40630
698.035	40315
698.040	40173
698.077	40711
698.118	41114
698.160	41549
698.160	41444
698.201	42359
698.243	43082
698.279	43726
698.284	43958
698.325	45015
698.367	46073
698.399	46761
698.408	46987
698.449	47465
698.491	47985
698.518	48197
698.532	48243
698.573	48001
698.614	47792
698.638	47519
698.656	47892
698.697	48501
698.738	49098
698.757	49247
698.779	49286
698.820	49136
698.862	48968
698.877	48780
698.903	48593
698.944	48097
698.985	47585
698.996	47321
699.026	47688
699.067	48025
699.116	48302
699.235	48071
699.354	47283
699.474	43819
699.593	44058
699.713	43435
699.832	44172
699.951	47591
700.070	45499
700.190	42303
700.309	41735
700.428	39735
700.547	38872
700.667	39389
700.786	40540
700.905	37792
701.024	39497
701.143	38341
701.262	40823
701.381	40778
701.500	41002
701.619	40298
701.738	41038
701.857	40148
701.976	37002
702.095	39906
702.214	40345
702.333	38763
702.452	40147
702.571	39706
702.690	39706
702.809	39864
702.928	36522
703.047	34611
703.165	37021
703.284	36627
703.403	35135
703.522	34001
703.640	33980
703.759	33188
703.878	32139
703.997	33716
704.115	34469
704.234	33600
704.353	35438
704.471	31985
704.590	31584
704.708	31441
704.827	30549
704.946	30756
705.064	31315
705.183	30896
705.301	30661
705.420	29848
705.538	28718
705.656	27618
705.775	26381
705.893	30836
706.012	30290
706.130	27443
706.249	28409
706.367	26716
706.485	28020
706.604	26889
706.722	28463
706.840	32390
706.958	46468
707.077	34089
707.195	26828
707.313	26446
707.431	23448
707.549	24331
707.668	23126
707.786	26728
707.904	24173
708.022	25048
708.140	24242
708.258	23936
708.376	26199
708.494	22179
708.612	24736
708.730	25751
708.848	23953
708.966	23983
709.084	24415
709.202	24615
709.320	20917
709.438	22571
709.556	23245
709.674	19819
709.791	21238
709.909	20643
710.027	20613
710.145	20322
710.263	20636
710.380	20469
710.498	20104
710.616	20243
710.733	19252
710.851	18854
710.969	19903
711.086	19284
711.204	19826
711.322	20171
711.439	19442
711.557	17240
711.674	17798
711.792	18919
711.909	17752
712.027	17961
712.144	17904
712.262	18347
712.379	19421
712.497	17767
712.614	17972
712.732	17583
712.849	17823
712.966	18177
713.084	18904
713.201	15420
713.318	17667
713.436	19225
713.553	17080
713.670	19383
713.787	18728
713.905	17089
714.022	19734
714.139	20565
714.256	24347
714.373	33132
714.490	59074
714.608	142620
714.725	467255
714.842	431492
714.959	72334
715.076	31498
715.193	24423
715.310	22127
715.427	17576
715.544	18586
715.661	17099
715.778	15968
715.895	16424
716.011	15704
716.128	15618
716.245	16607
716.362	15415
716.479	14342
716.596	15421
716.713	15418
716.829	14728
716.946	13413
717.063	13751
717.180	13644
717.296	13591
717.413	13205
717.530	13016
717.646	12614
717.763	13043
717.880	12220
717.996	11372
718.113	12088
718.229	13014
718.346	11085
718.462	11322
718.579	12864
718.695	12872
718.812	12518
718.928	11993
719.045	11773
719.161	12086
719.277	12980
719.394	13838
719.510	13615
719.626	13837
719.743	17471
719.859	26588
719.975	51833
720.092	184500
720.208	357670
720.324	59368
720.440	19469
720.557	15396
720.673	12620
720.789	12342
720.905	11354
721.021	12468
721.137	10841
721.253	10363
721.369	10725
721.486	10781
721.602	10734
721.718	9774
721.834	10352
721.950	10731
722.066	10044
722.181	10087
722.297	9848
722.413	9181
722.529	10009
722.645	10897
722.761	9575
722.877	10413
722.993	11402
723.108	14576
723.224	12933
723.340	9997
723.456	10031
723.571	9394
723.687	8544
723.803	9997
723.918	9890
724.034	9812
724.150	9052
724.265	9843
724.381	9208
724.497	8717
724.612	9059
724.728	9335
724.843	8404
724.959	9521
725.074	9025
725.190	8945
725.305	8853
725.421	8420
725.536	9678
725.651	9791
725.767	9315
725.882	9171
725.997	8382
726.113	9513
726.228	8330
726.343	8212
726.459	8679
726.574	8780
726.689	8978
726.804	8383
726.920	9049
727.035	8403
727.150	9201
727.265	8035
727.380	8538
727.495	8668
727.610	8081
727.725	7725
727.841	8463
727.956	9865
728.071	8266
728.186	7892
728.301	8444
728.416	8943
728.531	7666
728.645	8140
728.760	8162
728.875	8734
728.990	7995
729.105	7720
729.220	7951
729.335	8762
729.449	7980
729.564	8773
729.679	7581
729.794	8602
729.908	8228
730.023	7945
730.138	7809
730.253	8977
730.367	8226
730.482	8614
730.596	8644
730.711	10637
730.826	16370
730.940	17087
731.055	12219
731.169	11888
731.284	12538
731.398	13396
731.513	12846
731.627	14610
731.742	19450
731.856	24687
731.970	24197
732.085	31072
732.199	42734
732.313	72734
732.428	167950
732.542	393808
732.656	236354
732.771	65911
732.885	37836
732.999	33935
733.113	34828
733.227	33443
733.342	31531
733.456	31171
733.570	29129
733.684	28108
733.798	27322
733.912	26035
734.026	27575
734.140	26376
734.254	24677
734.368	25751
734.482	24448
734.596	26138
734.710	23640
734.824	23517
734.938	23541
735.052	25674
735.166	23795
735.280	22963
735.393	21707
735.507	23149
735.621	22274
735.735	22625
735.849	24067
735.962	21369
736.076	23597
736.190	21671
736.303	21604
736.417	21978
736.531	20556
736.644	20562
736.758	20939
736.872	19478
736.985	19737
737.099	19757
737.212	20328
737.326	19211
737.439	20826
737.553	18886
737.666	20255
737.780	17596
737.893	20158
738.007	18572
738.120	20310
738.233	16944
738.347	19267
738.460	16285
738.573	19171
738.687	17438
738.800	18234
738.913	19889
739.026	17446
739.140	17160
739.253	18600
739.366	16956
739.479	16964
739.592	17804
739.705	14983
739.818	18912
739.932	16006
740.045	17378
740.158	16925
740.271	17418
740.384	16411
740.497	14497
740.610	17029
740.723	16310
740.836	15982
740.949	15449
741.062	16934
741.174	15341
741.287	14838
741.400	15756
741.513	13273
741.626	16590
741.739	15552
741.851	15318
741.964	15905
742.077	13804
742.189	12946
742.302	14084
742.415	14383
742.527	13457
742.640	15722
742.753	11472
742.865	14438
742.978	14444
743.090	12968
743.203	14883
743.316	12880
743.428	13334
743.541	13305
743.653	11471
743.766	12828
743.878	13284
743.990	11757
744.103	12780
744.215	12447
744.327	11541
744.440	14882
744.552	12154
744.664	12373
744.777	13555
744.889	11922
745.001	11725
745.113	13887
745.226	11915
745.338	10124
745.450	13764
745.562	11917
745.674	10165
745.786	13025
745.898	11892
746.010	11337
746.122	12545
746.234	12027
746.347	12053
746.459	11091
746.570	9036
746.682	12396
746.794	12670
746.906	9655
747.018	10449
747.130	11731
747.242	9865
747.354	10161
747.466	10962
747.577	9495
747.689	10597
747.801	11850
747.913	8967
748.024	10403
748.136	9915
748.248	9830
748.359	10159
748.471	11877
748.583	8936
748.694	8770
748.806	11560
748.918	9195
749.029	9601
749.141	9466
749.252	10519
749.364	9552
749.475	9627
749.587	8684
749.698	8762
749.809	9395
749.921	9821
750.032	8185
750.144	8498
750.255	8053
750.366	9818
750.478	8169
750.589	8771
750.700	8284
750.811	9850
750.923	7905
751.034	8290
751.145	9926
751.256	8365
751.367	8224
751.479	8825
751.590	8457
751.701	8062
751.812	6758
751.923	8595
752.034	9344
752.145	8410
752.256	9447
752.367	7847
752.478	7412
752.589	9171
752.700	9471
752.811	7401
752.922	8564
753.032	9038
753.143	8727
753.254	7733
753.365	8805
753.476	9366
753.586	8355
753.697	7308
753.808	7805
753.919	7759
754.029	8091
754.140	6920
754.251	6916
754.361	8324
754.472	8343
754.582	6548
754.693	6779
754.804	8879
754.914	6603
755.025	6296
755.135	7731
755.246	8995
755.356	6972
755.466	6387
755.577	7701
755.687	7185
755.798	7320
755.908	6567
756.018	6557
756.129	6991
756.239	7408
756.349	7614
756.460	7484
756.570	8305
756.680	7168
756.790	6633
756.900	7048
757.011	6380
757.121	5672
757.231	6448
757.341	7118
757.451	5463
757.561	5757
757.671	7140
757.781	7561
757.891	6566
758.001	5037
758.111	6767
758.221	8028
758.331	7364
758.441	7041
758.551	6995
758.661	7638
758.771	7433
758.880	6750
758.990	6683
759.100	6323
759.210	6741
759.320	7512
759.429	7234
759.539	7704
759.649	8452
759.758	9263
759.868	9193
759.978	9212
760.087	9262
760.197	10635
760.307	9057
760.416	7808
760.526	8698
760.635	8715
760.745	9823
760.854	10399
760.964	11863
761.073	10991
761.182	9988
761.292	9360
761.401	8439
761.511	7177
761.620	6755
761.729	6702
761.839	5567
761.948	6094
762.057	6066
762.166	6852
762.276	5867
762.385	6739
762.494	4967
762.603	5491
762.712	5171
762.822	6109
762.931	4729
763.040	4423
763.149	4335
763.258	5250
763.367	5532
763.476	5899
763.585	4089
763.694	5174
763.803	5366
763.912	4916
764.021	3767
764.130	4466
764.238	5098
764.347	5626
764.456	5930
764.565	5756
764.674	4585
764.783	4522
764.891	5047
765.000	5601
765.109	4838
765.217	3773
765.326	4664
765.435	4297
765.543	4990
765.652	3934
765.761	4541
765.869	4221
765.978	4035
766.086	5421
766.195	4719
766.303	6358
766.412	12021
766.520	9711
766.629	4876
766.737	5540
766.846	4854
766.954	3693
767.062	5183
767.171	4085
767.279	5083
767.387	4585
767.496	4226
767.604	4031
767.712	4643
767.820	4302
767.928	4239
768.037	2653
768.145	4962
768.253	3968
768.361	3327
768.469	4437
768.577	3700
768.685	5106
768.793	5016
768.901	3741
769.009	5304
769.117	4936
769.225	3993
769.333	4604
769.441	5431
769.549	5318
769.657	5376
769.765	5935
769.873	10909
769.981	5961
770.088	5446
770.196	4717
770.304	6506
770.412	6513
770.519	6410
770.627	6676
770.735	6482
770.842	7254
770.950	6838
771.058	7762
771.165	9571
771.273	10322
771.380	10930
771.488	15325
771.595	18544
771.703	15361
771.810	14293
771.918	15904
772.025	18970
772.133	21227
772.240	19145
772.348	22792
772.455	20945
772.562	19451
772.670	19141
772.777	20514
772.884	19337
772.991	17679
773.099	19877
773.206	18111
773.313	18796
773.420	18167
773.528	18137
773.635	17871
773.742	19694
773.849	16261
773.956	19092
774.063	17678
774.170	17728
774.277	17609
774.384	16543
774.491	17205
774.598	17461
774.705	16765
774.812	17018
774.919	15631
775.026	17455
775.133	17200
775.239	16646
775.346	16197
775.453	15655
775.560	14521
775.667	16279
775.773	14921
775.880	15394
775.987	15552
776.093	15877
776.200	17205
776.307	12361
776.413	13567
776.520	18057
776.627	14874
776.733	13079
776.840	11934
776.946	18174
777.053	13463
777.159	12973
777.266	12345
777.372	12838
777.478	14865
777.585	15559
777.691	12125
777.798	14447
777.904	13318
778.010	13036
778.117	14325
778.223	12733
778.329	13274
778.435	11014
778.542	14744
778.648	12719
778.754	11725
778.860	12084
778.966	13108
779.072	12410
779.178	13204
779.284	10390
779.391	12117
779.497	12321
779.603	13210
779.708	10975
779.815	10295
779.920	12930
780.026	10200
780.132	10958
780.238	11898
780.344	10127
780.450	15273
780.556	9487
780.661	10235
780.767	13281
780.873	8572
780.979	10057
781.085	13030
781.190	9962
781.296	10294
781.402	11007
781.507	10795
781.613	7956
781.719	10302
781.824	13013
781.930	9659
782.035	10692
782.141	12499
782.246	7614
782.352	9476
782.457	10153
782.563	10549
782.668	9911
782.773	7890
782.879	8371
782.984	9781
783.090	9158
783.195	9350
783.300	11062
783.405	8272
783.511	6988
783.616	8236
783.721	8791
783.826	7892
783.932	8186
784.037	9216
784.142	9034
784.247	8232
784.352	8768
784.457	6445
784.562	8807
784.667	9085
784.772	7738
784.877	6138
784.982	9655
785.087	9588
785.192	7340
785.297	7735
785.402	10370
785.507	7672
785.611	7837
785.716	6907
785.821	8004
785.926	8757
786.031	7565
786.135	8181
786.240	7614
786.345	6222
786.450	6800
786.554	7377
786.659	6312
786.763	7470
786.868	8443
786.973	9250
787.077	6409
787.182	5932
787.286	7728
787.391	9097
787.495	5562
787.600	4873
787.704	7106
787.809	7599
787.913	7110
788.017	7292
788.122	7120
788.226	7219
788.330	4852
788.435	7076
788.539	6903
788.643	5376
788.747	4213
788.852	6970
788.956	6582
789.060	7813
789.164	6954
789.268	6143
789.372	7661
789.476	6392
789.580	4248
789.684	5427
789.788	7032
789.892	6086
789.996	4093
790.100	3522
790.204	6455
790.308	7337
790.412	5209
790.516	4252
790.620	5502
790.724	7787
790.828	6166
790.931	4133
791.035	6323
791.139	5458
791.242	6122
791.346	6087
791.450	6174
791.554	4970
791.657	3298
791.761	5253
791.864	6029
791.968	5791
792.072	6486
792.175	4761
792.279	4456
792.382	4611
792.486	4505
792.589	5559
792.693	5521
792.796	5220
792.899	6269
793.003	5745
793.106	3180
793.209	4940
793.313	5386
793.416	2565
793.519	4367
793.623	7039
793.726	5468
793.829	3735
793.932	2897
794.035	2722
794.138	5905
794.242	6718
794.345	3005
794.448	3405
794.551	3717
794.654	5708
794.757	6046
794.860	4872
794.963	4482
795.066	3974
795.169	4940
795.272	3921
795.375	6262
795.477	3034
795.580	3557
795.683	2794
795.786	5969
795.889	3388
795.991	4753
796.094	5629
796.197	3194
796.300	6487
796.402	4670
796.505	2736
796.608	3051
796.710	4333
796.813	5515
796.915	4606
797.018	4873
797.120	4848
797.223	3084
797.326	6239
797.428	3690
797.530	2650
797.633	4252
797.735	5495
797.838	3920
797.940	5029
798.042	4693
798.145	3828
798.247	4261
798.349	2623
798.452	4544
798.554	4009
798.656	4019
798.758	5353
798.860	4308
798.962	3910
799.065	3793
799.167	3072
799.269	4640
799.371	5398
799.473	6412
799.575	4643
799.677	3206
799.779	3795
799.881	2861
799.983	4916
800.085	3810
800.187	3578
800.289	2254
800.390	3943
800.492	5212
800.594	4607
800.696	3276
800.798	3263
800.899	3528
801.001	4520
801.103	3261
801.205	3504
801.306	3296
801.408	3687
801.509	3520
801.611	4180
801.713	3718
801.814	2434
801.916	3548
802.017	2480
802.119	2702
802.220	3911
802.322	3125
802.423	4998
802.525	2604
802.626	2968
802.727	4504
802.829	3518
802.930	183
803.031	3694
803.133	3277
803.234	3951
803.335	4106
803.436	1285
803.538	3712
803.639	2391
803.740	3426
803.841	2891
803.942	4187
804.043	3375
804.144	2966
804.245	2279
804.346	2144
804.447	2920
804.548	2735
804.649	3687
804.750	1923
804.851	3196
804.952	2924
805.053	3265
805.154	2079
805.255	4061
805.355	2687
805.456	2731
805.557	3294
805.658	2165
805.758	3721
805.859	3484
805.960	3275
806.061	2232
806.161	1936
806.262	2652
806.362	1999
806.463	2077
806.564	4291
806.664	3493
806.765	2658
806.865	2016
806.966	1993
807.066	2178
807.166	3853
807.267	2847
807.367	2165
807.468	3342
807.568	1406
807.668	3051
807.769	3865
807.869	3171
807.969	3534
808.069	2521
808.170	2896
808.270	3156
808.370	3720
808.470	2056
808.570	2149
808.670	2898
808.770	3199
808.870	2273
808.970	2449
809.070	1892
809.170	1664
809.271	3111
809.370	2539
809.470	3287
809.570	1501
809.670	1724
809.770	2163
809.870	3065
809.970	2629
810.070	2522
810.169	2695
810.269	1101
810.369	3491
810.469	3545
810.568	2201
810.668	2171
810.768	2527
810.867	2101
810.967	1797
811.066	1693
811.166	2887
811.265	3500
811.365	1979
811.464	3117
811.564	3901
811.663	3216
811.763	1764
811.862	3586
811.962	2052
812.061	2141
812.160	2089
812.260	2192
812.359	2842
812.458	2127
812.557	3615
812.657	2613
812.756	2520
812.855	2479
812.954	2330
813.053	2509
813.153	2652
813.252	965
813.351	2446
813.450	3604
813.549	2288
813.648	2169
813.747	2371
813.846	3708
813.945	3225
814.044	3594
814.143	2352
814.242	2692
814.341	2403
814.439	3733
814.538	3681
814.637	3289
814.736	3033
814.835	3848
814.933	4967
815.032	5937
815.131	7007
815.229	13398
815.328	18579
815.427	14302
815.525	12563
815.624	11719
815.722	10835
815.821	12306
815.919	12103
816.018	12219
816.116	13270
816.215	12274
816.313	12886
816.412	15484
816.510	16713
816.609	16730
816.707	18007
816.805	15835
816.904	14868
817.002	15488
817.100	16874
817.198	16559
817.296	14501
817.395	15998
817.493	15306
817.591	13714
817.689	14457
817.787	14557
817.885	13987
817.983	12984
818.081	13674
818.179	13927
818.277	16432
818.375	12780
818.473	12503
818.571	12077
818.669	14365
818.767	15629
818.865	13111
818.963	10805
819.061	13652
819.158	13160
819.256	15597
819.354	11998
819.452	12775
819.549	12257
819.647	14805
819.745	11596
819.842	12325
819.940	12840
820.038	11555
820.135	11146
820.233	13549
820.330	12627
820.428	10704
820.525	13695
820.623	10712
820.720	10662
820.818	11665
820.915	12595
821.012	10350
821.110	10461
821.207	11953
821.304	10558
821.402	11496
821.499	11639
821.596	9061
821.693	10213
821.791	11413
821.888	11184
821.985	11778
822.082	8712
822.179	11131
822.276	11868
822.373	9557
822.470	10539
822.567	11254
822.664	9139
822.761	10567
822.858	11407
822.955	9506
823.052	8588
823.149	9882
823.246	10897
823.343	7566
823.440	8887
823.536	10029
823.633	10005
823.730	7947
823.827	10404
823.923	9544
824.020	8738
824.117	10923
824.213	11196
824.310	8443
824.407	7951
824.503	10723
824.600	9125
824.696	7142
824.793	11573
824.889	9768
824.986	8176
825.082	6177
825.179	7188
825.275	10715
825.371	11320
825.468	6958
825.564	4592
825.660	9544
825.757	11474
825.853	8568
825.949	6600
826.045	6997
826.142	9016
826.238	9521
826.334	9329
826.430	7763
826.526	5765
826.622	5297
826.718	8771
826.814	10185
826.910	8029
827.006	4411
827.102	5723
827.198	7998
827.294	10193
827.390	9495
827.486	6116
827.582	4308
827.678	5774
827.774	9472
827.869	6271
827.965	7058
828.061	6223
828.157	8689
828.252	7487
828.348	6601
828.444	5833
828.539	5253
828.635	7317
828.731	7624
828.826	5155
828.922	6994
829.017	8191
829.113	7988
829.208	5217
829.304	5953
829.399	8477
829.495	7166
829.590	6205
829.685	6029
829.781	8046
829.876	8136
829.971	4034
830.066	3982
830.162	5890
830.257	9490
830.352	6944
830.447	4536
830.543	4991
830.638	6684
830.733	8365
830.828	5687
830.923	6907
831.018	6151
831.113	7882
831.208	4627
831.303	3854
831.398	3810
831.493	5926
831.588	9871
831.683	4929
831.778	3496
831.873	4203
831.967	7313
832.062	8064
832.157	5520
832.252	5659
832.346	4956
832.441	7223
832.536	6032
832.631	6070
832.725	5118
832.820	5380
832.914	6216
833.009	4528
833.104	4442
833.198	3700
833.293	5584
833.387	7042
833.482	5704
833.576	4732
833.670	4973
833.765	4820
833.859	5470
833.954	6429
834.048	4958
834.142	4335
834.237	2771
834.331	5471
834.425	5994
834.519	4716
834.613	4373
834.708	4341
834.802	5239
834.896	5839
834.990	5804
835.084	4259
835.178	3206
835.272	3975
835.366	6502
835.460	7589
835.554	4378
835.648	3551
835.742	1849
835.836	3283
835.930	4206
836.024	5205
836.117	5346
836.211	5042
836.305	3356
836.399	3834
836.493	3637
836.586	4974
836.680	4606
836.774	4752
836.867	3819
836.961	3101
837.055	3115
837.148	3503
837.242	4041
837.335	4780
837.429	3321
837.522	3482
837.616	3995
837.709	3102
837.803	3602
837.896	5470
837.989	5287
838.083	3381
838.176	2223
838.269	2339
838.363	4183
838.456	2699
838.549	5089
838.642	4045
838.735	2768
838.829	4346
838.922	3635
839.015	3486
839.108	2433
839.201	3371
839.294	3906
839.387	4054
839.480	2724
839.573	3176
839.666	1733
839.759	3400
839.852	2576
839.945	4308
840.038	2849
840.131	2118
840.223	2435
840.316	3753
840.409	4290
840.502	4665
840.594	4022
840.687	1355
840.780	2161
840.873	1922
840.965	2228
841.058	3405
841.150	4865
841.243	2331
841.336	2002
841.428	2788
841.521	2529
841.613	2795
841.706	3713
841.798	2701
841.890	4088
841.983	2174
842.075	3009
842.167	2157
842.260	2369
842.352	3845
842.444	3326
842.537	1849
842.629	1087
842.721	1510
842.813	2528
842.905	2381
842.997	2945
843.090	3561
843.182	2665
843.274	1182
843.366	2281
843.458	2468
843.550	5096
843.642	2182
843.734	3041
843.826	2897
843.918	2861
844.009	3056
844.101	1614
844.193	2674
844.285	3491
844.377	3471
844.469	2531
844.560	1063
844.652	1556
844.744	2449
844.835	2709
844.927	2683
845.019	2755
845.110	2110
845.202	4048
845.293	2832
845.385	1444
845.476	2572
845.568	3542
845.659	1400
845.751	2177
845.842	1688
845.934	2447
846.025	1854
846.116	3137
846.208	1992
846.299	1457
846.390	1848
846.482	1505
846.573	3147
846.664	3327
846.755	2499
846.846	2580
846.937	1336
847.029	1440
847.120	2240
847.211	2055
847.302	3640
847.393	2820
847.484	3005
847.575	1580
847.666	1079
847.757	1749
847.847	2605
847.938	3519
848.029	3518
848.120	1701
848.211	1610
848.302	1933
848.392	1442
848.483	2667
848.574	2181
848.664	2561
848.755	2179
848.846	2189
848.936	1108
849.027	2117
849.118	2397
849.208	1999
849.299	2953
849.389	5020
849.480	7053
849.570	12262
849.661	22596
849.751	35056
849.841	14358
849.932	4378
850.022	2886
850.112	2754
850.203	3276
850.293	1349
850.383	1876
850.474	1511
850.564	1273
850.654	1769
850.744	707
850.834	1338
850.924	3162
851.014	4356
851.104	2587
851.194	2015
851.284	1653
851.374	1571
851.464	1627
851.554	3147
851.644	989
851.734	2773
851.824	2315
851.914	1810
852.004	1717
852.094	746
852.183	1759
852.273	1683
852.363	2187
852.452	1993
852.542	1929
852.632	1117
852.721	1713
852.811	2191
852.901	2598
852.990	3341
853.080	2654
853.169	2135
853.259	3320
853.348	2598
853.438	3551
853.527	4782
853.617	5209
853.706	8412
853.795	12871
853.885	25705
853.974	43511
854.063	73087
854.152	96330
854.242	47356
854.331	17000
854.420	8334
854.509	5961
854.598	5008
854.687	3793
854.777	4048
854.866	2654
854.955	2840
855.044	2334
855.133	2885
855.222	1638
855.311	1912
855.400	2337
855.488	1862
855.577	1710
855.666	1831
855.755	1560
855.844	2104
855.933	2146
856.021	2708
856.110	2058
856.199	751
856.288	1084
856.376	1780
856.465	1150
856.554	1698
856.642	1830
856.731	3029
856.819	1723
856.908	1511
856.996	2483
857.085	1889
857.173	1225
857.262	1424
857.350	1437
857.438	1246
857.527	2473
857.615	1800
857.703	2011
857.792	2068
857.880	1298
857.968	1328
858.056	2351
858.145	1617
858.233	2077
858.321	1246
858.409	1256
858.497	1744
858.585	905
858.673	1771
858.761	1236
858.849	1243
858.937	1567
859.025	1210
859.113	2307
859.201	2561
859.289	2649
859.377	2061
859.465	1778
859.552	1633
859.640	1836
859.728	1727
859.816	1735
859.903	1027
859.991	1426
860.079	1965
860.166	2002
860.254	1515
860.342	2440
860.429	1289
860.517	2026
860.604	2587
860.692	1675
860.779	1618
860.867	2391
860.954	2120
861.042	2931
861.129	1798
861.216	1778
861.304	1522
861.391	2296
861.478	1562
861.565	2716
861.653	2163
861.740	1345
861.827	727
861.914	1374
862.001	1988
862.089	2798
862.176	2811
862.263	2152
862.350	2133
862.437	906
862.524	1635
862.611	1975
862.698	2226
862.785	2081
862.871	2707
862.958	3714
863.045	2753
863.132	2447
863.219	1681
863.306	1197
863.392	2534
863.479	1777
863.566	2147
863.652	2890
863.739	2505
863.826	2340
863.912	2907
863.999	2848
864.086	3427
864.172	3285
864.259	4313
864.345	3122
864.432	3701
864.518	2635
864.604	3746
864.691	4089
864.777	3736
864.863	5381
864.950	8038
865.036	10855
865.122	18097
865.209	19929
865.295	16733
865.381	15583
865.467	14920
865.553	15151
865.639	15392
865.726	18324
865.812	25023
865.898	35144
865.984	46501
866.070	70603
866.156	72093
866.242	34658
866.328	20382
866.414	16753
866.499	14490
866.585	14735
866.671	14645
866.757	13886
866.843	14261
866.928	11934
867.014	12658
867.100	13606
867.186	12448
867.271	12477
867.357	13299
867.442	12359
867.528	12393
867.614	12525
867.699	12050
867.785	12007
867.870	12139
867.956	11121
868.041	12693
868.127	12184
868.212	11415
868.297	11897
868.383	12112
868.468	11362
868.553	12592
868.639	12307
868.724	10966
868.809	11656
868.894	10436
868.979	10514
869.065	11272
869.150	9324
869.235	11149
869.320	11372
869.405	10000
869.490	11561
869.575	11493
869.660	8971
869.745	12356
869.830	11810
869.915	8964
870.000	10148
870.085	9734
870.169	12095
870.254	13254
870.339	7820
870.424	8039
870.509	10588
870.593	11844
870.678	11329
870.763	9553
870.847	7875
870.932	10444
871.016	10159
871.101	7487
871.186	10043
871.270	12416
871.355	8179
871.439	9059
871.523	10716
871.608	8335
871.692	7330
871.777	10813
871.861	10653
871.945	9508
872.030	9714
872.114	10016
872.198	8123
872.282	8626
872.367	8111
872.451	8380
872.535	8411
872.619	8783
872.703	8062
872.787	9999
872.871	9489
872.955	7928
873.039	5968
873.123	8585
873.207	9531
873.291	6214
873.375	7993
873.459	9684
873.543	8574
873.627	7271
873.711	6235
873.794	9488
873.878	8350
873.962	7649
874.045	6790
874.129	7416
874.137	7455
874.213	7843
874.245	7540
874.296	7055
874.352	6945
874.380	6892
874.460	7144
874.464	7157
874.547	6669
874.568	7213
874.631	8828
874.676	8101
874.714	7479
874.784	7925
874.798	8022
874.881	6777
874.892	6674
874.965	5950
874.999	6620
875.048	7525
875.107	7917
875.131	8099
875.215	5852
875.215	5851
875.298	5090
875.323	5654
875.381	7032
875.430	8315
875.465	9176
875.538	8169
875.548	8039
875.631	5825
875.646	5699
875.714	5043
875.753	5403
875.798	5932
875.861	7701
875.881	8175
875.964	6423
875.968	6364
876.047	5575
876.076	6040
876.130	6851
876.183	7078
876.213	7228
876.291	7186
876.296	7169
876.379	6459
876.398	6149
876.462	5154
876.506	4854
876.545	4661
876.613	5712
876.628	5931
876.711	6082
876.721	6217
876.794	7242
876.828	7139
876.877	6852
876.935	5665
876.960	5263
877.043	5381
877.043	5382
877.125	5804
877.150	6449
877.208	7617
877.258	6436
877.291	5716
877.365	5119
877.374	5032
877.456	5003
877.472	4833
877.539	4444
877.579	5536
877.622	6483
877.687	6206
877.704	6193
877.787	6160
877.794	6201
877.869	6508
877.901	6532
877.952	6294
878.008	4758
878.034	4178
878.115	3938
878.117	3936
878.199	4610
878.222	4856
878.282	5464
878.329	6041
878.364	6379
878.437	5680
878.447	5550
878.529	3677
878.544	3760
878.611	4422
878.651	4497
878.694	4723
878.758	6102
878.776	6408
878.858	5380
878.865	5339
878.941	4605
878.972	4132
879.023	3613
879.078	4137
879.105	4397
879.185	5517
879.187	5536
879.269	5071
879.292	5299
879.351	5819
879.399	4965
879.433	4359
879.506	4497
879.516	4527
879.598	4647
879.613	4611
879.680	4458
879.720	4904
879.762	5384
879.827	5029
879.844	4919
879.926	4745
879.933	4774
880.007	4883
880.040	4437
880.089	3833
880.147	4227
880.171	4504
880.253	5206
880.254	5204
880.335	4153
880.360	4455
880.417	5458
880.467	5212
880.499	5060
880.574	5172
880.580	5169
880.662	5832
880.680	5622
880.744	4451
880.787	3964
880.825	3802
880.893	4282
880.907	4333
880.989	3494
881.000	3573
881.070	4769
881.106	5124
881.152	4897
881.213	3741
881.233	3545
881.315	4390
881.319	4395
881.396	4556
881.426	4573
881.478	4445
881.532	5100
881.559	5424
881.639	4490
881.641	4460
881.722	3860
881.745	4000
881.803	4756
881.852	4661
881.885	4310
881.958	3466
881.966	3459
882.047	4022
882.064	4077
882.129	3373
882.171	2760
882.210	2505
882.277	2789
882.291	2901
882.372	3838
882.383	3946
882.454	5302
882.489	5413
882.535	4888
882.596	4866
882.616	5019
882.697	5247
882.702	5227
882.778	3562
882.808	3320
882.859	3618
882.914	3703
882.940	3655
883.020	3829
883.021	3835
883.102	4258
883.127	4668
883.183	5435
883.233	5108
883.264	4365
883.339	3174
883.345	3093
883.426	1917
883.445	1752
883.507	2300
883.551	3037
883.587	3777
883.657	4675
883.668	4779
883.749	5348
883.763	5377
883.830	4100
883.869	3412
883.910	3165
883.975	3307
883.991	3439
884.072	3730
884.081	3793
884.152	5226
884.187	5842
884.233	5911
884.292	5628
884.314	5195
884.394	2954
884.398	2888
884.475	2508
884.504	2368
884.555	2232
884.610	2167
884.636	2645
884.716	4309
884.716	4320
884.797	5847
884.821	5989
884.877	4985
884.927	4212
884.958	4149
885.033	4114
885.038	4035
885.118	2821
885.139	2502
885.199	2673
885.244	2999
885.279	3100
885.350	3336
885.359	3556
885.439	5428
885.456	5552
885.520	3734
885.561	3120
885.600	2939
885.667	2917
885.680	3036
885.760	3165
885.773	3162
885.840	2336
885.878	2129
885.920	2367
885.984	2673
886.000	2961
886.080	4238
886.089	4381
886.160	4164
886.195	3961
886.240	4135
886.300	4373
886.320	4266
886.400	4200
886.406	4159
886.480	3072
886.511	2779
886.560	2911
886.616	2803
886.640	2778
886.720	3011
886.722	3019
886.800	2968
886.827	2823
886.879	3216
886.932	3812
886.959	4118
887.038	4856
887.039	4849
887.119	3950
887.143	3676
887.198	3523
887.248	3481
887.278	3546
887.354	3676
887.358	3674
887.437	3337
887.459	3367
887.517	4134
887.564	4475
887.596	3790
887.669	2337
887.676	2341
887.755	2582
887.774	2605
887.835	2231
887.880	2004
887.914	2530
887.985	3500
887.994	3647
888.073	5146
888.090	5398
888.153	5612
888.195	5666
888.232	4727
888.300	3299
888.311	3240
888.391	2622
888.405	2513
888.470	2706
888.510	2831
888.549	2823
888.615	2919
888.628	3150
888.708	4394
888.720	4590
888.787	3800
888.825	3312
888.866	2603
888.930	1574
888.945	1878
889.024	3541
889.035	3752
889.103	3932
889.140	4009
889.182	3871
889.245	3738
889.261	3723
889.340	3588
889.349	3573
889.419	2857
889.454	2485
889.498	2396
889.559	2301
889.577	2620
889.656	4031
889.664	4170
889.735	3522
889.768	3208
889.814	3165
889.873	3100
889.978	2369
890.083	3282
890.187	4269
890.292	5008
890.397	2076
890.501	3002
890.606	2097
890.710	3712
890.815	4512
890.919	3338
891.024	2437
891.128	2468
891.233	1844
891.337	4348
891.442	4594
891.546	3342
891.650	1894
891.755	2810
891.859	4693
891.963	4638
892.068	3265
892.172	2956
892.276	1095
892.380	2823
892.484	4065
892.589	4633
892.693	2896
892.797	1493
892.901	2041
893.005	1830
893.109	4726
893.213	4635
893.317	2743
893.421	2468
893.525	1614
893.629	2941
893.733	4142
893.837	3310
893.941	3672
894.045	2618
894.148	1445
894.252	2830
894.356	4285
894.460	5087
894.564	2895
894.667	2508
894.771	1959
894.875	1814
894.978	2827
895.082	4298
895.186	4260
895.289	3844
895.393	2643
895.496	3670
895.600	2273
895.703	2030
895.807	2597
895.910	3262
896.014	3298
896.117	2412
896.221	2871
896.324	3562
896.427	1585
896.531	2582
896.634	2207
896.737	2310
896.840	2671
896.944	3393
897.047	3612
897.150	2605
897.253	1053
897.356	2617
897.460	1852
897.563	2357
897.666	3337
897.769	3508
897.872	1691
897.975	2393
898.078	2497
898.181	2361
898.284	2882
898.387	4011
898.490	2751
898.593	2720
898.695	2919
898.798	2927
898.901	2955
899.004	2547
899.107	2661
899.209	2934
899.312	3500
899.415	3004
899.518	1188
899.620	1845
899.723	2617
899.826	2612
899.928	1418
900.031	3112
900.133	3210
900.236	2752
900.338	1923
900.441	2190
900.543	2217
900.646	3146
900.748	3006
900.851	3724
900.953	2636
901.055	2046
901.158	1595
901.260	2452
901.362	1154
901.465	1297
901.567	2649
901.669	3923
901.771	2882
901.873	2013
901.976	2673
902.078	2502
902.180	1311
902.282	2139
902.384	2360
902.486	3718
902.588	3121
902.690	1646
902.792	923
902.894	2659
902.996	2588
903.098	3095
903.200	1128
903.302	1830
903.404	1973
903.505	2354
903.607	1980
903.709	4448
903.811	3243
903.913	1761
904.014	1969
904.116	1318
904.218	1674
904.319	1978
904.421	3712
904.523	2748
904.624	2704
904.726	2067
904.827	1316
904.929	1564
905.030	2217
905.132	3432
905.233	2900
905.335	1958
905.436	1517
905.537	2180
905.639	1970
905.740	1750
905.841	3132
905.943	3207
906.044	1481
906.145	1153
906.247	2111
906.348	2911
906.449	2255
906.550	3325
906.651	858
906.752	2168
906.854	2068
906.955	1443
907.056	2062
907.157	3396
907.258	2764
907.359	1220
907.460	1742
907.561	1649
907.662	1201
907.762	2636
907.863	2198
907.964	2527
908.065	2588
908.166	2539
908.267	1779
908.367	1459
908.468	1722
908.569	2638
908.670	3404
908.770	2190
908.871	2441
908.971	3269
909.072	1655
909.173	1779
909.273	1516
909.374	3178
909.474	2559
909.575	2238
909.675	1974
909.776	2639
909.876	1913
909.977	1844
910.077	2065
910.177	3086
910.278	2074
910.378	1519
910.478	1688
910.579	2711
910.679	2279
910.779	2607
910.879	2603
910.980	2442
911.080	2971
911.180	1509
911.280	1063
911.380	1830
911.480	2009
911.580	2763
911.680	1430
911.780	2886
911.880	2472
911.980	2338
912.080	1595
912.180	2664
912.280	2006
912.380	1931
912.480	1342
912.580	1228
912.679	2650
912.779	2847
912.879	2064
912.979	2183
913.078	1076
913.178	1887
913.278	1592
913.377	1902
913.477	725
913.577	2087
913.676	2956
913.776	3330
913.875	1638
913.975	2617
914.074	2077
914.174	2852
914.273	763
914.373	1978
914.472	2046
914.572	1832
914.671	1288
914.770	1794
914.870	1751
914.969	2173
915.068	3158
915.167	1705
915.267	1153
915.366	1825
915.465	1447
915.564	2786
915.663	1712
915.763	2343
915.862	2646
915.961	2623
916.060	1033
916.159	1397
916.258	1721
916.357	1386
916.456	2122
916.555	2723
916.654	1794
916.752	3009
916.851	2748
916.950	2296
917.049	1019
917.148	1649
917.247	1758
917.345	2154
917.444	1946
917.543	2065
917.642	1896
917.740	2275
917.839	3451
917.937	4814
918.036	3300
918.135	2023
918.233	1820
918.332	1449
918.430	1138
918.529	1475
918.627	1737
918.726	2598
918.824	2534
918.923	1665
919.021	2159
919.119	1664
919.218	2860
919.316	2443
919.414	1844
919.512	2547
919.611	2207
919.709	2303
919.807	3672
919.905	3555
920.003	3472
920.102	2552
920.200	2613
920.298	3682
920.396	2982
920.494	2799
920.592	2615
920.690	3115
920.788	2452
920.886	3780
920.984	4267
921.082	3874
921.180	4235
921.277	4624
921.375	4759
921.473	7218
921.571	6164
921.669	5639
921.766	5282
921.864	6229
921.962	6405
922.060	4878
922.157	5181
922.255	6408
922.352	5560
922.450	6758
922.548	6628
922.645	8432
922.743	10019
922.840	16749
922.938	17681
923.035	15107
923.133	15968
923.230	17728
923.327	21571
923.425	19459
923.522	19325
923.619	17605
923.717	15652
923.814	15396
923.911	15412
924.008	16833
924.106	15264
924.203	15220
924.300	15448
924.397	15321
924.494	14878
924.591	15267
924.688	13918
924.786	14882
924.883	15715
924.979	15709
925.077	15993
925.173	14992
925.270	13769
925.367	14373
925.464	15130
925.561	16331
925.658	15033
925.755	13018
925.852	15119
925.948	14913
926.045	14621
926.142	14649
926.239	15084
926.335	11900
926.432	13959
926.529	14733
926.625	16174
926.722	13045
926.818	13435
926.915	15594
927.011	13604
927.108	13839
927.204	13465
927.301	11919
927.397	13952
927.494	15724
927.590	10950
927.687	12542
927.783	14886
927.879	14228
927.976	11978
928.072	11698
928.168	13417
928.264	13916
928.361	12467
928.457	13939
928.553	12114
928.649	13051
928.745	13294
928.841	12246
928.937	12274
929.033	12990
929.129	12031
929.225	14930
929.321	11589
929.417	10805
929.513	13157
929.609	12077
929.705	10985
929.801	13618
929.897	9914
929.993	11304
930.089	12340
930.184	10018
930.280	12833
930.376	14834
930.471	11089
930.567	9668
930.663	10524
930.758	10416
930.854	10797
930.950	11754
931.045	9219
931.141	10744
931.236	12829
931.332	11836
931.427	7999
931.523	13656
931.618	11687
931.714	8674
931.809	9962
931.905	13387
932.000	8407
932.095	8049
932.191	12210
932.286	13536
932.381	11193
932.476	9170
932.572	9547
932.667	9111
932.762	8530
932.857	11203
932.952	12665
933.047	9370
933.142	8017
933.237	10487
933.332	11385
933.427	11717
933.522	9873
933.617	8639
933.712	8211
933.807	11735
933.902	12302
933.997	11488
934.092	7401
934.187	8891
934.282	10195
934.376	9991
934.471	10020
934.566	8514
934.661	8435
934.755	10526
934.850	10770
934.945	9188
935.039	8012
935.134	7348
935.228	9624
935.323	13982
935.417	8063
935.512	5740
935.606	7298
935.701	10204
935.795	10422
935.890	9174
935.984	8013
936.079	5953
936.173	8124
936.267	7771
936.362	6531
936.456	9614
936.550	11199
936.644	9143
936.738	6986
936.833	7652
936.927	6360
937.021	6087
937.115	9240
937.209	8274
937.303	8598
937.397	5572
937.491	7207
937.585	9654
937.679	7976
937.773	6823
937.867	6450
937.961	6976
938.055	10603
938.149	9835
938.243	5956
938.337	5030
938.430	5950
938.524	10394
938.618	6648
938.712	5820
938.805	6174
938.899	8593
938.993	10585
939.086	5529
939.180	4376
939.274	6316
939.367	8179
939.461	8758
939.554	5569
939.648	4984
939.741	6510
939.835	6888
939.928	9132
940.022	8190
940.115	7410
940.208	8277
940.302	9858
940.395	10197
940.488	5969
940.582	6328
940.675	5568
940.768	5906
940.861	7616
940.954	8307
941.048	4607
941.141	4217
941.234	5001
941.327	6605
941.420	7294
941.513	7968
941.606	5237
941.699	5723
941.792	6856
941.885	7179
941.978	7026
942.071	7874
942.164	4712
942.257	4947
942.349	5570
942.442	7233
942.535	4076
942.628	4624
942.721	6083
942.813	5585
942.906	6332
942.999	6241
943.091	5097
943.184	5789
943.277	6140
943.369	4786
943.462	3425
943.554	5411
943.647	5668
943.739	7893
943.832	7698
943.924	3456
944.017	3873
944.109	4876
944.201	5433
944.294	5949
944.386	5530
944.478	5147
944.571	4345
944.663	4676
944.755	4808
944.847	6181
944.940	5294
945.032	3900
945.124	3656
945.216	5801
945.308	5245
945.400	5207
945.492	5506
945.584	5751
945.676	6596
945.768	5834
945.860	5885
945.952	7118
946.044	5554
946.136	4674
946.228	5405
946.320	4402
946.412	5826
946.503	6942
946.595	6168
946.687	4396
946.779	3933
946.870	4658
946.962	4514
947.054	4212
947.145	6045
947.237	4651
947.329	5401
947.420	5899
947.512	4449
947.603	3210
947.695	3675
947.786	4202
947.878	3374
947.969	5862
948.061	5334
948.152	4803
948.243	3625
948.335	3390
948.426	2994
948.517	5387
948.609	6210
948.700	5830
948.791	4621
948.882	3814
948.973	3202
949.065	4005
949.156	4571
949.247	3583
949.338	4301
949.429	2838
949.520	3348
949.611	3915
949.702	5176
949.793	3827
949.884	5042
949.975	3445
950.066	2398
950.157	3547
950.247	3937
950.338	4440
950.429	3223
950.520	3390
950.611	2458
950.701	4678
950.792	5806
950.883	4818
950.973	3626
951.064	5044
951.155	4637
951.245	4509
951.336	5022
951.427	5299
951.517	5963
951.608	4864
951.698	3236
951.788	3787
951.879	2603
951.969	3767
952.060	3325
952.150	3839
952.240	5074
952.331	3826
952.421	5580
952.511	2941
952.602	2456
952.692	2785
952.782	3144
952.872	3594
952.962	3796
953.052	3504
953.143	2353
953.233	4345
953.323	3952
953.413	3496
953.503	4020
953.593	3824
953.683	2855
953.773	2408
953.863	2681
953.953	2901
954.042	3320
954.132	3204
954.222	3283
954.312	2567
954.402	2647
954.492	3327
954.581	3718
954.671	4259
954.761	2963
954.850	5154
954.940	1837
955.030	2314
955.119	2183
955.209	2559
955.298	2568
955.388	3759
955.477	4771
955.567	2176
955.656	2649
955.746	3588
955.835	2343
955.925	3032
956.014	3810
956.103	3803
956.193	4870
956.282	4207
956.371	3459
956.461	3822
956.550	2795
956.639	3584
956.728	3048
956.817	3264
956.906	3140
956.995	4197
957.085	1839
957.174	3618
957.263	2496
957.352	2268
957.441	3080
957.530	4204
957.619	2356
957.708	3005
957.796	3041
957.885	2939
957.974	2316
958.063	3272
958.152	1458
958.241	2497
958.329	2134
958.418	2358
958.507	2236
958.596	4327
958.684	3182
958.773	3069
958.861	1764
958.950	2045
959.039	1919
959.127	1774
959.216	3669
959.304	2939
959.393	2660
959.481	3248
959.570	1656
959.658	1007
959.746	1357
959.835	2513
959.923	1519
960.011	2283
960.100	2463
960.188	3915
960.276	2800
960.365	2856
960.453	1713
960.541	1407
960.629	2576
960.717	1969
960.805	447
960.893	2081
960.981	1718
961.069	4600
961.158	3642
961.245	4898
961.333	3578
961.421	3117
961.509	2451
961.597	2861
961.685	1847
961.773	3599
961.861	3454
961.949	3404
962.036	1302
962.124	2530
962.212	1357
962.299	2223
962.387	862
962.475	2283
962.562	1908
962.650	3134
962.738	1944
962.825	1605
962.913	2113
963.000	1661
963.088	2937
963.175	2298
963.263	2032
963.350	2135
963.438	1707
963.525	1473
963.612	2158
963.700	1306
963.787	3197
963.874	2547
963.962	993
964.049	1606
964.136	1827
964.223	1273
964.310	1718
964.398	1960
964.485	901
964.572	2608
964.659	2415
964.746	1627
964.833	1489
964.920	1987
965.007	2092
965.094	1857
965.181	2059
965.268	3122
965.355	2263
965.441	2143
965.528	1095
965.615	3675
965.702	1818
965.789	1821
965.875	1919
965.962	2869
966.049	2020
966.136	3166
966.222	2852
966.309	3343
966.395	1874
966.482	2924
966.569	2237
966.655	1808
966.742	1773
966.828	2712
966.915	1581
967.001	2156
967.087	1190
967.174	1610
967.260	2530
967.347	2416
967.433	1601
967.519	1458
967.605	1729
967.692	2250
967.778	1876
967.864	2295
967.950	1883
968.036	1467
968.123	2807
968.209	2139
968.295	1294
968.381	2756
968.467	2040
968.553	602
968.639	2435
968.725	1225
968.811	2991
968.897	2437
968.983	982
969.069	1485
969.154	1876
969.240	2364
969.326	1437
969.412	1546
969.497	1473
969.583	1151
969.669	2776
969.755	2222
969.840	2557
969.926	4149
970.012	5212
970.097	6406
970.183	4075
970.268	3269
970.354	2285
970.439	994
970.525	2565
970.610	1835
970.696	2983
970.781	1758
970.866	205
970.952	2580
971.037	1713
971.122	2466
971.208	2088
971.293	2150
971.378	1043
971.463	2470
971.549	2184
971.634	1817
971.719	1546
971.804	1133
971.889	1974
971.974	1559
972.059	2010
972.144	1783
972.229	2097
972.314	1059
972.399	1600
972.484	2154
972.569	1749
972.654	697
972.739	2348
972.824	1185
972.908	1251
972.993	1389
973.078	1326
973.163	2099
973.247	2051
973.332	1068
973.417	3396
973.501	688
973.586	1348
973.671	1853
973.755	1385
973.840	2087
973.924	2841
974.009	3821
974.093	3560
974.178	3893
974.262	3083
974.346	2465
974.431	1490
974.515	2121
974.600	1800
974.684	2950
974.768	1672
974.852	3147
974.937	1465
975.021	1986
975.105	1290
975.189	1650
975.273	2207
975.358	1843
975.442	816
975.526	2521
975.610	1727
975.694	309
975.778	2256
975.862	1884
975.946	119
976.030	3158
976.114	-182
976.198	2017
976.281	1909
976.365	2610
976.449	2065
976.533	1780
976.617	995
976.700	1189
976.784	1583
976.868	670
976.951	2309
977.035	1633
977.119	1211
977.202	1997
977.286	1638
977.369	4632
977.453	4010
977.536	5061
977.620	2961
977.703	2671
977.787	1880
977.870	3612
977.953	3488
978.037	2186
978.120	3051
978.203	1722
978.287	2168
978.370	2579
978.453	937
978.536	2110
978.620	2583
978.703	2289
978.786	2002
978.869	2036
978.952	1011
979.035	5062
979.118	2677
979.201	1171
979.284	2311
979.367	2461
979.450	2945
979.533	1943
979.616	1811
979.699	1793
979.782	2521
979.865	2436
979.948	1529
980.030	1736
980.113	1338
980.196	1488
980.279	1415
980.361	2400
980.444	1150
980.526	3774
980.609	4142
980.692	5211
980.774	4270
980.857	2236
980.939	3475
981.022	2668
981.104	2387
981.187	2474
981.269	2300
981.352	2584
981.434	1994
981.516	2684
981.599	3086
981.681	1805
981.763	3066
981.846	3239
981.928	3202
982.010	2789
982.092	2177
982.174	3554
982.256	1998
982.339	3269
982.421	2000
982.503	2191
982.585	2044
982.667	2672
982.749	2638
982.831	2638
982.913	1777
982.995	3707
983.077	1742
983.158	3721
983.240	1526
983.322	5002
983.404	5482
983.486	4987
983.568	5090
983.649	4263
983.731	4573
983.813	3659
983.894	3070
983.976	3180
984.058	2953
984.139	4412
984.221	2136
984.302	3823
984.384	2905
984.465	2808
984.547	3841
984.628	2448
984.710	3255
984.791	3963
984.872	3310
984.954	2690
985.035	3439
985.116	2420
985.198	2895
985.279	4275
985.360	3154
985.441	3051
985.522	4216
985.604	3565
985.685	2061
985.766	4083
985.847	4354
985.928	2940
986.009	3162
986.090	3662
986.171	3401
986.252	3178
986.333	3412
986.414	4341
986.495	3351
986.576	4338
986.656	3614
986.737	3999
986.818	3542
986.899	4052
986.980	3765
987.060	4958
987.141	3260
987.222	5320
987.302	5257
987.383	6471
987.464	5686
987.544	5427
987.625	5499
987.705	5531
987.786	6391
987.866	4728
987.947	4301
988.027	5066
988.108	4792
988.188	5094
988.268	4017
988.349	5198
988.429	3711
988.509	3906
988.589	4432
988.670	2716
988.750	4812
988.830	4164
988.910	5278
988.990	4593
989.070	2989
989.151	3831
989.231	3210
989.311	4706
989.391	3648
989.471	4471
989.551	3560
989.631	3257
989.711	4438
989.791	3767
989.870	3344
989.950	5095
990.030	3617
990.110	3746
990.190	2439
990.269	2549
990.349	3708
990.429	3583
990.509	2996
990.588	2184
990.668	3850
990.747	2935
990.827	3185
990.907	3387
990.986	3631
991.066	3945
991.145	2315
991.225	4277
991.304	2924
991.383	3967
991.463	3457
991.542	3303
991.622	2891
991.701	2421
991.780	2114
991.859	2780
991.939	3172
992.018	3524
992.097	3440
992.176	2718
992.256	1715
992.335	2894
992.414	3571
992.493	2389
992.572	1833
992.651	3069
992.730	2810
992.809	2118
992.888	2030
992.967	3658
993.046	2687
993.125	948
993.203	2030
993.282	3113
993.361	2726
993.440	2096
993.519	1803
993.597	2101
993.676	2419
993.755	3472
993.834	2248
993.912	1730
993.991	2633
994.069	2476
994.148	2123
994.226	1682
994.305	1391
994.384	1728
994.462	3217
994.540	1133
994.619	655
994.697	2576
994.776	1747
994.854	2090
994.932	1144
995.011	2128
995.089	1392
995.167	1172
995.245	1614
995.324	1319
995.402	2657
995.480	1527
995.558	1313
995.636	1865
995.714	791
995.792	2826
995.870	1495
995.948	1491
996.026	1637
996.104	633
996.182	1247
996.260	1072
996.338	763
996.416	1189
996.494	1666
996.572	2609
996.649	676
996.727	561
996.805	1148
996.883	1930
996.960	1358
997.038	2119
997.116	1369
997.193	1579
997.271	1576
997.348	312
997.426	878
997.504	1739
997.581	1328
997.658	1918
997.736	-635
997.813	398
997.891	818
997.968	1045
998.046	436
998.123	692
998.200	1944
998.277	752
998.355	1763
998.432	-941
998.509	611
998.586	2122
998.663	867
998.741	599
998.818	595
998.895	683
998.972	817
999.049	1721
999.126	671
999.203	439
999.280	660
999.357	98
999.434	-12
999.511	716
999.587	1322
999.664	-438
999.741	894
999.818	1010
999.895	199
999.971	16
1000.048	1
1000.125	1483
1000.202	33
1000.278	153
1000.355	798
1000.431	126
1000.508	-119
1000.584	18
1000.661	1066
1000.738	-572
1000.814	-216
1000.890	1216
1000.967	155
1001.043	1297
1001.120	-711
1001.196	1692
1001.272	82
1001.349	-186
1001.425	538
1001.501	-792
1001.577	-125
1001.654	1080
1001.730	17
1001.806	176
1001.882	-449
1001.958	548
1002.034	995
1002.110	-253
1002.186	-1062
1002.262	-98
1002.338	-62
1002.414	747
1002.490	390
1002.566	-18
1002.642	-307
1002.718	407
1002.794	-185
1002.870	323
1002.945	-287
1003.021	249
1003.097	-432
1003.173	330
1003.248	-649
1003.324	846
1003.400	-321
1003.475	-1005
1003.551	11
1003.626	-773
1003.702	-849
1003.777	746
1003.853	-482
1003.928	47
1004.004	-791
1004.079	627
1004.155	280
1004.230	-254
1004.305	870
1004.381	-679
1004.456	-1085
1004.531	-528
1004.607	-308
1004.682	-224
1004.757	477
1004.832	-367
1004.907	-890
1004.982	-282
1005.057	-515
1005.133	-302
1005.208	11
1005.283	-884
1005.358	-310
1005.433	-1257
1005.508	-627
1005.583	-212
1005.657	7
1005.732	585
1005.807	-1213
1005.882	-423
1005.957	-643
1006.032	-161
1006.106	195
1006.181	-518
1006.256	-183
1006.331	-1061
1006.405	-1735
1006.480	261
1006.554	-146
1006.629	-99
1006.704	-1454
1006.778	-112
1006.853	-607
1006.927	-855
1007.002	-1122
1007.076	-624
1007.150	-637
1007.225	-132
1007.299	-1198
1007.373	-220
1007.448	-417
1007.522	-262
1007.596	-1216
1007.671	-1590
1007.745	-502
1007.819	-1339
1007.893	-632
1007.967	-244
1008.041	-1843
1008.115	282
1008.190	-691
1008.264	-406
1008.338	-1177
1008.412	-336
1008.486	-608
1008.560	-95
1008.633	-190
1008.707	-763
1008.781	708
1008.855	-702
1008.929	240
1009.003	-573
1009.076	-165
1009.150	-802
1009.224	-382
1009.298	325
1009.371	-2432
1009.445	-447
1009.519	-778
1009.592	-1484
1009.666	-1036
1009.739	-94
1009.813	-1117
1009.886	67
1009.960	-1217
1010.033	39
1010.107	-1196
1010.180	-1878
1010.253	-1142
1010.327	-1035
1010.400	-1841
1010.473	-364
1010.547	9
1010.620	-1385
1010.693	-449
1010.766	-394
1010.840	-857
1010.913	-132
1010.986	-1666
1011.059	-639
1011.132	-981
1011.205	-122
1011.278	-949
1011.351	-1122
1011.424	151
1011.497	-635
1011.570	-145
1011.643	-742
1011.716	-1189
1011.789	-805
1011.862	-1003
1011.934	-65
1012.007	-1445
1012.080	-892
1012.153	-784
1012.225	264
1012.298	-1401
1012.371	-1049
1012.443	-704
1012.516	-941
1012.588	-422
1012.661	-212
1012.733	-1073
1012.806	190
1012.879	-1390
1012.951	-1045
1013.023	-1469
1013.096	-734
1013.168	-1241
1013.241	-153
1013.313	-528
1013.385	-790
1013.458	-1399
1013.530	-536
1013.602	-1956
1013.674	-1083
1013.746	-1749
1013.819	-707
1013.891	-861
1013.963	-877
1014.035	-1480
1014.107	-724
1014.179	-771
1014.251	-1426
1014.323	-56
1014.395	-858
1014.467	-876
1014.539	-466
1014.611	-1747
1014.683	-828
1014.754	-1340
1014.826	-1186
1014.898	-696
1014.970	-623
1015.042	-478
1015.113	-668
1015.185	-1140
1015.257	-1908
1015.328	-95
1015.400	-1449
1015.471	-434
1015.543	-1532
1015.615	-1451
1015.686	459
1015.757	-644
1015.829	-442
1015.901	-1432
1015.972	-841
1016.043	-1282
1016.115	-520
1016.186	-947
1016.257	-482
1016.328	-480
1016.400	-707
1016.471	-1324
1016.542	-719
1016.613	-1454
1016.685	-1038
1016.756	-485
1016.827	-1234
1016.898	-1343
1016.969	-391
1017.040	-1766
1017.111	-839
1017.182	-858
1017.253	-783
1017.324	-1474
1017.395	-1275
1017.466	-547
1017.537	-715
1017.608	-1192
1017.678	-650
1017.749	-1904
1017.820	-480
1017.891	-1884
1017.961	-880
1018.032	-1938
1018.103	-191
1018.173	-1871
1018.244	-1462
1018.315	-1294
1018.385	-388
1018.456	-1261
1018.526	-1194
1018.597	-798
1018.667	-1110
1018.738	-741
1018.808	-1021
1018.878	-1601
1018.949	69
1019.019	-1230
1019.089	-1509
1019.160	-1667
1019.230	-399
1019.300	-983
1019.371	-1600
1019.441	-834
1019.511	-876
1019.581	-1726
1019.651	-1993
1019.721	-1109
1019.791	-1190
1019.861	-735
1019.931	-799
1020.001	-1021
1020.071	-762
1020.141	-1022
1020.211	-937
1020.281	-1683
1020.351	-975
1020.421	-1511
1020.491	-108
1020.560	-1373
1020.630	-370
1020.700	-778
1020.770	-1847
1020.839	-1942
1020.909	-1003
1020.979	-1603
1021.048	-967
1021.118	-1948
1021.187	-1599
1021.257	-847
1021.326	-1038
1021.396	-1030
1021.465	-454
1021.535	-1623
1021.604	-1067
1021.674	-1415
1021.743	-846
1021.812	-1505
1021.882	-837
1021.951	-1410
1022.020	-457
1022.089	-950
1022.159	-939
1022.228	-822
1022.297	-1494
1022.366	-1980
1022.435	-1953
1022.504	-1490
1022.573	-1969
1022.642	-1455
1022.711	-1474
1022.781	-586
1022.849	-696
1022.918	-1143
1022.987	-405
1023.056	-849
1023.125	-1661
1023.194	-2031
1023.263	-1587
1023.331	-1220
1023.400	-1664
1023.469	-1884
1023.538	-744
1023.606	-1063
1023.675	-339
1023.744	-1217
1023.812	-1978
1023.881	-1411
1023.949	-737
1024.018	-1998
1024.086	-1261
1024.155	-1308
1024.223	-1156
1024.292	-1687
1024.360	-871
1024.429	-1751
1024.497	-1123
1024.565	-2173
1024.634	-1590
1024.702	-1450
1024.770	-1368
1024.838	-2157
1024.907	-1253
1024.975	-1965
1025.043	-842
1025.111	-2553
1025.179	-1713
1025.247	-1261
1025.315	-1129
1025.383	-1084
1025.451	-1168
1025.519	-1394
1025.587	-1438
1025.655	-1077
1025.723	-1760
1025.791	-1948
1025.859	-1189
1025.927	-1457
1025.995	-930
1026.062	-948
1026.130	-1379
1026.198	-1821
1026.266	-1321
1026.333	-865
1026.401	-763
1026.469	-1621
1026.536	-577
1026.604	-1368
1026.671	-1392
1026.739	-1391
1026.806	-1070
1026.874	-1021
1026.941	-619
1027.009	-1695
1027.076	-1864
1027.144	-621
1027.211	-1022
1027.278	-1322
1027.345	-1212
1027.413	-1589
1027.480	-2010
1027.547	-2717
1027.614	-1236
1027.682	-1779
1027.749	-1617
1027.816	-2084
1027.883	-1024
1027.950	-790
1028.017	-1780
1028.084	-1135
1028.151	-1487
1028.218	-1196
1028.285	-550
1028.352	-2067
1028.419	-928
1028.486	-1429
1028.553	-1605
1028.619	-1724
1028.686	-835
1028.753	-1940
1028.820	-1311
1028.886	-1833
1028.953	-262
1029.020	-1863
1029.086	-693
1029.153	-1515
1029.220	-978
1029.286	-1006
1029.353	-949
1029.419	-1775
1029.486	-690
1029.552	-919
1029.619	-1373
1029.685	-1442
1029.751	-2539
1029.818	-1542
1029.884	-704
1029.951	-667
1030.017	-1732
1030.083	-1642
1030.149	-1100
1030.216	-1871
1030.282	-929
1030.348	-1782
1030.414	-1918
1030.480	-1814
1030.546	-1180
1030.612	-789
1030.678	-1899
1030.744	-1615
1030.810	-1188
1030.876	-1965
1030.942	-1830
1031.008	-1750
1031.074	-1626
1031.140	-1970
1031.206	-1840
1031.272	-1767
1031.337	-1558
1031.403	-1470
1031.469	-1370
1031.534	-2070
1031.600	-1223
1031.666	-1991
1031.731	-1481
1031.797	-1854
1031.863	-1361
1031.928	-1675
1031.994	-1304
1032.059	-1391
1032.125	-1729
1032.190	-1575
1032.256	-1825
1032.321	-1912
1032.386	-1965
1032.452	-1616
1032.517	-1321
1032.582	-1916
1032.647	-1322
1032.713	-1583
1032.778	-1664
1032.843	-1392
1032.908	-2027
1032.974	-1662
1033.039	-1493
1033.104	-1433
1033.169	-1723
1033.234	-1667
1033.299	-898
1033.364	-1836
1033.429	-1194
1033.494	-1820
1033.559	-1418
1033.624	-1465
1033.688	-532
1033.753	-1269
1033.818	32
1033.883	-1653
1033.948	-561
1034.013	-1281
1034.077	-142
1034.142	-298
1034.207	804
1034.271	804
1034.336	2886
1034.400	752
1034.465	347
1034.530	-1404
1034.594	-1787
1034.658	-1418
1034.723	-933
1034.787	-1221
1034.852	-1601
1034.916	-930
1034.981	-1518
1035.045	-1419
1035.109	-1534
1035.173	-1177
1035.238	-1281
1035.302	-1095
1035.366	-1612
1035.430	-1553
1035.495	-709
1035.559	-1277
1035.623	-993
1035.687	-1700
1035.751	-1134
1035.815	-1542
1035.879	-1297
1035.943	-1916
1036.007	-1873
1036.071	-1847
1036.135	-1139
1036.198	-1792
1036.262	-2011
1036.326	-1649
1036.390	-869
1036.454	-1084
1036.517	-1254
1036.581	-2287
1036.645	-1754
1036.709	-1181
1036.772	-1799
1036.836	-1070
1036.900	-438
1036.963	-2095
1037.026	-1720
1037.090	-1947
1037.154	-1259
1037.217	-2417
1037.280	-1483
1037.344	-1408
1037.407	-1475
1037.471	-2222
1037.534	-1855
1037.597	-2157
1037.661	-1148
1037.724	-1266
1037.787	-1481
1037.850	-2101
1037.913	-1357
1037.977	-1220
1038.040	-1418
1038.103	-2383
1038.166	-1756
1038.229	-1298
1038.292	-1767
1038.355	-2020
1038.418	-638
1038.481	-479
1038.544	-1624
1038.607	-1865
1038.670	-1150
1038.732	-1971
1038.795	-1952
1038.858	-1983
1038.921	-897
1038.984	-1546
1039.046	-1002
1039.109	-1943
1039.172	-1714
1039.234	-2229
1039.297	-1355
1039.360	-2261
1039.422	-1433
1039.485	-2170
1039.547	-1014
1039.610	-1296
1039.672	-1224
1039.734	-1706
1039.797	-1738
1039.859	-1648
1039.922	-1810
1039.984	-1855
1040.046	-1127
1040.109	-1665
1040.171	-1195
1040.233	-1287
1040.295	-1544
1040.358	-1740
1040.420	-1269
1040.482	-1600
1040.544	-1594
1040.606	-759
1040.668	-2184
1040.730	-1269
1040.792	-1398
1040.854	-1423
1040.916	-1911
1040.978	-1521
1041.040	-1078
1041.102	-1716
1041.164	-2034
1041.225	-1568
1041.287	-1178
1041.349	-1491
1041.411	-1911
1041.472	-1691
1041.534	-1670
1041.596	-1786
1041.657	-1443
1041.719	-1695
1041.781	-908
1041.842	-1702
1041.904	-2138
1041.965	-1676
1042.027	-1368
1042.088	-2475
1042.150	-1387
1042.211	-1005
1042.272	-1292
1042.334	-1793
1042.395	-1609
1042.456	-2015
1042.518	-1463
1042.579	-1352
1042.640	-1054
1042.701	-1769
1042.763	-1627
1042.824	-2749
1042.885	-2209
1042.946	-1681
1043.007	-1818
1043.068	-1531
1043.129	-1420
1043.190	-1471
1043.251	-1195
1043.312	-2090
1043.373	-1606
1043.434	-1723
1043.495	-2011
1043.556	-2055
1043.616	-1893
1043.677	-1742
1043.738	-1594
1043.799	-2227
1043.859	-1314
1043.920	-2117
1043.981	-1469
1044.041	-1854
1044.102	-2021
1044.162	-1617
1044.223	-1394
1044.284	-1698
1044.344	-885
1044.405	-1116
1044.465	-831
1044.525	-1801
1044.586	-1396
1044.646	-1952
1044.707	-1103
1044.767	-1260
1044.827	-595
1044.887	-1709
1044.948	-1872
1045.008	-2375
1045.068	-1435
1045.128	-1636
1045.188	-1462
1045.249	-827
1045.309	-326
1045.369	-1576
1045.429	-1266
1045.489	-1872
1045.549	-1648
1045.609	-1317
1045.669	-838
1045.729	-882
1045.789	-1629
1045.848	-2160
1045.908	-896
1045.968	-575
1046.028	-790
1046.088	-1066
1046.147	-465
1046.207	-926
1046.267	-616
1046.326	-1076
1046.386	-680
1046.446	-934
1046.505	-969
1046.565	-660
1046.624	-272
1046.684	-732
1046.743	-137
1046.803	-674
1046.862	-336
1046.922	0
